rt,responses,trial_type,time_elapsed,identifier_a,identifier_b,identifier_c,tasktype,browser_type,local_time,UTC_time,stimulus,button_pressed,response,key_press,failed_practice,stimulus_left,stimulus_right,accuracy,practice_cumulative_accuracy,stimulus_down_left,stimulus_down_mid,stimulus_down_right,stimulus_correct,prac_weighted_accuracy,cumulative_accuracy,weighted_accuracy,stimulus_middle,problems,smooth,distraction,strategies,easier,similar,comments
27684.5,{worker_id:67e7078d3984a98d4358f330},id_enter,27692,object_06c.png; object_15b.png; object_14a.png; object_12b.png; object_12c.png; object_07a.png; object_09c.png; object_10b.png; object_11a.png; object_01a.png; object_05c.png; object_12a.png; object_02c.png; object_11b.png; object_13b.png,object_15c.png; object_14c.png; object_03a.png; object_02b.png; object_14b.png; object_05b.png; object_04a.png; object_07b.png; object_03b.png; object_08b.png; object_10c.png; object_04b.png; object_08c.png; object_09a.png; object_13a.png,object_03c.png; object_07c.png; object_09b.png; object_15a.png; object_02a.png; object_01c.png; object_13c.png; object_01b.png; object_04c.png; object_05a.png; object_08a.png; object_10a.png; object_06a.png; object_06b.png; object_11c.png,blocked,Mozilla/5.0 (Windows NT 10.0; Win64; x64) AppleWebKit/537.36 (KHTML, like Gecko) Chrome/134.0.0.0 Safari/537.36,5/8/2025, 7:27:23 PM,2025-05-09 00:27:23.620,,,,,,,,,,,,,,,,,,,,,,,,
17608.39999999106,,make_fullscreen,45338,,,,,,,,fullscreen,0,,,,,,,,,,,,,,,,,,,,,,
4889.79999999702,,instruct_1,50232,,,,,,,,instruct,0,Next,,,,,,,,,,,,,,,,,,,,,
15162.70000000298,,instruct_2,65399,,,,,,,,instruct,0,Previous,,,,,,,,,,,,,,,,,,,,,
2085.8999999910593,,instruct_1,67488,,,,,,,,instruct,0,Next,,,,,,,,,,,,,,,,,,,,,
2940.7000000029802,,instruct_2,70431,,,,,,,,instruct,1,Next,,,,,,,,,,,,,,,,,,,,,
7722.79999999702,,instruct_3,78156,,,,,,,,instruct,1,Next,,,,,,,,,,,,,,,,,,,,,
5199,,instruct_4,83357,,,,,,,,instruct,1,Next,,,,,,,,,,,,,,,,,,,,,
12579.60000000894,,instruct_5,95940,,,,,,,,instruct,1,Next,,,,,,,,,,,,,,,,,,,,,
3204.8999999910593,,instruct_6,99148,,,,,,,,instruct,1,Next,,,,,,,,,,,,,,,,,,,,,
20217.80000001192,,instruct_7,119370,,,,,,,,instruct,1,Next,,,,,,,,,,,,,,,,,,,,,
null,,prac_atten_color_black,120041,,,,,,,,black_plus_sign,,,null,,,,,,,,,,,,,,,,,,,,
null,,prac_atten_color,120779,,,,,,,,<p style='position:absolute;top: 50%;right: 50%;transform: translate(50%, -50%);font-size: 125px;color: blue;'>+</p>,,,null,,,,,,,,,,,,,,,,,,,,
null,,prac_atten_color_black,122782,,,,,,,,black_plus_sign,,,null,,,,,,,,,,,,,,,,,,,,
11283.79999999702,,attentioncheck_help,134069,,,,,,,,instruct,,,32,,,,,,,,,,,,,,,,,,,,
null,,prac_atten_color_black,134739,,,,,,,,black_plus_sign,,,null,,,,,,,,,,,,,,,,,,,,
null,,prac_atten_color,135589,,,,,,,,<p style='position:absolute;top: 50%;right: 50%;transform: translate(50%, -50%);font-size: 125px;color: green;'>+</p>,,,null,,,,,,,,,,,,,,,,,,,,
null,,prac_atten_color_black,137592,,,,,,,,black_plus_sign,,,null,,,,,,,,,,,,,,,,,,,,
4158.699999988079,,attentioncheck_help,141756,,,,,,,,instruct,,,32,,,,,,,,,,,,,,,,,,,,
null,,prac_atten_color_black,142311,,,,,,,,black_plus_sign,,,null,,,,,,,,,,,,,,,,,,,,
null,,prac_atten_color,142943,,,,,,,,<p style='position:absolute;top: 50%;right: 50%;transform: translate(50%, -50%);font-size: 125px;color: green;'>+</p>,,,null,,,,,,,,,,,,,,,,,,,,
null,,prac_atten_color_black,144946,,,,,,,,black_plus_sign,,,null,,,,,,,,,,,,,,,,,,,,
5323.20000000298,,attentioncheck_help,150272,,,,,,,,instruct,,,32,,,,,,,,,,,,,,,,,,,,
null,,prac_atten_color_black,151048,,,,,,,,black_plus_sign,,,null,,,,,,,,,,,,,,,,,,,,
null,,prac_atten_color,152101,,,,,,,,<p style='position:absolute;top: 50%;right: 50%;transform: translate(50%, -50%);font-size: 125px;color: blue;'>+</p>,,,null,,,,,,,,,,,,,,,,,,,,
null,,prac_atten_color_black,154104,,,,,,,,black_plus_sign,,,null,,,,,,,,,,,,,,,,,,,,
1997.199999988079,,attentioncheck_help,156105,,,,,,,,instruct,,,32,,,,,,,,,,,,,,,,,,,,
null,,prac_atten_color_black,156459,,,,,,,,black_plus_sign,,,null,,,,,,,,,,,,,,,,,,,,
null,,prac_atten_color,157545,,,,,,,,<p style='position:absolute;top: 50%;right: 50%;transform: translate(50%, -50%);font-size: 125px;color: green;'>+</p>,,,null,,,,,,,,,,,,,,,,,,,,
null,,prac_atten_color_black,159549,,,,,,,,black_plus_sign,,,null,,,,,,,,,,,,,,,,,,,,
1535,,attentioncheck_help,161089,,,,,,,,instruct,,,32,,,,,,,,,,,,,,,,,,,,
null,,prac_atten_color_black,161407,,,,,,,,black_plus_sign,,,null,,,,,,,,,,,,,,,,,,,,
null,,prac_atten_color,161898,,,,,,,,<p style='position:absolute;top: 50%;right: 50%;transform: translate(50%, -50%);font-size: 125px;color: green;'>+</p>,,,null,,,,,,,,,,,,,,,,,,,,
null,,prac_atten_color_black,163899,,,,,,,,black_plus_sign,,,null,,,,,,,,,,,,,,,,,,,,
1387.2000000029802,,attentioncheck_help,165290,,,,,,,,instruct,,,32,,,,,,,,,,,,,,,,,,,,
null,,prac_atten_color_black,166206,,,,,,,,black_plus_sign,,,null,,,,,,,,,,,,,,,,,,,,
null,,prac_atten_color,166649,,,,,,,,<p style='position:absolute;top: 50%;right: 50%;transform: translate(50%, -50%);font-size: 125px;color: blue;'>+</p>,,,null,,,,,,,,,,,,,,,,,,,,
null,,prac_atten_color_black,168652,,,,,,,,black_plus_sign,,,null,,,,,,,,,,,,,,,,,,,,
1362.5,,attentioncheck_help,170018,,,,,,,,instruct,,,32,,,,,,,,,,,,,,,,,,,,
null,,prac_atten_color_black,170982,,,,,,,,black_plus_sign,,,null,,,,,,,,,,,,,,,,,,,,
null,,prac_atten_color,171472,,,,,,,,<p style='position:absolute;top: 50%;right: 50%;transform: translate(50%, -50%);font-size: 125px;color: green;'>+</p>,,,null,,,,,,,,,,,,,,,,,,,,
1357.2000000029802,,prac_atten_color_black,173475,,,,,,,,black_plus_sign,,,50,,,,,,,,,,,,,,,,,,,,
null,,prac_atten_color_black,174406,,,,,,,,black_plus_sign,,,null,,,,,,,,,,,,,,,,,,,,
444.40000000596046,,prac_atten_color,175009,,,,,,,,<p style='position:absolute;top: 50%;right: 50%;transform: translate(50%, -50%);font-size: 125px;color: blue;'>+</p>,,,50,,,,,,,,,,,,,,,,,,,,
null,,prac_atten_color_black,177013,,,,,,,,black_plus_sign,,,null,,,,,,,,,,,,,,,,,,,,
16124.40000000596,,attentioncheck_help,193138,,,,,,,,instruct,,,32,,,,,,,,,,,,,,,,,,,,
null,,prac_atten_color_black,193943,,,,,,,,black_plus_sign,,,null,,,,,,,,,,,,,,,,,,,,
null,,prac_atten_color,194459,,,,,,,,<p style='position:absolute;top: 50%;right: 50%;transform: translate(50%, -50%);font-size: 125px;color: blue;'>+</p>,,,null,,,,,,,,,,,,,,,,,,,,
731.7000000029802,,prac_atten_color_black,196460,,,,,,,,black_plus_sign,,,49,,,,,,,,,,,,,,,,,,,,
13167.199999988079,,attentioncheck_feedback,209632,,,,,,,,cross_check_feedback,0,,,1,,,,,,,,,,,,,,,,,,,
null,,prac_atten_color_black,210607,,,,,,,,black_plus_sign,,,null,,,,,,,,,,,,,,,,,,,,
null,,prac_atten_color,211039,,,,,,,,<p style='position:absolute;top: 50%;right: 50%;transform: translate(50%, -50%);font-size: 125px;color: blue;'>+</p>,,,null,,,,,,,,,,,,,,,,,,,,
209.40000000596046,,prac_atten_color_black,213042,,,,,,,,black_plus_sign,,,49,,,,,,,,,,,,,,,,,,,,
null,,prac_atten_color_black,214018,,,,,,,,black_plus_sign,,,null,,,,,,,,,,,,,,,,,,,,
null,,prac_atten_color,214711,,,,,,,,<p style='position:absolute;top: 50%;right: 50%;transform: translate(50%, -50%);font-size: 125px;color: green;'>+</p>,,,null,,,,,,,,,,,,,,,,,,,,
109.20000000298023,,prac_atten_color_black,216714,,,,,,,,black_plus_sign,,,50,,,,,,,,,,,,,,,,,,,,
null,,prac_atten_color_black,217430,,,,,,,,black_plus_sign,,,null,,,,,,,,,,,,,,,,,,,,
571.0999999940395,,prac_atten_color,218517,,,,,,,,<p style='position:absolute;top: 50%;right: 50%;transform: translate(50%, -50%);font-size: 125px;color: green;'>+</p>,,,50,,,,,,,,,,,,,,,,,,,,
null,,prac_atten_color_black,220520,,,,,,,,black_plus_sign,,,null,,,,,,,,,,,,,,,,,,,,
null,,prac_atten_color_black,220843,,,,,,,,black_plus_sign,,,null,,,,,,,,,,,,,,,,,,,,
714.3999999910593,,prac_atten_color,221702,,,,,,,,<p style='position:absolute;top: 50%;right: 50%;transform: translate(50%, -50%);font-size: 125px;color: blue;'>+</p>,,,49,,,,,,,,,,,,,,,,,,,,
null,,prac_atten_color_black,223704,,,,,,,,black_plus_sign,,,null,,,,,,,,,,,,,,,,,,,,
null,,prac_atten_color_black,224252,,,,,,,,black_plus_sign,,,null,,,,,,,,,,,,,,,,,,,,
null,,prac_atten_color,224692,,,,,,,,<p style='position:absolute;top: 50%;right: 50%;transform: translate(50%, -50%);font-size: 125px;color: green;'>+</p>,,,null,,,,,,,,,,,,,,,,,,,,
102.3999999910593,,prac_atten_color_black,226694,,,,,,,,black_plus_sign,,,50,,,,,,,,,,,,,,,,,,,,
null,,prac_atten_color_black,227661,,,,,,,,black_plus_sign,,,null,,,,,,,,,,,,,,,,,,,,
null,,prac_atten_color,228120,,,,,,,,<p style='position:absolute;top: 50%;right: 50%;transform: translate(50%, -50%);font-size: 125px;color: green;'>+</p>,,,null,,,,,,,,,,,,,,,,,,,,
117.20000000298023,,prac_atten_color_black,230123,,,,,,,,black_plus_sign,,,50,,,,,,,,,,,,,,,,,,,,
null,,prac_atten_color_black,231075,,,,,,,,black_plus_sign,,,null,,,,,,,,,,,,,,,,,,,,
419.6000000089407,,prac_atten_color,231992,,,,,,,,<p style='position:absolute;top: 50%;right: 50%;transform: translate(50%, -50%);font-size: 125px;color: blue;'>+</p>,,,49,,,,,,,,,,,,,,,,,,,,
null,,prac_atten_color_black,233994,,,,,,,,black_plus_sign,,,null,,,,,,,,,,,,,,,,,,,,
null,,prac_atten_color_black,234483,,,,,,,,black_plus_sign,,,null,,,,,,,,,,,,,,,,,,,,
862,,prac_atten_color,235423,,,,,,,,<p style='position:absolute;top: 50%;right: 50%;transform: translate(50%, -50%);font-size: 125px;color: green;'>+</p>,,,50,,,,,,,,,,,,,,,,,,,,
null,,prac_atten_color_black,237425,,,,,,,,black_plus_sign,,,null,,,,,,,,,,,,,,,,,,,,
null,,prac_atten_color_black,237890,,,,,,,,black_plus_sign,,,null,,,,,,,,,,,,,,,,,,,,
null,,prac_atten_color,238362,,,,,,,,<p style='position:absolute;top: 50%;right: 50%;transform: translate(50%, -50%);font-size: 125px;color: blue;'>+</p>,,,null,,,,,,,,,,,,,,,,,,,,
305.09999999403954,,prac_atten_color_black,240366,,,,,,,,black_plus_sign,,,49,,,,,,,,,,,,,,,,,,,,
null,,prac_atten_color_black,241301,,,,,,,,black_plus_sign,,,null,,,,,,,,,,,,,,,,,,,,
829.2999999970198,,prac_atten_color,242218,,,,,,,,<p style='position:absolute;top: 50%;right: 50%;transform: translate(50%, -50%);font-size: 125px;color: blue;'>+</p>,,,49,,,,,,,,,,,,,,,,,,,,
null,,prac_atten_color_black,244221,,,,,,,,black_plus_sign,,,null,,,,,,,,,,,,,,,,,,,,
11652.300000011921,,attentioncheck_feedback,255875,,,,,,,,cross_check_feedback,0,,,,,,,,,,,,,,,,,,,,,,
9184.60000000894,,last_instruct,265063,,,,,,,,instruct,,,32,,,,,,,,,,,,,,,,,,,,
null,,prac_learn_phase(without_color),268566,,,,,,,,black_plus_sign,,,null,,object_10b.png,object_07b.png,,,,,,,,,,,,,,,,,
null,,prac_black_cross(without_color),269204,,,,,,,,blue,,,null,,object_10b.png,object_07b.png,,,,,,,,,,,,,,,,,
null,,prac_rt_plussign_withcolor,269707,,,,,,,,blue,,,null,,object_10b.png,object_07b.png,,,,,,,,,,,,,,,,,
1104.7999999970198,,prac_rt_thecrossant_black,271079,,,,,,,,black_plus_sign,,,49,,,,1,1,,,,,,,,,,,,,,,
null,,prac_color_black,271183,,,,,,,,black_plus_sign,,,null,,,,,,,,,,,,,,,,,,,,
null,,prac_learn_phase(without_color),274689,,,,,,,,black_plus_sign,,,null,,object_02b.png,object_12b.png,,,,,,,,,,,,,,,,,
null,,black_cross(without_color)1,275220,,,,,,,,blue,,,null,,object_10b.png,object_07b.png,,,,,,,,,,,,,,,,,
null,,prac_rt_plussign_withcolor,275723,,,,,,,,blue,,,null,,object_02b.png,object_12b.png,,,,,,,,,,,,,,,,,
1045.7000000029802,,prac_rt_thecrossant_black,277058,,,,,,,,black_plus_sign,,,49,,,,1,1,,,,,,,,,,,,,,,
null,,prac_color_black,277163,,,,,,,,black_plus_sign,,,null,,,,,,,,,,,,,,,,,,,,
null,,prac_learn_phase(without_color),280667,,,,,,,,black_plus_sign,,,null,,object_12c.png,object_14b.png,,,,,,,,,,,,,,,,,
null,,black_cross(without_color)1,281199,,,,,,,,blue,,,null,,object_10b.png,object_07b.png,,,,,,,,,,,,,,,,,
null,,prac_rt_plussign_withcolor,281701,,,,,,,,blue,,,null,,object_12c.png,object_14b.png,,,,,,,,,,,,,,,,,
829.1000000089407,,prac_rt_thecrossant_black,283166,,,,,,,,black_plus_sign,,,49,,,,1,1,,,,,,,,,,,,,,,
null,,prac_color_black,283270,,,,,,,,black_plus_sign,,,null,,,,,,,,,,,,,,,,,,,,
null,,prac_learn_phase(without_color),286776,,,,,,,,black_plus_sign,,,null,,object_14a.png,object_03a.png,,,,,,,,,,,,,,,,,
null,,black_cross(without_color)1,287307,,,,,,,,blue,,,null,,object_10b.png,object_07b.png,,,,,,,,,,,,,,,,,
384.90000000596046,,prac_rt_plussign_withcolor,287809,,,,,,,,blue,,,49,,object_14a.png,object_03a.png,,,,,,,,,,,,,,,,,
null,,prac_rt_thecrossant_black,289325,,,,,,,,black_plus_sign,,,null,,,,1,1,,,,,,,,,,,,,,,
null,,prac_color_black,289429,,,,,,,,black_plus_sign,,,null,,,,,,,,,,,,,,,,,,,,
7253.699999988079,,instruct_dir_01,296687,,,,,,,,instruct,0,Next,,,,,,,,,,,,,,,,,,,,,
30533.79999999702,,instruct_dir_2,327225,,,,,,,,instruct,1,Next,,,,,,,,,,,,,,,,,,,,,
8090.300000011921,,instruct_dir_3,335318,,,,,,,,instruct,1,Next,,,,,,,,,,,,,,,,,,,,,
40775.29999999702,,instruct_dir_4,376097,,,,,,,,instruct,1,Start,,,,,,,,,,,,,,,,,,,,,
null,,thebreak,376200,,,,,,,,<p></p>,,,null,,,,,,,,,,,,,,,,,,,,
12496.79999999702,,intro_0,388699,,,,,,,,instruct,,,32,,,,,,,,,,,,,,,,,,,,
8643.699999988079,,prac_directmemory_phase,397346,,,,,,,,practice/object_03a.png,,,50,,,,0,,practice/object_03b.png,practice/object_01b.png,practice/object_01a.png,practice/object_03b.png,0,0,,,,,,,,,
4863.699999988079,,prac_directmemory_phase,402212,,,,,,,,practice/object_04a.png,,,51,,,,0,,practice/object_01a.png,practice/object_04b.png,practice/object_02b.png,practice/object_04b.png,0,0,,,,,,,,,
5110.5,,prac_directmemory_phase,407325,,,,,,,,practice/object_02a.png,,,49,,,,1,,practice/object_02b.png,practice/object_04b.png,practice/object_03a.png,practice/object_02b.png,1,0.3333333333333333,,,,,,,,,
4339.5,,prac_directmemory_phase,411666,,,,,,,,practice/object_01a.png,,,49,,,,0,,practice/object_04b.png,practice/object_03a.png,practice/object_01b.png,practice/object_01b.png,0,0.25,,,,,,,,,
5858.699999988079,,practice_feedback_force_restart,417530,,,,,,,,practice_feedback,0,,,1,,,,,,,,,,,,,,,,,,,
2378.5,,last_instruct,419911,,,,,,,,instruct,,,32,,,,,,,,,,,,,,,,,,,,
null,,prac_learn_phase(without_color),423414,,,,,,,,black_plus_sign,,,null,,object_10b.png,object_07b.png,,,,,,,,,,,,,,,,,
null,,prac_black_cross(without_color),423860,,,,,,,,blue,,,null,,object_10b.png,object_07b.png,,,,,,,,,,,,,,,,,
null,,prac_rt_plussign_withcolor,424363,,,,,,,,blue,,,null,,object_10b.png,object_07b.png,,,,,,,,,,,,,,,,,
null,,prac_rt_thecrossant_black,425925,,,,,,,,black_plus_sign,,,null,,,,,1,,,,,,,,,,,,,,,
null,,prac_color_black,426028,,,,,,,,black_plus_sign,,,null,,,,,,,,,,,,,,,,,,,,
null,,prac_learn_phase(without_color),429533,,,,,,,,black_plus_sign,,,null,,object_02b.png,object_12b.png,,,,,,,,,,,,,,,,,
null,,black_cross(without_color)1,430063,,,,,,,,blue,,,null,,object_10b.png,object_07b.png,,,,,,,,,,,,,,,,,
null,,prac_rt_plussign_withcolor,430565,,,,,,,,blue,,,null,,object_02b.png,object_12b.png,,,,,,,,,,,,,,,,,
null,,prac_rt_thecrossant_black,432159,,,,,,,,black_plus_sign,,,null,,,,,1,,,,,,,,,,,,,,,
null,,warning_page,437163,,,,,,,,warning,,,null,,,,,,,,,,,,,,,,,,,,
null,,prac_color_black,437266,,,,,,,,black_plus_sign,,,null,,,,,,,,,,,,,,,,,,,,
null,,prac_learn_phase(without_color),440771,,,,,,,,black_plus_sign,,,null,,object_12c.png,object_14b.png,,,,,,,,,,,,,,,,,
null,,black_cross(without_color)1,441302,,,,,,,,blue,,,null,,object_10b.png,object_07b.png,,,,,,,,,,,,,,,,,
null,,prac_rt_plussign_withcolor,441804,,,,,,,,blue,,,null,,object_12c.png,object_14b.png,,,,,,,,,,,,,,,,,
781,,prac_rt_thecrossant_black,442881,,,,,,,,black_plus_sign,,,49,,,,1,1,,,,,,,,,,,,,,,
null,,prac_color_black,442984,,,,,,,,black_plus_sign,,,null,,,,,,,,,,,,,,,,,,,,
null,,prac_learn_phase(without_color),446488,,,,,,,,black_plus_sign,,,null,,object_14a.png,object_03a.png,,,,,,,,,,,,,,,,,
null,,black_cross(without_color)1,447019,,,,,,,,blue,,,null,,object_10b.png,object_07b.png,,,,,,,,,,,,,,,,,
null,,prac_rt_plussign_withcolor,447521,,,,,,,,blue,,,null,,object_14a.png,object_03a.png,,,,,,,,,,,,,,,,,
1164,,prac_rt_thecrossant_black,448625,,,,,,,,black_plus_sign,,,49,,,,1,1,,,,,,,,,,,,,,,
null,,prac_color_black,448728,,,,,,,,black_plus_sign,,,null,,,,,,,,,,,,,,,,,,,,
4768.20000000298,,instruct_dir_01,453499,,,,,,,,instruct,0,Next,,,,,,,,,,,,,,,,,,,,,
1911.5,,instruct_dir_2,455414,,,,,,,,instruct,1,Next,,,,,,,,,,,,,,,,,,,,,
11994.40000000596,,instruct_dir_3,467412,,,,,,,,instruct,1,Next,,,,,,,,,,,,,,,,,,,,,
14356,,instruct_dir_4,481770,,,,,,,,instruct,1,Start,,,,,,,,,,,,,,,,,,,,,
null,,thebreak,481872,,,,,,,,<p></p>,,,null,,,,,,,,,,,,,,,,,,,,
1794.5999999940395,,intro_0,483668,,,,,,,,instruct,,,32,,,,,,,,,,,,,,,,,,,,
4015.5,,prac_directmemory_phase,487686,,,,,,,,practice/object_03a.png,,,49,,,,1,,practice/object_03b.png,practice/object_01b.png,practice/object_01a.png,practice/object_03b.png,1,1,,,,,,,,,
3428.6000000089407,,prac_directmemory_phase,491119,,,,,,,,practice/object_04a.png,,,50,,,,1,,practice/object_01a.png,practice/object_04b.png,practice/object_02b.png,practice/object_04b.png,1,1,,,,,,,,,
2829.1000000089407,,prac_directmemory_phase,493952,,,,,,,,practice/object_02a.png,,,49,,,,1,,practice/object_02b.png,practice/object_04b.png,practice/object_03a.png,practice/object_02b.png,1,1,,,,,,,,,
3410.3999999910593,,prac_directmemory_phase,497364,,,,,,,,practice/object_01a.png,,,51,,,,1,,practice/object_04b.png,practice/object_03a.png,practice/object_01b.png,practice/object_01b.png,1,1,,,,,,,,,
3354.2999999970198,,practice_feedback,500722,,,,,,,,practice_feedback,1,,,,,,,,,,,,,,,,,,,,,,
10340.70000000298,,proceed_actualTask,511066,,,,,,,,proceed_actualTask,1,Continue,,,,,,,,,,,,,,,,,,,,,
15832.699999988079,,last_inst,526901,,,,,,,,last_inst,,,32,,,,,,,,,,,,,,,,,,,,
null,,learn_phase(without_color)1,530405,,,,,,,,black_plus_sign,,,null,,object_10b.png,object_07b.png,,,,,,,,,,,,,,,,,
null,,black_cross(without_color)1,530936,,,,,,,,blue,,,null,,object_10b.png,object_07b.png,,,,,,,,,,,,,,,,,
434,,rt_plussign_withcolor1,531439,,,,,,,,blue,,,49,,object_10b.png,object_07b.png,,,,,,,,,,,,,,,,,
null,,rt_thecrossant_black1,532915,,,,,,,,black_plus_sign,,,null,,,,1,,,,,,,1,,,,,,,,,
null,,color_black1,533020,,,,,,,,black_plus_sign,,,null,,,,,,,,,,,,,,,,,,,,
null,,learn_phase(without_color)1,536525,,,,,,,,black_plus_sign,,,null,,object_02b.png,object_12b.png,,,,,,,,,,,,,,,,,
null,,black_cross(without_color)1,537298,,,,,,,,green,,,null,,object_02b.png,object_12b.png,,,,,,,,,,,,,,,,,
375.20000000298023,,rt_plussign_withcolor1,537801,,,,,,,,green,,,49,,object_02b.png,object_12b.png,,,,,,,,,,,,,,,,,
null,,rt_thecrossant_black1,539035,,,,,,,,black_plus_sign,,,50,,,,0,,,,,,,0.5,,,,,,,,,
null,,color_black1,539140,,,,,,,,black_plus_sign,,,null,,,,,,,,,,,,,,,,,,,,
null,,learn_phase(without_color)1,542644,,,,,,,,black_plus_sign,,,null,,object_12c.png,object_14b.png,,,,,,,,,,,,,,,,,
null,,black_cross(without_color)1,543608,,,,,,,,blue,,,null,,object_12c.png,object_14b.png,,,,,,,,,,,,,,,,,
468.40000000596046,,rt_plussign_withcolor1,544110,,,,,,,,blue,,,49,,object_12c.png,object_14b.png,,,,,,,,,,,,,,,,,
null,,rt_thecrossant_black1,545155,,,,,,,,black_plus_sign,,,null,,,,1,,,,,,,0.6666666666666666,,,,,,,,,
null,,color_black1,545260,,,,,,,,black_plus_sign,,,null,,,,,,,,,,,,,,,,,,,,
null,,learn_phase(without_color)1,548764,,,,,,,,black_plus_sign,,,null,,object_14a.png,object_03a.png,,,,,,,,,,,,,,,,,
null,,black_cross(without_color)1,549822,,,,,,,,green,,,null,,object_14a.png,object_03a.png,,,,,,,,,,,,,,,,,
415.09999999403954,,rt_plussign_withcolor1,550324,,,,,,,,green,,,50,,object_14a.png,object_03a.png,,,,,,,,,,,,,,,,,
null,,rt_thecrossant_black1,551273,,,,,,,,black_plus_sign,,,null,,,,1,,,,,,,0.75,,,,,,,,,
null,,color_black1,551378,,,,,,,,black_plus_sign,,,null,,,,,,,,,,,,,,,,,,,,
null,,learn_phase(without_color)1,554883,,,,,,,,black_plus_sign,,,null,,object_15b.png,object_14c.png,,,,,,,,,,,,,,,,,
null,,black_cross(without_color)1,555589,,,,,,,,green,,,null,,object_15b.png,object_14c.png,,,,,,,,,,,,,,,,,
null,,rt_plussign_withcolor1,556091,,,,,,,,green,,,null,,object_15b.png,object_14c.png,,,,,,,,,,,,,,,,,
1211.7999999970198,,rt_thecrossant_black1,557394,,,,,,,,black_plus_sign,,,50,,,,1,,,,,,,0.8,,,,,,,,,
null,,color_black1,557500,,,,,,,,black_plus_sign,,,null,,,,,,,,,,,,,,,,,,,,
null,,learn_phase(without_color)1,561006,,,,,,,,black_plus_sign,,,null,,object_11a.png,object_03b.png,,,,,,,,,,,,,,,,,
null,,black_cross(without_color)1,561671,,,,,,,,blue,,,null,,object_11a.png,object_03b.png,,,,,,,,,,,,,,,,,
null,,rt_plussign_withcolor1,562174,,,,,,,,blue,,,null,,object_11a.png,object_03b.png,,,,,,,,,,,,,,,,,
805.6999999880791,,rt_thecrossant_black1,563515,,,,,,,,black_plus_sign,,,49,,,,1,,,,,,,0.8333333333333334,,,,,,,,,
null,,color_black1,563619,,,,,,,,black_plus_sign,,,null,,,,,,,,,,,,,,,,,,,,
null,,learn_phase(without_color)1,567125,,,,,,,,black_plus_sign,,,null,,object_07a.png,object_05b.png,,,,,,,,,,,,,,,,,
null,,black_cross(without_color)1,567720,,,,,,,,green,,,null,,object_07a.png,object_05b.png,,,,,,,,,,,,,,,,,
435.09999999403954,,rt_plussign_withcolor1,568224,,,,,,,,green,,,50,,object_07a.png,object_05b.png,,,,,,,,,,,,,,,,,
null,,rt_thecrossant_black1,569635,,,,,,,,black_plus_sign,,,null,,,,1,,,,,,,0.8571428571428571,,,,,,,,,
null,,color_black1,569739,,,,,,,,black_plus_sign,,,null,,,,,,,,,,,,,,,,,,,,
null,,learn_phase(without_color)1,573245,,,,,,,,black_plus_sign,,,null,,object_10c.png,object_05c.png,,,,,,,,,,,,,,,,,
null,,black_cross(without_color)1,573987,,,,,,,,green,,,null,,object_10c.png,object_05c.png,,,,,,,,,,,,,,,,,
null,,rt_plussign_withcolor1,574489,,,,,,,,green,,,null,,object_10c.png,object_05c.png,,,,,,,,,,,,,,,,,
796.4000000059605,,rt_thecrossant_black1,575754,,,,,,,,black_plus_sign,,,50,,,,1,,,,,,,0.875,,,,,,,,,
null,,color_black1,575858,,,,,,,,black_plus_sign,,,null,,,,,,,,,,,,,,,,,,,,
null,,learn_phase(without_color)1,579363,,,,,,,,black_plus_sign,,,null,,object_12a.png,object_04b.png,,,,,,,,,,,,,,,,,
null,,black_cross(without_color)1,580067,,,,,,,,green,,,null,,object_12a.png,object_04b.png,,,,,,,,,,,,,,,,,
null,,rt_plussign_withcolor1,580569,,,,,,,,green,,,null,,object_12a.png,object_04b.png,,,,,,,,,,,,,,,,,
926.5,,rt_thecrossant_black1,581874,,,,,,,,black_plus_sign,,,50,,,,1,,,,,,,0.8888888888888888,,,,,,,,,
null,,color_black1,581978,,,,,,,,black_plus_sign,,,null,,,,,,,,,,,,,,,,,,,,
null,,learn_phase(without_color)1,585482,,,,,,,,black_plus_sign,,,null,,object_04a.png,object_09c.png,,,,,,,,,,,,,,,,,
null,,black_cross(without_color)1,586166,,,,,,,,blue,,,null,,object_04a.png,object_09c.png,,,,,,,,,,,,,,,,,
463.79999999701977,,rt_plussign_withcolor1,586668,,,,,,,,blue,,,49,,object_04a.png,object_09c.png,,,,,,,,,,,,,,,,,
null,,rt_thecrossant_black1,587989,,,,,,,,black_plus_sign,,,null,,,,1,,,,,,,0.9,,,,,,,,,
null,,color_black1,588091,,,,,,,,black_plus_sign,,,null,,,,,,,,,,,,,,,,,,,,
null,,learn_phase(without_color)1,591596,,,,,,,,black_plus_sign,,,null,,object_01a.png,object_08b.png,,,,,,,,,,,,,,,,,
null,,black_cross(without_color)1,592458,,,,,,,,blue,,,null,,object_01a.png,object_08b.png,,,,,,,,,,,,,,,,,
null,,rt_plussign_withcolor1,592961,,,,,,,,blue,,,null,,object_01a.png,object_08b.png,,,,,,,,,,,,,,,,,
837.2000000029802,,rt_thecrossant_black1,594106,,,,,,,,black_plus_sign,,,49,,,,1,,,,,,,0.9090909090909091,,,,,,,,,
null,,color_black1,594208,,,,,,,,black_plus_sign,,,null,,,,,,,,,,,,,,,,,,,,
null,,learn_phase(without_color)1,597711,,,,,,,,black_plus_sign,,,null,,object_13a.png,object_13b.png,,,,,,,,,,,,,,,,,
null,,black_cross(without_color)1,598666,,,,,,,,blue,,,null,,object_13a.png,object_13b.png,,,,,,,,,,,,,,,,,
null,,rt_plussign_withcolor1,599169,,,,,,,,blue,,,null,,object_13a.png,object_13b.png,,,,,,,,,,,,,,,,,
989.7000000029802,,rt_thecrossant_black1,600233,,,,,,,,black_plus_sign,,,49,,,,1,,,,,,,0.9166666666666666,,,,,,,,,
null,,color_black1,600343,,,,,,,,black_plus_sign,,,null,,,,,,,,,,,,,,,,,,,,
null,,learn_phase(without_color)1,603848,,,,,,,,black_plus_sign,,,null,,object_06c.png,object_15c.png,,,,,,,,,,,,,,,,,
null,,black_cross(without_color)1,604783,,,,,,,,blue,,,null,,object_06c.png,object_15c.png,,,,,,,,,,,,,,,,,
429.40000000596046,,rt_plussign_withcolor1,605285,,,,,,,,blue,,,49,,object_06c.png,object_15c.png,,,,,,,,,,,,,,,,,
null,,rt_thecrossant_black1,606357,,,,,,,,black_plus_sign,,,null,,,,1,,,,,,,0.9230769230769231,,,,,,,,,
null,,color_black1,606460,,,,,,,,black_plus_sign,,,null,,,,,,,,,,,,,,,,,,,,
null,,learn_phase(without_color)1,609971,,,,,,,,black_plus_sign,,,null,,object_02c.png,object_08c.png,,,,,,,,,,,,,,,,,
null,,black_cross(without_color)1,610736,,,,,,,,blue,,,null,,object_02c.png,object_08c.png,,,,,,,,,,,,,,,,,
490.5,,rt_plussign_withcolor1,611239,,,,,,,,blue,,,49,,object_02c.png,object_08c.png,,,,,,,,,,,,,,,,,
null,,rt_thecrossant_black1,612482,,,,,,,,black_plus_sign,,,null,,,,1,,,,,,,0.9285714285714286,,,,,,,,,
null,,color_black1,612585,,,,,,,,black_plus_sign,,,null,,,,,,,,,,,,,,,,,,,,
null,,learn_phase(without_color)1,616089,,,,,,,,black_plus_sign,,,null,,object_11b.png,object_09a.png,,,,,,,,,,,,,,,,,
null,,black_cross(without_color)1,616778,,,,,,,,blue,,,null,,object_11b.png,object_09a.png,,,,,,,,,,,,,,,,,
null,,rt_plussign_withcolor1,617281,,,,,,,,blue,,,null,,object_11b.png,object_09a.png,,,,,,,,,,,,,,,,,
972.6999999880791,,rt_thecrossant_black1,618598,,,,,,,,black_plus_sign,,,49,,,,1,,,,,,,0.9333333333333333,,,,,,,,,
null,,color_black1,618701,,,,,,,,black_plus_sign,,,null,,,,,,,,,,,,,,,,,,,,
null,,thebreak,618805,,,,,,,,<p></p>,,,null,,,,,,,,,,,,,,,,,,,,
3617.7999999970198,,intro_0,622425,,,,,,,,instruct,,,32,,,,,,,,,,,,,,,,,,,,
9690.90000000596,,directmemory_phase1,632118,,,,,,,,object_05c.png,,,51,,,,1,,object_08b.png,object_07a.png,object_10c.png,object_10c.png,,1,1,,,,,,,,
4076.5,,directmemory_phase1,636197,,,,,,,,object_11b.png,,,50,,,,1,,object_02c.png,object_09a.png,object_03a.png,object_09a.png,,1,1,,,,,,,,
6292.4000000059605,,directmemory_phase1,642496,,,,,,,,object_13b.png,,,49,,,,1,,object_13a.png,object_04b.png,object_06c.png,object_13a.png,,1,1,,,,,,,,
4587.899999991059,,directmemory_phase1,647089,,,,,,,,object_02c.png,,,50,,,,1,,object_12a.png,object_08c.png,object_14c.png,object_08c.png,,1,1,,,,,,,,
2099.0999999940395,,directmemory_phase1,649195,,,,,,,,object_09c.png,,,51,,,,1,,object_03b.png,object_11a.png,object_04a.png,object_04a.png,,1,1,,,,,,,,
9742.40000000596,,directmemory_phase1,658945,,,,,,,,object_12b.png,,,49,,,,1,,object_02b.png,object_08c.png,object_09c.png,object_02b.png,,1,1,,,,,,,,
4448,,directmemory_phase1,663398,,,,,,,,object_14a.png,,,51,,,,1,,object_05b.png,object_06c.png,object_03a.png,object_03a.png,,1,1,,,,,,,,
3571.7000000029802,,directmemory_phase1,666977,,,,,,,,object_01a.png,,,49,,,,1,,object_08b.png,object_04a.png,object_11b.png,object_08b.png,,1,1,,,,,,,,
8724.59999999404,,directmemory_phase1,675708,,,,,,,,object_12a.png,,,50,,,,1,,object_02c.png,object_04b.png,object_14b.png,object_04b.png,,1,1,,,,,,,,
4006.2000000029802,,directmemory_phase1,679722,,,,,,,,object_06c.png,,,49,,,,1,,object_15c.png,object_04b.png,object_14a.png,object_15c.png,,1,1,,,,,,,,
4686.5999999940395,,directmemory_phase1,684411,,,,,,,,object_10b.png,,,50,,,,1,,object_02c.png,object_07b.png,object_04a.png,object_07b.png,,1,1,,,,,,,,
2696.6000000089407,,directmemory_phase1,687113,,,,,,,,object_12c.png,,,50,,,,1,,object_06c.png,object_14b.png,object_03b.png,object_14b.png,,1,1,,,,,,,,
4353.29999999702,,directmemory_phase1,691472,,,,,,,,object_07a.png,,,49,,,,1,,object_05b.png,object_10c.png,object_11b.png,object_05b.png,,1,1,,,,,,,,
11542.40000000596,,directmemory_phase1,703016,,,,,,,,object_11a.png,,,50,,,,1,,object_12b.png,object_03b.png,object_10c.png,object_03b.png,,1,1,,,,,,,,
3867.9000000059605,,directmemory_phase1,706887,,,,,,,,object_15b.png,,,50,,,,1,,object_11a.png,object_14c.png,object_04b.png,object_14c.png,,1,1,,,,,,,,
null,,thebreak,706992,,,,,,,,<p></p>,,,null,,,,,,,,,,,,,,,,,,,,
2537.9000000059605,,intro_0,709533,,,,,,,,instruct,,,32,,,,,,,,,,,,,,,,,,,,
null,,learn_phase(without_color)2,713036,,,,,,,,black_plus_sign,,,null,,object_08c.png,object_02c.png,,,,,,,,,,,,,,,,,
null,,black_cross(without_color)2,713763,,,,,,,,green,,,null,,object_08c.png,object_02c.png,,,,,,,,,,,,,,,,,
null,,rt_plussign_withcolor2,714266,,,,,,,,green,,,null,,object_08c.png,object_02c.png,,,,,,,,,,,,,,,,,
1169,,rt_thecrossant_black2,715548,,,,,,,,black_plus_sign,,,50,,,,1,,,,,,,1,,,,,,,,,
null,,color_black2,715652,,,,,,,,black_plus_sign,,,null,,,,,,,,,,,,,,,,,,,,
null,,learn_phase(without_color)2,719169,,,,,,,,black_plus_sign,,,null,,object_05c.png,object_10c.png,,,,,,,,,,,,,,,,,
null,,black_cross(without_color)2,719974,,,,,,,,green,,,null,,object_05c.png,object_10c.png,,,,,,,,,,,,,,,,,
null,,rt_plussign_withcolor2,720478,,,,,,,,green,,,null,,object_05c.png,object_10c.png,,,,,,,,,,,,,,,,,
1132.8999999910593,,rt_thecrossant_black2,721680,,,,,,,,black_plus_sign,,,50,,,,1,,,,,,,1,,,,,,,,,
null,,color_black2,721783,,,,,,,,black_plus_sign,,,null,,,,,,,,,,,,,,,,,,,,
null,,learn_phase(without_color)2,725294,,,,,,,,black_plus_sign,,,null,,object_09c.png,object_04a.png,,,,,,,,,,,,,,,,,
null,,black_cross(without_color)2,726107,,,,,,,,blue,,,null,,object_09c.png,object_04a.png,,,,,,,,,,,,,,,,,
null,,rt_plussign_withcolor2,726610,,,,,,,,blue,,,null,,object_09c.png,object_04a.png,,,,,,,,,,,,,,,,,
952.2000000029802,,rt_thecrossant_black2,727820,,,,,,,,black_plus_sign,,,49,,,,1,,,,,,,1,,,,,,,,,
null,,color_black2,727924,,,,,,,,black_plus_sign,,,null,,,,,,,,,,,,,,,,,,,,
null,,learn_phase(without_color)2,731441,,,,,,,,black_plus_sign,,,null,,object_03a.png,object_14a.png,,,,,,,,,,,,,,,,,
null,,black_cross(without_color)2,731966,,,,,,,,green,,,null,,object_03a.png,object_14a.png,,,,,,,,,,,,,,,,,
420.20000000298023,,rt_plussign_withcolor2,732468,,,,,,,,green,,,50,,object_03a.png,object_14a.png,,,,,,,,,,,,,,,,,
null,,rt_thecrossant_black2,733948,,,,,,,,black_plus_sign,,,null,,,,1,,,,,,,1,,,,,,,,,
null,,color_black2,734055,,,,,,,,black_plus_sign,,,null,,,,,,,,,,,,,,,,,,,,
null,,learn_phase(without_color)2,737559,,,,,,,,black_plus_sign,,,null,,object_02b.png,object_12b.png,,,,,,,,,,,,,,,,,
null,,black_cross(without_color)2,737999,,,,,,,,green,,,null,,object_02b.png,object_12b.png,,,,,,,,,,,,,,,,,
null,,rt_plussign_withcolor2,738501,,,,,,,,green,,,null,,object_02b.png,object_12b.png,,,,,,,,,,,,,,,,,
914.7000000029802,,rt_thecrossant_black2,740081,,,,,,,,black_plus_sign,,,50,,,,1,,,,,,,1,,,,,,,,,
null,,color_black2,740185,,,,,,,,black_plus_sign,,,null,,,,,,,,,,,,,,,,,,,,
null,,learn_phase(without_color)2,743696,,,,,,,,black_plus_sign,,,null,,object_07b.png,object_10b.png,,,,,,,,,,,,,,,,,
null,,black_cross(without_color)2,744612,,,,,,,,blue,,,null,,object_07b.png,object_10b.png,,,,,,,,,,,,,,,,,
null,,rt_plussign_withcolor2,745115,,,,,,,,blue,,,null,,object_07b.png,object_10b.png,,,,,,,,,,,,,,,,,
631.3999999910593,,rt_thecrossant_black2,746207,,,,,,,,black_plus_sign,,,49,,,,1,,,,,,,1,,,,,,,,,
null,,color_black2,746312,,,,,,,,black_plus_sign,,,null,,,,,,,,,,,,,,,,,,,,
null,,learn_phase(without_color)2,749818,,,,,,,,black_plus_sign,,,null,,object_12c.png,object_14b.png,,,,,,,,,,,,,,,,,
null,,black_cross(without_color)2,750431,,,,,,,,blue,,,null,,object_12c.png,object_14b.png,,,,,,,,,,,,,,,,,
null,,rt_plussign_withcolor2,750934,,,,,,,,blue,,,null,,object_12c.png,object_14b.png,,,,,,,,,,,,,,,,,
1148.5999999940395,,rt_thecrossant_black2,752326,,,,,,,,black_plus_sign,,,49,,,,1,,,,,,,1,,,,,,,,,
null,,color_black2,752438,,,,,,,,black_plus_sign,,,null,,,,,,,,,,,,,,,,,,,,
null,,learn_phase(without_color)2,755940,,,,,,,,black_plus_sign,,,null,,object_06c.png,object_15c.png,,,,,,,,,,,,,,,,,
null,,black_cross(without_color)2,757043,,,,,,,,green,,,null,,object_06c.png,object_15c.png,,,,,,,,,,,,,,,,,
null,,rt_plussign_withcolor2,757546,,,,,,,,green,,,null,,object_06c.png,object_15c.png,,,,,,,,,,,,,,,,,
711.5,,rt_thecrossant_black2,758454,,,,,,,,black_plus_sign,,,50,,,,1,,,,,,,1,,,,,,,,,
null,,color_black2,758562,,,,,,,,black_plus_sign,,,null,,,,,,,,,,,,,,,,,,,,
null,,learn_phase(without_color)2,762064,,,,,,,,black_plus_sign,,,null,,object_09a.png,object_11b.png,,,,,,,,,,,,,,,,,
null,,black_cross(without_color)2,762675,,,,,,,,blue,,,null,,object_09a.png,object_11b.png,,,,,,,,,,,,,,,,,
null,,rt_plussign_withcolor2,763177,,,,,,,,blue,,,null,,object_09a.png,object_11b.png,,,,,,,,,,,,,,,,,
1286.2000000029802,,rt_thecrossant_black2,764573,,,,,,,,black_plus_sign,,,49,,,,1,,,,,,,1,,,,,,,,,
null,,color_black2,764678,,,,,,,,black_plus_sign,,,null,,,,,,,,,,,,,,,,,,,,
null,,learn_phase(without_color)2,768181,,,,,,,,black_plus_sign,,,null,,object_01a.png,object_08b.png,,,,,,,,,,,,,,,,,
null,,black_cross(without_color)2,768945,,,,,,,,blue,,,null,,object_01a.png,object_08b.png,,,,,,,,,,,,,,,,,
null,,rt_plussign_withcolor2,769449,,,,,,,,blue,,,null,,object_01a.png,object_08b.png,,,,,,,,,,,,,,,,,
865.8999999910593,,rt_thecrossant_black2,770694,,,,,,,,black_plus_sign,,,49,,,,1,,,,,,,1,,,,,,,,,
null,,color_black2,770798,,,,,,,,black_plus_sign,,,null,,,,,,,,,,,,,,,,,,,,
null,,learn_phase(without_color)2,774303,,,,,,,,black_plus_sign,,,null,,object_15b.png,object_14c.png,,,,,,,,,,,,,,,,,
null,,black_cross(without_color)2,775180,,,,,,,,green,,,null,,object_15b.png,object_14c.png,,,,,,,,,,,,,,,,,
null,,rt_plussign_withcolor2,775684,,,,,,,,green,,,null,,object_15b.png,object_14c.png,,,,,,,,,,,,,,,,,
1025.2000000029802,,rt_thecrossant_black2,776815,,,,,,,,black_plus_sign,,,50,,,,1,,,,,,,1,,,,,,,,,
null,,color_black2,776918,,,,,,,,black_plus_sign,,,null,,,,,,,,,,,,,,,,,,,,
null,,learn_phase(without_color)2,780422,,,,,,,,black_plus_sign,,,null,,object_13b.png,object_13a.png,,,,,,,,,,,,,,,,,
null,,black_cross(without_color)2,780915,,,,,,,,blue,,,null,,object_13b.png,object_13a.png,,,,,,,,,,,,,,,,,
null,,rt_plussign_withcolor2,781419,,,,,,,,blue,,,null,,object_13b.png,object_13a.png,,,,,,,,,,,,,,,,,
1207.300000011921,,rt_thecrossant_black2,782933,,,,,,,,black_plus_sign,,,49,,,,1,,,,,,,1,,,,,,,,,
null,,color_black2,783038,,,,,,,,black_plus_sign,,,null,,,,,,,,,,,,,,,,,,,,
null,,learn_phase(without_color)2,786558,,,,,,,,black_plus_sign,,,null,,object_05b.png,object_07a.png,,,,,,,,,,,,,,,,,
null,,black_cross(without_color)2,786965,,,,,,,,blue,,,null,,object_05b.png,object_07a.png,,,,,,,,,,,,,,,,,
null,,rt_plussign_withcolor2,787468,,,,,,,,blue,,,null,,object_05b.png,object_07a.png,,,,,,,,,,,,,,,,,
625.5,,rt_thecrossant_black2,789071,,,,,,,,black_plus_sign,,,49,,,,1,,,,,,,1,,,,,,,,,
null,,color_black2,789174,,,,,,,,black_plus_sign,,,null,,,,,,,,,,,,,,,,,,,,
null,,learn_phase(without_color)2,792679,,,,,,,,black_plus_sign,,,null,,object_04b.png,object_12a.png,,,,,,,,,,,,,,,,,
null,,black_cross(without_color)2,793708,,,,,,,,blue,,,null,,object_04b.png,object_12a.png,,,,,,,,,,,,,,,,,
null,,rt_plussign_withcolor2,794212,,,,,,,,blue,,,null,,object_04b.png,object_12a.png,,,,,,,,,,,,,,,,,
524.4000000059605,,rt_thecrossant_black2,795196,,,,,,,,black_plus_sign,,,49,,,,1,,,,,,,1,,,,,,,,,
null,,color_black2,795300,,,,,,,,black_plus_sign,,,null,,,,,,,,,,,,,,,,,,,,
null,,learn_phase(without_color)2,798817,,,,,,,,black_plus_sign,,,null,,object_03b.png,object_11a.png,,,,,,,,,,,,,,,,,
null,,black_cross(without_color)2,799774,,,,,,,,blue,,,null,,object_03b.png,object_11a.png,,,,,,,,,,,,,,,,,
null,,rt_plussign_withcolor2,800277,,,,,,,,blue,,,null,,object_03b.png,object_11a.png,,,,,,,,,,,,,,,,,
1356.6000000089407,,rt_thecrossant_black2,801328,,,,,,,,black_plus_sign,,,49,,,,1,,,,,,,1,,,,,,,,,
null,,color_black2,801430,,,,,,,,black_plus_sign,,,null,,,,,,,,,,,,,,,,,,,,
null,,thebreak,801534,,,,,,,,<p></p>,,,null,,,,,,,,,,,,,,,,,,,,
3408.2000000029802,,intro_0,804945,,,,,,,,instruct,,,32,,,,,,,,,,,,,,,,,,,,
8717.39999999106,,directmemory_phase2,813665,,,,,,,,object_12c.png,,,50,,,,1,,object_05c.png,object_14b.png,object_05b.png,object_14b.png,,1,1,,,,,,,,
null,,directmemory_phase2,828669,,,,,,,,object_05c.png,,,null,,,,0,,object_10c.png,object_09a.png,object_06c.png,object_10c.png,,0.9411764705882353,0,,,,,,,,
null,,warning_page,833674,,,,,,,,warning,,,null,,,,,,,,,,,,,,,,,,,,
7380,,directmemory_phase2,841059,,,,,,,,object_11b.png,,,50,,,,1,,object_12a.png,object_09a.png,object_02b.png,object_09a.png,,0.9444444444444444,1,,,,,,,,
3175.7000000029802,,directmemory_phase2,844240,,,,,,,,object_06c.png,,,51,,,,1,,object_05b.png,object_09c.png,object_15c.png,object_15c.png,,0.9473684210526315,1,,,,,,,,
2775.1000000089407,,directmemory_phase2,847022,,,,,,,,object_14a.png,,,50,,,,1,,object_11b.png,object_03a.png,object_05b.png,object_03a.png,,0.95,1,,,,,,,,
1886.2999999970198,,directmemory_phase2,848914,,,,,,,,object_01a.png,,,49,,,,1,,object_08b.png,object_02b.png,object_12c.png,object_08b.png,,0.9523809523809523,1,,,,,,,,
8114.20000000298,,directmemory_phase2,857030,,,,,,,,object_11a.png,,,51,,,,1,,object_07b.png,object_10b.png,object_03b.png,object_03b.png,,0.9545454545454546,1,,,,,,,,
6768.899999991059,,directmemory_phase2,863804,,,,,,,,object_02c.png,,,51,,,,0,,object_08c.png,object_10c.png,object_09c.png,object_08c.png,,0.9130434782608695,0,,,,,,,,
2976,,directmemory_phase2,866781,,,,,,,,object_07a.png,,,51,,,,1,,object_04b.png,object_01a.png,object_05b.png,object_05b.png,,0.9166666666666666,1,,,,,,,,
1870.699999988079,,directmemory_phase2,868655,,,,,,,,object_15b.png,,,50,,,,1,,object_12a.png,object_14c.png,object_15c.png,object_14c.png,,0.92,1,,,,,,,,
2336.7999999970198,,directmemory_phase2,870998,,,,,,,,object_10b.png,,,49,,,,1,,object_07b.png,object_03b.png,object_15b.png,object_07b.png,,0.9230769230769231,1,,,,,,,,
4323,,directmemory_phase2,875328,,,,,,,,object_13b.png,,,51,,,,1,,object_09a.png,object_15b.png,object_13a.png,object_13a.png,,0.9259259259259259,1,,,,,,,,
2006.800000011921,,directmemory_phase2,877340,,,,,,,,object_09c.png,,,50,,,,1,,object_05c.png,object_04a.png,object_07b.png,object_04a.png,,0.9285714285714286,1,,,,,,,,
5372.5999999940395,,directmemory_phase2,882718,,,,,,,,object_12a.png,,,51,,,,1,,object_03a.png,object_05c.png,object_04b.png,object_04b.png,,0.9310344827586207,1,,,,,,,,
2481,,directmemory_phase2,885205,,,,,,,,object_12b.png,,,50,,,,1,,object_14a.png,object_02b.png,object_04a.png,object_02b.png,,0.9333333333333333,1,,,,,,,,
null,,thebreak,885310,,,,,,,,<p></p>,,,null,,,,,,,,,,,,,,,,,,,,
30224.30000001192,,intro_0,915537,,,,,,,,instruct,,,32,,,,,,,,,,,,,,,,,,,,
null,,learn_phase(without_color)3,919041,,,,,,,,black_plus_sign,,,null,,object_05b.png,object_07a.png,,,,,,,,,,,,,,,,,
null,,black_cross(without_color)3,919573,,,,,,,,blue,,,null,,object_05b.png,object_07a.png,,,,,,,,,,,,,,,,,
null,,rt_plussign_withcolor3,920076,,,,,,,,blue,,,null,,object_05b.png,object_07a.png,,,,,,,,,,,,,,,,,
819.7000000029802,,rt_thecrossant_black3,921553,,,,,,,,black_plus_sign,,,49,,,,1,,,,,,,1,,,,,,,,,
null,,color_black3,921657,,,,,,,,black_plus_sign,,,null,,,,,,,,,,,,,,,,,,,,
null,,learn_phase(without_color)3,925177,,,,,,,,black_plus_sign,,,null,,object_02b.png,object_12b.png,,,,,,,,,,,,,,,,,
null,,black_cross(without_color)3,926228,,,,,,,,green,,,null,,object_02b.png,object_12b.png,,,,,,,,,,,,,,,,,
null,,rt_plussign_withcolor3,926730,,,,,,,,green,,,null,,object_02b.png,object_12b.png,,,,,,,,,,,,,,,,,
674,,rt_thecrossant_black3,927689,,,,,,,,black_plus_sign,,,50,,,,1,,,,,,,1,,,,,,,,,
null,,color_black3,927794,,,,,,,,black_plus_sign,,,null,,,,,,,,,,,,,,,,,,,,
null,,learn_phase(without_color)3,931299,,,,,,,,black_plus_sign,,,null,,object_11a.png,object_03b.png,,,,,,,,,,,,,,,,,
null,,black_cross(without_color)3,932267,,,,,,,,blue,,,null,,object_11a.png,object_03b.png,,,,,,,,,,,,,,,,,
436.20000000298023,,rt_plussign_withcolor3,932770,,,,,,,,blue,,,49,,object_11a.png,object_03b.png,,,,,,,,,,,,,,,,,
null,,rt_thecrossant_black3,933808,,,,,,,,black_plus_sign,,,null,,,,1,,,,,,,1,,,,,,,,,
null,,color_black3,933911,,,,,,,,black_plus_sign,,,null,,,,,,,,,,,,,,,,,,,,
null,,learn_phase(without_color)3,937415,,,,,,,,black_plus_sign,,,null,,object_12c.png,object_14b.png,,,,,,,,,,,,,,,,,
null,,black_cross(without_color)3,938381,,,,,,,,green,,,null,,object_12c.png,object_14b.png,,,,,,,,,,,,,,,,,
null,,rt_plussign_withcolor3,938884,,,,,,,,green,,,null,,object_12c.png,object_14b.png,,,,,,,,,,,,,,,,,
1111.2000000029802,,rt_thecrossant_black3,939926,,,,,,,,black_plus_sign,,,50,,,,1,,,,,,,1,,,,,,,,,
null,,color_black3,940030,,,,,,,,black_plus_sign,,,null,,,,,,,,,,,,,,,,,,,,
null,,learn_phase(without_color)3,943535,,,,,,,,black_plus_sign,,,null,,object_06c.png,object_15c.png,,,,,,,,,,,,,,,,,
null,,black_cross(without_color)3,944617,,,,,,,,green,,,null,,object_06c.png,object_15c.png,,,,,,,,,,,,,,,,,
null,,rt_plussign_withcolor3,945120,,,,,,,,green,,,null,,object_06c.png,object_15c.png,,,,,,,,,,,,,,,,,
1139.5999999940395,,rt_thecrossant_black3,946044,,,,,,,,black_plus_sign,,,50,,,,1,,,,,,,1,,,,,,,,,
null,,color_black3,946149,,,,,,,,black_plus_sign,,,null,,,,,,,,,,,,,,,,,,,,
null,,learn_phase(without_color)3,949653,,,,,,,,black_plus_sign,,,null,,object_08c.png,object_02c.png,,,,,,,,,,,,,,,,,
null,,black_cross(without_color)3,950488,,,,,,,,blue,,,null,,object_08c.png,object_02c.png,,,,,,,,,,,,,,,,,
415.5,,rt_plussign_withcolor3,950990,,,,,,,,blue,,,49,,object_08c.png,object_02c.png,,,,,,,,,,,,,,,,,
null,,rt_thecrossant_black3,952160,,,,,,,,black_plus_sign,,,null,,,,1,,,,,,,1,,,,,,,,,
null,,color_black3,952264,,,,,,,,black_plus_sign,,,null,,,,,,,,,,,,,,,,,,,,
null,,learn_phase(without_color)3,955771,,,,,,,,black_plus_sign,,,null,,object_04b.png,object_12a.png,,,,,,,,,,,,,,,,,
null,,black_cross(without_color)3,956836,,,,,,,,blue,,,null,,object_04b.png,object_12a.png,,,,,,,,,,,,,,,,,
null,,rt_plussign_withcolor3,957339,,,,,,,,blue,,,null,,object_04b.png,object_12a.png,,,,,,,,,,,,,,,,,
932.9000000059605,,rt_thecrossant_black3,958283,,,,,,,,black_plus_sign,,,49,,,,1,,,,,,,1,,,,,,,,,
null,,color_black3,958388,,,,,,,,black_plus_sign,,,null,,,,,,,,,,,,,,,,,,,,
null,,learn_phase(without_color)3,961894,,,,,,,,black_plus_sign,,,null,,object_01a.png,object_08b.png,,,,,,,,,,,,,,,,,
null,,black_cross(without_color)3,962709,,,,,,,,blue,,,null,,object_01a.png,object_08b.png,,,,,,,,,,,,,,,,,
null,,rt_plussign_withcolor3,963213,,,,,,,,blue,,,null,,object_01a.png,object_08b.png,,,,,,,,,,,,,,,,,
1162.2000000029802,,rt_thecrossant_black3,964404,,,,,,,,black_plus_sign,,,49,,,,1,,,,,,,1,,,,,,,,,
null,,color_black3,964522,,,,,,,,black_plus_sign,,,null,,,,,,,,,,,,,,,,,,,,
null,,learn_phase(without_color)3,968028,,,,,,,,black_plus_sign,,,null,,object_10c.png,object_05c.png,,,,,,,,,,,,,,,,,
null,,black_cross(without_color)3,968799,,,,,,,,blue,,,null,,object_10c.png,object_05c.png,,,,,,,,,,,,,,,,,
null,,rt_plussign_withcolor3,969301,,,,,,,,blue,,,null,,object_10c.png,object_05c.png,,,,,,,,,,,,,,,,,
1064.3999999910593,,rt_thecrossant_black3,970536,,,,,,,,black_plus_sign,,,49,,,,1,,,,,,,1,,,,,,,,,
null,,color_black3,970648,,,,,,,,black_plus_sign,,,null,,,,,,,,,,,,,,,,,,,,
null,,learn_phase(without_color)3,974153,,,,,,,,black_plus_sign,,,null,,object_14c.png,object_15b.png,,,,,,,,,,,,,,,,,
null,,black_cross(without_color)3,974844,,,,,,,,green,,,null,,object_14c.png,object_15b.png,,,,,,,,,,,,,,,,,
null,,rt_plussign_withcolor3,975349,,,,,,,,green,,,null,,object_14c.png,object_15b.png,,,,,,,,,,,,,,,,,
1007,,rt_thecrossant_black3,976667,,,,,,,,black_plus_sign,,,50,,,,1,,,,,,,1,,,,,,,,,
null,,color_black3,976772,,,,,,,,black_plus_sign,,,null,,,,,,,,,,,,,,,,,,,,
null,,learn_phase(without_color)3,980278,,,,,,,,black_plus_sign,,,null,,object_09c.png,object_04a.png,,,,,,,,,,,,,,,,,
null,,black_cross(without_color)3,980939,,,,,,,,green,,,null,,object_09c.png,object_04a.png,,,,,,,,,,,,,,,,,
517.6999999880791,,rt_plussign_withcolor3,981462,,,,,,,,green,,,50,,object_09c.png,object_04a.png,,,,,,,,,,,,,,,,,
null,,rt_thecrossant_black3,982809,,,,,,,,black_plus_sign,,,null,,,,1,,,,,,,1,,,,,,,,,
null,,color_black3,982912,,,,,,,,black_plus_sign,,,null,,,,,,,,,,,,,,,,,,,,
null,,learn_phase(without_color)3,986416,,,,,,,,black_plus_sign,,,null,,object_03a.png,object_14a.png,,,,,,,,,,,,,,,,,
null,,black_cross(without_color)3,987402,,,,,,,,green,,,null,,object_03a.png,object_14a.png,,,,,,,,,,,,,,,,,
null,,rt_plussign_withcolor3,987919,,,,,,,,green,,,null,,object_03a.png,object_14a.png,,,,,,,,,,,,,,,,,
818.8999999910593,,rt_thecrossant_black3,988939,,,,,,,,black_plus_sign,,,50,,,,1,,,,,,,1,,,,,,,,,
null,,color_black3,989043,,,,,,,,black_plus_sign,,,null,,,,,,,,,,,,,,,,,,,,
null,,learn_phase(without_color)3,992549,,,,,,,,black_plus_sign,,,null,,object_13a.png,object_13b.png,,,,,,,,,,,,,,,,,
null,,black_cross(without_color)3,993293,,,,,,,,blue,,,null,,object_13a.png,object_13b.png,,,,,,,,,,,,,,,,,
null,,rt_plussign_withcolor3,993795,,,,,,,,blue,,,null,,object_13a.png,object_13b.png,,,,,,,,,,,,,,,,,
1131,,rt_thecrossant_black3,995058,,,,,,,,black_plus_sign,,,49,,,,1,,,,,,,1,,,,,,,,,
null,,color_black3,995162,,,,,,,,black_plus_sign,,,null,,,,,,,,,,,,,,,,,,,,
null,,learn_phase(without_color)3,998667,,,,,,,,black_plus_sign,,,null,,object_10b.png,object_07b.png,,,,,,,,,,,,,,,,,
null,,black_cross(without_color)3,999670,,,,,,,,blue,,,null,,object_10b.png,object_07b.png,,,,,,,,,,,,,,,,,
null,,rt_plussign_withcolor3,1000173,,,,,,,,blue,,,null,,object_10b.png,object_07b.png,,,,,,,,,,,,,,,,,
1062.7000000029802,,rt_thecrossant_black3,1001178,,,,,,,,black_plus_sign,,,49,,,,1,,,,,,,1,,,,,,,,,
null,,color_black3,1001281,,,,,,,,black_plus_sign,,,null,,,,,,,,,,,,,,,,,,,,
null,,learn_phase(without_color)3,1004785,,,,,,,,black_plus_sign,,,null,,object_11b.png,object_09a.png,,,,,,,,,,,,,,,,,
null,,black_cross(without_color)3,1005738,,,,,,,,green,,,null,,object_11b.png,object_09a.png,,,,,,,,,,,,,,,,,
null,,rt_plussign_withcolor3,1006241,,,,,,,,green,,,null,,object_11b.png,object_09a.png,,,,,,,,,,,,,,,,,
1191.2000000029802,,rt_thecrossant_black3,1007297,,,,,,,,black_plus_sign,,,50,,,,1,,,,,,,1,,,,,,,,,
null,,color_black3,1007402,,,,,,,,black_plus_sign,,,null,,,,,,,,,,,,,,,,,,,,
null,,thebreak,1007508,,,,,,,,<p></p>,,,null,,,,,,,,,,,,,,,,,,,,
6446.5,,intro_0,1013958,,,,,,,,instruct,,,32,,,,,,,,,,,,,,,,,,,,
5220,,directmemory_phase3,1019183,,,,,,,,object_05c.png,,,50,,,,1,,object_11b.png,object_10c.png,object_15c.png,object_10c.png,,0.9354838709677419,1,,,,,,,,
2423.2000000029802,,directmemory_phase3,1021613,,,,,,,,object_15b.png,,,50,,,,1,,object_11b.png,object_14c.png,object_04a.png,object_14c.png,,0.9375,1,,,,,,,,
3383.5999999940395,,directmemory_phase3,1025003,,,,,,,,object_10b.png,,,51,,,,1,,object_03a.png,object_14a.png,object_07b.png,object_07b.png,,0.9393939393939394,1,,,,,,,,
6523.79999999702,,directmemory_phase3,1031532,,,,,,,,object_06c.png,,,50,,,,1,,object_01a.png,object_15c.png,object_08c.png,object_15c.png,,0.9411764705882353,1,,,,,,,,
3055.6000000089407,,directmemory_phase3,1034593,,,,,,,,object_07a.png,,,51,,,,1,,object_15c.png,object_06c.png,object_05b.png,object_05b.png,,0.9428571428571428,1,,,,,,,,
6339.5999999940395,,directmemory_phase3,1040936,,,,,,,,object_12a.png,,,50,,,,1,,object_06c.png,object_04b.png,object_10c.png,object_04b.png,,0.9444444444444444,1,,,,,,,,
2907,,directmemory_phase3,1043848,,,,,,,,object_02c.png,,,51,,,,1,,object_03b.png,object_10b.png,object_08c.png,object_08c.png,,0.9459459459459459,1,,,,,,,,
2378.5,,directmemory_phase3,1046230,,,,,,,,object_09c.png,,,50,,,,1,,object_07a.png,object_04a.png,object_15c.png,object_04a.png,,0.9473684210526315,1,,,,,,,,
3215.2999999970198,,directmemory_phase3,1049451,,,,,,,,object_12b.png,,,49,,,,1,,object_02b.png,object_03a.png,object_11b.png,object_02b.png,,0.9487179487179487,1,,,,,,,,
3528.0999999940395,,directmemory_phase3,1052985,,,,,,,,object_14a.png,,,49,,,,1,,object_03a.png,object_08c.png,object_12a.png,object_03a.png,,0.95,1,,,,,,,,
1991,,directmemory_phase3,1054982,,,,,,,,object_01a.png,,,51,,,,1,,object_04b.png,object_02c.png,object_08b.png,object_08b.png,,0.9512195121951219,1,,,,,,,,
4814.29999999702,,directmemory_phase3,1059800,,,,,,,,object_13b.png,,,50,,,,1,,object_05c.png,object_13a.png,object_10c.png,object_13a.png,,0.9523809523809523,1,,,,,,,,
6993.0999999940395,,directmemory_phase3,1066795,,,,,,,,object_11b.png,,,51,,,,1,,object_15c.png,object_14a.png,object_09a.png,object_09a.png,,0.9534883720930233,1,,,,,,,,
9416.59999999404,,directmemory_phase3,1076215,,,,,,,,object_11a.png,,,51,,,,1,,object_10c.png,object_15b.png,object_03b.png,object_03b.png,,0.9545454545454546,1,,,,,,,,
2942,,directmemory_phase3,1079164,,,,,,,,object_12c.png,,,50,,,,1,,object_14a.png,object_14b.png,object_03b.png,object_14b.png,,0.9555555555555556,1,,,,,,,,
null,,thebreak,1079270,,,,,,,,<p></p>,,,null,,,,,,,,,,,,,,,,,,,,
23556.19999998808,,intro_0,1102829,,,,,,,,instruct,,,32,,,,,,,,,,,,,,,,,,,,
null,,learn_phase(without_color)4,1106330,,,,,,,,black_plus_sign,,,null,,object_13b.png,object_13a.png,,,,,,,,,,,,,,,,,
null,,black_cross(without_color)4,1107084,,,,,,,,blue,,,null,,object_13b.png,object_13a.png,,,,,,,,,,,,,,,,,
null,,rt_plussign_withcolor4,1107588,,,,,,,,blue,,,null,,object_13b.png,object_13a.png,,,,,,,,,,,,,,,,,
1126.7999999970198,,rt_thecrossant_black4,1108842,,,,,,,,black_plus_sign,,,49,,,,1,,,,,,,1,,,,,,,,,
null,,color_black4,1108946,,,,,,,,black_plus_sign,,,null,,,,,,,,,,,,,,,,,,,,
null,,learn_phase(without_color)4,1112452,,,,,,,,black_plus_sign,,,null,,object_14c.png,object_15b.png,,,,,,,,,,,,,,,,,
null,,black_cross(without_color)4,1112893,,,,,,,,blue,,,null,,object_14c.png,object_15b.png,,,,,,,,,,,,,,,,,
382,,rt_plussign_withcolor4,1113397,,,,,,,,blue,,,49,,object_14c.png,object_15b.png,,,,,,,,,,,,,,,,,
null,,rt_thecrossant_black4,1114965,,,,,,,,black_plus_sign,,,null,,,,1,,,,,,,1,,,,,,,,,
null,,color_black4,1115069,,,,,,,,black_plus_sign,,,null,,,,,,,,,,,,,,,,,,,,
null,,learn_phase(without_color)4,1118574,,,,,,,,black_plus_sign,,,null,,object_05b.png,object_07a.png,,,,,,,,,,,,,,,,,
null,,black_cross(without_color)4,1119651,,,,,,,,green,,,null,,object_05b.png,object_07a.png,,,,,,,,,,,,,,,,,
null,,rt_plussign_withcolor4,1120154,,,,,,,,green,,,null,,object_05b.png,object_07a.png,,,,,,,,,,,,,,,,,
692.8000000119209,,rt_thecrossant_black4,1121086,,,,,,,,black_plus_sign,,,50,,,,1,,,,,,,1,,,,,,,,,
null,,color_black4,1121190,,,,,,,,black_plus_sign,,,null,,,,,,,,,,,,,,,,,,,,
null,,learn_phase(without_color)4,1124695,,,,,,,,black_plus_sign,,,null,,object_12a.png,object_04b.png,,,,,,,,,,,,,,,,,
null,,black_cross(without_color)4,1125662,,,,,,,,blue,,,null,,object_12a.png,object_04b.png,,,,,,,,,,,,,,,,,
null,,rt_plussign_withcolor4,1126165,,,,,,,,blue,,,null,,object_12a.png,object_04b.png,,,,,,,,,,,,,,,,,
1191.0999999940395,,rt_thecrossant_black4,1127208,,,,,,,,black_plus_sign,,,49,,,,1,,,,,,,1,,,,,,,,,
null,,color_black4,1127312,,,,,,,,black_plus_sign,,,null,,,,,,,,,,,,,,,,,,,,
null,,learn_phase(without_color)4,1130816,,,,,,,,black_plus_sign,,,null,,object_08b.png,object_01a.png,,,,,,,,,,,,,,,,,
null,,black_cross(without_color)4,1131845,,,,,,,,blue,,,null,,object_08b.png,object_01a.png,,,,,,,,,,,,,,,,,
488.5,,rt_plussign_withcolor4,1132348,,,,,,,,blue,,,49,,object_08b.png,object_01a.png,,,,,,,,,,,,,,,,,
null,,rt_thecrossant_black4,1133328,,,,,,,,black_plus_sign,,,null,,,,1,,,,,,,1,,,,,,,,,
null,,color_black4,1133445,,,,,,,,black_plus_sign,,,null,,,,,,,,,,,,,,,,,,,,
null,,learn_phase(without_color)4,1136948,,,,,,,,black_plus_sign,,,null,,object_04a.png,object_09c.png,,,,,,,,,,,,,,,,,
null,,black_cross(without_color)4,1137738,,,,,,,,green,,,null,,object_04a.png,object_09c.png,,,,,,,,,,,,,,,,,
null,,rt_plussign_withcolor4,1138242,,,,,,,,green,,,null,,object_04a.png,object_09c.png,,,,,,,,,,,,,,,,,
1364.7999999970198,,rt_thecrossant_black4,1139460,,,,,,,,black_plus_sign,,,50,,,,1,,,,,,,1,,,,,,,,,
null,,color_black4,1139564,,,,,,,,black_plus_sign,,,null,,,,,,,,,,,,,,,,,,,,
null,,learn_phase(without_color)4,1143069,,,,,,,,black_plus_sign,,,null,,object_03b.png,object_11a.png,,,,,,,,,,,,,,,,,
null,,black_cross(without_color)4,1143858,,,,,,,,blue,,,null,,object_03b.png,object_11a.png,,,,,,,,,,,,,,,,,
469.8999999910593,,rt_plussign_withcolor4,1144361,,,,,,,,blue,,,49,,object_03b.png,object_11a.png,,,,,,,,,,,,,,,,,
null,,rt_thecrossant_black4,1145583,,,,,,,,black_plus_sign,,,null,,,,1,,,,,,,1,,,,,,,,,
null,,color_black4,1145689,,,,,,,,black_plus_sign,,,null,,,,,,,,,,,,,,,,,,,,
null,,learn_phase(without_color)4,1149193,,,,,,,,black_plus_sign,,,null,,object_10b.png,object_07b.png,,,,,,,,,,,,,,,,,
null,,black_cross(without_color)4,1150259,,,,,,,,blue,,,null,,object_10b.png,object_07b.png,,,,,,,,,,,,,,,,,
449.09999999403954,,rt_plussign_withcolor4,1150762,,,,,,,,blue,,,49,,object_10b.png,object_07b.png,,,,,,,,,,,,,,,,,
null,,rt_thecrossant_black4,1151704,,,,,,,,black_plus_sign,,,null,,,,1,,,,,,,1,,,,,,,,,
null,,color_black4,1151809,,,,,,,,black_plus_sign,,,null,,,,,,,,,,,,,,,,,,,,
null,,learn_phase(without_color)4,1155316,,,,,,,,black_plus_sign,,,null,,object_08c.png,object_02c.png,,,,,,,,,,,,,,,,,
null,,black_cross(without_color)4,1156128,,,,,,,,blue,,,null,,object_08c.png,object_02c.png,,,,,,,,,,,,,,,,,
455.70000000298023,,rt_plussign_withcolor4,1156631,,,,,,,,blue,,,49,,object_08c.png,object_02c.png,,,,,,,,,,,,,,,,,
null,,rt_thecrossant_black4,1157825,,,,,,,,black_plus_sign,,,null,,,,1,,,,,,,1,,,,,,,,,
null,,color_black4,1157928,,,,,,,,black_plus_sign,,,null,,,,,,,,,,,,,,,,,,,,
null,,learn_phase(without_color)4,1161433,,,,,,,,black_plus_sign,,,null,,object_12b.png,object_02b.png,,,,,,,,,,,,,,,,,
null,,black_cross(without_color)4,1162479,,,,,,,,blue,,,null,,object_12b.png,object_02b.png,,,,,,,,,,,,,,,,,
432.19999998807907,,rt_plussign_withcolor4,1162982,,,,,,,,blue,,,49,,object_12b.png,object_02b.png,,,,,,,,,,,,,,,,,
null,,rt_thecrossant_black4,1163941,,,,,,,,black_plus_sign,,,null,,,,1,,,,,,,1,,,,,,,,,
null,,color_black4,1164044,,,,,,,,black_plus_sign,,,null,,,,,,,,,,,,,,,,,,,,
null,,learn_phase(without_color)4,1167549,,,,,,,,black_plus_sign,,,null,,object_11b.png,object_09a.png,,,,,,,,,,,,,,,,,
null,,black_cross(without_color)4,1168649,,,,,,,,blue,,,null,,object_11b.png,object_09a.png,,,,,,,,,,,,,,,,,
null,,rt_plussign_withcolor4,1169152,,,,,,,,blue,,,null,,object_11b.png,object_09a.png,,,,,,,,,,,,,,,,,
1361.3999999910593,,rt_thecrossant_black4,1170061,,,,,,,,black_plus_sign,,,49,,,,1,,,,,,,1,,,,,,,,,
null,,color_black4,1170163,,,,,,,,black_plus_sign,,,null,,,,,,,,,,,,,,,,,,,,
null,,learn_phase(without_color)4,1173675,,,,,,,,black_plus_sign,,,null,,object_06c.png,object_15c.png,,,,,,,,,,,,,,,,,
null,,black_cross(without_color)4,1174260,,,,,,,,green,,,null,,object_06c.png,object_15c.png,,,,,,,,,,,,,,,,,
null,,rt_plussign_withcolor4,1174763,,,,,,,,green,,,null,,object_06c.png,object_15c.png,,,,,,,,,,,,,,,,,
1678.7000000029802,,rt_thecrossant_black4,1176187,,,,,,,,black_plus_sign,,,50,,,,1,,,,,,,1,,,,,,,,,
null,,color_black4,1176291,,,,,,,,black_plus_sign,,,null,,,,,,,,,,,,,,,,,,,,
null,,learn_phase(without_color)4,1179796,,,,,,,,black_plus_sign,,,null,,object_10c.png,object_05c.png,,,,,,,,,,,,,,,,,
null,,black_cross(without_color)4,1180699,,,,,,,,blue,,,null,,object_10c.png,object_05c.png,,,,,,,,,,,,,,,,,
392.80000001192093,,rt_plussign_withcolor4,1181202,,,,,,,,blue,,,49,,object_10c.png,object_05c.png,,,,,,,,,,,,,,,,,
null,,rt_thecrossant_black4,1182308,,,,,,,,black_plus_sign,,,null,,,,1,,,,,,,1,,,,,,,,,
null,,color_black4,1182412,,,,,,,,black_plus_sign,,,null,,,,,,,,,,,,,,,,,,,,
null,,learn_phase(without_color)4,1185915,,,,,,,,black_plus_sign,,,null,,object_12c.png,object_14b.png,,,,,,,,,,,,,,,,,
null,,black_cross(without_color)4,1186403,,,,,,,,blue,,,null,,object_12c.png,object_14b.png,,,,,,,,,,,,,,,,,
464.69999998807907,,rt_plussign_withcolor4,1186906,,,,,,,,blue,,,49,,object_12c.png,object_14b.png,,,,,,,,,,,,,,,,,
null,,rt_thecrossant_black4,1188427,,,,,,,,black_plus_sign,,,null,,,,1,,,,,,,1,,,,,,,,,
null,,color_black4,1188531,,,,,,,,black_plus_sign,,,null,,,,,,,,,,,,,,,,,,,,
null,,learn_phase(without_color)4,1192035,,,,,,,,black_plus_sign,,,null,,object_03a.png,object_14a.png,,,,,,,,,,,,,,,,,
null,,black_cross(without_color)4,1192928,,,,,,,,green,,,null,,object_03a.png,object_14a.png,,,,,,,,,,,,,,,,,
371.20000000298023,,rt_plussign_withcolor4,1193431,,,,,,,,green,,,49,,object_03a.png,object_14a.png,,,,,,,,,,,,,,,,,
null,,rt_thecrossant_black4,1194551,,,,,,,,black_plus_sign,,,50,,,,0,,,,,,,0.9333333333333333,,,,,,,,,
null,,color_black4,1194655,,,,,,,,black_plus_sign,,,null,,,,,,,,,,,,,,,,,,,,
null,,thebreak,1194760,,,,,,,,<p></p>,,,null,,,,,,,,,,,,,,,,,,,,
5443.79999999702,,intro_0,1200205,,,,,,,,instruct,,,32,,,,,,,,,,,,,,,,,,,,
2693.199999988079,,directmemory_phase4,1202900,,,,,,,,object_01a.png,,,51,,,,1,,object_10c.png,object_12a.png,object_08b.png,object_08b.png,,0.9565217391304348,1,,,,,,,,
3420.8999999910593,,directmemory_phase4,1206327,,,,,,,,object_07a.png,,,51,,,,1,,object_08c.png,object_12a.png,object_05b.png,object_05b.png,,0.9574468085106383,1,,,,,,,,
3605.2999999970198,,directmemory_phase4,1209938,,,,,,,,object_12b.png,,,51,,,,1,,object_04b.png,object_06c.png,object_02b.png,object_02b.png,,0.9583333333333334,1,,,,,,,,
2952.4000000059605,,directmemory_phase4,1212897,,,,,,,,object_12c.png,,,49,,,,1,,object_14b.png,object_07b.png,object_07a.png,object_14b.png,,0.9591836734693877,1,,,,,,,,
3528.7000000029802,,directmemory_phase4,1216429,,,,,,,,object_14a.png,,,50,,,,1,,object_09c.png,object_03a.png,object_10c.png,object_03a.png,,0.96,1,,,,,,,,
6760.5999999940395,,directmemory_phase4,1223196,,,,,,,,object_12a.png,,,50,,,,1,,object_05c.png,object_04b.png,object_08b.png,object_04b.png,,0.9607843137254902,1,,,,,,,,
9804,,directmemory_phase4,1233007,,,,,,,,object_11a.png,,,51,,,,0,,object_03b.png,object_14b.png,object_09c.png,object_03b.png,,0.9423076923076923,0,,,,,,,,
3494.4000000059605,,directmemory_phase4,1236507,,,,,,,,object_05c.png,,,49,,,,1,,object_10c.png,object_03a.png,object_11a.png,object_10c.png,,0.9433962264150944,1,,,,,,,,
2542.3999999910593,,directmemory_phase4,1239053,,,,,,,,object_06c.png,,,50,,,,1,,object_11b.png,object_15c.png,object_04a.png,object_15c.png,,0.9444444444444444,1,,,,,,,,
3167.2000000029802,,directmemory_phase4,1242227,,,,,,,,object_02c.png,,,49,,,,1,,object_08c.png,object_10c.png,object_14a.png,object_08c.png,,0.9454545454545454,1,,,,,,,,
8572.79999999702,,directmemory_phase4,1250807,,,,,,,,object_13b.png,,,51,,,,1,,object_07b.png,object_06c.png,object_13a.png,object_13a.png,,0.9464285714285714,1,,,,,,,,
2008.5,,directmemory_phase4,1252820,,,,,,,,object_10b.png,,,50,,,,1,,object_01a.png,object_07b.png,object_03b.png,object_07b.png,,0.9473684210526315,1,,,,,,,,
3148.2999999970198,,directmemory_phase4,1255973,,,,,,,,object_15b.png,,,51,,,,1,,object_03a.png,object_01a.png,object_14c.png,object_14c.png,,0.9482758620689655,1,,,,,,,,
2439.3999999910593,,directmemory_phase4,1258416,,,,,,,,object_11b.png,,,50,,,,1,,object_02c.png,object_09a.png,object_03b.png,object_09a.png,,0.9491525423728814,1,,,,,,,,
2241.2000000029802,,directmemory_phase4,1260664,,,,,,,,object_09c.png,,,51,,,,1,,object_02b.png,object_06c.png,object_04a.png,object_04a.png,,0.95,1,,,,,,,,
null,,thebreak,1260771,,,,,,,,<p></p>,,,null,,,,,,,,,,,,,,,,,,,,
14833.5,,intro_0,1275608,,,,,,,,instruct,,,32,,,,,,,,,,,,,,,,,,,,
null,,learn_phase(without_color)5,1279113,,,,,,,,black_plus_sign,,,null,,object_13a.png,object_11c.png,,,,,,,,,,,,,,,,,
null,,black_cross(without_color)5,1279551,,,,,,,,blue,,,null,,object_13a.png,object_11c.png,,,,,,,,,,,,,,,,,
409.1000000089407,,rt_plussign_withcolor5,1280054,,,,,,,,blue,,,49,,object_13a.png,object_11c.png,,,,,,,,,,,,,,,,,
null,,rt_thecrossant_black5,1281624,,,,,,,,black_plus_sign,,,null,,,,1,,,,,,,1,,,,,,,,,
null,,color_black5,1281730,,,,,,,,black_plus_sign,,,null,,,,,,,,,,,,,,,,,,,,
null,,learn_phase(without_color)5,1285237,,,,,,,,black_plus_sign,,,null,,object_05b.png,object_01c.png,,,,,,,,,,,,,,,,,
null,,black_cross(without_color)5,1285743,,,,,,,,green,,,null,,object_05b.png,object_01c.png,,,,,,,,,,,,,,,,,
396.6000000089407,,rt_plussign_withcolor5,1286246,,,,,,,,green,,,49,,object_05b.png,object_01c.png,,,,,,,,,,,,,,,,,
null,,rt_thecrossant_black5,1287749,,,,,,,,black_plus_sign,,,null,,,,0,,,,,,,0.5,,,,,,,,,
null,,color_black5,1287852,,,,,,,,black_plus_sign,,,null,,,,,,,,,,,,,,,,,,,,
null,,learn_phase(without_color)5,1291358,,,,,,,,black_plus_sign,,,null,,object_04c.png,object_03b.png,,,,,,,,,,,,,,,,,
null,,black_cross(without_color)5,1292457,,,,,,,,green,,,null,,object_04c.png,object_03b.png,,,,,,,,,,,,,,,,,
null,,rt_plussign_withcolor5,1292960,,,,,,,,green,,,null,,object_04c.png,object_03b.png,,,,,,,,,,,,,,,,,
601.4000000059605,,rt_thecrossant_black5,1293873,,,,,,,,black_plus_sign,,,50,,,,1,,,,,,,0.6666666666666666,,,,,,,,,
null,,color_black5,1293986,,,,,,,,black_plus_sign,,,null,,,,,,,,,,,,,,,,,,,,
null,,learn_phase(without_color)5,1297491,,,,,,,,black_plus_sign,,,null,,object_14b.png,object_02a.png,,,,,,,,,,,,,,,,,
null,,black_cross(without_color)5,1298457,,,,,,,,green,,,null,,object_14b.png,object_02a.png,,,,,,,,,,,,,,,,,
null,,rt_plussign_withcolor5,1298959,,,,,,,,green,,,null,,object_14b.png,object_02a.png,,,,,,,,,,,,,,,,,
1259.7999999970198,,rt_thecrossant_black5,1300001,,,,,,,,black_plus_sign,,,50,,,,1,,,,,,,0.75,,,,,,,,,
null,,color_black5,1300105,,,,,,,,black_plus_sign,,,null,,,,,,,,,,,,,,,,,,,,
null,,learn_phase(without_color)5,1303609,,,,,,,,black_plus_sign,,,null,,object_06b.png,object_09a.png,,,,,,,,,,,,,,,,,
null,,black_cross(without_color)5,1304659,,,,,,,,blue,,,null,,object_06b.png,object_09a.png,,,,,,,,,,,,,,,,,
492.5,,rt_plussign_withcolor5,1305161,,,,,,,,blue,,,49,,object_06b.png,object_09a.png,,,,,,,,,,,,,,,,,
null,,rt_thecrossant_black5,1306129,,,,,,,,black_plus_sign,,,null,,,,1,,,,,,,0.8,,,,,,,,,
null,,color_black5,1306233,,,,,,,,black_plus_sign,,,null,,,,,,,,,,,,,,,,,,,,
null,,learn_phase(without_color)5,1309740,,,,,,,,black_plus_sign,,,null,,object_08a.png,object_10c.png,,,,,,,,,,,,,,,,,
null,,black_cross(without_color)5,1310789,,,,,,,,blue,,,null,,object_08a.png,object_10c.png,,,,,,,,,,,,,,,,,
null,,rt_plussign_withcolor5,1311293,,,,,,,,blue,,,null,,object_08a.png,object_10c.png,,,,,,,,,,,,,,,,,
1185.5999999940395,,rt_thecrossant_black5,1312253,,,,,,,,black_plus_sign,,,49,,,,1,,,,,,,0.8333333333333334,,,,,,,,,
null,,color_black5,1312356,,,,,,,,black_plus_sign,,,null,,,,,,,,,,,,,,,,,,,,
null,,learn_phase(without_color)5,1315862,,,,,,,,black_plus_sign,,,null,,object_04a.png,object_13c.png,,,,,,,,,,,,,,,,,
null,,black_cross(without_color)5,1316532,,,,,,,,green,,,null,,object_04a.png,object_13c.png,,,,,,,,,,,,,,,,,
null,,rt_plussign_withcolor5,1317036,,,,,,,,green,,,null,,object_04a.png,object_13c.png,,,,,,,,,,,,,,,,,
1240.5999999940395,,rt_thecrossant_black5,1318375,,,,,,,,black_plus_sign,,,50,,,,1,,,,,,,0.8571428571428571,,,,,,,,,
null,,color_black5,1318480,,,,,,,,black_plus_sign,,,null,,,,,,,,,,,,,,,,,,,,
null,,learn_phase(without_color)5,1321985,,,,,,,,black_plus_sign,,,null,,object_03a.png,object_09b.png,,,,,,,,,,,,,,,,,
null,,black_cross(without_color)5,1322424,,,,,,,,blue,,,null,,object_03a.png,object_09b.png,,,,,,,,,,,,,,,,,
null,,rt_plussign_withcolor5,1322929,,,,,,,,blue,,,null,,object_03a.png,object_09b.png,,,,,,,,,,,,,,,,,
953.2000000029802,,rt_thecrossant_black5,1324499,,,,,,,,black_plus_sign,,,49,,,,1,,,,,,,0.875,,,,,,,,,
null,,color_black5,1324604,,,,,,,,black_plus_sign,,,null,,,,,,,,,,,,,,,,,,,,
null,,learn_phase(without_color)5,1328109,,,,,,,,black_plus_sign,,,null,,object_01b.png,object_07b.png,,,,,,,,,,,,,,,,,
null,,black_cross(without_color)5,1328558,,,,,,,,blue,,,null,,object_01b.png,object_07b.png,,,,,,,,,,,,,,,,,
408.20000000298023,,rt_plussign_withcolor5,1329062,,,,,,,,blue,,,49,,object_01b.png,object_07b.png,,,,,,,,,,,,,,,,,
null,,rt_thecrossant_black5,1330622,,,,,,,,black_plus_sign,,,null,,,,1,,,,,,,0.8888888888888888,,,,,,,,,
null,,color_black5,1330725,,,,,,,,black_plus_sign,,,null,,,,,,,,,,,,,,,,,,,,
null,,learn_phase(without_color)5,1334228,,,,,,,,black_plus_sign,,,null,,object_15a.png,object_02b.png,,,,,,,,,,,,,,,,,
null,,black_cross(without_color)5,1335074,,,,,,,,blue,,,null,,object_15a.png,object_02b.png,,,,,,,,,,,,,,,,,
432.79999999701977,,rt_plussign_withcolor5,1335577,,,,,,,,blue,,,49,,object_15a.png,object_02b.png,,,,,,,,,,,,,,,,,
null,,rt_thecrossant_black5,1336738,,,,,,,,black_plus_sign,,,null,,,,1,,,,,,,0.9,,,,,,,,,
null,,color_black5,1336842,,,,,,,,black_plus_sign,,,null,,,,,,,,,,,,,,,,,,,,
null,,learn_phase(without_color)5,1340347,,,,,,,,black_plus_sign,,,null,,object_10a.png,object_04b.png,,,,,,,,,,,,,,,,,
null,,black_cross(without_color)5,1341038,,,,,,,,green,,,null,,object_10a.png,object_04b.png,,,,,,,,,,,,,,,,,
440.79999999701977,,rt_plussign_withcolor5,1341542,,,,,,,,green,,,50,,object_10a.png,object_04b.png,,,,,,,,,,,,,,,,,
null,,rt_thecrossant_black5,1342858,,,,,,,,black_plus_sign,,,null,,,,1,,,,,,,0.9090909090909091,,,,,,,,,
null,,color_black5,1342962,,,,,,,,black_plus_sign,,,null,,,,,,,,,,,,,,,,,,,,
null,,learn_phase(without_color)5,1346469,,,,,,,,black_plus_sign,,,null,,object_06a.png,object_08c.png,,,,,,,,,,,,,,,,,
null,,black_cross(without_color)5,1347498,,,,,,,,blue,,,null,,object_06a.png,object_08c.png,,,,,,,,,,,,,,,,,
359.70000000298023,,rt_plussign_withcolor5,1348002,,,,,,,,blue,,,49,,object_06a.png,object_08c.png,,,,,,,,,,,,,,,,,
null,,rt_thecrossant_black5,1348992,,,,,,,,black_plus_sign,,,null,,,,1,,,,,,,0.9166666666666666,,,,,,,,,
null,,color_black5,1349097,,,,,,,,black_plus_sign,,,null,,,,,,,,,,,,,,,,,,,,
null,,learn_phase(without_color)5,1352602,,,,,,,,black_plus_sign,,,null,,object_14c.png,object_07c.png,,,,,,,,,,,,,,,,,
null,,black_cross(without_color)5,1353514,,,,,,,,blue,,,null,,object_14c.png,object_07c.png,,,,,,,,,,,,,,,,,
427.20000000298023,,rt_plussign_withcolor5,1354018,,,,,,,,blue,,,49,,object_14c.png,object_07c.png,,,,,,,,,,,,,,,,,
null,,rt_thecrossant_black5,1355112,,,,,,,,black_plus_sign,,,null,,,,1,,,,,,,0.9230769230769231,,,,,,,,,
null,,color_black5,1355217,,,,,,,,black_plus_sign,,,null,,,,,,,,,,,,,,,,,,,,
null,,learn_phase(without_color)5,1358723,,,,,,,,black_plus_sign,,,null,,object_08b.png,object_05a.png,,,,,,,,,,,,,,,,,
null,,black_cross(without_color)5,1359439,,,,,,,,green,,,null,,object_08b.png,object_05a.png,,,,,,,,,,,,,,,,,
null,,rt_plussign_withcolor5,1359942,,,,,,,,green,,,null,,object_08b.png,object_05a.png,,,,,,,,,,,,,,,,,
1146.0999999940395,,rt_thecrossant_black5,1361236,,,,,,,,black_plus_sign,,,50,,,,1,,,,,,,0.9285714285714286,,,,,,,,,
null,,color_black5,1361340,,,,,,,,black_plus_sign,,,null,,,,,,,,,,,,,,,,,,,,
null,,learn_phase(without_color)5,1364843,,,,,,,,black_plus_sign,,,null,,object_15c.png,object_03c.png,,,,,,,,,,,,,,,,,
null,,black_cross(without_color)5,1365664,,,,,,,,blue,,,null,,object_15c.png,object_03c.png,,,,,,,,,,,,,,,,,
null,,rt_plussign_withcolor5,1366166,,,,,,,,blue,,,null,,object_15c.png,object_03c.png,,,,,,,,,,,,,,,,,
817.7000000029802,,rt_thecrossant_black5,1367354,,,,,,,,black_plus_sign,,,49,,,,1,,,,,,,0.9333333333333333,,,,,,,,,
null,,color_black5,1367460,,,,,,,,black_plus_sign,,,null,,,,,,,,,,,,,,,,,,,,
null,,thebreak,1367567,,,,,,,,<p></p>,,,null,,,,,,,,,,,,,,,,,,,,
6392.70000000298,,intro_0,1373963,,,,,,,,instruct,,,32,,,,,,,,,,,,,,,,,,,,
5121.5999999940395,,directmemory_phase5,1379088,,,,,,,,object_10a.png,,,49,,,,1,,object_04b.png,object_05b.png,object_02a.png,object_04b.png,,0.9508196721311475,1,,,,,,,,
2274.7999999970198,,directmemory_phase5,1381369,,,,,,,,object_07b.png,,,51,,,,1,,object_15a.png,object_14b.png,object_01b.png,object_01b.png,,0.9516129032258065,1,,,,,,,,
2310.2000000029802,,directmemory_phase5,1383685,,,,,,,,object_09a.png,,,49,,,,1,,object_06b.png,object_01c.png,object_15c.png,object_06b.png,,0.9523809523809523,1,,,,,,,,
1621.3999999910593,,directmemory_phase5,1385313,,,,,,,,object_08a.png,,,50,,,,1,,object_15a.png,object_10c.png,object_14b.png,object_10c.png,,0.953125,1,,,,,,,,
2102.7999999970198,,directmemory_phase5,1387421,,,,,,,,object_14c.png,,,49,,,,1,,object_07c.png,object_13c.png,object_03b.png,object_07c.png,,0.9538461538461539,1,,,,,,,,
2541.1000000089407,,directmemory_phase5,1389971,,,,,,,,object_15c.png,,,50,,,,1,,object_05b.png,object_03c.png,object_08a.png,object_03c.png,,0.9545454545454546,1,,,,,,,,
4335.20000000298,,directmemory_phase5,1394314,,,,,,,,object_03b.png,,,50,,,,1,,object_09a.png,object_04c.png,object_08a.png,object_04c.png,,0.9552238805970149,1,,,,,,,,
2734.1000000089407,,directmemory_phase5,1397055,,,,,,,,object_04a.png,,,51,,,,1,,object_03c.png,object_14c.png,object_13c.png,object_13c.png,,0.9558823529411765,1,,,,,,,,
2275.300000011921,,directmemory_phase5,1399335,,,,,,,,object_15a.png,,,51,,,,1,,object_08b.png,object_01c.png,object_02b.png,object_02b.png,,0.9565217391304348,1,,,,,,,,
1954.7000000029802,,directmemory_phase5,1401296,,,,,,,,object_08b.png,,,50,,,,1,,object_02b.png,object_05a.png,object_10a.png,object_05a.png,,0.9571428571428572,1,,,,,,,,
5170.20000000298,,directmemory_phase5,1406474,,,,,,,,object_11c.png,,,51,,,,1,,object_04a.png,object_02a.png,object_13a.png,object_13a.png,,0.9577464788732394,1,,,,,,,,
9911.59999999404,,directmemory_phase5,1416393,,,,,,,,object_08c.png,,,49,,,,0,,object_14c.png,object_06a.png,object_07c.png,object_06a.png,,0.9444444444444444,0,,,,,,,,
4583.70000000298,,directmemory_phase5,1420984,,,,,,,,object_14b.png,,,49,,,,1,,object_02a.png,object_05a.png,object_04b.png,object_02a.png,,0.9452054794520548,1,,,,,,,,
3295.5,,directmemory_phase5,1424286,,,,,,,,object_03a.png,,,49,,,,1,,object_09b.png,object_03c.png,object_07b.png,object_09b.png,,0.9459459459459459,1,,,,,,,,
6308.79999999702,,directmemory_phase5,1430603,,,,,,,,object_05b.png,,,50,,,,1,,object_09a.png,object_01c.png,object_04c.png,object_01c.png,,0.9466666666666667,1,,,,,,,,
null,,thebreak,1430709,,,,,,,,<p></p>,,,null,,,,,,,,,,,,,,,,,,,,
16536.39999999106,,intro_0,1447249,,,,,,,,instruct,,,32,,,,,,,,,,,,,,,,,,,,
null,,learn_phase(without_color)6,1450754,,,,,,,,black_plus_sign,,,null,,object_14c.png,object_07c.png,,,,,,,,,,,,,,,,,
null,,black_cross(without_color)6,1451546,,,,,,,,blue,,,null,,object_14c.png,object_07c.png,,,,,,,,,,,,,,,,,
null,,rt_plussign_withcolor6,1452050,,,,,,,,blue,,,null,,object_14c.png,object_07c.png,,,,,,,,,,,,,,,,,
898.5999999940395,,rt_thecrossant_black6,1453269,,,,,,,,black_plus_sign,,,49,,,,1,,,,,,,1,,,,,,,,,
null,,color_black6,1453373,,,,,,,,black_plus_sign,,,null,,,,,,,,,,,,,,,,,,,,
null,,learn_phase(without_color)6,1456878,,,,,,,,black_plus_sign,,,null,,object_01b.png,object_07b.png,,,,,,,,,,,,,,,,,
null,,black_cross(without_color)6,1457857,,,,,,,,green,,,null,,object_01b.png,object_07b.png,,,,,,,,,,,,,,,,,
501.20000000298023,,rt_plussign_withcolor6,1458362,,,,,,,,green,,,50,,object_01b.png,object_07b.png,,,,,,,,,,,,,,,,,
null,,rt_thecrossant_black6,1459394,,,,,,,,black_plus_sign,,,null,,,,1,,,,,,,1,,,,,,,,,
null,,color_black6,1459498,,,,,,,,black_plus_sign,,,null,,,,,,,,,,,,,,,,,,,,
null,,learn_phase(without_color)6,1463012,,,,,,,,black_plus_sign,,,null,,object_02b.png,object_15a.png,,,,,,,,,,,,,,,,,
null,,black_cross(without_color)6,1463743,,,,,,,,green,,,null,,object_02b.png,object_15a.png,,,,,,,,,,,,,,,,,
400.90000000596046,,rt_plussign_withcolor6,1464246,,,,,,,,green,,,50,,object_02b.png,object_15a.png,,,,,,,,,,,,,,,,,
null,,rt_thecrossant_black6,1465523,,,,,,,,black_plus_sign,,,null,,,,1,,,,,,,1,,,,,,,,,
null,,color_black6,1465628,,,,,,,,black_plus_sign,,,null,,,,,,,,,,,,,,,,,,,,
null,,learn_phase(without_color)6,1469134,,,,,,,,black_plus_sign,,,null,,object_01c.png,object_05b.png,,,,,,,,,,,,,,,,,
null,,black_cross(without_color)6,1469950,,,,,,,,blue,,,null,,object_01c.png,object_05b.png,,,,,,,,,,,,,,,,,
null,,rt_plussign_withcolor6,1470452,,,,,,,,blue,,,null,,object_01c.png,object_05b.png,,,,,,,,,,,,,,,,,
856,,rt_thecrossant_black6,1471644,,,,,,,,black_plus_sign,,,49,,,,1,,,,,,,1,,,,,,,,,
null,,color_black6,1471748,,,,,,,,black_plus_sign,,,null,,,,,,,,,,,,,,,,,,,,
null,,learn_phase(without_color)6,1475253,,,,,,,,black_plus_sign,,,null,,object_13c.png,object_04a.png,,,,,,,,,,,,,,,,,
null,,black_cross(without_color)6,1475761,,,,,,,,blue,,,null,,object_13c.png,object_04a.png,,,,,,,,,,,,,,,,,
null,,rt_plussign_withcolor6,1476263,,,,,,,,blue,,,null,,object_13c.png,object_04a.png,,,,,,,,,,,,,,,,,
944,,rt_thecrossant_black6,1477760,,,,,,,,black_plus_sign,,,49,,,,1,,,,,,,1,,,,,,,,,
null,,color_black6,1477864,,,,,,,,black_plus_sign,,,null,,,,,,,,,,,,,,,,,,,,
null,,learn_phase(without_color)6,1481369,,,,,,,,black_plus_sign,,,null,,object_06a.png,object_08c.png,,,,,,,,,,,,,,,,,
null,,black_cross(without_color)6,1482224,,,,,,,,green,,,null,,object_06a.png,object_08c.png,,,,,,,,,,,,,,,,,
null,,rt_plussign_withcolor6,1482728,,,,,,,,green,,,null,,object_06a.png,object_08c.png,,,,,,,,,,,,,,,,,
663,,rt_thecrossant_black6,1483881,,,,,,,,black_plus_sign,,,50,,,,1,,,,,,,1,,,,,,,,,
null,,color_black6,1483984,,,,,,,,black_plus_sign,,,null,,,,,,,,,,,,,,,,,,,,
null,,learn_phase(without_color)6,1487487,,,,,,,,black_plus_sign,,,null,,object_04c.png,object_03b.png,,,,,,,,,,,,,,,,,
null,,black_cross(without_color)6,1488507,,,,,,,,green,,,null,,object_04c.png,object_03b.png,,,,,,,,,,,,,,,,,
null,,rt_plussign_withcolor6,1489011,,,,,,,,green,,,null,,object_04c.png,object_03b.png,,,,,,,,,,,,,,,,,
989,,rt_thecrossant_black6,1490001,,,,,,,,black_plus_sign,,,50,,,,1,,,,,,,1,,,,,,,,,
null,,color_black6,1490105,,,,,,,,black_plus_sign,,,null,,,,,,,,,,,,,,,,,,,,
null,,learn_phase(without_color)6,1493610,,,,,,,,black_plus_sign,,,null,,object_11c.png,object_13a.png,,,,,,,,,,,,,,,,,
null,,black_cross(without_color)6,1494643,,,,,,,,green,,,null,,object_11c.png,object_13a.png,,,,,,,,,,,,,,,,,
482,,rt_plussign_withcolor6,1495145,,,,,,,,green,,,50,,object_11c.png,object_13a.png,,,,,,,,,,,,,,,,,
null,,rt_thecrossant_black6,1496121,,,,,,,,black_plus_sign,,,null,,,,1,,,,,,,1,,,,,,,,,
null,,color_black6,1496225,,,,,,,,black_plus_sign,,,null,,,,,,,,,,,,,,,,,,,,
null,,learn_phase(without_color)6,1499729,,,,,,,,black_plus_sign,,,null,,object_04b.png,object_10a.png,,,,,,,,,,,,,,,,,
null,,black_cross(without_color)6,1500688,,,,,,,,blue,,,null,,object_04b.png,object_10a.png,,,,,,,,,,,,,,,,,
null,,rt_plussign_withcolor6,1501192,,,,,,,,blue,,,null,,object_04b.png,object_10a.png,,,,,,,,,,,,,,,,,
1232,,rt_thecrossant_black6,1502247,,,,,,,,black_plus_sign,,,49,,,,1,,,,,,,1,,,,,,,,,
null,,color_black6,1502351,,,,,,,,black_plus_sign,,,null,,,,,,,,,,,,,,,,,,,,
null,,learn_phase(without_color)6,1505857,,,,,,,,black_plus_sign,,,null,,object_06b.png,object_09a.png,,,,,,,,,,,,,,,,,
null,,black_cross(without_color)6,1506278,,,,,,,,blue,,,null,,object_06b.png,object_09a.png,,,,,,,,,,,,,,,,,
null,,rt_plussign_withcolor6,1506781,,,,,,,,blue,,,null,,object_06b.png,object_09a.png,,,,,,,,,,,,,,,,,
1195.0999999940395,,rt_thecrossant_black6,1508370,,,,,,,,black_plus_sign,,,49,,,,1,,,,,,,1,,,,,,,,,
null,,color_black6,1508474,,,,,,,,black_plus_sign,,,null,,,,,,,,,,,,,,,,,,,,
null,,learn_phase(without_color)6,1511983,,,,,,,,black_plus_sign,,,null,,object_02a.png,object_14b.png,,,,,,,,,,,,,,,,,
null,,black_cross(without_color)6,1512470,,,,,,,,green,,,null,,object_02a.png,object_14b.png,,,,,,,,,,,,,,,,,
null,,rt_plussign_withcolor6,1512973,,,,,,,,green,,,null,,object_02a.png,object_14b.png,,,,,,,,,,,,,,,,,
628.9000000059605,,rt_thecrossant_black6,1514497,,,,,,,,black_plus_sign,,,50,,,,1,,,,,,,1,,,,,,,,,
null,,color_black6,1514601,,,,,,,,black_plus_sign,,,null,,,,,,,,,,,,,,,,,,,,
null,,learn_phase(without_color)6,1518106,,,,,,,,black_plus_sign,,,null,,object_08a.png,object_10c.png,,,,,,,,,,,,,,,,,
null,,black_cross(without_color)6,1518856,,,,,,,,blue,,,null,,object_08a.png,object_10c.png,,,,,,,,,,,,,,,,,
null,,rt_plussign_withcolor6,1519359,,,,,,,,blue,,,null,,object_08a.png,object_10c.png,,,,,,,,,,,,,,,,,
801.1000000089407,,rt_thecrossant_black6,1520618,,,,,,,,black_plus_sign,,,49,,,,1,,,,,,,1,,,,,,,,,
null,,color_black6,1520722,,,,,,,,black_plus_sign,,,null,,,,,,,,,,,,,,,,,,,,
null,,learn_phase(without_color)6,1524229,,,,,,,,black_plus_sign,,,null,,object_15c.png,object_03c.png,,,,,,,,,,,,,,,,,
null,,black_cross(without_color)6,1525196,,,,,,,,blue,,,null,,object_15c.png,object_03c.png,,,,,,,,,,,,,,,,,
476.70000000298023,,rt_plussign_withcolor6,1525699,,,,,,,,blue,,,49,,object_15c.png,object_03c.png,,,,,,,,,,,,,,,,,
null,,rt_thecrossant_black6,1526743,,,,,,,,black_plus_sign,,,null,,,,1,,,,,,,1,,,,,,,,,
null,,color_black6,1526849,,,,,,,,black_plus_sign,,,null,,,,,,,,,,,,,,,,,,,,
null,,learn_phase(without_color)6,1530356,,,,,,,,black_plus_sign,,,null,,object_08b.png,object_05a.png,,,,,,,,,,,,,,,,,
null,,black_cross(without_color)6,1531403,,,,,,,,green,,,null,,object_08b.png,object_05a.png,,,,,,,,,,,,,,,,,
466.80000001192093,,rt_plussign_withcolor6,1531908,,,,,,,,green,,,50,,object_08b.png,object_05a.png,,,,,,,,,,,,,,,,,
null,,rt_thecrossant_black6,1532872,,,,,,,,black_plus_sign,,,null,,,,1,,,,,,,1,,,,,,,,,
null,,color_black6,1532977,,,,,,,,black_plus_sign,,,null,,,,,,,,,,,,,,,,,,,,
null,,learn_phase(without_color)6,1536484,,,,,,,,black_plus_sign,,,null,,object_09b.png,object_03a.png,,,,,,,,,,,,,,,,,
null,,black_cross(without_color)6,1537484,,,,,,,,blue,,,null,,object_09b.png,object_03a.png,,,,,,,,,,,,,,,,,
423.8999999910593,,rt_plussign_withcolor6,1537989,,,,,,,,blue,,,49,,object_09b.png,object_03a.png,,,,,,,,,,,,,,,,,
null,,rt_thecrossant_black6,1538999,,,,,,,,black_plus_sign,,,null,,,,1,,,,,,,1,,,,,,,,,
null,,color_black6,1539104,,,,,,,,black_plus_sign,,,null,,,,,,,,,,,,,,,,,,,,
null,,thebreak,1539211,,,,,,,,<p></p>,,,null,,,,,,,,,,,,,,,,,,,,
11886.29999999702,,intro_0,1551101,,,,,,,,instruct,,,32,,,,,,,,,,,,,,,,,,,,
2303.4000000059605,,directmemory_phase6,1553408,,,,,,,,object_09a.png,,,50,,,,1,,object_03b.png,object_06b.png,object_01c.png,object_06b.png,,0.9473684210526315,1,,,,,,,,
2309.7000000029802,,directmemory_phase6,1555724,,,,,,,,object_14c.png,,,49,,,,1,,object_07c.png,object_09b.png,object_02b.png,object_07c.png,,0.948051948051948,1,,,,,,,,
3442.300000011921,,directmemory_phase6,1559173,,,,,,,,object_05a.png,,,51,,,,1,,object_14c.png,object_15a.png,object_08b.png,object_08b.png,,0.9487179487179487,1,,,,,,,,
7270.79999999702,,directmemory_phase6,1566449,,,,,,,,object_03b.png,,,50,,,,1,,object_09a.png,object_04c.png,object_10a.png,object_04c.png,,0.9493670886075949,1,,,,,,,,
3006.5,,directmemory_phase6,1569462,,,,,,,,object_03c.png,,,50,,,,1,,object_13c.png,object_15c.png,object_05b.png,object_15c.png,,0.95,1,,,,,,,,
2138.4000000059605,,directmemory_phase6,1571606,,,,,,,,object_13a.png,,,50,,,,1,,object_05b.png,object_11c.png,object_08a.png,object_11c.png,,0.9506172839506173,1,,,,,,,,
8806.29999999702,,directmemory_phase6,1580416,,,,,,,,object_04b.png,,,51,,,,1,,object_06a.png,object_14c.png,object_10a.png,object_10a.png,,0.9512195121951219,1,,,,,,,,
2015.1000000089407,,directmemory_phase6,1582438,,,,,,,,object_14b.png,,,49,,,,1,,object_02a.png,object_09b.png,object_09a.png,object_02a.png,,0.9518072289156626,1,,,,,,,,
6631.20000000298,,directmemory_phase6,1589076,,,,,,,,object_04a.png,,,49,,,,1,,object_13c.png,object_07c.png,object_07b.png,object_13c.png,,0.9523809523809523,1,,,,,,,,
3402.9000000059605,,directmemory_phase6,1592484,,,,,,,,object_08c.png,,,51,,,,1,,object_13c.png,object_04b.png,object_06a.png,object_06a.png,,0.9529411764705882,1,,,,,,,,
1608.9000000059605,,directmemory_phase6,1594100,,,,,,,,object_02b.png,,,50,,,,1,,object_04b.png,object_15a.png,object_02a.png,object_15a.png,,0.9534883720930233,1,,,,,,,,
2235.9000000059605,,directmemory_phase6,1596342,,,,,,,,object_01b.png,,,51,,,,1,,object_03b.png,object_05a.png,object_07b.png,object_07b.png,,0.9540229885057471,1,,,,,,,,
9163.70000000298,,directmemory_phase6,1605509,,,,,,,,object_05b.png,,,51,,,,1,,object_10a.png,object_04b.png,object_01c.png,object_01c.png,,0.9545454545454546,1,,,,,,,,
2064.7000000029802,,directmemory_phase6,1607579,,,,,,,,object_10c.png,,,49,,,,1,,object_08a.png,object_01b.png,object_08c.png,object_08a.png,,0.9550561797752809,1,,,,,,,,
5064.5,,directmemory_phase6,1612650,,,,,,,,object_03a.png,,,50,,,,1,,object_07b.png,object_09b.png,object_15a.png,object_09b.png,,0.9555555555555556,1,,,,,,,,
null,,thebreak,1612756,,,,,,,,<p></p>,,,null,,,,,,,,,,,,,,,,,,,,
15040.10000000894,,intro_0,1627799,,,,,,,,instruct,,,32,,,,,,,,,,,,,,,,,,,,
null,,learn_phase(without_color)7,1631304,,,,,,,,black_plus_sign,,,null,,object_02a.png,object_14b.png,,,,,,,,,,,,,,,,,
null,,black_cross(without_color)7,1631853,,,,,,,,green,,,null,,object_02a.png,object_14b.png,,,,,,,,,,,,,,,,,
null,,rt_plussign_withcolor7,1632367,,,,,,,,green,,,null,,object_02a.png,object_14b.png,,,,,,,,,,,,,,,,,
654.7999999970198,,rt_thecrossant_black7,1633836,,,,,,,,black_plus_sign,,,50,,,,1,,,,,,,1,,,,,,,,,
null,,color_black7,1633940,,,,,,,,black_plus_sign,,,null,,,,,,,,,,,,,,,,,,,,
null,,learn_phase(without_color)7,1637447,,,,,,,,black_plus_sign,,,null,,object_04b.png,object_10a.png,,,,,,,,,,,,,,,,,
null,,black_cross(without_color)7,1637893,,,,,,,,blue,,,null,,object_04b.png,object_10a.png,,,,,,,,,,,,,,,,,
null,,rt_plussign_withcolor7,1638396,,,,,,,,blue,,,null,,object_04b.png,object_10a.png,,,,,,,,,,,,,,,,,
713.9000000059605,,rt_thecrossant_black7,1639960,,,,,,,,black_plus_sign,,,49,,,,1,,,,,,,1,,,,,,,,,
null,,color_black7,1640065,,,,,,,,black_plus_sign,,,null,,,,,,,,,,,,,,,,,,,,
null,,learn_phase(without_color)7,1643572,,,,,,,,black_plus_sign,,,null,,object_04c.png,object_03b.png,,,,,,,,,,,,,,,,,
null,,black_cross(without_color)7,1644302,,,,,,,,green,,,null,,object_04c.png,object_03b.png,,,,,,,,,,,,,,,,,
null,,rt_plussign_withcolor7,1644806,,,,,,,,green,,,null,,object_04c.png,object_03b.png,,,,,,,,,,,,,,,,,
549.2000000029802,,rt_thecrossant_black7,1646085,,,,,,,,black_plus_sign,,,50,,,,1,,,,,,,1,,,,,,,,,
null,,color_black7,1646190,,,,,,,,black_plus_sign,,,null,,,,,,,,,,,,,,,,,,,,
null,,learn_phase(without_color)7,1649696,,,,,,,,black_plus_sign,,,null,,object_09b.png,object_03a.png,,,,,,,,,,,,,,,,,
null,,black_cross(without_color)7,1650598,,,,,,,,blue,,,null,,object_09b.png,object_03a.png,,,,,,,,,,,,,,,,,
432.09999999403954,,rt_plussign_withcolor7,1651102,,,,,,,,blue,,,49,,object_09b.png,object_03a.png,,,,,,,,,,,,,,,,,
null,,rt_thecrossant_black7,1652210,,,,,,,,black_plus_sign,,,null,,,,1,,,,,,,1,,,,,,,,,
null,,color_black7,1652315,,,,,,,,black_plus_sign,,,null,,,,,,,,,,,,,,,,,,,,
null,,learn_phase(without_color)7,1655819,,,,,,,,black_plus_sign,,,null,,object_01c.png,object_05b.png,,,,,,,,,,,,,,,,,
null,,black_cross(without_color)7,1656803,,,,,,,,blue,,,null,,object_01c.png,object_05b.png,,,,,,,,,,,,,,,,,
364.20000000298023,,rt_plussign_withcolor7,1657307,,,,,,,,blue,,,49,,object_01c.png,object_05b.png,,,,,,,,,,,,,,,,,
null,,rt_thecrossant_black7,1658332,,,,,,,,black_plus_sign,,,null,,,,1,,,,,,,1,,,,,,,,,
null,,color_black7,1658438,,,,,,,,black_plus_sign,,,null,,,,,,,,,,,,,,,,,,,,
null,,learn_phase(without_color)7,1661946,,,,,,,,black_plus_sign,,,null,,object_05a.png,object_08b.png,,,,,,,,,,,,,,,,,
null,,black_cross(without_color)7,1662693,,,,,,,,green,,,null,,object_05a.png,object_08b.png,,,,,,,,,,,,,,,,,
null,,rt_plussign_withcolor7,1663196,,,,,,,,green,,,null,,object_05a.png,object_08b.png,,,,,,,,,,,,,,,,,
1139.0999999940395,,rt_thecrossant_black7,1664457,,,,,,,,black_plus_sign,,,50,,,,1,,,,,,,1,,,,,,,,,
null,,color_black7,1664562,,,,,,,,black_plus_sign,,,null,,,,,,,,,,,,,,,,,,,,
null,,learn_phase(without_color)7,1668071,,,,,,,,black_plus_sign,,,null,,object_07b.png,object_01b.png,,,,,,,,,,,,,,,,,
null,,black_cross(without_color)7,1668704,,,,,,,,green,,,null,,object_07b.png,object_01b.png,,,,,,,,,,,,,,,,,
null,,rt_plussign_withcolor7,1669207,,,,,,,,green,,,null,,object_07b.png,object_01b.png,,,,,,,,,,,,,,,,,
null,,rt_thecrossant_black7,1670580,,,,,,,,black_plus_sign,,,null,,,,,,,,,,,1,,,,,,,,,
null,,color_black7,1670684,,,,,,,,black_plus_sign,,,null,,,,,,,,,,,,,,,,,,,,
null,,learn_phase(without_color)7,1674191,,,,,,,,black_plus_sign,,,null,,object_15a.png,object_02b.png,,,,,,,,,,,,,,,,,
null,,black_cross(without_color)7,1675135,,,,,,,,blue,,,null,,object_15a.png,object_02b.png,,,,,,,,,,,,,,,,,
null,,rt_plussign_withcolor7,1675639,,,,,,,,blue,,,null,,object_15a.png,object_02b.png,,,,,,,,,,,,,,,,,
1000,,rt_thecrossant_black7,1676705,,,,,,,,black_plus_sign,,,49,,,,1,,,,,,,1,,,,,,,,,
null,,color_black7,1676811,,,,,,,,black_plus_sign,,,null,,,,,,,,,,,,,,,,,,,,
null,,learn_phase(without_color)7,1680318,,,,,,,,black_plus_sign,,,null,,object_04a.png,object_13c.png,,,,,,,,,,,,,,,,,
null,,black_cross(without_color)7,1681033,,,,,,,,green,,,null,,object_04a.png,object_13c.png,,,,,,,,,,,,,,,,,
null,,rt_plussign_withcolor7,1681537,,,,,,,,green,,,null,,object_04a.png,object_13c.png,,,,,,,,,,,,,,,,,
1186.7999999970198,,rt_thecrossant_black7,1682832,,,,,,,,black_plus_sign,,,50,,,,1,,,,,,,1,,,,,,,,,
null,,color_black7,1682936,,,,,,,,black_plus_sign,,,null,,,,,,,,,,,,,,,,,,,,
null,,learn_phase(without_color)7,1686441,,,,,,,,black_plus_sign,,,null,,object_03c.png,object_15c.png,,,,,,,,,,,,,,,,,
null,,black_cross(without_color)7,1687203,,,,,,,,blue,,,null,,object_03c.png,object_15c.png,,,,,,,,,,,,,,,,,
487.19999998807907,,rt_plussign_withcolor7,1687705,,,,,,,,blue,,,49,,object_03c.png,object_15c.png,,,,,,,,,,,,,,,,,
null,,rt_thecrossant_black7,1688956,,,,,,,,black_plus_sign,,,null,,,,1,,,,,,,1,,,,,,,,,
null,,color_black7,1689061,,,,,,,,black_plus_sign,,,null,,,,,,,,,,,,,,,,,,,,
null,,learn_phase(without_color)7,1692565,,,,,,,,black_plus_sign,,,null,,object_14c.png,object_07c.png,,,,,,,,,,,,,,,,,
null,,black_cross(without_color)7,1693282,,,,,,,,green,,,null,,object_14c.png,object_07c.png,,,,,,,,,,,,,,,,,
484.79999999701977,,rt_plussign_withcolor7,1693785,,,,,,,,green,,,50,,object_14c.png,object_07c.png,,,,,,,,,,,,,,,,,
null,,rt_thecrossant_black7,1695076,,,,,,,,black_plus_sign,,,null,,,,1,,,,,,,1,,,,,,,,,
null,,color_black7,1695180,,,,,,,,black_plus_sign,,,null,,,,,,,,,,,,,,,,,,,,
null,,learn_phase(without_color)7,1698684,,,,,,,,black_plus_sign,,,null,,object_13a.png,object_11c.png,,,,,,,,,,,,,,,,,
null,,black_cross(without_color)7,1699230,,,,,,,,blue,,,null,,object_13a.png,object_11c.png,,,,,,,,,,,,,,,,,
null,,rt_plussign_withcolor7,1699733,,,,,,,,blue,,,null,,object_13a.png,object_11c.png,,,,,,,,,,,,,,,,,
902.2999999970198,,rt_thecrossant_black7,1701197,,,,,,,,black_plus_sign,,,49,,,,1,,,,,,,1,,,,,,,,,
null,,color_black7,1701300,,,,,,,,black_plus_sign,,,null,,,,,,,,,,,,,,,,,,,,
null,,learn_phase(without_color)7,1704805,,,,,,,,black_plus_sign,,,null,,object_06a.png,object_08c.png,,,,,,,,,,,,,,,,,
null,,black_cross(without_color)7,1705808,,,,,,,,green,,,null,,object_06a.png,object_08c.png,,,,,,,,,,,,,,,,,
null,,rt_plussign_withcolor7,1706311,,,,,,,,green,,,null,,object_06a.png,object_08c.png,,,,,,,,,,,,,,,,,
703.5,,rt_thecrossant_black7,1707315,,,,,,,,black_plus_sign,,,50,,,,1,,,,,,,1,,,,,,,,,
null,,color_black7,1707420,,,,,,,,black_plus_sign,,,null,,,,,,,,,,,,,,,,,,,,
null,,learn_phase(without_color)7,1710923,,,,,,,,black_plus_sign,,,null,,object_06b.png,object_09a.png,,,,,,,,,,,,,,,,,
null,,black_cross(without_color)7,1711342,,,,,,,,blue,,,null,,object_06b.png,object_09a.png,,,,,,,,,,,,,,,,,
null,,rt_plussign_withcolor7,1711846,,,,,,,,blue,,,null,,object_06b.png,object_09a.png,,,,,,,,,,,,,,,,,
1100.3999999910593,,rt_thecrossant_black7,1713446,,,,,,,,black_plus_sign,,,49,,,,1,,,,,,,1,,,,,,,,,
null,,color_black7,1713549,,,,,,,,black_plus_sign,,,null,,,,,,,,,,,,,,,,,,,,
null,,learn_phase(without_color)7,1717056,,,,,,,,black_plus_sign,,,null,,object_08a.png,object_10c.png,,,,,,,,,,,,,,,,,
null,,black_cross(without_color)7,1717712,,,,,,,,blue,,,null,,object_08a.png,object_10c.png,,,,,,,,,,,,,,,,,
null,,rt_plussign_withcolor7,1718216,,,,,,,,blue,,,null,,object_08a.png,object_10c.png,,,,,,,,,,,,,,,,,
617.6000000089407,,rt_thecrossant_black7,1719569,,,,,,,,black_plus_sign,,,49,,,,1,,,,,,,1,,,,,,,,,
null,,color_black7,1719674,,,,,,,,black_plus_sign,,,null,,,,,,,,,,,,,,,,,,,,
null,,thebreak,1719781,,,,,,,,<p></p>,,,null,,,,,,,,,,,,,,,,,,,,
7369.70000000298,,intro_0,1727154,,,,,,,,instruct,,,32,,,,,,,,,,,,,,,,,,,,
2371.5,,directmemory_phase7,1729530,,,,,,,,object_06a.png,,,49,,,,1,,object_08c.png,object_10c.png,object_01b.png,object_08c.png,,0.9560439560439561,1,,,,,,,,
2318.2000000029802,,directmemory_phase7,1731855,,,,,,,,object_03c.png,,,50,,,,1,,object_02a.png,object_15c.png,object_05b.png,object_15c.png,,0.9565217391304348,1,,,,,,,,
4050.5,,directmemory_phase7,1735911,,,,,,,,object_08b.png,,,49,,,,1,,object_05a.png,object_06a.png,object_09a.png,object_05a.png,,0.956989247311828,1,,,,,,,,
5322.4000000059605,,directmemory_phase7,1741243,,,,,,,,object_06b.png,,,50,,,,1,,object_07c.png,object_09a.png,object_14b.png,object_09a.png,,0.9574468085106383,1,,,,,,,,
5324.399999991059,,directmemory_phase7,1746575,,,,,,,,object_07b.png,,,51,,,,1,,object_06b.png,object_14c.png,object_01b.png,object_01b.png,,0.9578947368421052,1,,,,,,,,
2250.2999999970198,,directmemory_phase7,1748832,,,,,,,,object_02b.png,,,50,,,,1,,object_08c.png,object_15a.png,object_13c.png,object_15a.png,,0.9583333333333334,1,,,,,,,,
2796.2000000029802,,directmemory_phase7,1751632,,,,,,,,object_04c.png,,,49,,,,1,,object_03b.png,object_07b.png,object_03c.png,object_03b.png,,0.9587628865979382,1,,,,,,,,
2247,,directmemory_phase7,1753887,,,,,,,,object_03a.png,,,50,,,,1,,object_15c.png,object_09b.png,object_06a.png,object_09b.png,,0.9591836734693877,1,,,,,,,,
1570.2999999970198,,directmemory_phase7,1755461,,,,,,,,object_08a.png,,,50,,,,1,,object_07c.png,object_10c.png,object_08c.png,object_10c.png,,0.9595959595959596,1,,,,,,,,
3132.0999999940395,,directmemory_phase7,1758600,,,,,,,,object_13a.png,,,49,,,,1,,object_11c.png,object_06b.png,object_14b.png,object_11c.png,,0.96,1,,,,,,,,
3045.6000000089407,,directmemory_phase7,1761653,,,,,,,,object_10a.png,,,51,,,,1,,object_14b.png,object_04c.png,object_04b.png,object_04b.png,,0.9603960396039604,1,,,,,,,,
4594.4000000059605,,directmemory_phase7,1766255,,,,,,,,object_07c.png,,,50,,,,1,,object_10a.png,object_14c.png,object_15c.png,object_14c.png,,0.9607843137254902,1,,,,,,,,
3708.2000000029802,,directmemory_phase7,1769971,,,,,,,,object_01c.png,,,50,,,,1,,object_06a.png,object_05b.png,object_08c.png,object_05b.png,,0.9611650485436893,1,,,,,,,,
8123,,directmemory_phase7,1778098,,,,,,,,object_02a.png,,,50,,,,0,,object_08b.png,object_15a.png,object_14b.png,object_14b.png,,0.9519230769230769,0,,,,,,,,
3790.2000000029802,,directmemory_phase7,1781893,,,,,,,,object_04a.png,,,49,,,,1,,object_13c.png,object_06a.png,object_08b.png,object_13c.png,,0.9523809523809523,1,,,,,,,,
null,,thebreak,1781997,,,,,,,,<p></p>,,,null,,,,,,,,,,,,,,,,,,,,
15241.10000000894,,intro_0,1797243,,,,,,,,instruct,,,32,,,,,,,,,,,,,,,,,,,,
null,,learn_phase(without_color)8,1800748,,,,,,,,black_plus_sign,,,null,,object_15a.png,object_02b.png,,,,,,,,,,,,,,,,,
null,,black_cross(without_color)8,1801777,,,,,,,,blue,,,null,,object_15a.png,object_02b.png,,,,,,,,,,,,,,,,,
420.40000000596046,,rt_plussign_withcolor8,1802280,,,,,,,,blue,,,49,,object_15a.png,object_02b.png,,,,,,,,,,,,,,,,,
null,,rt_thecrossant_black8,1803261,,,,,,,,black_plus_sign,,,null,,,,1,,,,,,,1,,,,,,,,,
null,,color_black8,1803365,,,,,,,,black_plus_sign,,,null,,,,,,,,,,,,,,,,,,,,
null,,learn_phase(without_color)8,1806869,,,,,,,,black_plus_sign,,,null,,object_04c.png,object_03b.png,,,,,,,,,,,,,,,,,
null,,black_cross(without_color)8,1807681,,,,,,,,blue,,,null,,object_04c.png,object_03b.png,,,,,,,,,,,,,,,,,
394.3999999910593,,rt_plussign_withcolor8,1808185,,,,,,,,blue,,,49,,object_04c.png,object_03b.png,,,,,,,,,,,,,,,,,
null,,rt_thecrossant_black8,1809383,,,,,,,,black_plus_sign,,,null,,,,1,,,,,,,1,,,,,,,,,
null,,color_black8,1809486,,,,,,,,black_plus_sign,,,null,,,,,,,,,,,,,,,,,,,,
null,,learn_phase(without_color)8,1812992,,,,,,,,black_plus_sign,,,null,,object_13c.png,object_04a.png,,,,,,,,,,,,,,,,,
null,,black_cross(without_color)8,1813773,,,,,,,,green,,,null,,object_13c.png,object_04a.png,,,,,,,,,,,,,,,,,
null,,rt_plussign_withcolor8,1814276,,,,,,,,green,,,null,,object_13c.png,object_04a.png,,,,,,,,,,,,,,,,,
967.1000000089407,,rt_thecrossant_black8,1815507,,,,,,,,black_plus_sign,,,50,,,,1,,,,,,,1,,,,,,,,,
null,,color_black8,1815611,,,,,,,,black_plus_sign,,,null,,,,,,,,,,,,,,,,,,,,
null,,learn_phase(without_color)8,1819117,,,,,,,,black_plus_sign,,,null,,object_10a.png,object_04b.png,,,,,,,,,,,,,,,,,
null,,black_cross(without_color)8,1819653,,,,,,,,green,,,null,,object_10a.png,object_04b.png,,,,,,,,,,,,,,,,,
null,,rt_plussign_withcolor8,1820157,,,,,,,,green,,,null,,object_10a.png,object_04b.png,,,,,,,,,,,,,,,,,
1086.5999999940395,,rt_thecrossant_black8,1821631,,,,,,,,black_plus_sign,,,50,,,,1,,,,,,,1,,,,,,,,,
null,,color_black8,1821735,,,,,,,,black_plus_sign,,,null,,,,,,,,,,,,,,,,,,,,
null,,learn_phase(without_color)8,1825240,,,,,,,,black_plus_sign,,,null,,object_08b.png,object_05a.png,,,,,,,,,,,,,,,,,
null,,black_cross(without_color)8,1825919,,,,,,,,blue,,,null,,object_08b.png,object_05a.png,,,,,,,,,,,,,,,,,
null,,rt_plussign_withcolor8,1826423,,,,,,,,blue,,,null,,object_08b.png,object_05a.png,,,,,,,,,,,,,,,,,
681,,rt_thecrossant_black8,1827753,,,,,,,,black_plus_sign,,,49,,,,1,,,,,,,1,,,,,,,,,
null,,color_black8,1827857,,,,,,,,black_plus_sign,,,null,,,,,,,,,,,,,,,,,,,,
null,,learn_phase(without_color)8,1831364,,,,,,,,black_plus_sign,,,null,,object_05b.png,object_01c.png,,,,,,,,,,,,,,,,,
null,,black_cross(without_color)8,1831799,,,,,,,,blue,,,null,,object_05b.png,object_01c.png,,,,,,,,,,,,,,,,,
null,,rt_plussign_withcolor8,1832302,,,,,,,,blue,,,null,,object_05b.png,object_01c.png,,,,,,,,,,,,,,,,,
922.7000000029802,,rt_thecrossant_black8,1833875,,,,,,,,black_plus_sign,,,49,,,,1,,,,,,,1,,,,,,,,,
null,,color_black8,1833978,,,,,,,,black_plus_sign,,,null,,,,,,,,,,,,,,,,,,,,
null,,learn_phase(without_color)8,1837483,,,,,,,,black_plus_sign,,,null,,object_10c.png,object_08a.png,,,,,,,,,,,,,,,,,
null,,black_cross(without_color)8,1838001,,,,,,,,blue,,,null,,object_10c.png,object_08a.png,,,,,,,,,,,,,,,,,
null,,rt_plussign_withcolor8,1838505,,,,,,,,blue,,,null,,object_10c.png,object_08a.png,,,,,,,,,,,,,,,,,
671.2999999970198,,rt_thecrossant_black8,1839997,,,,,,,,black_plus_sign,,,49,,,,1,,,,,,,1,,,,,,,,,
null,,color_black8,1840101,,,,,,,,black_plus_sign,,,null,,,,,,,,,,,,,,,,,,,,
null,,learn_phase(without_color)8,1843608,,,,,,,,black_plus_sign,,,null,,object_14c.png,object_07c.png,,,,,,,,,,,,,,,,,
null,,black_cross(without_color)8,1844520,,,,,,,,green,,,null,,object_14c.png,object_07c.png,,,,,,,,,,,,,,,,,
458.70000000298023,,rt_plussign_withcolor8,1845023,,,,,,,,green,,,50,,object_14c.png,object_07c.png,,,,,,,,,,,,,,,,,
null,,rt_thecrossant_black8,1846120,,,,,,,,black_plus_sign,,,null,,,,1,,,,,,,1,,,,,,,,,
null,,color_black8,1846224,,,,,,,,black_plus_sign,,,null,,,,,,,,,,,,,,,,,,,,
null,,learn_phase(without_color)8,1849730,,,,,,,,black_plus_sign,,,null,,object_03a.png,object_09b.png,,,,,,,,,,,,,,,,,
null,,black_cross(without_color)8,1850550,,,,,,,,green,,,null,,object_03a.png,object_09b.png,,,,,,,,,,,,,,,,,
null,,rt_plussign_withcolor8,1851053,,,,,,,,green,,,null,,object_03a.png,object_09b.png,,,,,,,,,,,,,,,,,
1095.0999999940395,,rt_thecrossant_black8,1852248,,,,,,,,black_plus_sign,,,50,,,,1,,,,,,,1,,,,,,,,,
null,,color_black8,1852352,,,,,,,,black_plus_sign,,,null,,,,,,,,,,,,,,,,,,,,
null,,learn_phase(without_color)8,1855857,,,,,,,,black_plus_sign,,,null,,object_06a.png,object_08c.png,,,,,,,,,,,,,,,,,
null,,black_cross(without_color)8,1856530,,,,,,,,blue,,,null,,object_06a.png,object_08c.png,,,,,,,,,,,,,,,,,
null,,rt_plussign_withcolor8,1857034,,,,,,,,blue,,,null,,object_06a.png,object_08c.png,,,,,,,,,,,,,,,,,
986.7999999970198,,rt_thecrossant_black8,1858371,,,,,,,,black_plus_sign,,,49,,,,1,,,,,,,1,,,,,,,,,
null,,color_black8,1858476,,,,,,,,black_plus_sign,,,null,,,,,,,,,,,,,,,,,,,,
null,,learn_phase(without_color)8,1861983,,,,,,,,black_plus_sign,,,null,,object_15c.png,object_03c.png,,,,,,,,,,,,,,,,,
null,,black_cross(without_color)8,1863005,,,,,,,,green,,,null,,object_15c.png,object_03c.png,,,,,,,,,,,,,,,,,
438.20000000298023,,rt_plussign_withcolor8,1863509,,,,,,,,green,,,50,,object_15c.png,object_03c.png,,,,,,,,,,,,,,,,,
null,,rt_thecrossant_black8,1864495,,,,,,,,black_plus_sign,,,null,,,,1,,,,,,,1,,,,,,,,,
null,,color_black8,1864600,,,,,,,,black_plus_sign,,,null,,,,,,,,,,,,,,,,,,,,
null,,learn_phase(without_color)8,1868107,,,,,,,,black_plus_sign,,,null,,object_11c.png,object_13a.png,,,,,,,,,,,,,,,,,
null,,black_cross(without_color)8,1868592,,,,,,,,blue,,,null,,object_11c.png,object_13a.png,,,,,,,,,,,,,,,,,
null,,rt_plussign_withcolor8,1869095,,,,,,,,blue,,,null,,object_11c.png,object_13a.png,,,,,,,,,,,,,,,,,
1140.7999999970198,,rt_thecrossant_black8,1870619,,,,,,,,black_plus_sign,,,49,,,,1,,,,,,,1,,,,,,,,,
null,,color_black8,1870724,,,,,,,,black_plus_sign,,,null,,,,,,,,,,,,,,,,,,,,
null,,learn_phase(without_color)8,1874232,,,,,,,,black_plus_sign,,,null,,object_01b.png,object_07b.png,,,,,,,,,,,,,,,,,
null,,black_cross(without_color)8,1875160,,,,,,,,blue,,,null,,object_01b.png,object_07b.png,,,,,,,,,,,,,,,,,
422,,rt_plussign_withcolor8,1875663,,,,,,,,blue,,,49,,object_01b.png,object_07b.png,,,,,,,,,,,,,,,,,
null,,rt_thecrossant_black8,1876742,,,,,,,,black_plus_sign,,,null,,,,1,,,,,,,1,,,,,,,,,
null,,color_black8,1876846,,,,,,,,black_plus_sign,,,null,,,,,,,,,,,,,,,,,,,,
null,,learn_phase(without_color)8,1880353,,,,,,,,black_plus_sign,,,null,,object_14b.png,object_02a.png,,,,,,,,,,,,,,,,,
null,,black_cross(without_color)8,1880889,,,,,,,,green,,,null,,object_14b.png,object_02a.png,,,,,,,,,,,,,,,,,
null,,rt_plussign_withcolor8,1881392,,,,,,,,green,,,null,,object_14b.png,object_02a.png,,,,,,,,,,,,,,,,,
1050.2999999970198,,rt_thecrossant_black8,1882866,,,,,,,,black_plus_sign,,,50,,,,1,,,,,,,1,,,,,,,,,
null,,color_black8,1882969,,,,,,,,black_plus_sign,,,null,,,,,,,,,,,,,,,,,,,,
null,,learn_phase(without_color)8,1886477,,,,,,,,black_plus_sign,,,null,,object_06b.png,object_09a.png,,,,,,,,,,,,,,,,,
null,,black_cross(without_color)8,1887033,,,,,,,,blue,,,null,,object_06b.png,object_09a.png,,,,,,,,,,,,,,,,,
489.8999999910593,,rt_plussign_withcolor8,1887537,,,,,,,,blue,,,49,,object_06b.png,object_09a.png,,,,,,,,,,,,,,,,,
null,,rt_thecrossant_black8,1888992,,,,,,,,black_plus_sign,,,null,,,,1,,,,,,,1,,,,,,,,,
null,,color_black8,1889096,,,,,,,,black_plus_sign,,,null,,,,,,,,,,,,,,,,,,,,
null,,thebreak,1889203,,,,,,,,<p></p>,,,null,,,,,,,,,,,,,,,,,,,,
7532.899999991059,,intro_0,1896740,,,,,,,,instruct,,,32,,,,,,,,,,,,,,,,,,,,
2196.1000000089407,,directmemory_phase8,1898939,,,,,,,,object_02a.png,,,49,,,,1,,object_14b.png,object_05b.png,object_13c.png,object_14b.png,,0.9528301886792453,1,,,,,,,,
2388.9000000059605,,directmemory_phase8,1901334,,,,,,,,object_15a.png,,,51,,,,1,,object_15c.png,object_03c.png,object_02b.png,object_02b.png,,0.9532710280373832,1,,,,,,,,
3157.7000000029802,,directmemory_phase8,1904500,,,,,,,,object_15c.png,,,51,,,,1,,object_08a.png,object_08c.png,object_03c.png,object_03c.png,,0.9537037037037037,1,,,,,,,,
3382.6000000089407,,directmemory_phase8,1907889,,,,,,,,object_10a.png,,,51,,,,1,,object_08c.png,object_03c.png,object_04b.png,object_04b.png,,0.9541284403669725,1,,,,,,,,
2942.7000000029802,,directmemory_phase8,1910840,,,,,,,,object_06b.png,,,49,,,,1,,object_09a.png,object_10c.png,object_07c.png,object_09a.png,,0.9545454545454546,1,,,,,,,,
2031.699999988079,,directmemory_phase8,1912878,,,,,,,,object_11c.png,,,50,,,,1,,object_02a.png,object_13a.png,object_10c.png,object_13a.png,,0.954954954954955,1,,,,,,,,
2751.3999999910593,,directmemory_phase8,1915636,,,,,,,,object_13c.png,,,49,,,,1,,object_04a.png,object_15c.png,object_08a.png,object_04a.png,,0.9553571428571429,1,,,,,,,,
3704.0999999940395,,directmemory_phase8,1919347,,,,,,,,object_03b.png,,,49,,,,1,,object_04c.png,object_09b.png,object_10c.png,object_04c.png,,0.9557522123893806,1,,,,,,,,
2661.6000000089407,,directmemory_phase8,1922012,,,,,,,,object_01c.png,,,49,,,,1,,object_05b.png,object_04a.png,object_09b.png,object_05b.png,,0.956140350877193,1,,,,,,,,
2453.3999999910593,,directmemory_phase8,1924473,,,,,,,,object_07b.png,,,51,,,,1,,object_03c.png,object_04a.png,object_01b.png,object_01b.png,,0.9565217391304348,1,,,,,,,,
3930.5,,directmemory_phase8,1928410,,,,,,,,object_06a.png,,,49,,,,1,,object_08c.png,object_04a.png,object_06b.png,object_08c.png,,0.9568965517241379,1,,,,,,,,
