rt,responses,trial_type,time_elapsed,identifier_a,identifier_b,identifier_c,stimulus,button_pressed,response,key_press,stimulus_left,stimulus_right,accuracy,practice_cumulative_accuracy,stimulus_down_left,stimulus_down_mid,stimulus_down_right,stimulus_correct,prac_weighted_accuracy,cumulative_accuracy,weighted_accuracy,stimulus_middle,problems,smooth,distraction,strategies,easier,similar,comments,detectfocus,breakfocus,completion_code
6940.199999928474,{worker_id:5ef764821269f404a08607d7},id_enter,6946,object_14c.png; object_07a.png; object_11a.png; object_03c.png; object_01b.png; object_06c.png; object_04c.png; object_10a.png; object_10b.png; object_11c.png; object_13a.png; object_02b.png; object_03a.png; object_05a.png; object_02a.png,object_11b.png; object_08c.png; object_09a.png; object_13b.png; object_03b.png; object_12b.png; object_14a.png; object_10c.png; object_05b.png; object_08a.png; object_15c.png; object_04a.png; object_15b.png; object_06b.png; object_13c.png,object_12a.png; object_04b.png; object_01a.png; object_05c.png; object_08b.png; object_09b.png; object_15a.png; object_07c.png; object_12c.png; object_09c.png; object_14b.png; object_06a.png; object_07b.png; object_01c.png; object_02c.png,,,,,,,,,,,,,,,,,,,,,,,,,,
93438.69999992847,,make_fullscreen,100390,,,,fullscreen,0,,,,,,,,,,,,,,,,,,,,,,,,
9412.899999976158,,instruct_1,109822,,,,instruct,0,Next,,,,,,,,,,,,,,,,,,,,,,,
33267.5,,instruct_2,143093,,,,instruct,1,Next,,,,,,,,,,,,,,,,,,,,,,,
96132.39999997616,,instruct_3,239228,,,,instruct,1,Next,,,,,,,,,,,,,,,,,,,,,,,
38932.10000002384,,instruct_4,278165,,,,instruct,1,Next,,,,,,,,,,,,,,,,,,,,,,,
33661.799999952316,,instruct_5,311829,,,,instruct,1,Next,,,,,,,,,,,,,,,,,,,,,,,
33562.299999952316,,instruct_6,345394,,,,instruct,1,Next,,,,,,,,,,,,,,,,,,,,,,,
74061,,instruct_7,419458,,,,instruct,1,Next,,,,,,,,,,,,,,,,,,,,,,,
null,,prac_atten_color_black,419865,,,,black_plus_sign,,,null,,,,,,,,,,,,,,,,,,,,,,
null,,prac_atten_color,420870,,,,<p style='position:absolute;top: 50%;right: 50%;transform: translate(50%, -50%);font-size: 125px;color: blue;'>+</p>,,,null,,,,,,,,,,,,,,,,,,,,,,
551.1000000238419,,prac_atten_color_black,422889,,,,black_plus_sign,,,49,,,,,,,,,,,,,,,,,,,,,,
null,,prac_atten_color_black,423319,,,,black_plus_sign,,,null,,,,,,,,,,,,,,,,,,,,,,
null,,prac_atten_color,424269,,,,<p style='position:absolute;top: 50%;right: 50%;transform: translate(50%, -50%);font-size: 125px;color: green;'>+</p>,,,null,,,,,,,,,,,,,,,,,,,,,,
48.5,,prac_atten_color_black,426298,,,,black_plus_sign,,,50,,,,,,,,,,,,,,,,,,,,,,
null,,prac_atten_color_black,426775,,,,black_plus_sign,,,null,,,,,,,,,,,,,,,,,,,,,,
null,,prac_atten_color,427564,,,,<p style='position:absolute;top: 50%;right: 50%;transform: translate(50%, -50%);font-size: 125px;color: green;'>+</p>,,,null,,,,,,,,,,,,,,,,,,,,,,
94.60000002384186,,prac_atten_color_black,429579,,,,black_plus_sign,,,50,,,,,,,,,,,,,,,,,,,,,,
null,,prac_atten_color_black,430205,,,,black_plus_sign,,,null,,,,,,,,,,,,,,,,,,,,,,
594.7000000476837,,prac_atten_color,430909,,,,<p style='position:absolute;top: 50%;right: 50%;transform: translate(50%, -50%);font-size: 125px;color: blue;'>+</p>,,,49,,,,,,,,,,,,,,,,,,,,,,
null,,prac_atten_color_black,432914,,,,black_plus_sign,,,null,,,,,,,,,,,,,,,,,,,,,,
null,,prac_atten_color_black,433634,,,,black_plus_sign,,,null,,,,,,,,,,,,,,,,,,,,,,
519.0999999046326,,prac_atten_color,434512,,,,<p style='position:absolute;top: 50%;right: 50%;transform: translate(50%, -50%);font-size: 125px;color: green;'>+</p>,,,50,,,,,,,,,,,,,,,,,,,,,,
null,,prac_atten_color_black,436543,,,,black_plus_sign,,,null,,,,,,,,,,,,,,,,,,,,,,
null,,prac_atten_color_black,437095,,,,black_plus_sign,,,null,,,,,,,,,,,,,,,,,,,,,,
752.2999999523163,,prac_atten_color,437937,,,,<p style='position:absolute;top: 50%;right: 50%;transform: translate(50%, -50%);font-size: 125px;color: green;'>+</p>,,,50,,,,,,,,,,,,,,,,,,,,,,
null,,prac_atten_color_black,439949,,,,black_plus_sign,,,null,,,,,,,,,,,,,,,,,,,,,,
null,,prac_atten_color_black,440535,,,,black_plus_sign,,,null,,,,,,,,,,,,,,,,,,,,,,
719.7999999523163,,prac_atten_color,441282,,,,<p style='position:absolute;top: 50%;right: 50%;transform: translate(50%, -50%);font-size: 125px;color: blue;'>+</p>,,,49,,,,,,,,,,,,,,,,,,,,,,
null,,prac_atten_color_black,443294,,,,black_plus_sign,,,null,,,,,,,,,,,,,,,,,,,,,,
null,,prac_atten_color_black,443959,,,,black_plus_sign,,,null,,,,,,,,,,,,,,,,,,,,,,
632.6999999284744,,prac_atten_color,444641,,,,<p style='position:absolute;top: 50%;right: 50%;transform: translate(50%, -50%);font-size: 125px;color: green;'>+</p>,,,50,,,,,,,,,,,,,,,,,,,,,,
null,,prac_atten_color_black,446660,,,,black_plus_sign,,,null,,,,,,,,,,,,,,,,,,,,,,
null,,prac_atten_color_black,447392,,,,black_plus_sign,,,null,,,,,,,,,,,,,,,,,,,,,,
775.7000000476837,,prac_atten_color,448465,,,,<p style='position:absolute;top: 50%;right: 50%;transform: translate(50%, -50%);font-size: 125px;color: blue;'>+</p>,,,49,,,,,,,,,,,,,,,,,,,,,,
null,,prac_atten_color_black,450469,,,,black_plus_sign,,,null,,,,,,,,,,,,,,,,,,,,,,
null,,prac_atten_color_black,450822,,,,black_plus_sign,,,null,,,,,,,,,,,,,,,,,,,,,,
614.5,,prac_atten_color,451511,,,,<p style='position:absolute;top: 50%;right: 50%;transform: translate(50%, -50%);font-size: 125px;color: blue;'>+</p>,,,49,,,,,,,,,,,,,,,,,,,,,,
null,,prac_atten_color_black,453521,,,,black_plus_sign,,,null,,,,,,,,,,,,,,,,,,,,,,
25683.5,,attentioncheck_feedback,479208,,,,cross_check_feedback,0,,,,,,,,,,,,,,,,,,,,,,,,
23373.299999952316,,last_instruct,502584,,,,instruct,,,32,,,,,,,,,,,,,,,,,,,,,,
null,,prac_learn_phase(without_color),506094,,,,black_plus_sign,,,null,object_06a.png,object_04a.png,,,,,,,,,,,,,,,,,,,,
null,,prac_black_cross(without_color),506519,,,,green,,,null,object_06a.png,object_04a.png,,,,,,,,,,,,,,,,,,,,
null,,prac_rt_plussign_withcolor,507038,,,,green,,,null,object_06a.png,object_04a.png,,,,,,,,,,,,,,,,,,,,
988.2000000476837,,prac_rt_thecrossant_black,508642,,,,black_plus_sign,,,50,,,1,1,,,,,,,,,,,,,,,,,,
null,,prac_color_black,508760,,,,black_plus_sign,,,null,,,,,,,,,,,,,,,,,,,,,,
null,,prac_learn_phase(without_color),512277,,,,black_plus_sign,,,null,object_15b.png,object_07b.png,,,,,,,,,,,,,,,,,,,,
null,,black_cross(without_color)1,512920,,,,blue,,,null,object_06a.png,object_04a.png,,,,,,,,,,,,,,,,,,,,
null,,prac_rt_plussign_withcolor,513437,,,,green,,,null,object_15b.png,object_07b.png,,,,,,,,,,,,,,,,,,,,
1343.7000000476837,,prac_rt_thecrossant_black,515007,,,,black_plus_sign,,,50,,,1,1,,,,,,,,,,,,,,,,,,
null,,prac_color_black,515125,,,,black_plus_sign,,,null,,,,,,,,,,,,,,,,,,,,,,
null,,prac_learn_phase(without_color),518632,,,,black_plus_sign,,,null,object_07a.png,object_08c.png,,,,,,,,,,,,,,,,,,,,
null,,black_cross(without_color)1,519302,,,,blue,,,null,object_06a.png,object_04a.png,,,,,,,,,,,,,,,,,,,,
null,,prac_rt_plussign_withcolor,519813,,,,blue,,,null,object_07a.png,object_08c.png,,,,,,,,,,,,,,,,,,,,
832.7000000476837,,prac_rt_thecrossant_black,521106,,,,black_plus_sign,,,49,,,1,1,,,,,,,,,,,,,,,,,,
null,,prac_color_black,521211,,,,black_plus_sign,,,null,,,,,,,,,,,,,,,,,,,,,,
null,,prac_learn_phase(without_color),524718,,,,black_plus_sign,,,null,object_09b.png,object_12b.png,,,,,,,,,,,,,,,,,,,,
null,,black_cross(without_color)1,525370,,,,blue,,,null,object_06a.png,object_04a.png,,,,,,,,,,,,,,,,,,,,
null,,prac_rt_plussign_withcolor,525881,,,,green,,,null,object_09b.png,object_12b.png,,,,,,,,,,,,,,,,,,,,
935.6000000238419,,prac_rt_thecrossant_black,526842,,,,black_plus_sign,,,50,,,1,1,,,,,,,,,,,,,,,,,,
null,,prac_color_black,526951,,,,black_plus_sign,,,null,,,,,,,,,,,,,,,,,,,,,,
16245.799999952316,,instruct_dir_01,543200,,,,instruct,0,Next,,,,,,,,,,,,,,,,,,,,,,,
10654.100000023842,,instruct_dir_2,553857,,,,instruct,1,Next,,,,,,,,,,,,,,,,,,,,,,,
13053.600000023842,,instruct_dir_3,566914,,,,instruct,1,Next,,,,,,,,,,,,,,,,,,,,,,,
6599.600000023842,,instruct_dir_4,573516,,,,instruct,1,Start,,,,,,,,,,,,,,,,,,,,,,,
null,,thebreak,573625,,,,<p></p>,,,null,,,,,,,,,,,,,,,,,,,,,,
23716.399999976158,,intro_0,597344,,,,instruct,,,32,,,,,,,,,,,,,,,,,,,,,,
4111.5,,prac_directmemory_phase,601458,,,,practice/object_03a.png,,,49,,,1,,practice/object_03b.png,practice/object_02b.png,practice/object_02a.png,practice/object_03b.png,1,1,,,,,,,,,,,,
7083.700000047684,,prac_directmemory_phase,608548,,,,practice/object_04a.png,,,51,,,1,,practice/object_03b.png,practice/object_03a.png,practice/object_04b.png,practice/object_04b.png,1,1,,,,,,,,,,,,
6611.899999976158,,prac_directmemory_phase,615165,,,,practice/object_02a.png,,,50,,,1,,practice/object_03a.png,practice/object_02b.png,practice/object_04b.png,practice/object_02b.png,1,1,,,,,,,,,,,,
3533,,prac_directmemory_phase,618702,,,,practice/object_01a.png,,,49,,,1,,practice/object_01b.png,practice/object_02b.png,practice/object_03a.png,practice/object_01b.png,1,1,,,,,,,,,,,,
10846.5,,practice_feedback,629552,,,,practice_feedback,0,,,,,,,,,,,,,,,,,,,,,,,,
3237.2999999523163,,last_instruct,632791,,,,instruct,,,32,,,,,,,,,,,,,,,,,,,,,,
null,,prac_learn_phase(without_color),636305,,,,black_plus_sign,,,null,object_06a.png,object_04a.png,,,,,,,,,,,,,,,,,,,,
null,,prac_black_cross(without_color),637217,,,,green,,,null,object_06a.png,object_04a.png,,,,,,,,,,,,,,,,,,,,
null,,prac_rt_plussign_withcolor,637729,,,,green,,,null,object_06a.png,object_04a.png,,,,,,,,,,,,,,,,,,,,
null,,prac_rt_thecrossant_black,638854,,,,black_plus_sign,,,null,,,,1,,,,,,,,,,,,,,,,,,
null,,prac_color_black,638974,,,,black_plus_sign,,,null,,,,,,,,,,,,,,,,,,,,,,
null,,prac_learn_phase(without_color),642494,,,,black_plus_sign,,,null,object_15b.png,object_07b.png,,,,,,,,,,,,,,,,,,,,
null,,black_cross(without_color)1,643141,,,,blue,,,null,object_06a.png,object_04a.png,,,,,,,,,,,,,,,,,,,,
null,,prac_rt_plussign_withcolor,643661,,,,green,,,null,object_15b.png,object_07b.png,,,,,,,,,,,,,,,,,,,,
1009.2000000476837,,prac_rt_thecrossant_black,644959,,,,black_plus_sign,,,50,,,1,1,,,,,,,,,,,,,,,,,,
null,,prac_color_black,645067,,,,black_plus_sign,,,null,,,,,,,,,,,,,,,,,,,,,,
null,,prac_learn_phase(without_color),648585,,,,black_plus_sign,,,null,object_07a.png,object_08c.png,,,,,,,,,,,,,,,,,,,,
null,,black_cross(without_color)1,649230,,,,blue,,,null,object_06a.png,object_04a.png,,,,,,,,,,,,,,,,,,,,
null,,prac_rt_plussign_withcolor,649737,,,,blue,,,null,object_07a.png,object_08c.png,,,,,,,,,,,,,,,,,,,,
1160.6000000238419,,prac_rt_thecrossant_black,651308,,,,black_plus_sign,,,49,,,1,1,,,,,,,,,,,,,,,,,,
null,,prac_color_black,651419,,,,black_plus_sign,,,null,,,,,,,,,,,,,,,,,,,,,,
null,,prac_learn_phase(without_color),654930,,,,black_plus_sign,,,null,object_09b.png,object_12b.png,,,,,,,,,,,,,,,,,,,,
null,,black_cross(without_color)1,655571,,,,blue,,,null,object_06a.png,object_04a.png,,,,,,,,,,,,,,,,,,,,
null,,prac_rt_plussign_withcolor,656074,,,,green,,,null,object_09b.png,object_12b.png,,,,,,,,,,,,,,,,,,,,
1296.8999999761581,,prac_rt_thecrossant_black,657671,,,,black_plus_sign,,,50,,,1,1,,,,,,,,,,,,,,,,,,
null,,prac_color_black,657789,,,,black_plus_sign,,,null,,,,,,,,,,,,,,,,,,,,,,
3987.399999976158,,instruct_dir_01,661780,,,,instruct,0,Next,,,,,,,,,,,,,,,,,,,,,,,
5989.600000023842,,instruct_dir_2,667772,,,,instruct,1,Next,,,,,,,,,,,,,,,,,,,,,,,
7906.5,,instruct_dir_3,675681,,,,instruct,1,Next,,,,,,,,,,,,,,,,,,,,,,,
6131.5,,instruct_dir_4,681815,,,,instruct,1,Start,,,,,,,,,,,,,,,,,,,,,,,
null,,thebreak,681923,,,,<p></p>,,,null,,,,,,,,,,,,,,,,,,,,,,
4549.5,,intro_0,686474,,,,instruct,,,32,,,,,,,,,,,,,,,,,,,,,,
1472.8000000715256,,prac_directmemory_phase,687949,,,,practice/object_03a.png,,,49,,,1,,practice/object_03b.png,practice/object_02b.png,practice/object_02a.png,practice/object_03b.png,1,1,,,,,,,,,,,,
5898.100000023842,,prac_directmemory_phase,693854,,,,practice/object_04a.png,,,51,,,1,,practice/object_03b.png,practice/object_03a.png,practice/object_04b.png,practice/object_04b.png,1,1,,,,,,,,,,,,
2900.6999999284744,,prac_directmemory_phase,696759,,,,practice/object_02a.png,,,50,,,1,,practice/object_03a.png,practice/object_02b.png,practice/object_04b.png,practice/object_02b.png,1,1,,,,,,,,,,,,
2655.1999999284744,,prac_directmemory_phase,699420,,,,practice/object_01a.png,,,49,,,1,,practice/object_01b.png,practice/object_02b.png,practice/object_03a.png,practice/object_01b.png,1,1,,,,,,,,,,,,
20678.699999928474,,practice_feedback,720103,,,,practice_feedback,1,,,,,,,,,,,,,,,,,,,,,,,,
13625.799999952316,,proceed_actualTask,733731,,,,proceed_actualTask,1,Continue,,,,,,,,,,,,,,,,,,,,,,,
44396.10000002384,,last_inst,778129,,,,last_inst,,,32,,,,,,,,,,,,,,,,,,,,,,
null,,learn_phase(without_color)1,781638,,,,black_plus_sign,,,null,object_06a.png,object_04a.png,,,,,,,,,,,,,,,,,,,,
null,,black_cross(without_color)1,782293,,,,blue,,,null,object_06a.png,object_04a.png,,,,,,,,,,,,,,,,,,,,
null,,rt_plussign_withcolor1,782814,,,,blue,,,null,object_06a.png,object_04a.png,,,,,,,,,,,,,,,,,,,,
816.7000000476837,,rt_thecrossant_black1,784194,,,,black_plus_sign,,,49,,,1,,,,,,,1,,,,,,,,,,,,
null,,color_black1,784314,,,,black_plus_sign,,,null,,,,,,,,,,,,,,,,,,,,,,
null,,learn_phase(without_color)1,787826,,,,black_plus_sign,,,null,object_15b.png,object_07b.png,,,,,,,,,,,,,,,,,,,,
null,,black_cross(without_color)1,788571,,,,green,,,null,object_15b.png,object_07b.png,,,,,,,,,,,,,,,,,,,,
null,,rt_plussign_withcolor1,789084,,,,green,,,null,object_15b.png,object_07b.png,,,,,,,,,,,,,,,,,,,,
705.6999999284744,,rt_thecrossant_black1,790366,,,,black_plus_sign,,,50,,,1,,,,,,,1,,,,,,,,,,,,
null,,color_black1,790471,,,,black_plus_sign,,,null,,,,,,,,,,,,,,,,,,,,,,
null,,learn_phase(without_color)1,793994,,,,black_plus_sign,,,null,object_07a.png,object_08c.png,,,,,,,,,,,,,,,,,,,,
null,,black_cross(without_color)1,794453,,,,green,,,null,object_07a.png,object_08c.png,,,,,,,,,,,,,,,,,,,,
451.89999997615814,,rt_plussign_withcolor1,794962,,,,green,,,50,object_07a.png,object_08c.png,,,,,,,,,,,,,,,,,,,,
null,,rt_thecrossant_black1,796536,,,,black_plus_sign,,,null,,,1,,,,,,,1,,,,,,,,,,,,
null,,color_black1,796645,,,,black_plus_sign,,,null,,,,,,,,,,,,,,,,,,,,,,
null,,learn_phase(without_color)1,800158,,,,black_plus_sign,,,null,object_09b.png,object_12b.png,,,,,,,,,,,,,,,,,,,,
null,,black_cross(without_color)1,800820,,,,green,,,null,object_09b.png,object_12b.png,,,,,,,,,,,,,,,,,,,,
null,,rt_plussign_withcolor1,801335,,,,green,,,null,object_09b.png,object_12b.png,,,,,,,,,,,,,,,,,,,,
682.5999999046326,,rt_thecrossant_black1,802713,,,,black_plus_sign,,,50,,,1,,,,,,,1,,,,,,,,,,,,
null,,color_black1,802832,,,,black_plus_sign,,,null,,,,,,,,,,,,,,,,,,,,,,
null,,learn_phase(without_color)1,806348,,,,black_plus_sign,,,null,object_12b.png,object_06c.png,,,,,,,,,,,,,,,,,,,,
null,,black_cross(without_color)1,807348,,,,blue,,,null,object_12b.png,object_06c.png,,,,,,,,,,,,,,,,,,,,
422.2000000476837,,rt_plussign_withcolor1,807858,,,,blue,,,49,object_12b.png,object_06c.png,,,,,,,,,,,,,,,,,,,,
null,,rt_thecrossant_black1,808889,,,,black_plus_sign,,,null,,,1,,,,,,,1,,,,,,,,,,,,
null,,color_black1,808999,,,,black_plus_sign,,,null,,,,,,,,,,,,,,,,,,,,,,
null,,learn_phase(without_color)1,812504,,,,black_plus_sign,,,null,object_10b.png,object_05b.png,,,,,,,,,,,,,,,,,,,,
null,,black_cross(without_color)1,813070,,,,green,,,null,object_10b.png,object_05b.png,,,,,,,,,,,,,,,,,,,,
null,,rt_plussign_withcolor1,813574,,,,green,,,null,object_10b.png,object_05b.png,,,,,,,,,,,,,,,,,,,,
1178.6999999284744,,rt_thecrossant_black1,815032,,,,black_plus_sign,,,50,,,1,,,,,,,1,,,,,,,,,,,,
null,,color_black1,815143,,,,black_plus_sign,,,null,,,,,,,,,,,,,,,,,,,,,,
null,,learn_phase(without_color)1,818649,,,,black_plus_sign,,,null,object_09a.png,object_01a.png,,,,,,,,,,,,,,,,,,,,
null,,black_cross(without_color)1,819168,,,,blue,,,null,object_09a.png,object_01a.png,,,,,,,,,,,,,,,,,,,,
null,,rt_plussign_withcolor1,819677,,,,blue,,,null,object_09a.png,object_01a.png,,,,,,,,,,,,,,,,,,,,
926.7000000476837,,rt_thecrossant_black1,821174,,,,black_plus_sign,,,49,,,1,,,,,,,1,,,,,,,,,,,,
null,,color_black1,821278,,,,black_plus_sign,,,null,,,,,,,,,,,,,,,,,,,,,,
null,,learn_phase(without_color)1,824801,,,,black_plus_sign,,,null,object_03a.png,object_15b.png,,,,,,,,,,,,,,,,,,,,
null,,black_cross(without_color)1,825322,,,,green,,,null,object_03a.png,object_15b.png,,,,,,,,,,,,,,,,,,,,
null,,rt_plussign_withcolor1,825843,,,,green,,,null,object_03a.png,object_15b.png,,,,,,,,,,,,,,,,,,,,
734.3999999761581,,rt_thecrossant_black1,827342,,,,black_plus_sign,,,50,,,1,,,,,,,1,,,,,,,,,,,,
null,,color_black1,827461,,,,black_plus_sign,,,null,,,,,,,,,,,,,,,,,,,,,,
null,,learn_phase(without_color)1,830968,,,,black_plus_sign,,,null,object_13c.png,object_02c.png,,,,,,,,,,,,,,,,,,,,
null,,black_cross(without_color)1,831745,,,,green,,,null,object_13c.png,object_02c.png,,,,,,,,,,,,,,,,,,,,
481,,rt_plussign_withcolor1,832249,,,,green,,,50,object_13c.png,object_02c.png,,,,,,,,,,,,,,,,,,,,
null,,rt_thecrossant_black1,833494,,,,black_plus_sign,,,null,,,1,,,,,,,1,,,,,,,,,,,,
null,,color_black1,833609,,,,black_plus_sign,,,null,,,,,,,,,,,,,,,,,,,,,,
null,,learn_phase(without_color)1,837119,,,,black_plus_sign,,,null,object_04c.png,object_14a.png,,,,,,,,,,,,,,,,,,,,
null,,black_cross(without_color)1,837844,,,,green,,,null,object_04c.png,object_14a.png,,,,,,,,,,,,,,,,,,,,
null,,rt_plussign_withcolor1,838353,,,,green,,,null,object_04c.png,object_14a.png,,,,,,,,,,,,,,,,,,,,
1370.6999999284744,,rt_thecrossant_black1,839655,,,,black_plus_sign,,,50,,,1,,,,,,,1,,,,,,,,,,,,
null,,color_black1,839776,,,,black_plus_sign,,,null,,,,,,,,,,,,,,,,,,,,,,
null,,learn_phase(without_color)1,843287,,,,black_plus_sign,,,null,object_03b.png,object_08b.png,,,,,,,,,,,,,,,,,,,,
null,,black_cross(without_color)1,844044,,,,blue,,,null,object_03b.png,object_08b.png,,,,,,,,,,,,,,,,,,,,
null,,rt_plussign_withcolor1,844557,,,,blue,,,null,object_03b.png,object_08b.png,,,,,,,,,,,,,,,,,,,,
1039.7999999523163,,rt_thecrossant_black1,845823,,,,black_plus_sign,,,49,,,1,,,,,,,1,,,,,,,,,,,,
null,,color_black1,845942,,,,black_plus_sign,,,null,,,,,,,,,,,,,,,,,,,,,,
null,,learn_phase(without_color)1,849468,,,,black_plus_sign,,,null,object_11b.png,object_14c.png,,,,,,,,,,,,,,,,,,,,
null,,black_cross(without_color)1,849925,,,,blue,,,null,object_11b.png,object_14c.png,,,,,,,,,,,,,,,,,,,,
null,,rt_plussign_withcolor1,850432,,,,blue,,,null,object_11b.png,object_14c.png,,,,,,,,,,,,,,,,,,,,
1438.6999999284744,,rt_thecrossant_black1,851988,,,,black_plus_sign,,,49,,,1,,,,,,,1,,,,,,,,,,,,
null,,color_black1,852104,,,,black_plus_sign,,,null,,,,,,,,,,,,,,,,,,,,,,
null,,learn_phase(without_color)1,855609,,,,black_plus_sign,,,null,object_06b.png,object_01c.png,,,,,,,,,,,,,,,,,,,,
null,,black_cross(without_color)1,856035,,,,green,,,null,object_06b.png,object_01c.png,,,,,,,,,,,,,,,,,,,,
null,,rt_plussign_withcolor1,856545,,,,green,,,null,object_06b.png,object_01c.png,,,,,,,,,,,,,,,,,,,,
600.3999999761581,,rt_thecrossant_black1,858151,,,,black_plus_sign,,,49,,,0,,,,,,,0.9230769230769231,,,,,,,,,,,,
null,,color_black1,858260,,,,black_plus_sign,,,null,,,,,,,,,,,,,,,,,,,,,,
null,,learn_phase(without_color)1,861773,,,,black_plus_sign,,,null,object_11c.png,object_08a.png,,,,,,,,,,,,,,,,,,,,
null,,black_cross(without_color)1,862454,,,,blue,,,null,object_11c.png,object_08a.png,,,,,,,,,,,,,,,,,,,,
null,,rt_plussign_withcolor1,862958,,,,blue,,,null,object_11c.png,object_08a.png,,,,,,,,,,,,,,,,,,,,
568.8000000715256,,rt_thecrossant_black1,864314,,,,black_plus_sign,,,49,,,1,,,,,,,0.9285714285714286,,,,,,,,,,,,
null,,color_black1,864424,,,,black_plus_sign,,,null,,,,,,,,,,,,,,,,,,,,,,
null,,learn_phase(without_color)1,867934,,,,black_plus_sign,,,null,object_01b.png,object_03b.png,,,,,,,,,,,,,,,,,,,,
null,,black_cross(without_color)1,868979,,,,blue,,,null,object_01b.png,object_03b.png,,,,,,,,,,,,,,,,,,,,
410.2999999523163,,rt_plussign_withcolor1,869482,,,,blue,,,50,object_01b.png,object_03b.png,,,,,,,,,,,,,,,,,,,,
null,,rt_thecrossant_black1,870468,,,,black_plus_sign,,,49,,,0,,,,,,,0.8666666666666667,,,,,,,,,,,,
null,,color_black1,870578,,,,black_plus_sign,,,null,,,,,,,,,,,,,,,,,,,,,,
null,,learn_phase(without_color)1,874091,,,,black_plus_sign,,,null,object_11a.png,object_09a.png,,,,,,,,,,,,,,,,,,,,
null,,black_cross(without_color)1,874945,,,,blue,,,null,object_11a.png,object_09a.png,,,,,,,,,,,,,,,,,,,,
null,,rt_plussign_withcolor1,875451,,,,blue,,,null,object_11a.png,object_09a.png,,,,,,,,,,,,,,,,,,,,
1294.6000000238419,,rt_thecrossant_black1,876629,,,,black_plus_sign,,,49,,,1,,,,,,,0.875,,,,,,,,,,,,
null,,color_black1,876739,,,,black_plus_sign,,,null,,,,,,,,,,,,,,,,,,,,,,
null,,learn_phase(without_color)1,880258,,,,black_plus_sign,,,null,object_08c.png,object_04b.png,,,,,,,,,,,,,,,,,,,,
null,,black_cross(without_color)1,880902,,,,blue,,,null,object_08c.png,object_04b.png,,,,,,,,,,,,,,,,,,,,
null,,rt_plussign_withcolor1,881420,,,,blue,,,null,object_08c.png,object_04b.png,,,,,,,,,,,,,,,,,,,,
1028.8000000715256,,rt_thecrossant_black1,882809,,,,black_plus_sign,,,49,,,1,,,,,,,0.8823529411764706,,,,,,,,,,,,
null,,color_black1,882919,,,,black_plus_sign,,,null,,,,,,,,,,,,,,,,,,,,,,
null,,learn_phase(without_color)1,886440,,,,black_plus_sign,,,null,object_12a.png,object_11b.png,,,,,,,,,,,,,,,,,,,,
null,,black_cross(without_color)1,886938,,,,green,,,null,object_12a.png,object_11b.png,,,,,,,,,,,,,,,,,,,,
null,,rt_plussign_withcolor1,887448,,,,green,,,null,object_12a.png,object_11b.png,,,,,,,,,,,,,,,,,,,,
1164.1000000238419,,rt_thecrossant_black1,888980,,,,black_plus_sign,,,50,,,1,,,,,,,0.8888888888888888,,,,,,,,,,,,
null,,color_black1,889087,,,,black_plus_sign,,,null,,,,,,,,,,,,,,,,,,,,,,
null,,learn_phase(without_color)1,892597,,,,black_plus_sign,,,null,object_13b.png,object_03c.png,,,,,,,,,,,,,,,,,,,,
null,,black_cross(without_color)1,893262,,,,green,,,null,object_13b.png,object_03c.png,,,,,,,,,,,,,,,,,,,,
null,,rt_plussign_withcolor1,893767,,,,green,,,null,object_13b.png,object_03c.png,,,,,,,,,,,,,,,,,,,,
828.7999999523163,,rt_thecrossant_black1,895131,,,,black_plus_sign,,,50,,,1,,,,,,,0.8947368421052632,,,,,,,,,,,,
null,,color_black1,895242,,,,black_plus_sign,,,null,,,,,,,,,,,,,,,,,,,,,,
null,,learn_phase(without_color)1,898752,,,,black_plus_sign,,,null,object_02a.png,object_13c.png,,,,,,,,,,,,,,,,,,,,
null,,black_cross(without_color)1,899362,,,,blue,,,null,object_02a.png,object_13c.png,,,,,,,,,,,,,,,,,,,,
null,,rt_plussign_withcolor1,899880,,,,blue,,,null,object_02a.png,object_13c.png,,,,,,,,,,,,,,,,,,,,
1086.2999999523163,,rt_thecrossant_black1,901284,,,,black_plus_sign,,,49,,,1,,,,,,,0.9,,,,,,,,,,,,
null,,color_black1,901388,,,,black_plus_sign,,,null,,,,,,,,,,,,,,,,,,,,,,
null,,learn_phase(without_color)1,904900,,,,black_plus_sign,,,null,object_12c.png,object_05b.png,,,,,,,,,,,,,,,,,,,,
null,,black_cross(without_color)1,905919,,,,blue,,,null,object_12c.png,object_05b.png,,,,,,,,,,,,,,,,,,,,
null,,rt_plussign_withcolor1,906430,,,,blue,,,null,object_12c.png,object_05b.png,,,,,,,,,,,,,,,,,,,,
904.1000000238419,,rt_thecrossant_black1,907442,,,,black_plus_sign,,,49,,,1,,,,,,,0.9047619047619048,,,,,,,,,,,,
null,,color_black1,907571,,,,black_plus_sign,,,null,,,,,,,,,,,,,,,,,,,,,,
null,,learn_phase(without_color)1,911080,,,,black_plus_sign,,,null,object_07c.png,object_10c.png,,,,,,,,,,,,,,,,,,,,
null,,black_cross(without_color)1,911533,,,,blue,,,null,object_07c.png,object_10c.png,,,,,,,,,,,,,,,,,,,,
null,,rt_plussign_withcolor1,912042,,,,blue,,,null,object_07c.png,object_10c.png,,,,,,,,,,,,,,,,,,,,
1191.8999999761581,,rt_thecrossant_black1,913602,,,,black_plus_sign,,,49,,,1,,,,,,,0.9090909090909091,,,,,,,,,,,,
null,,color_black1,913730,,,,black_plus_sign,,,null,,,,,,,,,,,,,,,,,,,,,,
null,,learn_phase(without_color)1,917250,,,,black_plus_sign,,,null,object_06b.png,object_05a.png,,,,,,,,,,,,,,,,,,,,
null,,black_cross(without_color)1,918134,,,,blue,,,null,object_06b.png,object_05a.png,,,,,,,,,,,,,,,,,,,,
null,,rt_plussign_withcolor1,918648,,,,blue,,,null,object_06b.png,object_05a.png,,,,,,,,,,,,,,,,,,,,
660.2999999523163,,rt_thecrossant_black1,919795,,,,black_plus_sign,,,49,,,1,,,,,,,0.9130434782608695,,,,,,,,,,,,
null,,color_black1,919906,,,,black_plus_sign,,,null,,,,,,,,,,,,,,,,,,,,,,
null,,learn_phase(without_color)1,923421,,,,black_plus_sign,,,null,object_13b.png,object_05c.png,,,,,,,,,,,,,,,,,,,,
null,,black_cross(without_color)1,924178,,,,blue,,,null,object_13b.png,object_05c.png,,,,,,,,,,,,,,,,,,,,
null,,rt_plussign_withcolor1,924689,,,,blue,,,null,object_13b.png,object_05c.png,,,,,,,,,,,,,,,,,,,,
null,,rt_thecrossant_black1,925953,,,,black_plus_sign,,,null,,,,,,,,,,0.9130434782608695,,,,,,,,,,,,
null,,color_black1,926064,,,,black_plus_sign,,,null,,,,,,,,,,,,,,,,,,,,,,
null,,learn_phase(without_color)1,929571,,,,black_plus_sign,,,null,object_02b.png,object_04a.png,,,,,,,,,,,,,,,,,,,,
null,,black_cross(without_color)1,930555,,,,blue,,,null,object_02b.png,object_04a.png,,,,,,,,,,,,,,,,,,,,
null,,rt_plussign_withcolor1,931071,,,,blue,,,null,object_02b.png,object_04a.png,,,,,,,,,,,,,,,,,,,,
997.2999999523163,,rt_thecrossant_black1,932109,,,,black_plus_sign,,,49,,,1,,,,,,,0.9166666666666666,,,,,,,,,,,,
null,,color_black1,932238,,,,black_plus_sign,,,null,,,,,,,,,,,,,,,,,,,,,,
null,,learn_phase(without_color)1,935750,,,,black_plus_sign,,,null,object_15c.png,object_14b.png,,,,,,,,,,,,,,,,,,,,
null,,black_cross(without_color)1,936782,,,,blue,,,null,object_15c.png,object_14b.png,,,,,,,,,,,,,,,,,,,,
494.6999999284744,,rt_plussign_withcolor1,937287,,,,blue,,,49,object_15c.png,object_14b.png,,,,,,,,,,,,,,,,,,,,
null,,rt_thecrossant_black1,938276,,,,black_plus_sign,,,null,,,1,,,,,,,0.92,,,,,,,,,,,,
null,,color_black1,938396,,,,black_plus_sign,,,null,,,,,,,,,,,,,,,,,,,,,,
null,,learn_phase(without_color)1,941914,,,,black_plus_sign,,,null,object_15c.png,object_13a.png,,,,,,,,,,,,,,,,,,,,
null,,black_cross(without_color)1,942398,,,,green,,,null,object_15c.png,object_13a.png,,,,,,,,,,,,,,,,,,,,
null,,rt_plussign_withcolor1,942908,,,,green,,,null,object_15c.png,object_13a.png,,,,,,,,,,,,,,,,,,,,
1631.7000000476837,,rt_thecrossant_black1,944445,,,,black_plus_sign,,,50,,,1,,,,,,,0.9230769230769231,,,,,,,,,,,,
null,,color_black1,944548,,,,black_plus_sign,,,null,,,,,,,,,,,,,,,,,,,,,,
null,,learn_phase(without_color)1,948054,,,,black_plus_sign,,,null,object_10a.png,object_10c.png,,,,,,,,,,,,,,,,,,,,
null,,black_cross(without_color)1,948872,,,,green,,,null,object_10a.png,object_10c.png,,,,,,,,,,,,,,,,,,,,
null,,rt_plussign_withcolor1,949385,,,,green,,,null,object_10a.png,object_10c.png,,,,,,,,,,,,,,,,,,,,
669,,rt_thecrossant_black1,950609,,,,black_plus_sign,,,50,,,1,,,,,,,0.9259259259259259,,,,,,,,,,,,
null,,color_black1,950722,,,,black_plus_sign,,,null,,,,,,,,,,,,,,,,,,,,,,
null,,learn_phase(without_color)1,954235,,,,black_plus_sign,,,null,object_14a.png,object_15a.png,,,,,,,,,,,,,,,,,,,,
null,,black_cross(without_color)1,955347,,,,green,,,null,object_14a.png,object_15a.png,,,,,,,,,,,,,,,,,,,,
null,,rt_plussign_withcolor1,955863,,,,green,,,null,object_14a.png,object_15a.png,,,,,,,,,,,,,,,,,,,,
930.5,,rt_thecrossant_black1,956797,,,,black_plus_sign,,,50,,,1,,,,,,,0.9285714285714286,,,,,,,,,,,,
null,,color_black1,956905,,,,black_plus_sign,,,null,,,,,,,,,,,,,,,,,,,,,,
null,,learn_phase(without_color)1,960423,,,,black_plus_sign,,,null,object_09c.png,object_08a.png,,,,,,,,,,,,,,,,,,,,
null,,black_cross(without_color)1,961175,,,,green,,,null,object_09c.png,object_08a.png,,,,,,,,,,,,,,,,,,,,
null,,rt_plussign_withcolor1,961694,,,,green,,,null,object_09c.png,object_08a.png,,,,,,,,,,,,,,,,,,,,
1250.1000000238419,,rt_thecrossant_black1,962960,,,,black_plus_sign,,,50,,,1,,,,,,,0.9310344827586207,,,,,,,,,,,,
null,,color_black1,963073,,,,black_plus_sign,,,null,,,,,,,,,,,,,,,,,,,,,,
null,,thebreak,963187,,,,<p></p>,,,null,,,,,,,,,,,,,,,,,,,,,,
2178.3000000715256,,intro_0,965368,,,,instruct,,,32,,,,,,,,,,,,,,,,,,,,,,
8492.399999976158,,directmemory_phase1,973863,,,,object_05b.png,,,51,,,1,,object_15a.png,object_08a.png,object_12c.png,object_12c.png,,1,1,,,,,,,,,,,
7111.600000023842,,directmemory_phase1,980981,,,,object_06a.png,,,49,,,1,,object_04a.png,object_10c.png,object_12a.png,object_04a.png,,1,1,,,,,,,,,,,
2391.5,,directmemory_phase1,983378,,,,object_14a.png,,,49,,,0,,object_12a.png,object_06b.png,object_15a.png,object_15a.png,,0.6666666666666666,0,,,,,,,,,,,
249.29999995231628,,directmemory_phase1,983633,,,,object_14c.png,,,49,,,0,,object_03a.png,object_11b.png,object_06b.png,object_11b.png,,0.5,0,,,,,,,,,,,
4648,,directmemory_phase1,988287,,,,object_10a.png,,,51,,,0,,object_02b.png,object_10c.png,object_15b.png,object_10c.png,,0.4,0,,,,,,,,,,,
5839.100000023842,,directmemory_phase1,994130,,,,object_13b.png,,,51,,,0,,object_05c.png,object_09c.png,object_04a.png,object_05c.png,,0.3333333333333333,0,,,,,,,,,,,
4247.299999952316,,directmemory_phase1,998383,,,,object_01b.png,,,49,,,1,,object_03b.png,object_15b.png,object_03a.png,object_03b.png,,0.42857142857142855,1,,,,,,,,,,,
5508.299999952316,,directmemory_phase1,1003897,,,,object_13a.png,,,50,,,1,,object_11c.png,object_15c.png,object_14a.png,object_15c.png,,0.5,1,,,,,,,,,,,
14.300000071525574,,directmemory_phase1,1003917,,,,object_11b.png,,,51,,,0,,object_06b.png,object_12a.png,object_05c.png,object_12a.png,,0.4444444444444444,0,,,,,,,,,,,
4309.200000047684,,directmemory_phase1,1008231,,,,object_06b.png,,,49,,,1,,object_01c.png,object_12a.png,object_15b.png,object_01c.png,,0.5,1,,,,,,,,,,,
3544.6999999284744,,directmemory_phase1,1011781,,,,object_09c.png,,,51,,,1,,object_06b.png,object_01a.png,object_08a.png,object_08a.png,,0.5454545454545454,1,,,,,,,,,,,
2205.9000000953674,,directmemory_phase1,1013992,,,,object_03b.png,,,49,,,1,,object_08b.png,object_09b.png,object_04a.png,object_08b.png,,0.5833333333333334,1,,,,,,,,,,,
5063.100000023842,,directmemory_phase1,1019062,,,,object_14b.png,,,50,,,0,,object_06b.png,object_06a.png,object_15c.png,object_15c.png,,0.5384615384615384,0,,,,,,,,,,,
5926.199999928474,,directmemory_phase1,1024993,,,,object_03a.png,,,51,,,1,,object_09a.png,object_05a.png,object_15b.png,object_15b.png,,0.5714285714285714,1,,,,,,,,,,,
6851.5,,directmemory_phase1,1031850,,,,object_04c.png,,,50,,,1,,object_14c.png,object_14a.png,object_15c.png,object_14a.png,,0.6,1,,,,,,,,,,,
49.800000071525574,,directmemory_phase1,1031905,,,,object_02b.png,,,51,,,0,,object_04a.png,object_14a.png,object_07a.png,object_04a.png,,0.5625,0,,,,,,,,,,,
5477.299999952316,,directmemory_phase1,1037387,,,,object_07b.png,,,49,,,0,,object_11b.png,object_09b.png,object_15b.png,object_15b.png,,0.5294117647058824,0,,,,,,,,,,,
3697.7000000476837,,directmemory_phase1,1041090,,,,object_10c.png,,,51,,,0,,object_09a.png,object_07c.png,object_05c.png,object_07c.png,,0.5,0,,,,,,,,,,,
5915,,directmemory_phase1,1047009,,,,object_07a.png,,,50,,,1,,object_02b.png,object_08c.png,object_05b.png,object_08c.png,,0.5263157894736842,1,,,,,,,,,,,
5554.600000023842,,directmemory_phase1,1052569,,,,object_11a.png,,,50,,,1,,object_04c.png,object_09a.png,object_14a.png,object_09a.png,,0.55,1,,,,,,,,,,,
6121.700000047684,,directmemory_phase1,1058696,,,,object_10b.png,,,51,,,0,,object_05b.png,object_13b.png,object_01b.png,object_05b.png,,0.5238095238095238,0,,,,,,,,,,,
4818.100000023842,,directmemory_phase1,1063519,,,,object_05a.png,,,49,,,1,,object_06b.png,object_10c.png,object_10b.png,object_06b.png,,0.5454545454545454,1,,,,,,,,,,,
5323.5,,directmemory_phase1,1068847,,,,object_06c.png,,,50,,,0,,object_15b.png,object_11a.png,object_12b.png,object_12b.png,,0.5217391304347826,0,,,,,,,,,,,
4348.399999976158,,directmemory_phase1,1073201,,,,object_11c.png,,,51,,,1,,object_09a.png,object_01b.png,object_08a.png,object_08a.png,,0.5416666666666666,1,,,,,,,,,,,
4162.400000095367,,directmemory_phase1,1077368,,,,object_03c.png,,,49,,,0,,object_03b.png,object_13a.png,object_13b.png,object_13b.png,,0.52,0,,,,,,,,,,,
3720.8000000715256,,directmemory_phase1,1081096,,,,object_09a.png,,,50,,,0,,object_07c.png,object_11b.png,object_01a.png,object_01a.png,,0.5,0,,,,,,,,,,,
4609.799999952316,,directmemory_phase1,1085711,,,,object_02a.png,,,51,,,1,,object_12b.png,object_11c.png,object_13c.png,object_13c.png,,0.5185185185185185,1,,,,,,,,,,,
3252.7999999523163,,directmemory_phase1,1088969,,,,object_02c.png,,,49,,,0,,object_12c.png,object_13c.png,object_15c.png,object_13c.png,,0.5,0,,,,,,,,,,,
4848.599999904633,,directmemory_phase1,1093823,,,,object_12b.png,,,50,,,0,,object_09b.png,object_05c.png,object_06b.png,object_09b.png,,0.4827586206896552,0,,,,,,,,,,,
3796.899999976158,,directmemory_phase1,1097626,,,,object_04b.png,,,49,,,0,,object_05c.png,object_08c.png,object_13b.png,object_08c.png,,0.4666666666666667,0,,,,,,,,,,,
null,,thebreak,1097738,,,,<p></p>,,,null,,,,,,,,,,,,,,,,,,,,,,
2135.7000000476837,,intro_0,1099876,,,,instruct,,,32,,,,,,,,,,,,,,,,,,,,,,
null,,learn_phase(without_color)2,1103397,,,,black_plus_sign,,,null,object_09c.png,object_08a.png,,,,,,,,,,,,,,,,,,,,
null,,black_cross(without_color)2,1104458,,,,green,,,null,object_09c.png,object_08a.png,,,,,,,,,,,,,,,,,,,,
null,,rt_plussign_withcolor2,1104962,,,,green,,,null,object_09c.png,object_08a.png,,,,,,,,,,,,,,,,,,,,
1598.3999999761581,,rt_thecrossant_black2,1105930,,,,black_plus_sign,,,49,,,0,,,,,,,0,,,,,,,,,,,,
null,,color_black2,1106048,,,,black_plus_sign,,,null,,,,,,,,,,,,,,,,,,,,,,
null,,learn_phase(without_color)2,1109558,,,,black_plus_sign,,,null,object_03b.png,object_08b.png,,,,,,,,,,,,,,,,,,,,
null,,black_cross(without_color)2,1110389,,,,blue,,,null,object_03b.png,object_08b.png,,,,,,,,,,,,,,,,,,,,
null,,rt_plussign_withcolor2,1110901,,,,blue,,,null,object_03b.png,object_08b.png,,,,,,,,,,,,,,,,,,,,
1441,,rt_thecrossant_black2,1112105,,,,black_plus_sign,,,49,,,1,,,,,,,0.5,,,,,,,,,,,,
null,,color_black2,1112218,,,,black_plus_sign,,,null,,,,,,,,,,,,,,,,,,,,,,
null,,learn_phase(without_color)2,1115738,,,,black_plus_sign,,,null,object_06b.png,object_05a.png,,,,,,,,,,,,,,,,,,,,
null,,black_cross(without_color)2,1116173,,,,green,,,null,object_06b.png,object_05a.png,,,,,,,,,,,,,,,,,,,,
null,,rt_plussign_withcolor2,1116690,,,,green,,,null,object_06b.png,object_05a.png,,,,,,,,,,,,,,,,,,,,
1102.8000000715256,,rt_thecrossant_black2,1118269,,,,black_plus_sign,,,50,,,1,,,,,,,0.6666666666666666,,,,,,,,,,,,
null,,color_black2,1118397,,,,black_plus_sign,,,null,,,,,,,,,,,,,,,,,,,,,,
null,,learn_phase(without_color)2,1121911,,,,black_plus_sign,,,null,object_02b.png,object_04a.png,,,,,,,,,,,,,,,,,,,,
null,,black_cross(without_color)2,1122549,,,,green,,,null,object_02b.png,object_04a.png,,,,,,,,,,,,,,,,,,,,
null,,rt_plussign_withcolor2,1123064,,,,green,,,null,object_02b.png,object_04a.png,,,,,,,,,,,,,,,,,,,,
1242.1000000238419,,rt_thecrossant_black2,1124456,,,,black_plus_sign,,,50,,,1,,,,,,,0.75,,,,,,,,,,,,
null,,color_black2,1124567,,,,black_plus_sign,,,null,,,,,,,,,,,,,,,,,,,,,,
null,,learn_phase(without_color)2,1128087,,,,black_plus_sign,,,null,object_11a.png,object_09a.png,,,,,,,,,,,,,,,,,,,,
null,,black_cross(without_color)2,1128566,,,,green,,,null,object_11a.png,object_09a.png,,,,,,,,,,,,,,,,,,,,
null,,rt_plussign_withcolor2,1129084,,,,green,,,null,object_11a.png,object_09a.png,,,,,,,,,,,,,,,,,,,,
936.5,,rt_thecrossant_black2,1130645,,,,black_plus_sign,,,50,,,1,,,,,,,0.8,,,,,,,,,,,,
null,,color_black2,1130749,,,,black_plus_sign,,,null,,,,,,,,,,,,,,,,,,,,,,
null,,learn_phase(without_color)2,1134265,,,,black_plus_sign,,,null,object_07a.png,object_08c.png,,,,,,,,,,,,,,,,,,,,
null,,black_cross(without_color)2,1134939,,,,green,,,null,object_07a.png,object_08c.png,,,,,,,,,,,,,,,,,,,,
null,,rt_plussign_withcolor2,1135456,,,,green,,,null,object_07a.png,object_08c.png,,,,,,,,,,,,,,,,,,,,
685.6999999284744,,rt_thecrossant_black2,1136807,,,,black_plus_sign,,,50,,,1,,,,,,,0.8333333333333334,,,,,,,,,,,,
null,,color_black2,1136919,,,,black_plus_sign,,,null,,,,,,,,,,,,,,,,,,,,,,
null,,learn_phase(without_color)2,1140438,,,,black_plus_sign,,,null,object_15b.png,object_07b.png,,,,,,,,,,,,,,,,,,,,
null,,black_cross(without_color)2,1141299,,,,green,,,null,object_15b.png,object_07b.png,,,,,,,,,,,,,,,,,,,,
null,,rt_plussign_withcolor2,1141819,,,,green,,,null,object_15b.png,object_07b.png,,,,,,,,,,,,,,,,,,,,
884.1000000238419,,rt_thecrossant_black2,1142999,,,,black_plus_sign,,,50,,,1,,,,,,,0.8571428571428571,,,,,,,,,,,,
null,,color_black2,1143108,,,,black_plus_sign,,,null,,,,,,,,,,,,,,,,,,,,,,
null,,learn_phase(without_color)2,1146628,,,,black_plus_sign,,,null,object_06a.png,object_04a.png,,,,,,,,,,,,,,,,,,,,
null,,black_cross(without_color)2,1147115,,,,green,,,null,object_06a.png,object_04a.png,,,,,,,,,,,,,,,,,,,,
484.90000009536743,,rt_plussign_withcolor2,1147618,,,,green,,,50,object_06a.png,object_04a.png,,,,,,,,,,,,,,,,,,,,
null,,rt_thecrossant_black2,1149157,,,,black_plus_sign,,,null,,,1,,,,,,,0.875,,,,,,,,,,,,
null,,color_black2,1149269,,,,black_plus_sign,,,null,,,,,,,,,,,,,,,,,,,,,,
null,,learn_phase(without_color)2,1152777,,,,black_plus_sign,,,null,object_03a.png,object_15b.png,,,,,,,,,,,,,,,,,,,,
null,,black_cross(without_color)2,1153211,,,,green,,,null,object_03a.png,object_15b.png,,,,,,,,,,,,,,,,,,,,
null,,rt_plussign_withcolor2,1153723,,,,green,,,null,object_03a.png,object_15b.png,,,,,,,,,,,,,,,,,,,,
732.1000000238419,,rt_thecrossant_black2,1155318,,,,black_plus_sign,,,50,,,1,,,,,,,0.8888888888888888,,,,,,,,,,,,
null,,color_black2,1155428,,,,black_plus_sign,,,null,,,,,,,,,,,,,,,,,,,,,,
null,,learn_phase(without_color)2,1158937,,,,black_plus_sign,,,null,object_10a.png,object_10c.png,,,,,,,,,,,,,,,,,,,,
null,,black_cross(without_color)2,1159929,,,,blue,,,null,object_10a.png,object_10c.png,,,,,,,,,,,,,,,,,,,,
null,,rt_plussign_withcolor2,1160435,,,,blue,,,null,object_10a.png,object_10c.png,,,,,,,,,,,,,,,,,,,,
921,,rt_thecrossant_black2,1161459,,,,black_plus_sign,,,49,,,1,,,,,,,0.9,,,,,,,,,,,,
null,,color_black2,1161570,,,,black_plus_sign,,,null,,,,,,,,,,,,,,,,,,,,,,
null,,learn_phase(without_color)2,1165088,,,,black_plus_sign,,,null,object_13c.png,object_02c.png,,,,,,,,,,,,,,,,,,,,
null,,black_cross(without_color)2,1165727,,,,green,,,null,object_13c.png,object_02c.png,,,,,,,,,,,,,,,,,,,,
477.60000002384186,,rt_plussign_withcolor2,1166233,,,,green,,,50,object_13c.png,object_02c.png,,,,,,,,,,,,,,,,,,,,
null,,rt_thecrossant_black2,1167625,,,,black_plus_sign,,,null,,,1,,,,,,,0.9090909090909091,,,,,,,,,,,,
null,,color_black2,1167730,,,,black_plus_sign,,,null,,,,,,,,,,,,,,,,,,,,,,
null,,learn_phase(without_color)2,1171253,,,,black_plus_sign,,,null,object_11b.png,object_14c.png,,,,,,,,,,,,,,,,,,,,
null,,black_cross(without_color)2,1172259,,,,blue,,,null,object_11b.png,object_14c.png,,,,,,,,,,,,,,,,,,,,
null,,rt_plussign_withcolor2,1172784,,,,blue,,,null,object_11b.png,object_14c.png,,,,,,,,,,,,,,,,,,,,
886,,rt_thecrossant_black2,1173827,,,,black_plus_sign,,,49,,,1,,,,,,,0.9166666666666666,,,,,,,,,,,,
null,,color_black2,1173943,,,,black_plus_sign,,,null,,,,,,,,,,,,,,,,,,,,,,
null,,learn_phase(without_color)2,1177458,,,,black_plus_sign,,,null,object_12b.png,object_09b.png,,,,,,,,,,,,,,,,,,,,
null,,black_cross(without_color)2,1178088,,,,blue,,,null,object_12b.png,object_09b.png,,,,,,,,,,,,,,,,,,,,
null,,rt_plussign_withcolor2,1178603,,,,blue,,,null,object_12b.png,object_09b.png,,,,,,,,,,,,,,,,,,,,
1176.1000000238419,,rt_thecrossant_black2,1179994,,,,black_plus_sign,,,49,,,1,,,,,,,0.9230769230769231,,,,,,,,,,,,
null,,color_black2,1180108,,,,black_plus_sign,,,null,,,,,,,,,,,,,,,,,,,,,,
null,,learn_phase(without_color)2,1183621,,,,black_plus_sign,,,null,object_08a.png,object_11c.png,,,,,,,,,,,,,,,,,,,,
null,,black_cross(without_color)2,1184103,,,,blue,,,null,object_08a.png,object_11c.png,,,,,,,,,,,,,,,,,,,,
null,,rt_plussign_withcolor2,1184613,,,,blue,,,null,object_08a.png,object_11c.png,,,,,,,,,,,,,,,,,,,,
911.3999999761581,,rt_thecrossant_black2,1186140,,,,black_plus_sign,,,49,,,1,,,,,,,0.9285714285714286,,,,,,,,,,,,
null,,color_black2,1186245,,,,black_plus_sign,,,null,,,,,,,,,,,,,,,,,,,,,,
null,,learn_phase(without_color)2,1189754,,,,black_plus_sign,,,null,object_05c.png,object_13b.png,,,,,,,,,,,,,,,,,,,,
null,,black_cross(without_color)2,1190294,,,,green,,,null,object_05c.png,object_13b.png,,,,,,,,,,,,,,,,,,,,
null,,rt_plussign_withcolor2,1190799,,,,green,,,null,object_05c.png,object_13b.png,,,,,,,,,,,,,,,,,,,,
772.8000000715256,,rt_thecrossant_black2,1192278,,,,black_plus_sign,,,50,,,1,,,,,,,0.9333333333333333,,,,,,,,,,,,
null,,color_black2,1192398,,,,black_plus_sign,,,null,,,,,,,,,,,,,,,,,,,,,,
null,,learn_phase(without_color)2,1195908,,,,black_plus_sign,,,null,object_01a.png,object_09a.png,,,,,,,,,,,,,,,,,,,,
null,,black_cross(without_color)2,1196902,,,,blue,,,null,object_01a.png,object_09a.png,,,,,,,,,,,,,,,,,,,,
493.60000002384186,,rt_plussign_withcolor2,1197412,,,,blue,,,49,object_01a.png,object_09a.png,,,,,,,,,,,,,,,,,,,,
null,,rt_thecrossant_black2,1198428,,,,black_plus_sign,,,null,,,1,,,,,,,0.9375,,,,,,,,,,,,
null,,color_black2,1198547,,,,black_plus_sign,,,null,,,,,,,,,,,,,,,,,,,,,,
null,,learn_phase(without_color)2,1202055,,,,black_plus_sign,,,null,object_12b.png,object_06c.png,,,,,,,,,,,,,,,,,,,,
null,,black_cross(without_color)2,1203119,,,,blue,,,null,object_12b.png,object_06c.png,,,,,,,,,,,,,,,,,,,,
null,,rt_plussign_withcolor2,1203628,,,,blue,,,null,object_12b.png,object_06c.png,,,,,,,,,,,,,,,,,,,,
1184.2000000476837,,rt_thecrossant_black2,1204581,,,,black_plus_sign,,,49,,,1,,,,,,,0.9411764705882353,,,,,,,,,,,,
null,,color_black2,1204690,,,,black_plus_sign,,,null,,,,,,,,,,,,,,,,,,,,,,
null,,learn_phase(without_color)2,1208202,,,,black_plus_sign,,,null,object_10b.png,object_05b.png,,,,,,,,,,,,,,,,,,,,
null,,black_cross(without_color)2,1209308,,,,blue,,,null,object_10b.png,object_05b.png,,,,,,,,,,,,,,,,,,,,
null,,rt_plussign_withcolor2,1209816,,,,blue,,,null,object_10b.png,object_05b.png,,,,,,,,,,,,,,,,,,,,
1367.6000000238419,,rt_thecrossant_black2,1210728,,,,black_plus_sign,,,49,,,1,,,,,,,0.9444444444444444,,,,,,,,,,,,
null,,color_black2,1210838,,,,black_plus_sign,,,null,,,,,,,,,,,,,,,,,,,,,,
null,,learn_phase(without_color)2,1214347,,,,black_plus_sign,,,null,object_01c.png,object_06b.png,,,,,,,,,,,,,,,,,,,,
null,,black_cross(without_color)2,1215198,,,,green,,,null,object_01c.png,object_06b.png,,,,,,,,,,,,,,,,,,,,
null,,rt_plussign_withcolor2,1215704,,,,green,,,null,object_01c.png,object_06b.png,,,,,,,,,,,,,,,,,,,,
1430.2000000476837,,rt_thecrossant_black2,1216878,,,,black_plus_sign,,,50,,,1,,,,,,,0.9473684210526315,,,,,,,,,,,,
null,,color_black2,1216999,,,,black_plus_sign,,,null,,,,,,,,,,,,,,,,,,,,,,
null,,learn_phase(without_color)2,1220527,,,,black_plus_sign,,,null,object_04c.png,object_14a.png,,,,,,,,,,,,,,,,,,,,
null,,black_cross(without_color)2,1221038,,,,green,,,null,object_04c.png,object_14a.png,,,,,,,,,,,,,,,,,,,,
null,,rt_plussign_withcolor2,1221542,,,,green,,,null,object_04c.png,object_14a.png,,,,,,,,,,,,,,,,,,,,
1031,,rt_thecrossant_black2,1223067,,,,black_plus_sign,,,50,,,1,,,,,,,0.95,,,,,,,,,,,,
null,,color_black2,1223175,,,,black_plus_sign,,,null,,,,,,,,,,,,,,,,,,,,,,
null,,learn_phase(without_color)2,1226682,,,,black_plus_sign,,,null,object_13b.png,object_03c.png,,,,,,,,,,,,,,,,,,,,
null,,black_cross(without_color)2,1227498,,,,green,,,null,object_13b.png,object_03c.png,,,,,,,,,,,,,,,,,,,,
null,,rt_plussign_withcolor2,1228005,,,,green,,,null,object_13b.png,object_03c.png,,,,,,,,,,,,,,,,,,,,
665.1000000238419,,rt_thecrossant_black2,1229221,,,,black_plus_sign,,,50,,,1,,,,,,,0.9523809523809523,,,,,,,,,,,,
null,,color_black2,1229332,,,,black_plus_sign,,,null,,,,,,,,,,,,,,,,,,,,,,
null,,learn_phase(without_color)2,1232848,,,,black_plus_sign,,,null,object_10c.png,object_07c.png,,,,,,,,,,,,,,,,,,,,
null,,black_cross(without_color)2,1233283,,,,blue,,,null,object_10c.png,object_07c.png,,,,,,,,,,,,,,,,,,,,
null,,rt_plussign_withcolor2,1233809,,,,blue,,,null,object_10c.png,object_07c.png,,,,,,,,,,,,,,,,,,,,
1837.7000000476837,,rt_thecrossant_black2,1235412,,,,black_plus_sign,,,49,,,1,,,,,,,0.9545454545454546,,,,,,,,,,,,
null,,color_black2,1235528,,,,black_plus_sign,,,null,,,,,,,,,,,,,,,,,,,,,,
null,,learn_phase(without_color)2,1239037,,,,black_plus_sign,,,null,object_12a.png,object_11b.png,,,,,,,,,,,,,,,,,,,,
null,,black_cross(without_color)2,1240045,,,,blue,,,null,object_12a.png,object_11b.png,,,,,,,,,,,,,,,,,,,,
null,,rt_plussign_withcolor2,1240555,,,,blue,,,null,object_12a.png,object_11b.png,,,,,,,,,,,,,,,,,,,,
792.2000000476837,,rt_thecrossant_black2,1241585,,,,black_plus_sign,,,49,,,1,,,,,,,0.9565217391304348,,,,,,,,,,,,
null,,color_black2,1241698,,,,black_plus_sign,,,null,,,,,,,,,,,,,,,,,,,,,,
null,,learn_phase(without_color)2,1245210,,,,black_plus_sign,,,null,object_12c.png,object_05b.png,,,,,,,,,,,,,,,,,,,,
null,,black_cross(without_color)2,1246076,,,,blue,,,null,object_12c.png,object_05b.png,,,,,,,,,,,,,,,,,,,,
null,,rt_plussign_withcolor2,1246585,,,,blue,,,null,object_12c.png,object_05b.png,,,,,,,,,,,,,,,,,,,,
1276.1999999284744,,rt_thecrossant_black2,1247739,,,,black_plus_sign,,,49,,,1,,,,,,,0.9583333333333334,,,,,,,,,,,,
null,,color_black2,1247849,,,,black_plus_sign,,,null,,,,,,,,,,,,,,,,,,,,,,
null,,learn_phase(without_color)2,1251361,,,,black_plus_sign,,,null,object_13c.png,object_02a.png,,,,,,,,,,,,,,,,,,,,
null,,black_cross(without_color)2,1251774,,,,green,,,null,object_13c.png,object_02a.png,,,,,,,,,,,,,,,,,,,,
null,,rt_plussign_withcolor2,1252286,,,,green,,,null,object_13c.png,object_02a.png,,,,,,,,,,,,,,,,,,,,
1339.8999999761581,,rt_thecrossant_black2,1253885,,,,black_plus_sign,,,50,,,1,,,,,,,0.96,,,,,,,,,,,,
null,,color_black2,1253988,,,,black_plus_sign,,,null,,,,,,,,,,,,,,,,,,,,,,
null,,learn_phase(without_color)2,1257514,,,,black_plus_sign,,,null,object_08c.png,object_04b.png,,,,,,,,,,,,,,,,,,,,
null,,black_cross(without_color)2,1258356,,,,green,,,null,object_08c.png,object_04b.png,,,,,,,,,,,,,,,,,,,,
null,,rt_plussign_withcolor2,1258860,,,,green,,,null,object_08c.png,object_04b.png,,,,,,,,,,,,,,,,,,,,
663.6000000238419,,rt_thecrossant_black2,1260047,,,,black_plus_sign,,,50,,,1,,,,,,,0.9615384615384616,,,,,,,,,,,,
null,,color_black2,1260163,,,,black_plus_sign,,,null,,,,,,,,,,,,,,,,,,,,,,
null,,learn_phase(without_color)2,1263681,,,,black_plus_sign,,,null,object_15a.png,object_14a.png,,,,,,,,,,,,,,,,,,,,
null,,black_cross(without_color)2,1264174,,,,blue,,,null,object_15a.png,object_14a.png,,,,,,,,,,,,,,,,,,,,
null,,rt_plussign_withcolor2,1264689,,,,blue,,,null,object_15a.png,object_14a.png,,,,,,,,,,,,,,,,,,,,
1185.7000000476837,,rt_thecrossant_black2,1266215,,,,black_plus_sign,,,49,,,1,,,,,,,0.9629629629629629,,,,,,,,,,,,
null,,color_black2,1266328,,,,black_plus_sign,,,null,,,,,,,,,,,,,,,,,,,,,,
null,,learn_phase(without_color)2,1269849,,,,black_plus_sign,,,null,object_03b.png,object_01b.png,,,,,,,,,,,,,,,,,,,,
null,,black_cross(without_color)2,1270449,,,,blue,,,null,object_03b.png,object_01b.png,,,,,,,,,,,,,,,,,,,,
null,,rt_plussign_withcolor2,1270975,,,,blue,,,null,object_03b.png,object_01b.png,,,,,,,,,,,,,,,,,,,,
909.2000000476837,,rt_thecrossant_black2,1272402,,,,black_plus_sign,,,49,,,1,,,,,,,0.9642857142857143,,,,,,,,,,,,
null,,color_black2,1272519,,,,black_plus_sign,,,null,,,,,,,,,,,,,,,,,,,,,,
null,,learn_phase(without_color)2,1276040,,,,black_plus_sign,,,null,object_15c.png,object_13a.png,,,,,,,,,,,,,,,,,,,,
null,,black_cross(without_color)2,1277060,,,,blue,,,null,object_15c.png,object_13a.png,,,,,,,,,,,,,,,,,,,,
null,,rt_plussign_withcolor2,1277570,,,,blue,,,null,object_15c.png,object_13a.png,,,,,,,,,,,,,,,,,,,,
780.6999999284744,,rt_thecrossant_black2,1278572,,,,black_plus_sign,,,49,,,1,,,,,,,0.9655172413793104,,,,,,,,,,,,
null,,color_black2,1278678,,,,black_plus_sign,,,null,,,,,,,,,,,,,,,,,,,,,,
null,,learn_phase(without_color)2,1282184,,,,black_plus_sign,,,null,object_14b.png,object_15c.png,,,,,,,,,,,,,,,,,,,,
null,,black_cross(without_color)2,1282730,,,,blue,,,null,object_14b.png,object_15c.png,,,,,,,,,,,,,,,,,,,,
null,,rt_plussign_withcolor2,1283233,,,,blue,,,null,object_14b.png,object_15c.png,,,,,,,,,,,,,,,,,,,,
1548,,rt_thecrossant_black2,1284705,,,,black_plus_sign,,,49,,,1,,,,,,,0.9666666666666667,,,,,,,,,,,,
null,,color_black2,1284815,,,,black_plus_sign,,,null,,,,,,,,,,,,,,,,,,,,,,
null,,thebreak,1284928,,,,<p></p>,,,null,,,,,,,,,,,,,,,,,,,,,,
3877.7000000476837,,intro_0,1288809,,,,instruct,,,32,,,,,,,,,,,,,,,,,,,,,,
6106.899999976158,,directmemory_phase2,1294918,,,,object_13a.png,,,51,,,1,,object_09a.png,object_07a.png,object_15c.png,object_15c.png,,0.4838709677419355,1,,,,,,,,,,,
4533.300000071526,,directmemory_phase2,1299458,,,,object_06b.png,,,51,,,1,,object_06a.png,object_10c.png,object_01c.png,object_01c.png,,0.5,1,,,,,,,,,,,
7549.799999952316,,directmemory_phase2,1307013,,,,object_05a.png,,,51,,,0,,object_10a.png,object_06b.png,object_10c.png,object_06b.png,,0.48484848484848486,0,,,,,,,,,,,
12951.400000095367,,directmemory_phase2,1319971,,,,object_10a.png,,,49,,,1,,object_10c.png,object_15c.png,object_14c.png,object_10c.png,,0.5,1,,,,,,,,,,,
12291.399999976158,,directmemory_phase2,1332268,,,,object_02c.png,,,49,,,0,,object_12a.png,object_13c.png,object_05b.png,object_13c.png,,0.4857142857142857,0,,,,,,,,,,,
2370.899999976158,,directmemory_phase2,1334645,,,,object_07a.png,,,49,,,1,,object_08c.png,object_09a.png,object_10b.png,object_08c.png,,0.5,1,,,,,,,,,,,
3135.7999999523163,,directmemory_phase2,1337786,,,,object_12b.png,,,50,,,1,,object_06b.png,object_09b.png,object_05c.png,object_09b.png,,0.5135135135135135,1,,,,,,,,,,,
5370.399999976158,,directmemory_phase2,1343162,,,,object_02b.png,,,50,,,0,,object_04a.png,object_05b.png,object_03c.png,object_04a.png,,0.5,0,,,,,,,,,,,
7271.5,,directmemory_phase2,1350439,,,,object_11b.png,,,51,,,0,,object_12a.png,object_06a.png,object_15b.png,object_12a.png,,0.48717948717948717,0,,,,,,,,,,,
2676.7999999523163,,directmemory_phase2,1353122,,,,object_02a.png,,,50,,,1,,object_01b.png,object_13c.png,object_08c.png,object_13c.png,,0.5,1,,,,,,,,,,,
8011.300000071526,,directmemory_phase2,1361138,,,,object_03a.png,,,51,,,1,,object_08c.png,object_14c.png,object_15b.png,object_15b.png,,0.5121951219512195,1,,,,,,,,,,,
2404,,directmemory_phase2,1363548,,,,object_14a.png,,,50,,,1,,object_08c.png,object_15a.png,object_14b.png,object_15a.png,,0.5238095238095238,1,,,,,,,,,,,
3843.6999999284744,,directmemory_phase2,1367396,,,,object_12c.png,,,50,,,1,,object_07c.png,object_05b.png,object_03b.png,object_05b.png,,0.5348837209302325,1,,,,,,,,,,,
2148.600000023842,,directmemory_phase2,1369552,,,,object_06c.png,,,49,,,0,,object_03c.png,object_12b.png,object_11b.png,object_12b.png,,0.5227272727272727,0,,,,,,,,,,,
7387.5,,directmemory_phase2,1376945,,,,object_04c.png,,,50,,,0,,object_13b.png,object_07a.png,object_14a.png,object_14a.png,,0.5111111111111111,0,,,,,,,,,,,
2484,,directmemory_phase2,1379434,,,,object_11c.png,,,49,,,1,,object_08a.png,object_03b.png,object_03c.png,object_08a.png,,0.5217391304347826,1,,,,,,,,,,,
1941.8000000715256,,directmemory_phase2,1381381,,,,object_09a.png,,,49,,,1,,object_01a.png,object_07c.png,object_03b.png,object_01a.png,,0.5319148936170213,1,,,,,,,,,,,
6301.900000095367,,directmemory_phase2,1387689,,,,object_08a.png,,,51,,,1,,object_14b.png,object_10c.png,object_09c.png,object_09c.png,,0.5416666666666666,1,,,,,,,,,,,
7704.599999904633,,directmemory_phase2,1395399,,,,object_05c.png,,,50,,,1,,object_09c.png,object_13b.png,object_04a.png,object_13b.png,,0.5510204081632653,1,,,,,,,,,,,
2217.5,,directmemory_phase2,1397623,,,,object_04a.png,,,49,,,0,,object_12b.png,object_06a.png,object_15a.png,object_06a.png,,0.54,0,,,,,,,,,,,
5654.199999928474,,directmemory_phase2,1403283,,,,object_03b.png,,,51,,,1,,object_07c.png,object_08c.png,object_08b.png,object_08b.png,,0.5490196078431373,1,,,,,,,,,,,
2693.7999999523163,,directmemory_phase2,1405984,,,,object_15c.png,,,49,,,1,,object_14b.png,object_09c.png,object_05b.png,object_14b.png,,0.5576923076923077,1,,,,,,,,,,,
7054.700000047684,,directmemory_phase2,1413044,,,,object_10b.png,,,51,,,0,,object_05b.png,object_12b.png,object_11a.png,object_05b.png,,0.5471698113207547,0,,,,,,,,,,,
5375.299999952316,,directmemory_phase2,1418426,,,,object_14c.png,,,49,,,0,,object_05b.png,object_11a.png,object_11b.png,object_11b.png,,0.5370370370370371,0,,,,,,,,,,,
2788.2999999523163,,directmemory_phase2,1421220,,,,object_04b.png,,,49,,,0,,object_05c.png,object_08c.png,object_03b.png,object_08c.png,,0.5272727272727272,0,,,,,,,,,,,
9918.199999928474,,directmemory_phase2,1431145,,,,object_07b.png,,,51,,,0,,object_15b.png,object_13b.png,object_04b.png,object_15b.png,,0.5178571428571429,0,,,,,,,,,,,
6170.800000071526,,directmemory_phase2,1437323,,,,object_11a.png,,,51,,,0,,object_09a.png,object_08a.png,object_14c.png,object_09a.png,,0.5087719298245614,0,,,,,,,,,,,
2820,,directmemory_phase2,1440149,,,,object_03c.png,,,49,,,1,,object_13b.png,object_04a.png,object_05a.png,object_13b.png,,0.5172413793103449,1,,,,,,,,,,,
5136.600000023842,,directmemory_phase2,1445292,,,,object_01b.png,,,51,,,0,,object_03b.png,object_15c.png,object_06c.png,object_03b.png,,0.5084745762711864,0,,,,,,,,,,,
6019.799999952316,,directmemory_phase2,1451317,,,,object_07c.png,,,50,,,1,,object_12c.png,object_10c.png,object_15c.png,object_10c.png,,0.5166666666666667,1,,,,,,,,,,,
null,,thebreak,1451425,,,,<p></p>,,,null,,,,,,,,,,,,,,,,,,,,,,
3206.100000023842,,intro_0,1454634,,,,instruct,,,32,,,,,,,,,,,,,,,,,,,,,,
null,,learn_phase(without_color)3,1458141,,,,black_plus_sign,,,null,object_09a.png,object_01a.png,,,,,,,,,,,,,,,,,,,,
null,,black_cross(without_color)3,1458770,,,,green,,,null,object_09a.png,object_01a.png,,,,,,,,,,,,,,,,,,,,
null,,rt_plussign_withcolor3,1459276,,,,green,,,null,object_09a.png,object_01a.png,,,,,,,,,,,,,,,,,,,,
1032.6000000238419,,rt_thecrossant_black3,1460681,,,,black_plus_sign,,,50,,,1,,,,,,,1,,,,,,,,,,,,
null,,color_black3,1460803,,,,black_plus_sign,,,null,,,,,,,,,,,,,,,,,,,,,,
null,,learn_phase(without_color)3,1464324,,,,black_plus_sign,,,null,object_13a.png,object_15c.png,,,,,,,,,,,,,,,,,,,,
null,,black_cross(without_color)3,1464737,,,,green,,,null,object_13a.png,object_15c.png,,,,,,,,,,,,,,,,,,,,
null,,rt_plussign_withcolor3,1465246,,,,green,,,null,object_13a.png,object_15c.png,,,,,,,,,,,,,,,,,,,,
1232.1000000238419,,rt_thecrossant_black3,1466851,,,,black_plus_sign,,,50,,,1,,,,,,,1,,,,,,,,,,,,
null,,color_black3,1466955,,,,black_plus_sign,,,null,,,,,,,,,,,,,,,,,,,,,,
null,,learn_phase(without_color)3,1470471,,,,black_plus_sign,,,null,object_13b.png,object_03c.png,,,,,,,,,,,,,,,,,,,,
null,,black_cross(without_color)3,1470891,,,,blue,,,null,object_13b.png,object_03c.png,,,,,,,,,,,,,,,,,,,,
474,,rt_plussign_withcolor3,1471399,,,,blue,,,49,object_13b.png,object_03c.png,,,,,,,,,,,,,,,,,,,,
null,,rt_thecrossant_black3,1473003,,,,black_plus_sign,,,null,,,1,,,,,,,1,,,,,,,,,,,,
null,,color_black3,1473121,,,,black_plus_sign,,,null,,,,,,,,,,,,,,,,,,,,,,
null,,learn_phase(without_color)3,1476636,,,,black_plus_sign,,,null,object_15a.png,object_14a.png,,,,,,,,,,,,,,,,,,,,
null,,black_cross(without_color)3,1477194,,,,blue,,,null,object_15a.png,object_14a.png,,,,,,,,,,,,,,,,,,,,
null,,rt_plussign_withcolor3,1477703,,,,blue,,,null,object_15a.png,object_14a.png,,,,,,,,,,,,,,,,,,,,
655.2999999523163,,rt_thecrossant_black3,1479169,,,,black_plus_sign,,,49,,,1,,,,,,,1,,,,,,,,,,,,
null,,color_black3,1479289,,,,black_plus_sign,,,null,,,,,,,,,,,,,,,,,,,,,,
null,,learn_phase(without_color)3,1482800,,,,black_plus_sign,,,null,object_11b.png,object_12a.png,,,,,,,,,,,,,,,,,,,,
null,,black_cross(without_color)3,1483604,,,,green,,,null,object_11b.png,object_12a.png,,,,,,,,,,,,,,,,,,,,
474,,rt_plussign_withcolor3,1484106,,,,green,,,50,object_11b.png,object_12a.png,,,,,,,,,,,,,,,,,,,,
null,,rt_thecrossant_black3,1485338,,,,black_plus_sign,,,null,,,1,,,,,,,1,,,,,,,,,,,,
null,,color_black3,1485450,,,,black_plus_sign,,,null,,,,,,,,,,,,,,,,,,,,,,
null,,learn_phase(without_color)3,1488960,,,,black_plus_sign,,,null,object_13c.png,object_02a.png,,,,,,,,,,,,,,,,,,,,
null,,black_cross(without_color)3,1489865,,,,green,,,null,object_13c.png,object_02a.png,,,,,,,,,,,,,,,,,,,,
null,,rt_plussign_withcolor3,1490367,,,,green,,,null,object_13c.png,object_02a.png,,,,,,,,,,,,,,,,,,,,
1021.6000000238419,,rt_thecrossant_black3,1491478,,,,black_plus_sign,,,50,,,1,,,,,,,1,,,,,,,,,,,,
null,,color_black3,1491588,,,,black_plus_sign,,,null,,,,,,,,,,,,,,,,,,,,,,
null,,learn_phase(without_color)3,1495094,,,,black_plus_sign,,,null,object_13b.png,object_05c.png,,,,,,,,,,,,,,,,,,,,
null,,black_cross(without_color)3,1495872,,,,blue,,,null,object_13b.png,object_05c.png,,,,,,,,,,,,,,,,,,,,
null,,rt_plussign_withcolor3,1496389,,,,blue,,,null,object_13b.png,object_05c.png,,,,,,,,,,,,,,,,,,,,
1098.8999999761581,,rt_thecrossant_black3,1497638,,,,black_plus_sign,,,49,,,1,,,,,,,1,,,,,,,,,,,,
null,,color_black3,1497749,,,,black_plus_sign,,,null,,,,,,,,,,,,,,,,,,,,,,
null,,learn_phase(without_color)3,1501257,,,,black_plus_sign,,,null,object_09a.png,object_11a.png,,,,,,,,,,,,,,,,,,,,
null,,black_cross(without_color)3,1501766,,,,blue,,,null,object_09a.png,object_11a.png,,,,,,,,,,,,,,,,,,,,
null,,rt_plussign_withcolor3,1502288,,,,blue,,,null,object_09a.png,object_11a.png,,,,,,,,,,,,,,,,,,,,
971.5,,rt_thecrossant_black3,1503797,,,,black_plus_sign,,,49,,,1,,,,,,,1,,,,,,,,,,,,
null,,color_black3,1503904,,,,black_plus_sign,,,null,,,,,,,,,,,,,,,,,,,,,,
null,,learn_phase(without_color)3,1507412,,,,black_plus_sign,,,null,object_03b.png,object_08b.png,,,,,,,,,,,,,,,,,,,,
null,,black_cross(without_color)3,1508168,,,,blue,,,null,object_03b.png,object_08b.png,,,,,,,,,,,,,,,,,,,,
450.39999997615814,,rt_plussign_withcolor3,1508673,,,,blue,,,49,object_03b.png,object_08b.png,,,,,,,,,,,,,,,,,,,,
null,,rt_thecrossant_black3,1509934,,,,black_plus_sign,,,null,,,1,,,,,,,1,,,,,,,,,,,,
null,,color_black3,1510053,,,,black_plus_sign,,,null,,,,,,,,,,,,,,,,,,,,,,
null,,learn_phase(without_color)3,1513571,,,,black_plus_sign,,,null,object_06b.png,object_05a.png,,,,,,,,,,,,,,,,,,,,
null,,black_cross(without_color)3,1514225,,,,green,,,null,object_06b.png,object_05a.png,,,,,,,,,,,,,,,,,,,,
null,,rt_plussign_withcolor3,1514733,,,,green,,,null,object_06b.png,object_05a.png,,,,,,,,,,,,,,,,,,,,
1022.3999999761581,,rt_thecrossant_black3,1516106,,,,black_plus_sign,,,50,,,1,,,,,,,1,,,,,,,,,,,,
null,,color_black3,1516225,,,,black_plus_sign,,,null,,,,,,,,,,,,,,,,,,,,,,
null,,learn_phase(without_color)3,1519740,,,,black_plus_sign,,,null,object_08a.png,object_11c.png,,,,,,,,,,,,,,,,,,,,
null,,black_cross(without_color)3,1520674,,,,green,,,null,object_08a.png,object_11c.png,,,,,,,,,,,,,,,,,,,,
null,,rt_plussign_withcolor3,1521188,,,,green,,,null,object_08a.png,object_11c.png,,,,,,,,,,,,,,,,,,,,
807.1000000238419,,rt_thecrossant_black3,1522284,,,,black_plus_sign,,,50,,,1,,,,,,,1,,,,,,,,,,,,
null,,color_black3,1522388,,,,black_plus_sign,,,null,,,,,,,,,,,,,,,,,,,,,,
null,,learn_phase(without_color)3,1525901,,,,black_plus_sign,,,null,object_06b.png,object_01c.png,,,,,,,,,,,,,,,,,,,,
null,,black_cross(without_color)3,1526380,,,,blue,,,null,object_06b.png,object_01c.png,,,,,,,,,,,,,,,,,,,,
457.7000000476837,,rt_plussign_withcolor3,1526899,,,,blue,,,49,object_06b.png,object_01c.png,,,,,,,,,,,,,,,,,,,,
null,,rt_thecrossant_black3,1528446,,,,black_plus_sign,,,null,,,1,,,,,,,1,,,,,,,,,,,,
null,,color_black3,1528558,,,,black_plus_sign,,,null,,,,,,,,,,,,,,,,,,,,,,
null,,learn_phase(without_color)3,1532068,,,,black_plus_sign,,,null,object_04a.png,object_06a.png,,,,,,,,,,,,,,,,,,,,
null,,black_cross(without_color)3,1532635,,,,blue,,,null,object_04a.png,object_06a.png,,,,,,,,,,,,,,,,,,,,
null,,rt_plussign_withcolor3,1533151,,,,blue,,,null,object_04a.png,object_06a.png,,,,,,,,,,,,,,,,,,,,
632.3999999761581,,rt_thecrossant_black3,1534599,,,,black_plus_sign,,,49,,,1,,,,,,,1,,,,,,,,,,,,
null,,color_black3,1534709,,,,black_plus_sign,,,null,,,,,,,,,,,,,,,,,,,,,,
null,,learn_phase(without_color)3,1538218,,,,black_plus_sign,,,null,object_14c.png,object_11b.png,,,,,,,,,,,,,,,,,,,,
null,,black_cross(without_color)3,1539225,,,,blue,,,null,object_14c.png,object_11b.png,,,,,,,,,,,,,,,,,,,,
null,,rt_plussign_withcolor3,1539731,,,,blue,,,null,object_14c.png,object_11b.png,,,,,,,,,,,,,,,,,,,,
714.3999999761581,,rt_thecrossant_black3,1540751,,,,black_plus_sign,,,49,,,1,,,,,,,1,,,,,,,,,,,,
null,,color_black3,1540858,,,,black_plus_sign,,,null,,,,,,,,,,,,,,,,,,,,,,
null,,learn_phase(without_color)3,1544371,,,,black_plus_sign,,,null,object_10c.png,object_10a.png,,,,,,,,,,,,,,,,,,,,
null,,black_cross(without_color)3,1545124,,,,green,,,null,object_10c.png,object_10a.png,,,,,,,,,,,,,,,,,,,,
null,,rt_plussign_withcolor3,1545631,,,,green,,,null,object_10c.png,object_10a.png,,,,,,,,,,,,,,,,,,,,
1254.6000000238419,,rt_thecrossant_black3,1546916,,,,black_plus_sign,,,50,,,1,,,,,,,1,,,,,,,,,,,,
null,,color_black3,1547022,,,,black_plus_sign,,,null,,,,,,,,,,,,,,,,,,,,,,
null,,learn_phase(without_color)3,1550536,,,,black_plus_sign,,,null,object_01b.png,object_03b.png,,,,,,,,,,,,,,,,,,,,
null,,black_cross(without_color)3,1551491,,,,blue,,,null,object_01b.png,object_03b.png,,,,,,,,,,,,,,,,,,,,
null,,rt_plussign_withcolor3,1551996,,,,blue,,,null,object_01b.png,object_03b.png,,,,,,,,,,,,,,,,,,,,
940.7000000476837,,rt_thecrossant_black3,1553072,,,,black_plus_sign,,,49,,,1,,,,,,,1,,,,,,,,,,,,
null,,color_black3,1553188,,,,black_plus_sign,,,null,,,,,,,,,,,,,,,,,,,,,,
null,,learn_phase(without_color)3,1556711,,,,black_plus_sign,,,null,object_06c.png,object_12b.png,,,,,,,,,,,,,,,,,,,,
null,,black_cross(without_color)3,1557336,,,,green,,,null,object_06c.png,object_12b.png,,,,,,,,,,,,,,,,,,,,
null,,rt_plussign_withcolor3,1557843,,,,green,,,null,object_06c.png,object_12b.png,,,,,,,,,,,,,,,,,,,,
1068.3000000715256,,rt_thecrossant_black3,1559248,,,,black_plus_sign,,,50,,,1,,,,,,,1,,,,,,,,,,,,
null,,color_black3,1559358,,,,black_plus_sign,,,null,,,,,,,,,,,,,,,,,,,,,,
null,,learn_phase(without_color)3,1562881,,,,black_plus_sign,,,null,object_12b.png,object_09b.png,,,,,,,,,,,,,,,,,,,,
null,,black_cross(without_color)3,1563336,,,,blue,,,null,object_12b.png,object_09b.png,,,,,,,,,,,,,,,,,,,,
null,,rt_plussign_withcolor3,1563847,,,,blue,,,null,object_12b.png,object_09b.png,,,,,,,,,,,,,,,,,,,,
744.6000000238419,,rt_thecrossant_black3,1565416,,,,black_plus_sign,,,49,,,1,,,,,,,1,,,,,,,,,,,,
null,,color_black3,1565527,,,,black_plus_sign,,,null,,,,,,,,,,,,,,,,,,,,,,
null,,learn_phase(without_color)3,1569049,,,,black_plus_sign,,,null,object_05b.png,object_10b.png,,,,,,,,,,,,,,,,,,,,
null,,black_cross(without_color)3,1569625,,,,green,,,null,object_05b.png,object_10b.png,,,,,,,,,,,,,,,,,,,,
null,,rt_plussign_withcolor3,1570130,,,,green,,,null,object_05b.png,object_10b.png,,,,,,,,,,,,,,,,,,,,
999.5,,rt_thecrossant_black3,1571579,,,,black_plus_sign,,,49,,,0,,,,,,,0.9473684210526315,,,,,,,,,,,,
null,,color_black3,1571698,,,,black_plus_sign,,,null,,,,,,,,,,,,,,,,,,,,,,
null,,learn_phase(without_color)3,1575215,,,,black_plus_sign,,,null,object_14b.png,object_15c.png,,,,,,,,,,,,,,,,,,,,
null,,black_cross(without_color)3,1576126,,,,blue,,,null,object_14b.png,object_15c.png,,,,,,,,,,,,,,,,,,,,
null,,rt_plussign_withcolor3,1576632,,,,blue,,,null,object_14b.png,object_15c.png,,,,,,,,,,,,,,,,,,,,
1196.1000000238419,,rt_thecrossant_black3,1577739,,,,black_plus_sign,,,49,,,1,,,,,,,0.95,,,,,,,,,,,,
null,,color_black3,1577845,,,,black_plus_sign,,,null,,,,,,,,,,,,,,,,,,,,,,
null,,learn_phase(without_color)3,1581352,,,,black_plus_sign,,,null,object_04c.png,object_14a.png,,,,,,,,,,,,,,,,,,,,
null,,black_cross(without_color)3,1582103,,,,green,,,null,object_04c.png,object_14a.png,,,,,,,,,,,,,,,,,,,,
null,,rt_plussign_withcolor3,1582621,,,,green,,,null,object_04c.png,object_14a.png,,,,,,,,,,,,,,,,,,,,
1046.1000000238419,,rt_thecrossant_black3,1583897,,,,black_plus_sign,,,50,,,1,,,,,,,0.9523809523809523,,,,,,,,,,,,
null,,color_black3,1584018,,,,black_plus_sign,,,null,,,,,,,,,,,,,,,,,,,,,,
null,,learn_phase(without_color)3,1587528,,,,black_plus_sign,,,null,object_02b.png,object_04a.png,,,,,,,,,,,,,,,,,,,,
null,,black_cross(without_color)3,1588085,,,,green,,,null,object_02b.png,object_04a.png,,,,,,,,,,,,,,,,,,,,
null,,rt_plussign_withcolor3,1588590,,,,green,,,null,object_02b.png,object_04a.png,,,,,,,,,,,,,,,,,,,,
940.2999999523163,,rt_thecrossant_black3,1590075,,,,black_plus_sign,,,50,,,1,,,,,,,0.9545454545454546,,,,,,,,,,,,
null,,color_black3,1590188,,,,black_plus_sign,,,null,,,,,,,,,,,,,,,,,,,,,,
null,,learn_phase(without_color)3,1593702,,,,black_plus_sign,,,null,object_09c.png,object_08a.png,,,,,,,,,,,,,,,,,,,,
null,,black_cross(without_color)3,1594782,,,,blue,,,null,object_09c.png,object_08a.png,,,,,,,,,,,,,,,,,,,,
null,,rt_plussign_withcolor3,1595297,,,,blue,,,null,object_09c.png,object_08a.png,,,,,,,,,,,,,,,,,,,,
757.3999999761581,,rt_thecrossant_black3,1596238,,,,black_plus_sign,,,49,,,1,,,,,,,0.9565217391304348,,,,,,,,,,,,
null,,color_black3,1596351,,,,black_plus_sign,,,null,,,,,,,,,,,,,,,,,,,,,,
null,,learn_phase(without_color)3,1599863,,,,black_plus_sign,,,null,object_03a.png,object_15b.png,,,,,,,,,,,,,,,,,,,,
null,,black_cross(without_color)3,1600698,,,,green,,,null,object_03a.png,object_15b.png,,,,,,,,,,,,,,,,,,,,
481.60000002384186,,rt_plussign_withcolor3,1601203,,,,green,,,50,object_03a.png,object_15b.png,,,,,,,,,,,,,,,,,,,,
null,,rt_thecrossant_black3,1602390,,,,black_plus_sign,,,null,,,1,,,,,,,0.9583333333333334,,,,,,,,,,,,
null,,color_black3,1602508,,,,black_plus_sign,,,null,,,,,,,,,,,,,,,,,,,,,,
null,,learn_phase(without_color)3,1606018,,,,black_plus_sign,,,null,object_07a.png,object_08c.png,,,,,,,,,,,,,,,,,,,,
null,,black_cross(without_color)3,1606854,,,,green,,,null,object_07a.png,object_08c.png,,,,,,,,,,,,,,,,,,,,
null,,rt_plussign_withcolor3,1607364,,,,green,,,null,object_07a.png,object_08c.png,,,,,,,,,,,,,,,,,,,,
1209.6000000238419,,rt_thecrossant_black3,1608552,,,,black_plus_sign,,,50,,,1,,,,,,,0.96,,,,,,,,,,,,
null,,color_black3,1608669,,,,black_plus_sign,,,null,,,,,,,,,,,,,,,,,,,,,,
null,,learn_phase(without_color)3,1612190,,,,black_plus_sign,,,null,object_15b.png,object_07b.png,,,,,,,,,,,,,,,,,,,,
null,,black_cross(without_color)3,1613032,,,,blue,,,null,object_15b.png,object_07b.png,,,,,,,,,,,,,,,,,,,,
null,,rt_plussign_withcolor3,1613539,,,,blue,,,null,object_15b.png,object_07b.png,,,,,,,,,,,,,,,,,,,,
1791.2000000476837,,rt_thecrossant_black3,1614733,,,,black_plus_sign,,,49,,,1,,,,,,,0.9615384615384616,,,,,,,,,,,,
null,,color_black3,1614852,,,,black_plus_sign,,,null,,,,,,,,,,,,,,,,,,,,,,
null,,learn_phase(without_color)3,1618369,,,,black_plus_sign,,,null,object_13c.png,object_02c.png,,,,,,,,,,,,,,,,,,,,
null,,black_cross(without_color)3,1619303,,,,blue,,,null,object_13c.png,object_02c.png,,,,,,,,,,,,,,,,,,,,
null,,rt_plussign_withcolor3,1619818,,,,blue,,,null,object_13c.png,object_02c.png,,,,,,,,,,,,,,,,,,,,
1105.7999999523163,,rt_thecrossant_black3,1620905,,,,black_plus_sign,,,49,,,1,,,,,,,0.9629629629629629,,,,,,,,,,,,
null,,color_black3,1621024,,,,black_plus_sign,,,null,,,,,,,,,,,,,,,,,,,,,,
null,,learn_phase(without_color)3,1624545,,,,black_plus_sign,,,null,object_10c.png,object_07c.png,,,,,,,,,,,,,,,,,,,,
null,,black_cross(without_color)3,1625038,,,,blue,,,null,object_10c.png,object_07c.png,,,,,,,,,,,,,,,,,,,,
null,,rt_plussign_withcolor3,1625544,,,,blue,,,null,object_10c.png,object_07c.png,,,,,,,,,,,,,,,,,,,,
1113.2999999523163,,rt_thecrossant_black3,1627083,,,,black_plus_sign,,,49,,,1,,,,,,,0.9642857142857143,,,,,,,,,,,,
null,,color_black3,1627188,,,,black_plus_sign,,,null,,,,,,,,,,,,,,,,,,,,,,
null,,learn_phase(without_color)3,1630698,,,,black_plus_sign,,,null,object_08c.png,object_04b.png,,,,,,,,,,,,,,,,,,,,
null,,black_cross(without_color)3,1631654,,,,blue,,,null,object_08c.png,object_04b.png,,,,,,,,,,,,,,,,,,,,
null,,rt_plussign_withcolor3,1632168,,,,blue,,,null,object_08c.png,object_04b.png,,,,,,,,,,,,,,,,,,,,
590.2999999523163,,rt_thecrossant_black3,1633245,,,,black_plus_sign,,,49,,,1,,,,,,,0.9655172413793104,,,,,,,,,,,,
null,,color_black3,1633361,,,,black_plus_sign,,,null,,,,,,,,,,,,,,,,,,,,,,
null,,learn_phase(without_color)3,1636873,,,,black_plus_sign,,,null,object_12c.png,object_05b.png,,,,,,,,,,,,,,,,,,,,
null,,black_cross(without_color)3,1637563,,,,green,,,null,object_12c.png,object_05b.png,,,,,,,,,,,,,,,,,,,,
null,,rt_plussign_withcolor3,1638078,,,,green,,,null,object_12c.png,object_05b.png,,,,,,,,,,,,,,,,,,,,
1147.1999999284744,,rt_thecrossant_black3,1639425,,,,black_plus_sign,,,50,,,1,,,,,,,0.9666666666666667,,,,,,,,,,,,
null,,color_black3,1639531,,,,black_plus_sign,,,null,,,,,,,,,,,,,,,,,,,,,,
null,,thebreak,1639650,,,,<p></p>,,,null,,,,,,,,,,,,,,,,,,,,,,
3020,,intro_0,1642674,,,,instruct,,,32,,,,,,,,,,,,,,,,,,,,,,
5670.300000071526,,directmemory_phase3,1648348,,,,object_09a.png,,,49,,,0,,object_15b.png,object_01a.png,object_09c.png,object_01a.png,,0.5081967213114754,0,,,,,,,,,,,
3.299999952316284,,directmemory_phase3,1648358,,,,object_02c.png,,,50,,,0,,object_10c.png,object_15a.png,object_13c.png,object_13c.png,,0.5,0,,,,,,,,,,,
4197.600000023842,,directmemory_phase3,1652561,,,,object_12a.png,,,50,,,1,,object_01a.png,object_11b.png,object_15c.png,object_11b.png,,0.5079365079365079,1,,,,,,,,,,,
35.89999997615814,,directmemory_phase3,1652603,,,,object_15a.png,,,51,,,0,,object_14a.png,object_04a.png,object_08b.png,object_14a.png,,0.5,0,,,,,,,,,,,
5025.099999904633,,directmemory_phase3,1657635,,,,object_04a.png,,,49,,,1,,object_06a.png,object_07b.png,object_03b.png,object_06a.png,,0.5076923076923077,1,,,,,,,,,,,
7208.600000023842,,directmemory_phase3,1664850,,,,object_05a.png,,,50,,,0,,object_15c.png,object_03c.png,object_06b.png,object_06b.png,,0.5,0,,,,,,,,,,,
7471,,directmemory_phase3,1672327,,,,object_15b.png,,,50,,,0,,object_07b.png,object_15a.png,object_06b.png,object_07b.png,,0.4925373134328358,0,,,,,,,,,,,
1830.2999999523163,,directmemory_phase3,1674163,,,,object_11c.png,,,50,,,1,,object_02b.png,object_08a.png,object_08c.png,object_08a.png,,0.5,1,,,,,,,,,,,
3141.9000000953674,,directmemory_phase3,1677312,,,,object_03c.png,,,51,,,0,,object_13b.png,object_11b.png,object_03a.png,object_13b.png,,0.4927536231884058,0,,,,,,,,,,,
3788.100000023842,,directmemory_phase3,1681106,,,,object_07c.png,,,49,,,1,,object_10c.png,object_14a.png,object_01c.png,object_10c.png,,0.5,1,,,,,,,,,,,
9394.700000047684,,directmemory_phase3,1690507,,,,object_14c.png,,,49,,,1,,object_11b.png,object_13b.png,object_13a.png,object_11b.png,,0.5070422535211268,1,,,,,,,,,,,
5231.299999952316,,directmemory_phase3,1695745,,,,object_13a.png,,,49,,,0,,object_11a.png,object_15c.png,object_13b.png,object_15c.png,,0.5,0,,,,,,,,,,,
5297.899999976158,,directmemory_phase3,1701050,,,,object_03a.png,,,49,,,1,,object_15b.png,object_09a.png,object_02b.png,object_15b.png,,0.5068493150684932,1,,,,,,,,,,,
2470.9000000953674,,directmemory_phase3,1703527,,,,object_08b.png,,,50,,,1,,object_06a.png,object_03b.png,object_13b.png,object_03b.png,,0.5135135135135135,1,,,,,,,,,,,
3266.6999999284744,,directmemory_phase3,1706800,,,,object_07a.png,,,50,,,1,,object_03c.png,object_08c.png,object_11b.png,object_08c.png,,0.52,1,,,,,,,,,,,
1904.2999999523163,,directmemory_phase3,1708711,,,,object_09b.png,,,50,,,1,,object_15a.png,object_12b.png,object_11b.png,object_12b.png,,0.5263157894736842,1,,,,,,,,,,,
4285,,directmemory_phase3,1713002,,,,object_01b.png,,,51,,,0,,object_03a.png,object_03b.png,object_05b.png,object_03b.png,,0.5194805194805194,0,,,,,,,,,,,
3347.5,,directmemory_phase3,1716356,,,,object_10b.png,,,49,,,0,,object_04c.png,object_05b.png,object_06b.png,object_05b.png,,0.5128205128205128,0,,,,,,,,,,,
3749.5,,directmemory_phase3,1720112,,,,object_12c.png,,,49,,,1,,object_05b.png,object_10c.png,object_07c.png,object_05b.png,,0.5189873417721519,1,,,,,,,,,,,
4614.899999976158,,directmemory_phase3,1724732,,,,object_08c.png,,,51,,,1,,object_07b.png,object_08a.png,object_04b.png,object_04b.png,,0.525,1,,,,,,,,,,,
3840,,directmemory_phase3,1728578,,,,object_02b.png,,,49,,,1,,object_04a.png,object_08c.png,object_01b.png,object_04a.png,,0.5308641975308642,1,,,,,,,,,,,
6148.900000095367,,directmemory_phase3,1734734,,,,object_04c.png,,,50,,,1,,object_07a.png,object_14a.png,object_12b.png,object_14a.png,,0.5365853658536586,1,,,,,,,,,,,
4602.100000023842,,directmemory_phase3,1739342,,,,object_09c.png,,,51,,,0,,object_01c.png,object_08a.png,object_13b.png,object_08a.png,,0.5301204819277109,0,,,,,,,,,,,
1686.7999999523163,,directmemory_phase3,1741037,,,,object_01c.png,,,49,,,1,,object_06b.png,object_14a.png,object_12a.png,object_06b.png,,0.5357142857142857,1,,,,,,,,,,,
6832.5,,directmemory_phase3,1747875,,,,object_13b.png,,,50,,,0,,object_12a.png,object_11b.png,object_05c.png,object_05c.png,,0.5294117647058824,0,,,,,,,,,,,
2836.2000000476837,,directmemory_phase3,1750718,,,,object_14b.png,,,51,,,1,,object_14a.png,object_01a.png,object_15c.png,object_15c.png,,0.5348837209302325,1,,,,,,,,,,,
2629.8000000715256,,directmemory_phase3,1753354,,,,object_11a.png,,,50,,,0,,object_09a.png,object_08c.png,object_03c.png,object_09a.png,,0.5287356321839081,0,,,,,,,,,,,
2219.7000000476837,,directmemory_phase3,1755580,,,,object_02a.png,,,49,,,1,,object_13c.png,object_05b.png,object_01b.png,object_13c.png,,0.5340909090909091,1,,,,,,,,,,,
5570.600000023842,,directmemory_phase3,1761157,,,,object_06c.png,,,51,,,0,,object_12b.png,object_08c.png,object_05a.png,object_12b.png,,0.5280898876404494,0,,,,,,,,,,,
7272.5,,directmemory_phase3,1768436,,,,object_10a.png,,,51,,,0,,object_05a.png,object_10c.png,object_06b.png,object_10c.png,,0.5222222222222223,0,,,,,,,,,,,
null,,thebreak,1768556,,,,<p></p>,,,null,,,,,,,,,,,,,,,,,,,,,,
3516.100000023842,,intro_0,1772075,,,,instruct,,,32,,,,,,,,,,,,,,,,,,,,,,
null,,learn_phase(without_color)4,1775598,,,,black_plus_sign,,,null,object_15c.png,object_13a.png,,,,,,,,,,,,,,,,,,,,
null,,black_cross(without_color)4,1776173,,,,green,,,null,object_15c.png,object_13a.png,,,,,,,,,,,,,,,,,,,,
null,,rt_plussign_withcolor4,1776691,,,,green,,,null,object_15c.png,object_13a.png,,,,,,,,,,,,,,,,,,,,
1792.1999999284744,,rt_thecrossant_black4,1778142,,,,black_plus_sign,,,49,,,0,,,,,,,0,,,,,,,,,,,,
null,,color_black4,1778260,,,,black_plus_sign,,,null,,,,,,,,,,,,,,,,,,,,,,
null,,learn_phase(without_color)4,1781770,,,,black_plus_sign,,,null,object_14a.png,object_15a.png,,,,,,,,,,,,,,,,,,,,
null,,black_cross(without_color)4,1782260,,,,green,,,null,object_14a.png,object_15a.png,,,,,,,,,,,,,,,,,,,,
null,,rt_plussign_withcolor4,1782765,,,,green,,,null,object_14a.png,object_15a.png,,,,,,,,,,,,,,,,,,,,
null,,rt_thecrossant_black4,1784304,,,,black_plus_sign,,,null,,,,,,,,,,0,,,,,,,,,,,,
null,,warning_page,1789335,,,,warning,,,null,,,,,,,,,,,,,,,,,,,,,,
null,,color_black4,1789448,,,,black_plus_sign,,,null,,,,,,,,,,,,,,,,,,,,,,
null,,learn_phase(without_color)4,1792953,,,,black_plus_sign,,,null,object_04b.png,object_08c.png,,,,,,,,,,,,,,,,,,,,
null,,black_cross(without_color)4,1793900,,,,green,,,null,object_04b.png,object_08c.png,,,,,,,,,,,,,,,,,,,,
null,,rt_plussign_withcolor4,1794405,,,,green,,,null,object_04b.png,object_08c.png,,,,,,,,,,,,,,,,,,,,
753.7999999523163,,rt_thecrossant_black4,1795486,,,,black_plus_sign,,,50,,,1,,,,,,,0.5,,,,,,,,,,,,
null,,color_black4,1795598,,,,black_plus_sign,,,null,,,,,,,,,,,,,,,,,,,,,,
null,,learn_phase(without_color)4,1799109,,,,black_plus_sign,,,null,object_07b.png,object_15b.png,,,,,,,,,,,,,,,,,,,,
null,,black_cross(without_color)4,1800062,,,,green,,,null,object_07b.png,object_15b.png,,,,,,,,,,,,,,,,,,,,
null,,rt_plussign_withcolor4,1800570,,,,green,,,null,object_07b.png,object_15b.png,,,,,,,,,,,,,,,,,,,,
1168.2000000476837,,rt_thecrossant_black4,1801642,,,,black_plus_sign,,,50,,,1,,,,,,,0.6666666666666666,,,,,,,,,,,,
null,,color_black4,1801753,,,,black_plus_sign,,,null,,,,,,,,,,,,,,,,,,,,,,
null,,learn_phase(without_color)4,1805261,,,,black_plus_sign,,,null,object_15b.png,object_03a.png,,,,,,,,,,,,,,,,,,,,
null,,black_cross(without_color)4,1805928,,,,green,,,null,object_15b.png,object_03a.png,,,,,,,,,,,,,,,,,,,,
null,,rt_plussign_withcolor4,1806436,,,,green,,,null,object_15b.png,object_03a.png,,,,,,,,,,,,,,,,,,,,
1123.5,,rt_thecrossant_black4,1807785,,,,black_plus_sign,,,50,,,1,,,,,,,0.75,,,,,,,,,,,,
null,,color_black4,1807905,,,,black_plus_sign,,,null,,,,,,,,,,,,,,,,,,,,,,
null,,learn_phase(without_color)4,1811415,,,,black_plus_sign,,,null,object_10a.png,object_10c.png,,,,,,,,,,,,,,,,,,,,
null,,black_cross(without_color)4,1812370,,,,green,,,null,object_10a.png,object_10c.png,,,,,,,,,,,,,,,,,,,,
null,,rt_plussign_withcolor4,1812881,,,,green,,,null,object_10a.png,object_10c.png,,,,,,,,,,,,,,,,,,,,
841.2000000476837,,rt_thecrossant_black4,1813942,,,,black_plus_sign,,,50,,,1,,,,,,,0.8,,,,,,,,,,,,
null,,color_black4,1814071,,,,black_plus_sign,,,null,,,,,,,,,,,,,,,,,,,,,,
null,,learn_phase(without_color)4,1817580,,,,black_plus_sign,,,null,object_08a.png,object_11c.png,,,,,,,,,,,,,,,,,,,,
null,,black_cross(without_color)4,1818321,,,,blue,,,null,object_08a.png,object_11c.png,,,,,,,,,,,,,,,,,,,,
null,,rt_plussign_withcolor4,1818841,,,,blue,,,null,object_08a.png,object_11c.png,,,,,,,,,,,,,,,,,,,,
1399.1000000238419,,rt_thecrossant_black4,1820132,,,,black_plus_sign,,,49,,,1,,,,,,,0.8333333333333334,,,,,,,,,,,,
null,,color_black4,1820244,,,,black_plus_sign,,,null,,,,,,,,,,,,,,,,,,,,,,
null,,learn_phase(without_color)4,1823764,,,,black_plus_sign,,,null,object_04c.png,object_14a.png,,,,,,,,,,,,,,,,,,,,
null,,black_cross(without_color)4,1824592,,,,green,,,null,object_04c.png,object_14a.png,,,,,,,,,,,,,,,,,,,,
null,,rt_plussign_withcolor4,1825121,,,,green,,,null,object_04c.png,object_14a.png,,,,,,,,,,,,,,,,,,,,
1064.7999999523163,,rt_thecrossant_black4,1826328,,,,black_plus_sign,,,50,,,1,,,,,,,0.8571428571428571,,,,,,,,,,,,
null,,color_black4,1826436,,,,black_plus_sign,,,null,,,,,,,,,,,,,,,,,,,,,,
null,,learn_phase(without_color)4,1829946,,,,black_plus_sign,,,null,object_12c.png,object_05b.png,,,,,,,,,,,,,,,,,,,,
null,,black_cross(without_color)4,1830388,,,,blue,,,null,object_12c.png,object_05b.png,,,,,,,,,,,,,,,,,,,,
null,,rt_plussign_withcolor4,1830910,,,,blue,,,null,object_12c.png,object_05b.png,,,,,,,,,,,,,,,,,,,,
926.7999999523163,,rt_thecrossant_black4,1832492,,,,black_plus_sign,,,49,,,1,,,,,,,0.875,,,,,,,,,,,,
null,,color_black4,1832612,,,,black_plus_sign,,,null,,,,,,,,,,,,,,,,,,,,,,
null,,learn_phase(without_color)4,1836124,,,,black_plus_sign,,,null,object_03c.png,object_13b.png,,,,,,,,,,,,,,,,,,,,
null,,black_cross(without_color)4,1836765,,,,green,,,null,object_03c.png,object_13b.png,,,,,,,,,,,,,,,,,,,,
null,,rt_plussign_withcolor4,1837270,,,,green,,,null,object_03c.png,object_13b.png,,,,,,,,,,,,,,,,,,,,
622,,rt_thecrossant_black4,1838659,,,,black_plus_sign,,,50,,,1,,,,,,,0.8888888888888888,,,,,,,,,,,,
null,,color_black4,1838768,,,,black_plus_sign,,,null,,,,,,,,,,,,,,,,,,,,,,
null,,learn_phase(without_color)4,1842283,,,,black_plus_sign,,,null,object_14c.png,object_11b.png,,,,,,,,,,,,,,,,,,,,
null,,black_cross(without_color)4,1842860,,,,blue,,,null,object_14c.png,object_11b.png,,,,,,,,,,,,,,,,,,,,
null,,rt_plussign_withcolor4,1843377,,,,blue,,,null,object_14c.png,object_11b.png,,,,,,,,,,,,,,,,,,,,
769.2999999523163,,rt_thecrossant_black4,1844814,,,,black_plus_sign,,,49,,,1,,,,,,,0.9,,,,,,,,,,,,
null,,color_black4,1844925,,,,black_plus_sign,,,null,,,,,,,,,,,,,,,,,,,,,,
null,,learn_phase(without_color)4,1848440,,,,black_plus_sign,,,null,object_09b.png,object_12b.png,,,,,,,,,,,,,,,,,,,,
null,,black_cross(without_color)4,1849214,,,,green,,,null,object_09b.png,object_12b.png,,,,,,,,,,,,,,,,,,,,
null,,rt_plussign_withcolor4,1849730,,,,green,,,null,object_09b.png,object_12b.png,,,,,,,,,,,,,,,,,,,,
781.1999999284744,,rt_thecrossant_black4,1850978,,,,black_plus_sign,,,50,,,1,,,,,,,0.9090909090909091,,,,,,,,,,,,
null,,color_black4,1851089,,,,black_plus_sign,,,null,,,,,,,,,,,,,,,,,,,,,,
null,,learn_phase(without_color)4,1854600,,,,black_plus_sign,,,null,object_13b.png,object_05c.png,,,,,,,,,,,,,,,,,,,,
null,,black_cross(without_color)4,1855599,,,,blue,,,null,object_13b.png,object_05c.png,,,,,,,,,,,,,,,,,,,,
null,,rt_plussign_withcolor4,1856101,,,,blue,,,null,object_13b.png,object_05c.png,,,,,,,,,,,,,,,,,,,,
986.5999999046326,,rt_thecrossant_black4,1857133,,,,black_plus_sign,,,49,,,1,,,,,,,0.9166666666666666,,,,,,,,,,,,
null,,color_black4,1857256,,,,black_plus_sign,,,null,,,,,,,,,,,,,,,,,,,,,,
null,,learn_phase(without_color)4,1860768,,,,black_plus_sign,,,null,object_12a.png,object_11b.png,,,,,,,,,,,,,,,,,,,,
null,,black_cross(without_color)4,1861699,,,,blue,,,null,object_12a.png,object_11b.png,,,,,,,,,,,,,,,,,,,,
null,,rt_plussign_withcolor4,1862210,,,,blue,,,null,object_12a.png,object_11b.png,,,,,,,,,,,,,,,,,,,,
1334.0999999046326,,rt_thecrossant_black4,1863298,,,,black_plus_sign,,,49,,,1,,,,,,,0.9230769230769231,,,,,,,,,,,,
null,,color_black4,1863408,,,,black_plus_sign,,,null,,,,,,,,,,,,,,,,,,,,,,
null,,learn_phase(without_color)4,1866925,,,,black_plus_sign,,,null,object_05b.png,object_10b.png,,,,,,,,,,,,,,,,,,,,
null,,black_cross(without_color)4,1867723,,,,green,,,null,object_05b.png,object_10b.png,,,,,,,,,,,,,,,,,,,,
null,,rt_plussign_withcolor4,1868235,,,,green,,,null,object_05b.png,object_10b.png,,,,,,,,,,,,,,,,,,,,
1486.7000000476837,,rt_thecrossant_black4,1869474,,,,black_plus_sign,,,50,,,1,,,,,,,0.9285714285714286,,,,,,,,,,,,
null,,color_black4,1869579,,,,black_plus_sign,,,null,,,,,,,,,,,,,,,,,,,,,,
null,,learn_phase(without_color)4,1873110,,,,black_plus_sign,,,null,object_03b.png,object_01b.png,,,,,,,,,,,,,,,,,,,,
null,,black_cross(without_color)4,1873894,,,,green,,,null,object_03b.png,object_01b.png,,,,,,,,,,,,,,,,,,,,
null,,rt_plussign_withcolor4,1874403,,,,green,,,null,object_03b.png,object_01b.png,,,,,,,,,,,,,,,,,,,,
1256.5,,rt_thecrossant_black4,1875663,,,,black_plus_sign,,,50,,,1,,,,,,,0.9333333333333333,,,,,,,,,,,,
null,,color_black4,1875769,,,,black_plus_sign,,,null,,,,,,,,,,,,,,,,,,,,,,
null,,learn_phase(without_color)4,1879299,,,,black_plus_sign,,,null,object_13c.png,object_02c.png,,,,,,,,,,,,,,,,,,,,
null,,black_cross(without_color)4,1880400,,,,blue,,,null,object_13c.png,object_02c.png,,,,,,,,,,,,,,,,,,,,
null,,rt_plussign_withcolor4,1880906,,,,blue,,,null,object_13c.png,object_02c.png,,,,,,,,,,,,,,,,,,,,
1046.3999999761581,,rt_thecrossant_black4,1881836,,,,black_plus_sign,,,49,,,1,,,,,,,0.9375,,,,,,,,,,,,
null,,color_black4,1881946,,,,black_plus_sign,,,null,,,,,,,,,,,,,,,,,,,,,,
null,,learn_phase(without_color)4,1885460,,,,black_plus_sign,,,null,object_06b.png,object_01c.png,,,,,,,,,,,,,,,,,,,,
null,,black_cross(without_color)4,1886104,,,,blue,,,null,object_06b.png,object_01c.png,,,,,,,,,,,,,,,,,,,,
null,,rt_plussign_withcolor4,1886622,,,,blue,,,null,object_06b.png,object_01c.png,,,,,,,,,,,,,,,,,,,,
1382.8999999761581,,rt_thecrossant_black4,1887999,,,,black_plus_sign,,,49,,,1,,,,,,,0.9411764705882353,,,,,,,,,,,,
null,,color_black4,1888109,,,,black_plus_sign,,,null,,,,,,,,,,,,,,,,,,,,,,
null,,learn_phase(without_color)4,1891620,,,,black_plus_sign,,,null,object_01a.png,object_09a.png,,,,,,,,,,,,,,,,,,,,
null,,black_cross(without_color)4,1892328,,,,blue,,,null,object_01a.png,object_09a.png,,,,,,,,,,,,,,,,,,,,
null,,rt_plussign_withcolor4,1892845,,,,blue,,,null,object_01a.png,object_09a.png,,,,,,,,,,,,,,,,,,,,
978.6999999284744,,rt_thecrossant_black4,1894165,,,,black_plus_sign,,,49,,,1,,,,,,,0.9444444444444444,,,,,,,,,,,,
null,,color_black4,1894285,,,,black_plus_sign,,,null,,,,,,,,,,,,,,,,,,,,,,
null,,learn_phase(without_color)4,1897800,,,,black_plus_sign,,,null,object_06a.png,object_04a.png,,,,,,,,,,,,,,,,,,,,
null,,black_cross(without_color)4,1898780,,,,blue,,,null,object_06a.png,object_04a.png,,,,,,,,,,,,,,,,,,,,
null,,rt_plussign_withcolor4,1899288,,,,blue,,,null,object_06a.png,object_04a.png,,,,,,,,,,,,,,,,,,,,
1448.2999999523163,,rt_thecrossant_black4,1900345,,,,black_plus_sign,,,49,,,1,,,,,,,0.9473684210526315,,,,,,,,,,,,
null,,color_black4,1900468,,,,black_plus_sign,,,null,,,,,,,,,,,,,,,,,,,,,,
null,,learn_phase(without_color)4,1903979,,,,black_plus_sign,,,null,object_09c.png,object_08a.png,,,,,,,,,,,,,,,,,,,,
null,,black_cross(without_color)4,1904545,,,,green,,,null,object_09c.png,object_08a.png,,,,,,,,,,,,,,,,,,,,
null,,rt_plussign_withcolor4,1905055,,,,green,,,null,object_09c.png,object_08a.png,,,,,,,,,,,,,,,,,,,,
1746.7000000476837,,rt_thecrossant_black4,1906502,,,,black_plus_sign,,,50,,,1,,,,,,,0.95,,,,,,,,,,,,
null,,color_black4,1906610,,,,black_plus_sign,,,null,,,,,,,,,,,,,,,,,,,,,,
null,,learn_phase(without_color)4,1910124,,,,black_plus_sign,,,null,object_11a.png,object_09a.png,,,,,,,,,,,,,,,,,,,,
null,,black_cross(without_color)4,1911140,,,,green,,,null,object_11a.png,object_09a.png,,,,,,,,,,,,,,,,,,,,
null,,rt_plussign_withcolor4,1911657,,,,green,,,null,object_11a.png,object_09a.png,,,,,,,,,,,,,,,,,,,,
1216,,rt_thecrossant_black4,1912664,,,,black_plus_sign,,,50,,,1,,,,,,,0.9523809523809523,,,,,,,,,,,,
null,,color_black4,1912771,,,,black_plus_sign,,,null,,,,,,,,,,,,,,,,,,,,,,
null,,learn_phase(without_color)4,1916289,,,,black_plus_sign,,,null,object_13c.png,object_02a.png,,,,,,,,,,,,,,,,,,,,
null,,black_cross(without_color)4,1916844,,,,green,,,null,object_13c.png,object_02a.png,,,,,,,,,,,,,,,,,,,,
null,,rt_plussign_withcolor4,1917355,,,,green,,,null,object_13c.png,object_02a.png,,,,,,,,,,,,,,,,,,,,
1414.4000000953674,,rt_thecrossant_black4,1918837,,,,black_plus_sign,,,50,,,1,,,,,,,0.9545454545454546,,,,,,,,,,,,
null,,color_black4,1918953,,,,black_plus_sign,,,null,,,,,,,,,,,,,,,,,,,,,,
null,,learn_phase(without_color)4,1922467,,,,black_plus_sign,,,null,object_03b.png,object_08b.png,,,,,,,,,,,,,,,,,,,,
null,,black_cross(without_color)4,1922928,,,,blue,,,null,object_03b.png,object_08b.png,,,,,,,,,,,,,,,,,,,,
null,,rt_plussign_withcolor4,1923443,,,,blue,,,null,object_03b.png,object_08b.png,,,,,,,,,,,,,,,,,,,,
838.6000000238419,,rt_thecrossant_black4,1925008,,,,black_plus_sign,,,49,,,1,,,,,,,0.9565217391304348,,,,,,,,,,,,
null,,color_black4,1925119,,,,black_plus_sign,,,null,,,,,,,,,,,,,,,,,,,,,,
null,,learn_phase(without_color)4,1928629,,,,black_plus_sign,,,null,object_02b.png,object_04a.png,,,,,,,,,,,,,,,,,,,,
null,,black_cross(without_color)4,1929527,,,,blue,,,null,object_02b.png,object_04a.png,,,,,,,,,,,,,,,,,,,,
null,,rt_plussign_withcolor4,1930038,,,,blue,,,null,object_02b.png,object_04a.png,,,,,,,,,,,,,,,,,,,,
731,,rt_thecrossant_black4,1931170,,,,black_plus_sign,,,49,,,1,,,,,,,0.9583333333333334,,,,,,,,,,,,
null,,color_black4,1931288,,,,black_plus_sign,,,null,,,,,,,,,,,,,,,,,,,,,,
null,,learn_phase(without_color)4,1934811,,,,black_plus_sign,,,null,object_06c.png,object_12b.png,,,,,,,,,,,,,,,,,,,,
null,,black_cross(without_color)4,1935492,,,,blue,,,null,object_06c.png,object_12b.png,,,,,,,,,,,,,,,,,,,,
null,,rt_plussign_withcolor4,1935998,,,,blue,,,null,object_06c.png,object_12b.png,,,,,,,,,,,,,,,,,,,,
1216.3000000715256,,rt_thecrossant_black4,1937343,,,,black_plus_sign,,,49,,,1,,,,,,,0.96,,,,,,,,,,,,
null,,color_black4,1937463,,,,black_plus_sign,,,null,,,,,,,,,,,,,,,,,,,,,,
null,,learn_phase(without_color)4,1940971,,,,black_plus_sign,,,null,object_10c.png,object_07c.png,,,,,,,,,,,,,,,,,,,,
null,,black_cross(without_color)4,1941783,,,,green,,,null,object_10c.png,object_07c.png,,,,,,,,,,,,,,,,,,,,
null,,rt_plussign_withcolor4,1942294,,,,green,,,null,object_10c.png,object_07c.png,,,,,,,,,,,,,,,,,,,,
1209.5,,rt_thecrossant_black4,1943499,,,,black_plus_sign,,,50,,,1,,,,,,,0.9615384615384616,,,,,,,,,,,,
null,,color_black4,1943628,,,,black_plus_sign,,,null,,,,,,,,,,,,,,,,,,,,,,
null,,learn_phase(without_color)4,1947158,,,,black_plus_sign,,,null,object_08c.png,object_07a.png,,,,,,,,,,,,,,,,,,,,
null,,black_cross(without_color)4,1948132,,,,green,,,null,object_08c.png,object_07a.png,,,,,,,,,,,,,,,,,,,,
null,,rt_plussign_withcolor4,1948650,,,,green,,,null,object_08c.png,object_07a.png,,,,,,,,,,,,,,,,,,,,
1122.6000000238419,,rt_thecrossant_black4,1949695,,,,black_plus_sign,,,50,,,1,,,,,,,0.9629629629629629,,,,,,,,,,,,
null,,color_black4,1949814,,,,black_plus_sign,,,null,,,,,,,,,,,,,,,,,,,,,,
null,,learn_phase(without_color)4,1953323,,,,black_plus_sign,,,null,object_14b.png,object_15c.png,,,,,,,,,,,,,,,,,,,,
null,,black_cross(without_color)4,1954432,,,,blue,,,null,object_14b.png,object_15c.png,,,,,,,,,,,,,,,,,,,,
null,,rt_plussign_withcolor4,1954948,,,,blue,,,null,object_14b.png,object_15c.png,,,,,,,,,,,,,,,,,,,,
1218.1000000238419,,rt_thecrossant_black4,1955895,,,,black_plus_sign,,,49,,,1,,,,,,,0.9642857142857143,,,,,,,,,,,,
null,,color_black4,1956006,,,,black_plus_sign,,,null,,,,,,,,,,,,,,,,,,,,,,
null,,learn_phase(without_color)4,1959512,,,,black_plus_sign,,,null,object_06b.png,object_05a.png,,,,,,,,,,,,,,,,,,,,
null,,black_cross(without_color)4,1960182,,,,blue,,,null,object_06b.png,object_05a.png,,,,,,,,,,,,,,,,,,,,
null,,rt_plussign_withcolor4,1960695,,,,blue,,,null,object_06b.png,object_05a.png,,,,,,,,,,,,,,,,,,,,
1953.5,,rt_thecrossant_black4,1962060,,,,black_plus_sign,,,49,,,1,,,,,,,0.9655172413793104,,,,,,,,,,,,
null,,color_black4,1962169,,,,black_plus_sign,,,null,,,,,,,,,,,,,,,,,,,,,,
null,,thebreak,1962279,,,,<p></p>,,,null,,,,,,,,,,,,,,,,,,,,,,
1817,,intro_0,1964100,,,,instruct,,,32,,,,,,,,,,,,,,,,,,,,,,
2058.7000000476837,,directmemory_phase4,1966163,,,,object_12a.png,,,49,,,1,,object_11b.png,object_15b.png,object_12c.png,object_11b.png,,0.5274725274725275,1,,,,,,,,,,,
4935.200000047684,,directmemory_phase4,1971105,,,,object_10a.png,,,51,,,1,,object_14a.png,object_06c.png,object_10c.png,object_10c.png,,0.532608695652174,1,,,,,,,,,,,
4063.3000000715256,,directmemory_phase4,1975177,,,,object_03c.png,,,50,,,1,,object_02b.png,object_13b.png,object_08c.png,object_13b.png,,0.5376344086021505,1,,,,,,,,,,,
6131.399999976158,,directmemory_phase4,1981315,,,,object_12c.png,,,50,,,1,,object_14b.png,object_05b.png,object_14a.png,object_05b.png,,0.5425531914893617,1,,,,,,,,,,,
2548.399999976158,,directmemory_phase4,1983870,,,,object_06b.png,,,51,,,1,,object_07b.png,object_08c.png,object_01c.png,object_01c.png,,0.5473684210526316,1,,,,,,,,,,,
1877.2999999523163,,directmemory_phase4,1985754,,,,object_09b.png,,,50,,,0,,object_14a.png,object_07c.png,object_12b.png,object_12b.png,,0.5416666666666666,0,,,,,,,,,,,
5402.399999976158,,directmemory_phase4,1991163,,,,object_09c.png,,,50,,,1,,object_01c.png,object_08a.png,object_14a.png,object_08a.png,,0.5463917525773195,1,,,,,,,,,,,
4821.600000023842,,directmemory_phase4,1995992,,,,object_05a.png,,,51,,,1,,object_04a.png,object_10a.png,object_06b.png,object_06b.png,,0.5510204081632653,1,,,,,,,,,,,
2475.100000023842,,directmemory_phase4,1998473,,,,object_08b.png,,,50,,,1,,object_07b.png,object_03b.png,object_15c.png,object_03b.png,,0.5555555555555556,1,,,,,,,,,,,
2373,,directmemory_phase4,2000851,,,,object_13a.png,,,51,,,1,,object_08a.png,object_01b.png,object_15c.png,object_15c.png,,0.56,1,,,,,,,,,,,
7314.700000047684,,directmemory_phase4,2008172,,,,object_10b.png,,,51,,,1,,object_08a.png,object_03c.png,object_05b.png,object_05b.png,,0.5643564356435643,1,,,,,,,,,,,
2631.2000000476837,,directmemory_phase4,2010810,,,,object_02b.png,,,51,,,1,,object_11b.png,object_07a.png,object_04a.png,object_04a.png,,0.5686274509803921,1,,,,,,,,,,,
3147.6999999284744,,directmemory_phase4,2013965,,,,object_07c.png,,,50,,,1,,object_15a.png,object_10c.png,object_14a.png,object_10c.png,,0.5728155339805825,1,,,,,,,,,,,
6341.899999976158,,directmemory_phase4,2020315,,,,object_13b.png,,,49,,,0,,object_03b.png,object_05c.png,object_01c.png,object_05c.png,,0.5673076923076923,0,,,,,,,,,,,
3479.899999976158,,directmemory_phase4,2023802,,,,object_04b.png,,,51,,,0,,object_08c.png,object_14a.png,object_12c.png,object_08c.png,,0.5619047619047619,0,,,,,,,,,,,
6215.399999976158,,directmemory_phase4,2030023,,,,object_06c.png,,,51,,,1,,object_13b.png,object_11a.png,object_12b.png,object_12b.png,,0.5660377358490566,1,,,,,,,,,,,
2687.2000000476837,,directmemory_phase4,2032718,,,,object_07a.png,,,49,,,1,,object_08c.png,object_12b.png,object_01b.png,object_08c.png,,0.5700934579439252,1,,,,,,,,,,,
2296.2999999523163,,directmemory_phase4,2035021,,,,object_02a.png,,,49,,,1,,object_13c.png,object_11b.png,object_01b.png,object_13c.png,,0.5740740740740741,1,,,,,,,,,,,
2479.6999999284744,,directmemory_phase4,2037508,,,,object_02c.png,,,49,,,1,,object_13c.png,object_13b.png,object_08b.png,object_13c.png,,0.5779816513761468,1,,,,,,,,,,,
5754.5,,directmemory_phase4,2043270,,,,object_15b.png,,,49,,,1,,object_07b.png,object_05c.png,object_08a.png,object_07b.png,,0.5818181818181818,1,,,,,,,,,,,
5746.099999904633,,directmemory_phase4,2049022,,,,object_15a.png,,,51,,,1,,object_15b.png,object_14b.png,object_14a.png,object_14a.png,,0.5855855855855856,1,,,,,,,,,,,
1868,,directmemory_phase4,2050897,,,,object_09a.png,,,50,,,1,,object_04a.png,object_01a.png,object_12c.png,object_01a.png,,0.5892857142857143,1,,,,,,,,,,,
3781.5,,directmemory_phase4,2054686,,,,object_14c.png,,,49,,,1,,object_11b.png,object_15c.png,object_10b.png,object_11b.png,,0.5929203539823009,1,,,,,,,,,,,
1904.7000000476837,,directmemory_phase4,2056597,,,,object_11c.png,,,51,,,1,,object_12b.png,object_04c.png,object_08a.png,object_08a.png,,0.5964912280701754,1,,,,,,,,,,,
2055.2999999523163,,directmemory_phase4,2058659,,,,object_11a.png,,,50,,,0,,object_09a.png,object_08c.png,object_02b.png,object_09a.png,,0.591304347826087,0,,,,,,,,,,,
6253.200000047684,,directmemory_phase4,2064918,,,,object_04c.png,,,51,,,1,,object_11b.png,object_07a.png,object_14a.png,object_14a.png,,0.5948275862068966,1,,,,,,,,,,,
5804.5,,directmemory_phase4,2070730,,,,object_06a.png,,,49,,,1,,object_04a.png,object_12b.png,object_12a.png,object_04a.png,,0.5982905982905983,1,,,,,,,,,,,
2407.8000000715256,,directmemory_phase4,2073144,,,,object_03a.png,,,50,,,1,,object_03c.png,object_15b.png,object_04a.png,object_15b.png,,0.6016949152542372,1,,,,,,,,,,,
8234,,directmemory_phase4,2081385,,,,object_01b.png,,,49,,,0,,object_15b.png,object_02b.png,object_03b.png,object_03b.png,,0.5966386554621849,0,,,,,,,,,,,
2573.600000023842,,directmemory_phase4,2083965,,,,object_14b.png,,,51,,,1,,object_13b.png,object_05c.png,object_15c.png,object_15c.png,,0.6,1,,,,,,,,,,,
null,,thebreak,2084075,,,,<p></p>,,,null,,,,,,,,,,,,,,,,,,,,,,
8140.600000023842,,intro_0,2092219,,,,instruct,,,32,,,,,,,,,,,,,,,,,,,,,,
73693.39999997616,,intro_1,2165915,,,,instruct,,,32,,,,,,,,,,,,,,,,,,,,,,
11239.800000071526,,intro_2,2177156,,,,instruct,,,32,,,,,,,,,,,,,,,,,,,,,,
,,intro_3,2208821,,,,instruct,,,,,,,,,,,,,,,,,,,,,,,,,
17663.5,,intro_4,2226486,,,,instruct,,,32,,,,,,,,,,,,,,,,,,,,,,
5903.899999976158,,inference_phase,2232393,,,,object_01b.png,,,50,object_15b.png,object_08b.png,1,,,,,object_08b.png,,1,,object_14b.png,,,,,,,,,,
7937.5,,inference_phase,2240334,,,,object_07c.png,,,50,object_07a.png,object_10a.png,1,,,,,object_10a.png,,1,,object_15b.png,,,,,,,,,,
6899.5,,inference_phase,2247236,,,,object_12c.png,,,49,object_10b.png,object_01b.png,1,,,,,object_10b.png,,1,,object_08a.png,,,,,,,,,,
3703.899999976158,,inference_phase,2250943,,,,object_03c.png,,,51,object_10c.png,object_05c.png,0,,,,,object_05c.png,,0.75,,object_07c.png,,,,,,,,,,
1850.3000000715256,,inference_phase,2252796,,,,object_02a.png,,,50,object_04a.png,object_12a.png,0,,,,,object_02c.png,,0.6,,object_02c.png,,,,,,,,,,
6670.800000071526,,inference_phase,2259470,,,,object_07b.png,,,49,object_11a.png,object_03a.png,0,,,,,object_03a.png,,0.5,,object_12b.png,,,,,,,,,,
6759.199999928474,,inference_phase,2266232,,,,object_04c.png,,,51,object_05b.png,object_15a.png,0,,,,,object_15a.png,,0.42857142857142855,,object_05c.png,,,,,,,,,,
1634.8000000715256,,inference_phase,2267869,,,,object_06c.png,,,50,object_13b.png,object_09b.png,1,,,,,object_09b.png,,0.5,,object_12c.png,,,,,,,,,,
7246.100000023842,,inference_phase,2275118,,,,object_05a.png,,,50,object_01c.png,object_06a.png,0,,,,,object_01c.png,,0.4444444444444444,,object_10c.png,,,,,,,,,,
9011.100000023842,,inference_phase,2284132,,,,object_14c.png,,,50,object_06b.png,object_12a.png,1,,,,,object_12a.png,,0.5,,object_04b.png,,,,,,,,,,
6162.599999904633,,inference_phase,2290297,,,,object_01a.png,,,49,object_02b.png,object_11a.png,0,,,,,object_11a.png,,0.45454545454545453,,object_13b.png,,,,,,,,,,
9948.5,,inference_phase,2300249,,,,object_14b.png,,,50,object_04c.png,object_13a.png,1,,,,,object_13a.png,,0.5,,object_09a.png,,,,,,,,,,
5502.700000047684,,inference_phase,2305754,,,,object_02b.png,,,51,object_06a.png,object_04b.png,0,,,,,object_06a.png,,0.46153846153846156,,object_06b.png,,,,,,,,,,
4311.5,,inference_phase,2310069,,,,object_07a.png,,,50,object_05b.png,object_12c.png,0,,,,,object_04b.png,,0.42857142857142855,,object_04b.png,,,,,,,,,,
11228.100000023842,,inference_phase,2321300,,,,object_11c.png,,,50,object_09c.png,object_07c.png,0,,,,,object_09c.png,,0.4,,object_08c.png,,,,,,,,,,
,,survey,2793607,,,,survey-questions,,,,,,,,,,,,,,,,reload,med,No,As I have always done in similar past memory experiments, and as you suggested, I tried to make up stories about the objects to remember them in their pairs. ,I found it nearly impossible to accurately complete the last trial as my memory could only hold on to  two items and not three.  In other memory surveys, that I have done in the past, my brain can't easily hold on to more than two items at once.  ,I have never participated in anything like this before.  While I have done memory tasks they have often been something involving color dots and their position or number on a page.,Is this a measurement of intelligence or some other trait?  I do have struggles with ADHD and timing radically affects my ability to perform tasks.  ,,,
17343.299999952316,,thank_you,2810954,,,,<p> Congratulations, you are all done!</p><p> <strong>Please click space on your keyboard to end the experiment!</strong> The secret code to enter at the beginning screen is: CIMBPENS</p><p> Please make sure to submit the HIT and email uciccnl@gmail.com if you had any issues! </p><br><p>Please remember to submit this data by clicking space after copying the code. Failure of submission will lead to in-complete payment</p>,,,32,,,,,,,,,,,,,,,,,,,,0,0,C11XXPD2
