rt,responses,trial_type,time_elapsed,identifier_a,identifier_b,identifier_c,stimulus,button_pressed,response,key_press,stimulus_left,stimulus_right,accuracy,practice_cumulative_accuracy,stimulus_down_left,stimulus_down_mid,stimulus_down_right,stimulus_correct,prac_weighted_accuracy,cumulative_accuracy,failed_practice,weighted_accuracy,stimulus_middle,problems,smooth,distraction,strategies,easier,similar,comments,detectfocus,breakfocus,completion_code
11008.599999999627,{worker_id:6508629c72cd8387353b5552},id_enter,11010,object_06a.png; object_02b.png; object_05c.png; object_11c.png; object_06b.png; object_03b.png; object_14a.png; object_08b.png; object_15b.png; object_08a.png; object_08c.png; object_14c.png; object_12a.png; object_02a.png; object_05b.png,object_07c.png; object_06c.png; object_14b.png; object_09c.png; object_10a.png; object_05a.png; object_02c.png; object_09a.png; object_01b.png; object_11b.png; object_15c.png; object_01c.png; object_10b.png; object_07a.png; object_04c.png,object_01a.png; object_13a.png; object_12c.png; object_13b.png; object_04b.png; object_10c.png; object_03c.png; object_11a.png; object_03a.png; object_07b.png; object_09b.png; object_12b.png; object_04a.png; object_13c.png; object_15a.png,,,,,,,,,,,,,,,,,,,,,,,,,,,
6429.699999999255,,make_fullscreen,17441,,,,fullscreen,0,,,,,,,,,,,,,,,,,,,,,,,,,
4382.9000000003725,,instruct_1,21825,,,,instruct,0,Next,,,,,,,,,,,,,,,,,,,,,,,,
15454.699999999255,,instruct_2,37281,,,,instruct,1,Next,,,,,,,,,,,,,,,,,,,,,,,,
10703.200000000186,,instruct_3,47985,,,,instruct,1,Next,,,,,,,,,,,,,,,,,,,,,,,,
41934.90000000037,,instruct_4,89921,,,,instruct,1,Next,,,,,,,,,,,,,,,,,,,,,,,,
17175,,instruct_5,107097,,,,instruct,1,Next,,,,,,,,,,,,,,,,,,,,,,,,
6039.100000000559,,instruct_6,113138,,,,instruct,1,Next,,,,,,,,,,,,,,,,,,,,,,,,
71007.10000000056,,instruct_7,184145,,,,instruct,1,Next,,,,,,,,,,,,,,,,,,,,,,,,
null,,prac_atten_color_black,185033,,,,black_plus_sign,,,null,,,,,,,,,,,,,,,,,,,,,,,
null,,prac_atten_color,185554,,,,<p style='position:absolute;top: 50%;right: 50%;transform: translate(50%, -50%);font-size: 125px;color: blue;'>+</p>,,,null,,,,,,,,,,,,,,,,,,,,,,,
null,,prac_atten_color_black,187569,,,,black_plus_sign,,,null,,,,,,,,,,,,,,,,,,,,,,,
5808.0999999996275,,attentioncheck_help,193378,,,,instruct,,,32,,,,,,,,,,,,,,,,,,,,,,,
null,,prac_atten_color_black,194273,,,,black_plus_sign,,,null,,,,,,,,,,,,,,,,,,,,,,,
584.4000000003725,,prac_atten_color,195030,,,,<p style='position:absolute;top: 50%;right: 50%;transform: translate(50%, -50%);font-size: 125px;color: green;'>+</p>,,,50,,,,,,,,,,,,,,,,,,,,,,,
null,,prac_atten_color_black,197045,,,,black_plus_sign,,,null,,,,,,,,,,,,,,,,,,,,,,,
null,,prac_atten_color_black,197691,,,,black_plus_sign,,,null,,,,,,,,,,,,,,,,,,,,,,,
525.7000000001863,,prac_atten_color,198369,,,,<p style='position:absolute;top: 50%;right: 50%;transform: translate(50%, -50%);font-size: 125px;color: green;'>+</p>,,,50,,,,,,,,,,,,,,,,,,,,,,,
null,,prac_atten_color_black,200381,,,,black_plus_sign,,,null,,,,,,,,,,,,,,,,,,,,,,,
null,,prac_atten_color_black,201115,,,,black_plus_sign,,,null,,,,,,,,,,,,,,,,,,,,,,,
533.7999999998137,,prac_atten_color,201767,,,,<p style='position:absolute;top: 50%;right: 50%;transform: translate(50%, -50%);font-size: 125px;color: blue;'>+</p>,,,49,,,,,,,,,,,,,,,,,,,,,,,
null,,prac_atten_color_black,203774,,,,black_plus_sign,,,null,,,,,,,,,,,,,,,,,,,,,,,
null,,prac_atten_color_black,204537,,,,black_plus_sign,,,null,,,,,,,,,,,,,,,,,,,,,,,
536.5999999996275,,prac_atten_color,205556,,,,<p style='position:absolute;top: 50%;right: 50%;transform: translate(50%, -50%);font-size: 125px;color: green;'>+</p>,,,50,,,,,,,,,,,,,,,,,,,,,,,
null,,prac_atten_color_black,207559,,,,black_plus_sign,,,null,,,,,,,,,,,,,,,,,,,,,,,
null,,prac_atten_color_black,207959,,,,black_plus_sign,,,null,,,,,,,,,,,,,,,,,,,,,,,
426.29999999981374,,prac_atten_color,208580,,,,<p style='position:absolute;top: 50%;right: 50%;transform: translate(50%, -50%);font-size: 125px;color: green;'>+</p>,,,50,,,,,,,,,,,,,,,,,,,,,,,
null,,prac_atten_color_black,210592,,,,black_plus_sign,,,null,,,,,,,,,,,,,,,,,,,,,,,
null,,prac_atten_color_black,211386,,,,black_plus_sign,,,null,,,,,,,,,,,,,,,,,,,,,,,
null,,prac_atten_color,211872,,,,<p style='position:absolute;top: 50%;right: 50%;transform: translate(50%, -50%);font-size: 125px;color: blue;'>+</p>,,,null,,,,,,,,,,,,,,,,,,,,,,,
104.90000000037253,,prac_atten_color_black,213879,,,,black_plus_sign,,,49,,,,,,,,,,,,,,,,,,,,,,,
null,,prac_atten_color_black,214812,,,,black_plus_sign,,,null,,,,,,,,,,,,,,,,,,,,,,,
581.5,,prac_atten_color,215832,,,,<p style='position:absolute;top: 50%;right: 50%;transform: translate(50%, -50%);font-size: 125px;color: green;'>+</p>,,,50,,,,,,,,,,,,,,,,,,,,,,,
null,,prac_atten_color_black,217844,,,,black_plus_sign,,,null,,,,,,,,,,,,,,,,,,,,,,,
null,,prac_atten_color_black,218238,,,,black_plus_sign,,,null,,,,,,,,,,,,,,,,,,,,,,,
530.3999999994412,,prac_atten_color,218837,,,,<p style='position:absolute;top: 50%;right: 50%;transform: translate(50%, -50%);font-size: 125px;color: blue;'>+</p>,,,50,,,,,,,,,,,,,,,,,,,,,,,
43.5,,prac_atten_color_black,220851,,,,black_plus_sign,,,49,,,,,,,,,,,,,,,,,,,,,,,
null,,prac_atten_color_black,221675,,,,black_plus_sign,,,null,,,,,,,,,,,,,,,,,,,,,,,
717.9000000003725,,prac_atten_color,222420,,,,<p style='position:absolute;top: 50%;right: 50%;transform: translate(50%, -50%);font-size: 125px;color: blue;'>+</p>,,,49,,,,,,,,,,,,,,,,,,,,,,,
null,,prac_atten_color_black,224423,,,,black_plus_sign,,,null,,,,,,,,,,,,,,,,,,,,,,,
3361.5,,attentioncheck_feedback,227786,,,,cross_check_feedback,0,,,,,,,,,,,,,,,,,,,,,,,,,
2383.399999999441,,last_instruct,230170,,,,instruct,,,32,,,,,,,,,,,,,,,,,,,,,,,
null,,prac_learn_phase(without_color),233674,,,,black_plus_sign,,,null,object_09b.png,object_15c.png,,,,,,,,,,,,,,,,,,,,,
null,,prac_black_cross(without_color),234571,,,,green,,,null,object_09b.png,object_15c.png,,,,,,,,,,,,,,,,,,,,,
null,,prac_rt_plussign_withcolor,235085,,,,green,,,null,object_09b.png,object_15c.png,,,,,,,,,,,,,,,,,,,,,
965.7999999998137,,prac_rt_thecrossant_black,236206,,,,black_plus_sign,,,50,,,1,1,,,,,,,,,,,,,,,,,,,
null,,prac_color_black,236321,,,,black_plus_sign,,,null,,,,,,,,,,,,,,,,,,,,,,,
null,,prac_learn_phase(without_color),239827,,,,black_plus_sign,,,null,object_10b.png,object_04a.png,,,,,,,,,,,,,,,,,,,,,
null,,black_cross(without_color)1,240687,,,,green,,,null,object_09b.png,object_15c.png,,,,,,,,,,,,,,,,,,,,,
null,,prac_rt_plussign_withcolor,241191,,,,blue,,,null,object_10b.png,object_04a.png,,,,,,,,,,,,,,,,,,,,,
578.8999999994412,,prac_rt_thecrossant_black,242165,,,,black_plus_sign,,,49,,,1,1,,,,,,,,,,,,,,,,,,,
null,,prac_color_black,242271,,,,black_plus_sign,,,null,,,,,,,,,,,,,,,,,,,,,,,
null,,prac_learn_phase(without_color),245774,,,,black_plus_sign,,,null,object_10a.png,object_06b.png,,,,,,,,,,,,,,,,,,,,,
null,,black_cross(without_color)1,246630,,,,green,,,null,object_09b.png,object_15c.png,,,,,,,,,,,,,,,,,,,,,
null,,prac_rt_plussign_withcolor,247131,,,,blue,,,null,object_10a.png,object_06b.png,,,,,,,,,,,,,,,,,,,,,
1241.5999999996275,,prac_rt_thecrossant_black,248290,,,,black_plus_sign,,,49,,,1,1,,,,,,,,,,,,,,,,,,,
null,,prac_color_black,248404,,,,black_plus_sign,,,null,,,,,,,,,,,,,,,,,,,,,,,
null,,prac_learn_phase(without_color),251918,,,,black_plus_sign,,,null,object_10b.png,object_12a.png,,,,,,,,,,,,,,,,,,,,,
null,,black_cross(without_color)1,252775,,,,green,,,null,object_09b.png,object_15c.png,,,,,,,,,,,,,,,,,,,,,
null,,prac_rt_plussign_withcolor,253285,,,,green,,,null,object_10b.png,object_12a.png,,,,,,,,,,,,,,,,,,,,,
1007,,prac_rt_thecrossant_black,254264,,,,black_plus_sign,,,50,,,1,1,,,,,,,,,,,,,,,,,,,
null,,prac_color_black,254372,,,,black_plus_sign,,,null,,,,,,,,,,,,,,,,,,,,,,,
114476.79999999981,,instruct_dir_01,368850,,,,instruct,0,Next,,,,,,,,,,,,,,,,,,,,,,,,
68527.59999999963,,instruct_dir_2,437379,,,,instruct,1,Next,,,,,,,,,,,,,,,,,,,,,,,,
303022.60000000056,,instruct_dir_3,740402,,,,instruct,1,Next,,,,,,,,,,,,,,,,,,,,,,,,
4558.5,,instruct_dir_4,744962,,,,instruct,1,Start,,,,,,,,,,,,,,,,,,,,,,,,
null,,thebreak,745073,,,,<p></p>,,,null,,,,,,,,,,,,,,,,,,,,,,,
1160.300000000745,,intro_0,746234,,,,instruct,,,32,,,,,,,,,,,,,,,,,,,,,,,
1967.4000000003725,,prac_directmemory_phase,748202,,,,practice/object_02a.png,,,50,,,0,,practice/object_02b.png,practice/object_03b.png,practice/object_03a.png,practice/object_02b.png,0,0,,,,,,,,,,,,,
1774.7999999998137,,prac_directmemory_phase,749978,,,,practice/object_03a.png,,,51,,,0,,practice/object_02a.png,practice/object_03b.png,practice/object_02b.png,practice/object_03b.png,0,0,,,,,,,,,,,,,
2415.5,,prac_directmemory_phase,752395,,,,practice/object_01a.png,,,49,,,1,,practice/object_01b.png,practice/object_02b.png,practice/object_04a.png,practice/object_01b.png,1,0.3333333333333333,,,,,,,,,,,,,
1614.5,,prac_directmemory_phase,754010,,,,practice/object_04a.png,,,50,,,1,,practice/object_03a.png,practice/object_04b.png,practice/object_01b.png,practice/object_04b.png,1,0.5,,,,,,,,,,,,,
11919.399999999441,,practice_feedback_force_restart,765931,,,,practice_feedback,0,,,,,,,,,,,,,1,,,,,,,,,,,,
855.2000000001863,,last_instruct,766786,,,,instruct,,,32,,,,,,,,,,,,,,,,,,,,,,,
null,,prac_learn_phase(without_color),770301,,,,black_plus_sign,,,null,object_09b.png,object_15c.png,,,,,,,,,,,,,,,,,,,,,
null,,prac_black_cross(without_color),771299,,,,green,,,null,object_09b.png,object_15c.png,,,,,,,,,,,,,,,,,,,,,
null,,prac_rt_plussign_withcolor,771808,,,,green,,,null,object_09b.png,object_15c.png,,,,,,,,,,,,,,,,,,,,,
1412.4000000003725,,prac_rt_thecrossant_black,772829,,,,black_plus_sign,,,50,,,1,1,,,,,,,,,,,,,,,,,,,
null,,prac_color_black,772939,,,,black_plus_sign,,,null,,,,,,,,,,,,,,,,,,,,,,,
null,,prac_learn_phase(without_color),776442,,,,black_plus_sign,,,null,object_10b.png,object_04a.png,,,,,,,,,,,,,,,,,,,,,
null,,black_cross(without_color)1,777297,,,,green,,,null,object_09b.png,object_15c.png,,,,,,,,,,,,,,,,,,,,,
null,,prac_rt_plussign_withcolor,777799,,,,blue,,,null,object_10b.png,object_04a.png,,,,,,,,,,,,,,,,,,,,,
1204.9000000003725,,prac_rt_thecrossant_black,779096,,,,black_plus_sign,,,49,,,1,1,,,,,,,,,,,,,,,,,,,
null,,prac_color_black,779205,,,,black_plus_sign,,,null,,,,,,,,,,,,,,,,,,,,,,,
null,,prac_learn_phase(without_color),782720,,,,black_plus_sign,,,null,object_10a.png,object_06b.png,,,,,,,,,,,,,,,,,,,,,
null,,black_cross(without_color)1,783587,,,,green,,,null,object_09b.png,object_15c.png,,,,,,,,,,,,,,,,,,,,,
null,,prac_rt_plussign_withcolor,784094,,,,blue,,,null,object_10a.png,object_06b.png,,,,,,,,,,,,,,,,,,,,,
863.7000000001863,,prac_rt_thecrossant_black,785214,,,,black_plus_sign,,,49,,,1,1,,,,,,,,,,,,,,,,,,,
null,,prac_color_black,785322,,,,black_plus_sign,,,null,,,,,,,,,,,,,,,,,,,,,,,
null,,prac_learn_phase(without_color),788829,,,,black_plus_sign,,,null,object_10b.png,object_12a.png,,,,,,,,,,,,,,,,,,,,,
null,,black_cross(without_color)1,789686,,,,green,,,null,object_09b.png,object_15c.png,,,,,,,,,,,,,,,,,,,,,
500.59999999962747,,prac_rt_plussign_withcolor,790188,,,,green,,,50,object_10b.png,object_12a.png,,,,,,,,,,,,,,,,,,,,,
null,,prac_rt_thecrossant_black,791468,,,,black_plus_sign,,,null,,,1,1,,,,,,,,,,,,,,,,,,,
null,,prac_color_black,791574,,,,black_plus_sign,,,null,,,,,,,,,,,,,,,,,,,,,,,
2715.4000000003725,,instruct_dir_01,794291,,,,instruct,0,Next,,,,,,,,,,,,,,,,,,,,,,,,
1078.7999999998137,,instruct_dir_2,795370,,,,instruct,1,Next,,,,,,,,,,,,,,,,,,,,,,,,
1007,,instruct_dir_3,796378,,,,instruct,1,Next,,,,,,,,,,,,,,,,,,,,,,,,
1159.2000000001863,,instruct_dir_4,797538,,,,instruct,1,Start,,,,,,,,,,,,,,,,,,,,,,,,
null,,thebreak,797655,,,,<p></p>,,,null,,,,,,,,,,,,,,,,,,,,,,,
666.5999999996275,,intro_0,798322,,,,instruct,,,32,,,,,,,,,,,,,,,,,,,,,,,
1647.5,,prac_directmemory_phase,799970,,,,practice/object_02a.png,,,49,,,1,,practice/object_02b.png,practice/object_03b.png,practice/object_03a.png,practice/object_02b.png,1,1,,,,,,,,,,,,,
1575.5999999996275,,prac_directmemory_phase,801547,,,,practice/object_03a.png,,,51,,,0,,practice/object_02a.png,practice/object_03b.png,practice/object_02b.png,practice/object_03b.png,0,0.5,,,,,,,,,,,,,
3094.5999999996275,,prac_directmemory_phase,804642,,,,practice/object_01a.png,,,50,,,0,,practice/object_01b.png,practice/object_02b.png,practice/object_04a.png,practice/object_01b.png,0,0.3333333333333333,,,,,,,,,,,,,
2695.0999999996275,,prac_directmemory_phase,807338,,,,practice/object_04a.png,,,51,,,0,,practice/object_03a.png,practice/object_04b.png,practice/object_01b.png,practice/object_04b.png,0,0.25,,,,,,,,,,,,,
1663,,practice_feedback_force_restart,809003,,,,practice_feedback,0,,,,,,,,,,,,,2,,,,,,,,,,,,
727.4000000003725,,last_instruct,809730,,,,instruct,,,32,,,,,,,,,,,,,,,,,,,,,,,
null,,prac_learn_phase(without_color),813231,,,,black_plus_sign,,,null,object_09b.png,object_15c.png,,,,,,,,,,,,,,,,,,,,,
null,,prac_black_cross(without_color),814109,,,,green,,,null,object_09b.png,object_15c.png,,,,,,,,,,,,,,,,,,,,,
null,,prac_rt_plussign_withcolor,814621,,,,green,,,null,object_09b.png,object_15c.png,,,,,,,,,,,,,,,,,,,,,
1129.3999999994412,,prac_rt_thecrossant_black,815768,,,,black_plus_sign,,,50,,,1,1,,,,,,,,,,,,,,,,,,,
null,,prac_color_black,815875,,,,black_plus_sign,,,null,,,,,,,,,,,,,,,,,,,,,,,
null,,prac_learn_phase(without_color),819383,,,,black_plus_sign,,,null,object_10b.png,object_04a.png,,,,,,,,,,,,,,,,,,,,,
null,,black_cross(without_color)1,820246,,,,green,,,null,object_09b.png,object_15c.png,,,,,,,,,,,,,,,,,,,,,
null,,prac_rt_plussign_withcolor,820760,,,,blue,,,null,object_10b.png,object_04a.png,,,,,,,,,,,,,,,,,,,,,
1128.2999999998137,,prac_rt_thecrossant_black,822279,,,,black_plus_sign,,,49,,,1,1,,,,,,,,,,,,,,,,,,,
null,,prac_color_black,822390,,,,black_plus_sign,,,null,,,,,,,,,,,,,,,,,,,,,,,
null,,prac_learn_phase(without_color),825907,,,,black_plus_sign,,,null,object_10a.png,object_06b.png,,,,,,,,,,,,,,,,,,,,,
null,,black_cross(without_color)1,826764,,,,green,,,null,object_09b.png,object_15c.png,,,,,,,,,,,,,,,,,,,,,
null,,prac_rt_plussign_withcolor,827274,,,,blue,,,null,object_10a.png,object_06b.png,,,,,,,,,,,,,,,,,,,,,
765.9000000003725,,prac_rt_thecrossant_black,828513,,,,black_plus_sign,,,49,,,1,1,,,,,,,,,,,,,,,,,,,
null,,prac_color_black,828625,,,,black_plus_sign,,,null,,,,,,,,,,,,,,,,,,,,,,,
null,,prac_learn_phase(without_color),832139,,,,black_plus_sign,,,null,object_10b.png,object_12a.png,,,,,,,,,,,,,,,,,,,,,
null,,black_cross(without_color)1,832994,,,,green,,,null,object_09b.png,object_15c.png,,,,,,,,,,,,,,,,,,,,,
null,,prac_rt_plussign_withcolor,833500,,,,green,,,null,object_10b.png,object_12a.png,,,,,,,,,,,,,,,,,,,,,
1108.7999999998137,,prac_rt_thecrossant_black,834605,,,,black_plus_sign,,,49,,,0,0.9166666666666666,,,,,,,,,,,,,,,,,,,
null,,prac_color_black,834707,,,,black_plus_sign,,,null,,,,,,,,,,,,,,,,,,,,,,,
5638.4000000003725,,instruct_dir_01,840347,,,,instruct,0,Next,,,,,,,,,,,,,,,,,,,,,,,,
1039,,instruct_dir_2,841386,,,,instruct,1,Next,,,,,,,,,,,,,,,,,,,,,,,,
1566.7999999998137,,instruct_dir_3,842954,,,,instruct,1,Next,,,,,,,,,,,,,,,,,,,,,,,,
2414.899999999441,,instruct_dir_4,845370,,,,instruct,1,Start,,,,,,,,,,,,,,,,,,,,,,,,
null,,thebreak,845476,,,,<p></p>,,,null,,,,,,,,,,,,,,,,,,,,,,,
6695.100000000559,,intro_0,852171,,,,instruct,,,32,,,,,,,,,,,,,,,,,,,,,,,
2990.5,,prac_directmemory_phase,855162,,,,practice/object_02a.png,,,49,,,1,,practice/object_02b.png,practice/object_03b.png,practice/object_03a.png,practice/object_02b.png,1,1,,,,,,,,,,,,,
3503,,prac_directmemory_phase,858667,,,,practice/object_03a.png,,,50,,,1,,practice/object_02a.png,practice/object_03b.png,practice/object_02b.png,practice/object_03b.png,1,1,,,,,,,,,,,,,
2214.7000000001863,,prac_directmemory_phase,860882,,,,practice/object_01a.png,,,49,,,1,,practice/object_01b.png,practice/object_02b.png,practice/object_04a.png,practice/object_01b.png,1,1,,,,,,,,,,,,,
4912,,prac_directmemory_phase,865795,,,,practice/object_04a.png,,,51,,,0,,practice/object_03a.png,practice/object_04b.png,practice/object_01b.png,practice/object_04b.png,0,0.75,,,,,,,,,,,,,
3566.5,,practice_feedback,869363,,,,practice_feedback,1,,,,,,,,,,,,,,,,,,,,,,,,,
9102.599999999627,,proceed_actualTask,878466,,,,proceed_actualTask,1,Continue,,,,,,,,,,,,,,,,,,,,,,,,
2639.2000000001863,,last_inst,881106,,,,last_inst,,,32,,,,,,,,,,,,,,,,,,,,,,,
null,,learn_phase(without_color)1,884612,,,,black_plus_sign,,,null,object_09b.png,object_15c.png,,,,,,,,,,,,,,,,,,,,,
null,,black_cross(without_color)1,885482,,,,green,,,null,object_09b.png,object_15c.png,,,,,,,,,,,,,,,,,,,,,
null,,rt_plussign_withcolor1,885985,,,,green,,,null,object_09b.png,object_15c.png,,,,,,,,,,,,,,,,,,,,,
1167.5999999996275,,rt_thecrossant_black1,887143,,,,black_plus_sign,,,50,,,1,,,,,,,1,,,,,,,,,,,,,
null,,color_black1,887258,,,,black_plus_sign,,,null,,,,,,,,,,,,,,,,,,,,,,,
null,,learn_phase(without_color)1,890769,,,,black_plus_sign,,,null,object_10b.png,object_04a.png,,,,,,,,,,,,,,,,,,,,,
null,,black_cross(without_color)1,891488,,,,blue,,,null,object_10b.png,object_04a.png,,,,,,,,,,,,,,,,,,,,,
null,,rt_plussign_withcolor1,892001,,,,blue,,,null,object_10b.png,object_04a.png,,,,,,,,,,,,,,,,,,,,,
1045.3999999994412,,rt_thecrossant_black1,893296,,,,black_plus_sign,,,49,,,1,,,,,,,1,,,,,,,,,,,,,
null,,color_black1,893410,,,,black_plus_sign,,,null,,,,,,,,,,,,,,,,,,,,,,,
null,,learn_phase(without_color)1,896923,,,,black_plus_sign,,,null,object_10a.png,object_06b.png,,,,,,,,,,,,,,,,,,,,,
null,,black_cross(without_color)1,897451,,,,green,,,null,object_10a.png,object_06b.png,,,,,,,,,,,,,,,,,,,,,
null,,rt_plussign_withcolor1,897954,,,,green,,,null,object_10a.png,object_06b.png,,,,,,,,,,,,,,,,,,,,,
1160.7000000001863,,rt_thecrossant_black1,899443,,,,black_plus_sign,,,50,,,1,,,,,,,1,,,,,,,,,,,,,
null,,color_black1,899559,,,,black_plus_sign,,,null,,,,,,,,,,,,,,,,,,,,,,,
null,,learn_phase(without_color)1,903077,,,,black_plus_sign,,,null,object_10b.png,object_12a.png,,,,,,,,,,,,,,,,,,,,,
null,,black_cross(without_color)1,903773,,,,green,,,null,object_10b.png,object_12a.png,,,,,,,,,,,,,,,,,,,,,
477.3999999994412,,rt_plussign_withcolor1,904275,,,,green,,,50,object_10b.png,object_12a.png,,,,,,,,,,,,,,,,,,,,,
null,,rt_thecrossant_black1,905600,,,,black_plus_sign,,,null,,,1,,,,,,,1,,,,,,,,,,,,,
null,,color_black1,905710,,,,black_plus_sign,,,null,,,,,,,,,,,,,,,,,,,,,,,
null,,learn_phase(without_color)1,909216,,,,black_plus_sign,,,null,object_14a.png,object_02c.png,,,,,,,,,,,,,,,,,,,,,
null,,black_cross(without_color)1,910191,,,,blue,,,null,object_14a.png,object_02c.png,,,,,,,,,,,,,,,,,,,,,
null,,rt_plussign_withcolor1,910705,,,,blue,,,null,object_14a.png,object_02c.png,,,,,,,,,,,,,,,,,,,,,
869.8999999994412,,rt_thecrossant_black1,911748,,,,black_plus_sign,,,50,,,0,,,,,,,0.8,,,,,,,,,,,,,
null,,color_black1,911860,,,,black_plus_sign,,,null,,,,,,,,,,,,,,,,,,,,,,,
null,,learn_phase(without_color)1,915361,,,,black_plus_sign,,,null,object_07b.png,object_11b.png,,,,,,,,,,,,,,,,,,,,,
null,,black_cross(without_color)1,916300,,,,green,,,null,object_07b.png,object_11b.png,,,,,,,,,,,,,,,,,,,,,
null,,rt_plussign_withcolor1,916807,,,,green,,,null,object_07b.png,object_11b.png,,,,,,,,,,,,,,,,,,,,,
1067.7000000001863,,rt_thecrossant_black1,917892,,,,black_plus_sign,,,50,,,1,,,,,,,0.8333333333333334,,,,,,,,,,,,,
null,,color_black1,917996,,,,black_plus_sign,,,null,,,,,,,,,,,,,,,,,,,,,,,
null,,learn_phase(without_color)1,921508,,,,black_plus_sign,,,null,object_13c.png,object_07a.png,,,,,,,,,,,,,,,,,,,,,
null,,black_cross(without_color)1,922208,,,,blue,,,null,object_13c.png,object_07a.png,,,,,,,,,,,,,,,,,,,,,
null,,rt_plussign_withcolor1,922719,,,,blue,,,null,object_13c.png,object_07a.png,,,,,,,,,,,,,,,,,,,,,
1407.199999999255,,rt_thecrossant_black1,924040,,,,black_plus_sign,,,49,,,1,,,,,,,0.8571428571428571,,,,,,,,,,,,,
null,,color_black1,924144,,,,black_plus_sign,,,null,,,,,,,,,,,,,,,,,,,,,,,
null,,learn_phase(without_color)1,927645,,,,black_plus_sign,,,null,object_08c.png,object_15c.png,,,,,,,,,,,,,,,,,,,,,
null,,black_cross(without_color)1,928714,,,,blue,,,null,object_08c.png,object_15c.png,,,,,,,,,,,,,,,,,,,,,
null,,rt_plussign_withcolor1,929220,,,,blue,,,null,object_08c.png,object_15c.png,,,,,,,,,,,,,,,,,,,,,
937.5,,rt_thecrossant_black1,930174,,,,black_plus_sign,,,50,,,0,,,,,,,0.75,,,,,,,,,,,,,
null,,color_black1,930278,,,,black_plus_sign,,,null,,,,,,,,,,,,,,,,,,,,,,,
null,,learn_phase(without_color)1,933794,,,,black_plus_sign,,,null,object_02a.png,object_07a.png,,,,,,,,,,,,,,,,,,,,,
null,,black_cross(without_color)1,934878,,,,green,,,null,object_02a.png,object_07a.png,,,,,,,,,,,,,,,,,,,,,
null,,rt_plussign_withcolor1,935385,,,,green,,,null,object_02a.png,object_07a.png,,,,,,,,,,,,,,,,,,,,,
1398,,rt_thecrossant_black1,936312,,,,black_plus_sign,,,50,,,1,,,,,,,0.7777777777777778,,,,,,,,,,,,,
null,,color_black1,936426,,,,black_plus_sign,,,null,,,,,,,,,,,,,,,,,,,,,,,
null,,learn_phase(without_color)1,939936,,,,black_plus_sign,,,null,object_12b.png,object_01c.png,,,,,,,,,,,,,,,,,,,,,
null,,black_cross(without_color)1,940568,,,,blue,,,null,object_12b.png,object_01c.png,,,,,,,,,,,,,,,,,,,,,
null,,rt_plussign_withcolor1,941073,,,,blue,,,null,object_12b.png,object_01c.png,,,,,,,,,,,,,,,,,,,,,
1400.5,,rt_thecrossant_black1,942461,,,,black_plus_sign,,,49,,,1,,,,,,,0.8,,,,,,,,,,,,,
null,,color_black1,942577,,,,black_plus_sign,,,null,,,,,,,,,,,,,,,,,,,,,,,
null,,learn_phase(without_color)1,946085,,,,black_plus_sign,,,null,object_14b.png,object_05c.png,,,,,,,,,,,,,,,,,,,,,
null,,black_cross(without_color)1,947148,,,,green,,,null,object_14b.png,object_05c.png,,,,,,,,,,,,,,,,,,,,,
null,,rt_plussign_withcolor1,947656,,,,green,,,null,object_14b.png,object_05c.png,,,,,,,,,,,,,,,,,,,,,
932.3999999994412,,rt_thecrossant_black1,948621,,,,black_plus_sign,,,50,,,1,,,,,,,0.8181818181818182,,,,,,,,,,,,,
null,,color_black1,948728,,,,black_plus_sign,,,null,,,,,,,,,,,,,,,,,,,,,,,
null,,learn_phase(without_color)1,952236,,,,black_plus_sign,,,null,object_01c.png,object_14c.png,,,,,,,,,,,,,,,,,,,,,
null,,black_cross(without_color)1,953109,,,,blue,,,null,object_01c.png,object_14c.png,,,,,,,,,,,,,,,,,,,,,
null,,rt_plussign_withcolor1,953622,,,,blue,,,null,object_01c.png,object_14c.png,,,,,,,,,,,,,,,,,,,,,
1392,,rt_thecrossant_black1,954780,,,,black_plus_sign,,,49,,,1,,,,,,,0.8333333333333334,,,,,,,,,,,,,
null,,color_black1,954895,,,,black_plus_sign,,,null,,,,,,,,,,,,,,,,,,,,,,,
null,,learn_phase(without_color)1,958396,,,,black_plus_sign,,,null,object_01a.png,object_07c.png,,,,,,,,,,,,,,,,,,,,,
null,,black_cross(without_color)1,959269,,,,green,,,null,object_01a.png,object_07c.png,,,,,,,,,,,,,,,,,,,,,
null,,rt_plussign_withcolor1,959778,,,,green,,,null,object_01a.png,object_07c.png,,,,,,,,,,,,,,,,,,,,,
1103.2000000001863,,rt_thecrossant_black1,960926,,,,black_plus_sign,,,50,,,1,,,,,,,0.8461538461538461,,,,,,,,,,,,,
null,,color_black1,961029,,,,black_plus_sign,,,null,,,,,,,,,,,,,,,,,,,,,,,
null,,learn_phase(without_color)1,964534,,,,black_plus_sign,,,null,object_09c.png,object_13b.png,,,,,,,,,,,,,,,,,,,,,
null,,black_cross(without_color)1,965447,,,,blue,,,null,object_09c.png,object_13b.png,,,,,,,,,,,,,,,,,,,,,
null,,rt_plussign_withcolor1,965954,,,,blue,,,null,object_09c.png,object_13b.png,,,,,,,,,,,,,,,,,,,,,
1296.7000000001863,,rt_thecrossant_black1,967051,,,,black_plus_sign,,,49,,,1,,,,,,,0.8571428571428571,,,,,,,,,,,,,
null,,color_black1,967162,,,,black_plus_sign,,,null,,,,,,,,,,,,,,,,,,,,,,,
null,,learn_phase(without_color)1,970668,,,,black_plus_sign,,,null,object_11a.png,object_09a.png,,,,,,,,,,,,,,,,,,,,,
null,,black_cross(without_color)1,971535,,,,blue,,,null,object_11a.png,object_09a.png,,,,,,,,,,,,,,,,,,,,,
null,,rt_plussign_withcolor1,972044,,,,blue,,,null,object_11a.png,object_09a.png,,,,,,,,,,,,,,,,,,,,,
1369.6000000005588,,rt_thecrossant_black1,973192,,,,black_plus_sign,,,49,,,1,,,,,,,0.8666666666666667,,,,,,,,,,,,,
null,,color_black1,973296,,,,black_plus_sign,,,null,,,,,,,,,,,,,,,,,,,,,,,
null,,learn_phase(without_color)1,976804,,,,black_plus_sign,,,null,object_05a.png,object_10c.png,,,,,,,,,,,,,,,,,,,,,
null,,black_cross(without_color)1,977559,,,,green,,,null,object_05a.png,object_10c.png,,,,,,,,,,,,,,,,,,,,,
null,,rt_plussign_withcolor1,978076,,,,green,,,null,object_05a.png,object_10c.png,,,,,,,,,,,,,,,,,,,,,
1163.8999999994412,,rt_thecrossant_black1,979335,,,,black_plus_sign,,,50,,,1,,,,,,,0.875,,,,,,,,,,,,,
null,,color_black1,979446,,,,black_plus_sign,,,null,,,,,,,,,,,,,,,,,,,,,,,
null,,learn_phase(without_color)1,982958,,,,black_plus_sign,,,null,object_06c.png,object_02b.png,,,,,,,,,,,,,,,,,,,,,
null,,black_cross(without_color)1,984063,,,,blue,,,null,object_06c.png,object_02b.png,,,,,,,,,,,,,,,,,,,,,
null,,rt_plussign_withcolor1,984572,,,,blue,,,null,object_06c.png,object_02b.png,,,,,,,,,,,,,,,,,,,,,
1090.7000000001863,,rt_thecrossant_black1,985476,,,,black_plus_sign,,,49,,,1,,,,,,,0.8823529411764706,,,,,,,,,,,,,
null,,color_black1,985580,,,,black_plus_sign,,,null,,,,,,,,,,,,,,,,,,,,,,,
null,,learn_phase(without_color)1,989081,,,,black_plus_sign,,,null,object_01b.png,object_03a.png,,,,,,,,,,,,,,,,,,,,,
null,,black_cross(without_color)1,989894,,,,blue,,,null,object_01b.png,object_03a.png,,,,,,,,,,,,,,,,,,,,,
null,,rt_plussign_withcolor1,990406,,,,blue,,,null,object_01b.png,object_03a.png,,,,,,,,,,,,,,,,,,,,,
null,,rt_thecrossant_black1,991597,,,,black_plus_sign,,,null,,,,,,,,,,0.8823529411764706,,,,,,,,,,,,,
null,,color_black1,991712,,,,black_plus_sign,,,null,,,,,,,,,,,,,,,,,,,,,,,
null,,learn_phase(without_color)1,995227,,,,black_plus_sign,,,null,object_08b.png,object_09a.png,,,,,,,,,,,,,,,,,,,,,
null,,black_cross(without_color)1,995962,,,,green,,,null,object_08b.png,object_09a.png,,,,,,,,,,,,,,,,,,,,,
null,,rt_plussign_withcolor1,996471,,,,green,,,null,object_08b.png,object_09a.png,,,,,,,,,,,,,,,,,,,,,
1523,,rt_thecrossant_black1,997758,,,,black_plus_sign,,,50,,,1,,,,,,,0.8888888888888888,,,,,,,,,,,,,
null,,color_black1,997863,,,,black_plus_sign,,,null,,,,,,,,,,,,,,,,,,,,,,,
null,,learn_phase(without_color)1,1001374,,,,black_plus_sign,,,null,object_07c.png,object_06a.png,,,,,,,,,,,,,,,,,,,,,
null,,black_cross(without_color)1,1002348,,,,green,,,null,object_07c.png,object_06a.png,,,,,,,,,,,,,,,,,,,,,
null,,rt_plussign_withcolor1,1002855,,,,green,,,null,object_07c.png,object_06a.png,,,,,,,,,,,,,,,,,,,,,
1216.6000000005588,,rt_thecrossant_black1,1003901,,,,black_plus_sign,,,50,,,1,,,,,,,0.8947368421052632,,,,,,,,,,,,,
null,,color_black1,1004013,,,,black_plus_sign,,,null,,,,,,,,,,,,,,,,,,,,,,,
null,,learn_phase(without_color)1,1007519,,,,black_plus_sign,,,null,object_04c.png,object_05b.png,,,,,,,,,,,,,,,,,,,,,
null,,black_cross(without_color)1,1007996,,,,blue,,,null,object_04c.png,object_05b.png,,,,,,,,,,,,,,,,,,,,,
null,,rt_plussign_withcolor1,1008505,,,,blue,,,null,object_04c.png,object_05b.png,,,,,,,,,,,,,,,,,,,,,
1510.5999999996275,,rt_thecrossant_black1,1010052,,,,black_plus_sign,,,49,,,1,,,,,,,0.9,,,,,,,,,,,,,
null,,color_black1,1010165,,,,black_plus_sign,,,null,,,,,,,,,,,,,,,,,,,,,,,
null,,learn_phase(without_color)1,1013675,,,,black_plus_sign,,,null,object_08a.png,object_11b.png,,,,,,,,,,,,,,,,,,,,,
null,,black_cross(without_color)1,1014455,,,,green,,,null,object_08a.png,object_11b.png,,,,,,,,,,,,,,,,,,,,,
null,,rt_plussign_withcolor1,1014961,,,,green,,,null,object_08a.png,object_11b.png,,,,,,,,,,,,,,,,,,,,,
686.5,,rt_thecrossant_black1,1016200,,,,black_plus_sign,,,50,,,1,,,,,,,0.9047619047619048,,,,,,,,,,,,,
null,,color_black1,1016315,,,,black_plus_sign,,,null,,,,,,,,,,,,,,,,,,,,,,,
null,,learn_phase(without_color)1,1019820,,,,black_plus_sign,,,null,object_04c.png,object_15a.png,,,,,,,,,,,,,,,,,,,,,
null,,black_cross(without_color)1,1020434,,,,green,,,null,object_04c.png,object_15a.png,,,,,,,,,,,,,,,,,,,,,
null,,rt_plussign_withcolor1,1020940,,,,green,,,null,object_04c.png,object_15a.png,,,,,,,,,,,,,,,,,,,,,
1000,,rt_thecrossant_black1,1022345,,,,black_plus_sign,,,50,,,1,,,,,,,0.9090909090909091,,,,,,,,,,,,,
null,,color_black1,1022448,,,,black_plus_sign,,,null,,,,,,,,,,,,,,,,,,,,,,,
null,,learn_phase(without_color)1,1025954,,,,black_plus_sign,,,null,object_12c.png,object_14b.png,,,,,,,,,,,,,,,,,,,,,
null,,black_cross(without_color)1,1026614,,,,green,,,null,object_12c.png,object_14b.png,,,,,,,,,,,,,,,,,,,,,
null,,rt_plussign_withcolor1,1027123,,,,green,,,null,object_12c.png,object_14b.png,,,,,,,,,,,,,,,,,,,,,
1612,,rt_thecrossant_black1,1028490,,,,black_plus_sign,,,50,,,1,,,,,,,0.9130434782608695,,,,,,,,,,,,,
null,,color_black1,1028598,,,,black_plus_sign,,,null,,,,,,,,,,,,,,,,,,,,,,,
null,,learn_phase(without_color)1,1032112,,,,black_plus_sign,,,null,object_13a.png,object_06c.png,,,,,,,,,,,,,,,,,,,,,
null,,black_cross(without_color)1,1032932,,,,green,,,null,object_13a.png,object_06c.png,,,,,,,,,,,,,,,,,,,,,
null,,rt_plussign_withcolor1,1033438,,,,green,,,null,object_13a.png,object_06c.png,,,,,,,,,,,,,,,,,,,,,
1160.2999999998137,,rt_thecrossant_black1,1034639,,,,black_plus_sign,,,50,,,1,,,,,,,0.9166666666666666,,,,,,,,,,,,,
null,,color_black1,1034748,,,,black_plus_sign,,,null,,,,,,,,,,,,,,,,,,,,,,,
null,,learn_phase(without_color)1,1038253,,,,black_plus_sign,,,null,object_11c.png,object_09c.png,,,,,,,,,,,,,,,,,,,,,
null,,black_cross(without_color)1,1039090,,,,green,,,null,object_11c.png,object_09c.png,,,,,,,,,,,,,,,,,,,,,
null,,rt_plussign_withcolor1,1039596,,,,green,,,null,object_11c.png,object_09c.png,,,,,,,,,,,,,,,,,,,,,
null,,rt_thecrossant_black1,1040784,,,,black_plus_sign,,,null,,,,,,,,,,0.9166666666666666,,,,,,,,,,,,,
null,,color_black1,1040898,,,,black_plus_sign,,,null,,,,,,,,,,,,,,,,,,,,,,,
null,,learn_phase(without_color)1,1044411,,,,black_plus_sign,,,null,object_01b.png,object_15b.png,,,,,,,,,,,,,,,,,,,,,
null,,black_cross(without_color)1,1045190,,,,green,,,null,object_01b.png,object_15b.png,,,,,,,,,,,,,,,,,,,,,
null,,rt_plussign_withcolor1,1045706,,,,green,,,null,object_01b.png,object_15b.png,,,,,,,,,,,,,,,,,,,,,
1627.5999999996275,,rt_thecrossant_black1,1046944,,,,black_plus_sign,,,50,,,1,,,,,,,0.92,,,,,,,,,,,,,
null,,color_black1,1047048,,,,black_plus_sign,,,null,,,,,,,,,,,,,,,,,,,,,,,
null,,learn_phase(without_color)1,1050561,,,,black_plus_sign,,,null,object_04b.png,object_10a.png,,,,,,,,,,,,,,,,,,,,,
null,,black_cross(without_color)1,1051607,,,,blue,,,null,object_04b.png,object_10a.png,,,,,,,,,,,,,,,,,,,,,
null,,rt_plussign_withcolor1,1052120,,,,blue,,,null,object_04b.png,object_10a.png,,,,,,,,,,,,,,,,,,,,,
1700.2000000001863,,rt_thecrossant_black1,1053095,,,,black_plus_sign,,,49,,,1,,,,,,,0.9230769230769231,,,,,,,,,,,,,
null,,color_black1,1053199,,,,black_plus_sign,,,null,,,,,,,,,,,,,,,,,,,,,,,
null,,learn_phase(without_color)1,1056706,,,,black_plus_sign,,,null,object_03c.png,object_02c.png,,,,,,,,,,,,,,,,,,,,,
null,,black_cross(without_color)1,1057661,,,,green,,,null,object_03c.png,object_02c.png,,,,,,,,,,,,,,,,,,,,,
null,,rt_plussign_withcolor1,1058169,,,,green,,,null,object_03c.png,object_02c.png,,,,,,,,,,,,,,,,,,,,,
null,,rt_thecrossant_black1,1059221,,,,black_plus_sign,,,null,,,,,,,,,,0.9230769230769231,,,,,,,,,,,,,
null,,color_black1,1059331,,,,black_plus_sign,,,null,,,,,,,,,,,,,,,,,,,,,,,
null,,learn_phase(without_color)1,1062842,,,,black_plus_sign,,,null,object_05a.png,object_03b.png,,,,,,,,,,,,,,,,,,,,,
null,,black_cross(without_color)1,1063829,,,,green,,,null,object_05a.png,object_03b.png,,,,,,,,,,,,,,,,,,,,,
null,,rt_plussign_withcolor1,1064344,,,,green,,,null,object_05a.png,object_03b.png,,,,,,,,,,,,,,,,,,,,,
1406.5999999996275,,rt_thecrossant_black1,1065377,,,,black_plus_sign,,,50,,,1,,,,,,,0.9259259259259259,,,,,,,,,,,,,
null,,color_black1,1065482,,,,black_plus_sign,,,null,,,,,,,,,,,,,,,,,,,,,,,
null,,thebreak,1065597,,,,<p></p>,,,null,,,,,,,,,,,,,,,,,,,,,,,
3157.0999999996275,,intro_0,1068755,,,,instruct,,,32,,,,,,,,,,,,,,,,,,,,,,,
2463.4000000003725,,directmemory_phase1,1071219,,,,object_08a.png,,,49,,,0,,object_05c.png,object_11b.png,object_01c.png,object_11b.png,,0,,0,,,,,,,,,,,
2478.5999999996275,,directmemory_phase1,1073699,,,,object_07c.png,,,49,,,0,,object_13a.png,object_11b.png,object_01a.png,object_01a.png,,0,,0,,,,,,,,,,,
1703.7999999998137,,directmemory_phase1,1075404,,,,object_05b.png,,,51,,,0,,object_14a.png,object_04c.png,object_11b.png,object_04c.png,,0,,0,,,,,,,,,,,
2854.0999999996275,,directmemory_phase1,1078259,,,,object_09a.png,,,51,,,1,,object_09b.png,object_07a.png,object_11a.png,object_11a.png,,0.25,,1,,,,,,,,,,,
3022.9000000003725,,directmemory_phase1,1081283,,,,object_02b.png,,,49,,,1,,object_06c.png,object_09a.png,object_15b.png,object_06c.png,,0.4,,1,,,,,,,,,,,
2583.100000000559,,directmemory_phase1,1083867,,,,object_05a.png,,,50,,,0,,object_10c.png,object_12b.png,object_15c.png,object_10c.png,,0.3333333333333333,,0,,,,,,,,,,,
2927.9000000003725,,directmemory_phase1,1086796,,,,object_06b.png,,,51,,,1,,object_02c.png,object_08c.png,object_10a.png,object_10a.png,,0.42857142857142855,,1,,,,,,,,,,,
2414.2000000001863,,directmemory_phase1,1089211,,,,object_13a.png,,,49,,,0,,object_01c.png,object_13c.png,object_06c.png,object_06c.png,,0.375,,0,,,,,,,,,,,
3247,,directmemory_phase1,1092459,,,,object_12a.png,,,49,,,0,,object_10a.png,object_06b.png,object_10b.png,object_10b.png,,0.3333333333333333,,0,,,,,,,,,,,
2919.4000000003725,,directmemory_phase1,1095379,,,,object_09c.png,,,49,,,0,,object_03c.png,object_07a.png,object_13b.png,object_13b.png,,0.3,,0,,,,,,,,,,,
2551.2999999998137,,directmemory_phase1,1097932,,,,object_11c.png,,,50,,,0,,object_05a.png,object_14a.png,object_09c.png,object_09c.png,,0.2727272727272727,,0,,,,,,,,,,,
1718.1000000005588,,directmemory_phase1,1099651,,,,object_14c.png,,,50,,,1,,object_02b.png,object_01c.png,object_09a.png,object_01c.png,,0.3333333333333333,,1,,,,,,,,,,,
2263.0999999996275,,directmemory_phase1,1101915,,,,object_10a.png,,,50,,,0,,object_11a.png,object_07c.png,object_04b.png,object_04b.png,,0.3076923076923077,,0,,,,,,,,,,,
3799,,directmemory_phase1,1105715,,,,object_06a.png,,,51,,,0,,object_14a.png,object_07c.png,object_10a.png,object_07c.png,,0.2857142857142857,,0,,,,,,,,,,,
2815.7000000001863,,directmemory_phase1,1108532,,,,object_13c.png,,,49,,,0,,object_06c.png,object_11a.png,object_07a.png,object_07a.png,,0.26666666666666666,,0,,,,,,,,,,,
3422.4000000003725,,directmemory_phase1,1111955,,,,object_02a.png,,,49,,,1,,object_07a.png,object_06c.png,object_03b.png,object_07a.png,,0.3125,,1,,,,,,,,,,,
3215.0999999996275,,directmemory_phase1,1115171,,,,object_05c.png,,,50,,,1,,object_02a.png,object_14b.png,object_10a.png,object_14b.png,,0.35294117647058826,,1,,,,,,,,,,,
3295,,directmemory_phase1,1118467,,,,object_03b.png,,,49,,,0,,object_07c.png,object_02a.png,object_05a.png,object_05a.png,,0.3333333333333333,,0,,,,,,,,,,,
2007.7999999998137,,directmemory_phase1,1120476,,,,object_15b.png,,,51,,,0,,object_08b.png,object_01b.png,object_01c.png,object_01b.png,,0.3157894736842105,,0,,,,,,,,,,,
2246.2000000001863,,directmemory_phase1,1122723,,,,object_14b.png,,,50,,,0,,object_11a.png,object_07c.png,object_12c.png,object_12c.png,,0.3,,0,,,,,,,,,,,
4335.0999999996275,,directmemory_phase1,1127059,,,,object_02c.png,,,51,,,0,,object_03c.png,object_04a.png,object_01c.png,object_03c.png,,0.2857142857142857,,0,,,,,,,,,,,
2182.800000000745,,directmemory_phase1,1129243,,,,object_08b.png,,,49,,,1,,object_09a.png,object_10a.png,object_11c.png,object_09a.png,,0.3181818181818182,,1,,,,,,,,,,,
4975.799999999814,,directmemory_phase1,1134220,,,,object_08c.png,,,50,,,0,,object_15c.png,object_06c.png,object_15b.png,object_15c.png,,0.30434782608695654,,0,,,,,,,,,,,
5286,,directmemory_phase1,1139507,,,,object_07b.png,,,50,,,1,,object_12c.png,object_11b.png,object_07a.png,object_11b.png,,0.3333333333333333,,1,,,,,,,,,,,
6719.600000000559,,directmemory_phase1,1146228,,,,object_14a.png,,,50,,,0,,object_02c.png,object_05a.png,object_14c.png,object_02c.png,,0.32,,0,,,,,,,,,,,
4958.299999999814,,directmemory_phase1,1151187,,,,object_04c.png,,,51,,,1,,object_01a.png,object_15c.png,object_15a.png,object_15a.png,,0.34615384615384615,,1,,,,,,,,,,,
2943,,directmemory_phase1,1154131,,,,object_12b.png,,,49,,,1,,object_01c.png,object_01b.png,object_10c.png,object_01c.png,,0.37037037037037035,,1,,,,,,,,,,,
2823.7000000001863,,directmemory_phase1,1156956,,,,object_04a.png,,,51,,,0,,object_03c.png,object_10b.png,object_05a.png,object_10b.png,,0.35714285714285715,,0,,,,,,,,,,,
4358.200000000186,,directmemory_phase1,1161315,,,,object_01b.png,,,49,,,0,,object_07b.png,object_11b.png,object_03a.png,object_03a.png,,0.3448275862068966,,0,,,,,,,,,,,
1926.9000000003725,,directmemory_phase1,1163243,,,,object_15c.png,,,51,,,0,,object_11b.png,object_09b.png,object_07b.png,object_09b.png,,0.3333333333333333,,0,,,,,,,,,,,
null,,thebreak,1163352,,,,<p></p>,,,null,,,,,,,,,,,,,,,,,,,,,,,
11315.099999999627,,intro_0,1174668,,,,instruct,,,32,,,,,,,,,,,,,,,,,,,,,,,
null,,learn_phase(without_color)2,1178176,,,,black_plus_sign,,,null,object_07c.png,object_01a.png,,,,,,,,,,,,,,,,,,,,,
null,,black_cross(without_color)2,1178889,,,,green,,,null,object_07c.png,object_01a.png,,,,,,,,,,,,,,,,,,,,,
null,,rt_plussign_withcolor2,1179395,,,,green,,,null,object_07c.png,object_01a.png,,,,,,,,,,,,,,,,,,,,,
1383.4000000003725,,rt_thecrossant_black2,1180688,,,,black_plus_sign,,,50,,,1,,,,,,,1,,,,,,,,,,,,,
null,,color_black2,1180804,,,,black_plus_sign,,,null,,,,,,,,,,,,,,,,,,,,,,,
null,,learn_phase(without_color)2,1184315,,,,black_plus_sign,,,null,object_10a.png,object_06b.png,,,,,,,,,,,,,,,,,,,,,
null,,black_cross(without_color)2,1185413,,,,green,,,null,object_10a.png,object_06b.png,,,,,,,,,,,,,,,,,,,,,
null,,rt_plussign_withcolor2,1185927,,,,green,,,null,object_10a.png,object_06b.png,,,,,,,,,,,,,,,,,,,,,
987.5,,rt_thecrossant_black2,1186859,,,,black_plus_sign,,,50,,,1,,,,,,,1,,,,,,,,,,,,,
null,,color_black2,1186969,,,,black_plus_sign,,,null,,,,,,,,,,,,,,,,,,,,,,,
null,,learn_phase(without_color)2,1190473,,,,black_plus_sign,,,null,object_09a.png,object_11a.png,,,,,,,,,,,,,,,,,,,,,
null,,black_cross(without_color)2,1191058,,,,green,,,null,object_09a.png,object_11a.png,,,,,,,,,,,,,,,,,,,,,
null,,rt_plussign_withcolor2,1191572,,,,green,,,null,object_09a.png,object_11a.png,,,,,,,,,,,,,,,,,,,,,
null,,rt_thecrossant_black2,1193002,,,,black_plus_sign,,,null,,,,,,,,,,1,,,,,,,,,,,,,
null,,color_black2,1193119,,,,black_plus_sign,,,null,,,,,,,,,,,,,,,,,,,,,,,
null,,learn_phase(without_color)2,1196622,,,,black_plus_sign,,,null,object_15a.png,object_04c.png,,,,,,,,,,,,,,,,,,,,,
null,,black_cross(without_color)2,1197700,,,,blue,,,null,object_15a.png,object_04c.png,,,,,,,,,,,,,,,,,,,,,
null,,rt_plussign_withcolor2,1198216,,,,blue,,,null,object_15a.png,object_04c.png,,,,,,,,,,,,,,,,,,,,,
827.8999999994412,,rt_thecrossant_black2,1199148,,,,black_plus_sign,,,49,,,1,,,,,,,1,,,,,,,,,,,,,
null,,color_black2,1199253,,,,black_plus_sign,,,null,,,,,,,,,,,,,,,,,,,,,,,
null,,learn_phase(without_color)2,1202762,,,,black_plus_sign,,,null,object_07a.png,object_02a.png,,,,,,,,,,,,,,,,,,,,,
null,,black_cross(without_color)2,1203870,,,,green,,,null,object_07a.png,object_02a.png,,,,,,,,,,,,,,,,,,,,,
null,,rt_plussign_withcolor2,1204384,,,,green,,,null,object_07a.png,object_02a.png,,,,,,,,,,,,,,,,,,,,,
null,,rt_thecrossant_black2,1205303,,,,black_plus_sign,,,null,,,,,,,,,,1,,,,,,,,,,,,,
null,,color_black2,1205419,,,,black_plus_sign,,,null,,,,,,,,,,,,,,,,,,,,,,,
null,,learn_phase(without_color)2,1208934,,,,black_plus_sign,,,null,object_11b.png,object_07b.png,,,,,,,,,,,,,,,,,,,,,
null,,black_cross(without_color)2,1209916,,,,blue,,,null,object_11b.png,object_07b.png,,,,,,,,,,,,,,,,,,,,,
null,,rt_plussign_withcolor2,1210421,,,,blue,,,null,object_11b.png,object_07b.png,,,,,,,,,,,,,,,,,,,,,
1475.2999999998137,,rt_thecrossant_black2,1211472,,,,black_plus_sign,,,49,,,1,,,,,,,1,,,,,,,,,,,,,
null,,color_black2,1211586,,,,black_plus_sign,,,null,,,,,,,,,,,,,,,,,,,,,,,
null,,learn_phase(without_color)2,1215097,,,,black_plus_sign,,,null,object_12a.png,object_10b.png,,,,,,,,,,,,,,,,,,,,,
null,,black_cross(without_color)2,1216080,,,,blue,,,null,object_12a.png,object_10b.png,,,,,,,,,,,,,,,,,,,,,
null,,rt_plussign_withcolor2,1216586,,,,blue,,,null,object_12a.png,object_10b.png,,,,,,,,,,,,,,,,,,,,,
null,,rt_thecrossant_black2,1217620,,,,black_plus_sign,,,null,,,,,,,,,,1,,,,,,,,,,,,,
null,,color_black2,1217736,,,,black_plus_sign,,,null,,,,,,,,,,,,,,,,,,,,,,,
null,,learn_phase(without_color)2,1221253,,,,black_plus_sign,,,null,object_07c.png,object_06a.png,,,,,,,,,,,,,,,,,,,,,
null,,black_cross(without_color)2,1221925,,,,green,,,null,object_07c.png,object_06a.png,,,,,,,,,,,,,,,,,,,,,
null,,rt_plussign_withcolor2,1222430,,,,green,,,null,object_07c.png,object_06a.png,,,,,,,,,,,,,,,,,,,,,
1336.4000000003725,,rt_thecrossant_black2,1223771,,,,black_plus_sign,,,50,,,1,,,,,,,1,,,,,,,,,,,,,
null,,color_black2,1223886,,,,black_plus_sign,,,null,,,,,,,,,,,,,,,,,,,,,,,
null,,learn_phase(without_color)2,1227394,,,,black_plus_sign,,,null,object_11c.png,object_09c.png,,,,,,,,,,,,,,,,,,,,,
null,,black_cross(without_color)2,1228470,,,,blue,,,null,object_11c.png,object_09c.png,,,,,,,,,,,,,,,,,,,,,
null,,rt_plussign_withcolor2,1228981,,,,blue,,,null,object_11c.png,object_09c.png,,,,,,,,,,,,,,,,,,,,,
1440.699999999255,,rt_thecrossant_black2,1229928,,,,black_plus_sign,,,49,,,1,,,,,,,1,,,,,,,,,,,,,
null,,color_black2,1230039,,,,black_plus_sign,,,null,,,,,,,,,,,,,,,,,,,,,,,
null,,learn_phase(without_color)2,1233546,,,,black_plus_sign,,,null,object_03a.png,object_01b.png,,,,,,,,,,,,,,,,,,,,,
null,,black_cross(without_color)2,1234384,,,,green,,,null,object_03a.png,object_01b.png,,,,,,,,,,,,,,,,,,,,,
null,,rt_plussign_withcolor2,1234886,,,,green,,,null,object_03a.png,object_01b.png,,,,,,,,,,,,,,,,,,,,,
null,,rt_thecrossant_black2,1236060,,,,black_plus_sign,,,null,,,,,,,,,,1,,,,,,,,,,,,,
null,,color_black2,1236171,,,,black_plus_sign,,,null,,,,,,,,,,,,,,,,,,,,,,,
null,,learn_phase(without_color)2,1239680,,,,black_plus_sign,,,null,object_07a.png,object_13c.png,,,,,,,,,,,,,,,,,,,,,
null,,black_cross(without_color)2,1240533,,,,blue,,,null,object_07a.png,object_13c.png,,,,,,,,,,,,,,,,,,,,,
null,,rt_plussign_withcolor2,1241048,,,,blue,,,null,object_07a.png,object_13c.png,,,,,,,,,,,,,,,,,,,,,
989.8000000007451,,rt_thecrossant_black2,1242209,,,,black_plus_sign,,,49,,,1,,,,,,,1,,,,,,,,,,,,,
null,,color_black2,1242321,,,,black_plus_sign,,,null,,,,,,,,,,,,,,,,,,,,,,,
null,,learn_phase(without_color)2,1245832,,,,black_plus_sign,,,null,object_08c.png,object_15c.png,,,,,,,,,,,,,,,,,,,,,
null,,black_cross(without_color)2,1246394,,,,green,,,null,object_08c.png,object_15c.png,,,,,,,,,,,,,,,,,,,,,
null,,rt_plussign_withcolor2,1246897,,,,green,,,null,object_08c.png,object_15c.png,,,,,,,,,,,,,,,,,,,,,
null,,rt_thecrossant_black2,1248353,,,,black_plus_sign,,,null,,,,,,,,,,1,,,,,,,,,,,,,
null,,warning_page,1253363,,,,warning,,,null,,,,,,,,,,,,,,,,,,,,,,,
null,,color_black2,1253472,,,,black_plus_sign,,,null,,,,,,,,,,,,,,,,,,,,,,,
null,,learn_phase(without_color)2,1256985,,,,black_plus_sign,,,null,object_04b.png,object_10a.png,,,,,,,,,,,,,,,,,,,,,
null,,black_cross(without_color)2,1257612,,,,blue,,,null,object_04b.png,object_10a.png,,,,,,,,,,,,,,,,,,,,,
null,,rt_plussign_withcolor2,1258126,,,,blue,,,null,object_04b.png,object_10a.png,,,,,,,,,,,,,,,,,,,,,
817.2000000001863,,rt_thecrossant_black2,1259516,,,,black_plus_sign,,,49,,,1,,,,,,,1,,,,,,,,,,,,,
null,,color_black2,1259621,,,,black_plus_sign,,,null,,,,,,,,,,,,,,,,,,,,,,,
null,,learn_phase(without_color)2,1263130,,,,black_plus_sign,,,null,object_14c.png,object_01c.png,,,,,,,,,,,,,,,,,,,,,
null,,black_cross(without_color)2,1263665,,,,blue,,,null,object_14c.png,object_01c.png,,,,,,,,,,,,,,,,,,,,,
null,,rt_plussign_withcolor2,1264180,,,,blue,,,null,object_14c.png,object_01c.png,,,,,,,,,,,,,,,,,,,,,
897,,rt_thecrossant_black2,1265673,,,,black_plus_sign,,,49,,,1,,,,,,,1,,,,,,,,,,,,,
null,,color_black2,1265774,,,,black_plus_sign,,,null,,,,,,,,,,,,,,,,,,,,,,,
null,,learn_phase(without_color)2,1269287,,,,black_plus_sign,,,null,object_09b.png,object_15c.png,,,,,,,,,,,,,,,,,,,,,
null,,black_cross(without_color)2,1270064,,,,blue,,,null,object_09b.png,object_15c.png,,,,,,,,,,,,,,,,,,,,,
null,,rt_plussign_withcolor2,1270565,,,,blue,,,null,object_09b.png,object_15c.png,,,,,,,,,,,,,,,,,,,,,
683.7000000001863,,rt_thecrossant_black2,1271803,,,,black_plus_sign,,,49,,,1,,,,,,,1,,,,,,,,,,,,,
null,,color_black2,1271906,,,,black_plus_sign,,,null,,,,,,,,,,,,,,,,,,,,,,,
null,,learn_phase(without_color)2,1275422,,,,black_plus_sign,,,null,object_13a.png,object_06c.png,,,,,,,,,,,,,,,,,,,,,
null,,black_cross(without_color)2,1276415,,,,green,,,null,object_13a.png,object_06c.png,,,,,,,,,,,,,,,,,,,,,
null,,rt_plussign_withcolor2,1276928,,,,green,,,null,object_13a.png,object_06c.png,,,,,,,,,,,,,,,,,,,,,
950.2000000001863,,rt_thecrossant_black2,1277953,,,,black_plus_sign,,,50,,,1,,,,,,,1,,,,,,,,,,,,,
null,,color_black2,1278055,,,,black_plus_sign,,,null,,,,,,,,,,,,,,,,,,,,,,,
null,,learn_phase(without_color)2,1281568,,,,black_plus_sign,,,null,object_15b.png,object_01b.png,,,,,,,,,,,,,,,,,,,,,
null,,black_cross(without_color)2,1282551,,,,blue,,,null,object_15b.png,object_01b.png,,,,,,,,,,,,,,,,,,,,,
null,,rt_plussign_withcolor2,1283053,,,,blue,,,null,object_15b.png,object_01b.png,,,,,,,,,,,,,,,,,,,,,
1122.7999999998137,,rt_thecrossant_black2,1284079,,,,black_plus_sign,,,49,,,1,,,,,,,1,,,,,,,,,,,,,
null,,color_black2,1284189,,,,black_plus_sign,,,null,,,,,,,,,,,,,,,,,,,,,,,
null,,learn_phase(without_color)2,1287697,,,,black_plus_sign,,,null,object_02b.png,object_06c.png,,,,,,,,,,,,,,,,,,,,,
null,,black_cross(without_color)2,1288293,,,,green,,,null,object_02b.png,object_06c.png,,,,,,,,,,,,,,,,,,,,,
null,,rt_plussign_withcolor2,1288799,,,,green,,,null,object_02b.png,object_06c.png,,,,,,,,,,,,,,,,,,,,,
null,,rt_thecrossant_black2,1290216,,,,black_plus_sign,,,null,,,,,,,,,,1,,,,,,,,,,,,,
null,,warning_page,1295218,,,,warning,,,null,,,,,,,,,,,,,,,,,,,,,,,
null,,color_black2,1295323,,,,black_plus_sign,,,null,,,,,,,,,,,,,,,,,,,,,,,
null,,learn_phase(without_color)2,1298825,,,,black_plus_sign,,,null,object_05c.png,object_14b.png,,,,,,,,,,,,,,,,,,,,,
null,,black_cross(without_color)2,1299306,,,,blue,,,null,object_05c.png,object_14b.png,,,,,,,,,,,,,,,,,,,,,
432.6000000005588,,rt_plussign_withcolor2,1299823,,,,blue,,,49,object_05c.png,object_14b.png,,,,,,,,,,,,,,,,,,,,,
null,,rt_thecrossant_black2,1301355,,,,black_plus_sign,,,49,,,1,,,,,,,1,,,,,,,,,,,,,
null,,color_black2,1301457,,,,black_plus_sign,,,null,,,,,,,,,,,,,,,,,,,,,,,
null,,learn_phase(without_color)2,1304973,,,,black_plus_sign,,,null,object_03c.png,object_02c.png,,,,,,,,,,,,,,,,,,,,,
null,,black_cross(without_color)2,1305545,,,,blue,,,null,object_03c.png,object_02c.png,,,,,,,,,,,,,,,,,,,,,
null,,rt_plussign_withcolor2,1306047,,,,blue,,,null,object_03c.png,object_02c.png,,,,,,,,,,,,,,,,,,,,,
592.3000000007451,,rt_thecrossant_black2,1307490,,,,black_plus_sign,,,49,,,1,,,,,,,1,,,,,,,,,,,,,
null,,color_black2,1307607,,,,black_plus_sign,,,null,,,,,,,,,,,,,,,,,,,,,,,
null,,learn_phase(without_color)2,1311114,,,,black_plus_sign,,,null,object_05b.png,object_04c.png,,,,,,,,,,,,,,,,,,,,,
null,,black_cross(without_color)2,1312150,,,,green,,,null,object_05b.png,object_04c.png,,,,,,,,,,,,,,,,,,,,,
null,,rt_plussign_withcolor2,1312660,,,,green,,,null,object_05b.png,object_04c.png,,,,,,,,,,,,,,,,,,,,,
683.4000000003725,,rt_thecrossant_black2,1313645,,,,black_plus_sign,,,50,,,1,,,,,,,1,,,,,,,,,,,,,
null,,color_black2,1313757,,,,black_plus_sign,,,null,,,,,,,,,,,,,,,,,,,,,,,
null,,learn_phase(without_color)2,1317265,,,,black_plus_sign,,,null,object_01c.png,object_12b.png,,,,,,,,,,,,,,,,,,,,,
null,,black_cross(without_color)2,1318164,,,,green,,,null,object_01c.png,object_12b.png,,,,,,,,,,,,,,,,,,,,,
391.40000000037253,,rt_plussign_withcolor2,1318671,,,,green,,,50,object_01c.png,object_12b.png,,,,,,,,,,,,,,,,,,,,,
null,,rt_thecrossant_black2,1319793,,,,black_plus_sign,,,50,,,1,,,,,,,1,,,,,,,,,,,,,
null,,color_black2,1319908,,,,black_plus_sign,,,null,,,,,,,,,,,,,,,,,,,,,,,
null,,learn_phase(without_color)2,1323410,,,,black_plus_sign,,,null,object_09a.png,object_08b.png,,,,,,,,,,,,,,,,,,,,,
null,,black_cross(without_color)2,1323995,,,,blue,,,null,object_09a.png,object_08b.png,,,,,,,,,,,,,,,,,,,,,
null,,rt_plussign_withcolor2,1324501,,,,blue,,,null,object_09a.png,object_08b.png,,,,,,,,,,,,,,,,,,,,,
1064.9000000003725,,rt_thecrossant_black2,1325942,,,,black_plus_sign,,,49,,,1,,,,,,,1,,,,,,,,,,,,,
null,,color_black2,1326055,,,,black_plus_sign,,,null,,,,,,,,,,,,,,,,,,,,,,,
null,,learn_phase(without_color)2,1329567,,,,black_plus_sign,,,null,object_13b.png,object_09c.png,,,,,,,,,,,,,,,,,,,,,
null,,black_cross(without_color)2,1330074,,,,green,,,null,object_13b.png,object_09c.png,,,,,,,,,,,,,,,,,,,,,
null,,rt_plussign_withcolor2,1330590,,,,green,,,null,object_13b.png,object_09c.png,,,,,,,,,,,,,,,,,,,,,
889.4000000003725,,rt_thecrossant_black2,1332105,,,,black_plus_sign,,,50,,,1,,,,,,,1,,,,,,,,,,,,,
null,,color_black2,1332208,,,,black_plus_sign,,,null,,,,,,,,,,,,,,,,,,,,,,,
null,,learn_phase(without_color)2,1335717,,,,black_plus_sign,,,null,object_05a.png,object_10c.png,,,,,,,,,,,,,,,,,,,,,
null,,black_cross(without_color)2,1336217,,,,green,,,null,object_05a.png,object_10c.png,,,,,,,,,,,,,,,,,,,,,
null,,rt_plussign_withcolor2,1336724,,,,green,,,null,object_05a.png,object_10c.png,,,,,,,,,,,,,,,,,,,,,
771.5,,rt_thecrossant_black2,1338243,,,,black_plus_sign,,,50,,,1,,,,,,,1,,,,,,,,,,,,,
null,,color_black2,1338358,,,,black_plus_sign,,,null,,,,,,,,,,,,,,,,,,,,,,,
null,,learn_phase(without_color)2,1341866,,,,black_plus_sign,,,null,object_14b.png,object_12c.png,,,,,,,,,,,,,,,,,,,,,
null,,black_cross(without_color)2,1342673,,,,green,,,null,object_14b.png,object_12c.png,,,,,,,,,,,,,,,,,,,,,
null,,rt_plussign_withcolor2,1343188,,,,green,,,null,object_14b.png,object_12c.png,,,,,,,,,,,,,,,,,,,,,
858.9000000003725,,rt_thecrossant_black2,1344395,,,,black_plus_sign,,,50,,,1,,,,,,,1,,,,,,,,,,,,,
null,,color_black2,1344508,,,,black_plus_sign,,,null,,,,,,,,,,,,,,,,,,,,,,,
null,,learn_phase(without_color)2,1348014,,,,black_plus_sign,,,null,object_10b.png,object_04a.png,,,,,,,,,,,,,,,,,,,,,
null,,black_cross(without_color)2,1348851,,,,blue,,,null,object_10b.png,object_04a.png,,,,,,,,,,,,,,,,,,,,,
null,,rt_plussign_withcolor2,1349352,,,,blue,,,null,object_10b.png,object_04a.png,,,,,,,,,,,,,,,,,,,,,
1405.7999999998137,,rt_thecrossant_black2,1350521,,,,black_plus_sign,,,49,,,1,,,,,,,1,,,,,,,,,,,,,
null,,color_black2,1350625,,,,black_plus_sign,,,null,,,,,,,,,,,,,,,,,,,,,,,
null,,learn_phase(without_color)2,1354141,,,,black_plus_sign,,,null,object_14a.png,object_02c.png,,,,,,,,,,,,,,,,,,,,,
null,,black_cross(without_color)2,1354977,,,,blue,,,null,object_14a.png,object_02c.png,,,,,,,,,,,,,,,,,,,,,
null,,rt_plussign_withcolor2,1355486,,,,blue,,,null,object_14a.png,object_02c.png,,,,,,,,,,,,,,,,,,,,,
1219.5,,rt_thecrossant_black2,1356655,,,,black_plus_sign,,,49,,,1,,,,,,,1,,,,,,,,,,,,,
null,,color_black2,1356758,,,,black_plus_sign,,,null,,,,,,,,,,,,,,,,,,,,,,,
null,,learn_phase(without_color)2,1360272,,,,black_plus_sign,,,null,object_03b.png,object_05a.png,,,,,,,,,,,,,,,,,,,,,
null,,black_cross(without_color)2,1360830,,,,green,,,null,object_03b.png,object_05a.png,,,,,,,,,,,,,,,,,,,,,
492.29999999981374,,rt_plussign_withcolor2,1361332,,,,green,,,50,object_03b.png,object_05a.png,,,,,,,,,,,,,,,,,,,,,
null,,rt_thecrossant_black2,1362801,,,,black_plus_sign,,,50,,,1,,,,,,,1,,,,,,,,,,,,,
null,,color_black2,1362909,,,,black_plus_sign,,,null,,,,,,,,,,,,,,,,,,,,,,,
null,,learn_phase(without_color)2,1366413,,,,black_plus_sign,,,null,object_11b.png,object_08a.png,,,,,,,,,,,,,,,,,,,,,
null,,black_cross(without_color)2,1366879,,,,blue,,,null,object_11b.png,object_08a.png,,,,,,,,,,,,,,,,,,,,,
null,,rt_plussign_withcolor2,1367390,,,,blue,,,null,object_11b.png,object_08a.png,,,,,,,,,,,,,,,,,,,,,
704.0999999996275,,rt_thecrossant_black2,1368938,,,,black_plus_sign,,,49,,,1,,,,,,,1,,,,,,,,,,,,,
null,,color_black2,1369042,,,,black_plus_sign,,,null,,,,,,,,,,,,,,,,,,,,,,,
null,,thebreak,1369158,,,,<p></p>,,,null,,,,,,,,,,,,,,,,,,,,,,,
2132.5,,intro_0,1371291,,,,instruct,,,32,,,,,,,,,,,,,,,,,,,,,,,
2567.2999999998137,,directmemory_phase2,1373859,,,,object_11c.png,,,51,,,0,,object_08a.png,object_09c.png,object_07a.png,object_09c.png,,0.3225806451612903,,0,,,,,,,,,,,
2182.9000000003725,,directmemory_phase2,1376043,,,,object_03b.png,,,50,,,0,,object_05a.png,object_11b.png,object_12a.png,object_05a.png,,0.3125,,0,,,,,,,,,,,
3431.5999999996275,,directmemory_phase2,1379476,,,,object_01b.png,,,49,,,0,,object_07a.png,object_03a.png,object_10c.png,object_03a.png,,0.30303030303030304,,0,,,,,,,,,,,
3150.0999999996275,,directmemory_phase2,1382627,,,,object_12b.png,,,51,,,0,,object_10c.png,object_01c.png,object_06c.png,object_01c.png,,0.29411764705882354,,0,,,,,,,,,,,
1902.7999999998137,,directmemory_phase2,1384531,,,,object_01a.png,,,51,,,0,,object_07c.png,object_11b.png,object_04b.png,object_07c.png,,0.2857142857142857,,0,,,,,,,,,,,
2526.7999999998137,,directmemory_phase2,1387059,,,,object_04c.png,,,50,,,0,,object_15a.png,object_04a.png,object_05a.png,object_15a.png,,0.2777777777777778,,0,,,,,,,,,,,
2775.5,,directmemory_phase2,1389836,,,,object_09a.png,,,50,,,1,,object_15c.png,object_11a.png,object_04a.png,object_11a.png,,0.2972972972972973,,1,,,,,,,,,,,
3078,,directmemory_phase2,1392915,,,,object_10c.png,,,51,,,0,,object_09b.png,object_05a.png,object_07a.png,object_05a.png,,0.2894736842105263,,0,,,,,,,,,,,
4286.9000000003725,,directmemory_phase2,1397203,,,,object_13b.png,,,51,,,0,,object_09c.png,object_01c.png,object_07b.png,object_09c.png,,0.28205128205128205,,0,,,,,,,,,,,
4223.4000000003725,,directmemory_phase2,1401428,,,,object_13c.png,,,50,,,0,,object_02c.png,object_04b.png,object_07a.png,object_07a.png,,0.275,,0,,,,,,,,,,,
4350.200000000186,,directmemory_phase2,1405780,,,,object_02b.png,,,50,,,1,,object_12a.png,object_06c.png,object_02c.png,object_06c.png,,0.2926829268292683,,1,,,,,,,,,,,
1790.5999999996275,,directmemory_phase2,1407571,,,,object_12c.png,,,51,,,0,,object_14b.png,object_10b.png,object_13b.png,object_14b.png,,0.2857142857142857,,0,,,,,,,,,,,
3014.800000000745,,directmemory_phase2,1410587,,,,object_05c.png,,,51,,,0,,object_14b.png,object_10b.png,object_08c.png,object_14b.png,,0.27906976744186046,,0,,,,,,,,,,,
5519.199999999255,,directmemory_phase2,1416108,,,,object_12a.png,,,50,,,1,,object_14a.png,object_10b.png,object_11b.png,object_10b.png,,0.29545454545454547,,1,,,,,,,,,,,
4126,,directmemory_phase2,1420235,,,,object_10a.png,,,50,,,0,,object_04b.png,object_07b.png,object_05a.png,object_04b.png,,0.28888888888888886,,0,,,,,,,,,,,
2246.800000000745,,directmemory_phase2,1422483,,,,object_06a.png,,,51,,,1,,object_06c.png,object_08b.png,object_07c.png,object_07c.png,,0.30434782608695654,,1,,,,,,,,,,,
5967.5,,directmemory_phase2,1428452,,,,object_15b.png,,,49,,,0,,object_05a.png,object_14a.png,object_01b.png,object_01b.png,,0.2978723404255319,,0,,,,,,,,,,,
3501.899999999441,,directmemory_phase2,1431955,,,,object_05b.png,,,51,,,0,,object_04c.png,object_09a.png,object_02a.png,object_04c.png,,0.2916666666666667,,0,,,,,,,,,,,
5894.9000000003725,,directmemory_phase2,1437852,,,,object_15c.png,,,50,,,0,,object_09b.png,object_07b.png,object_11b.png,object_09b.png,,0.2857142857142857,,0,,,,,,,,,,,
1735.3999999994412,,directmemory_phase2,1439588,,,,object_10b.png,,,49,,,0,,object_11b.png,object_04a.png,object_13b.png,object_04a.png,,0.28,,0,,,,,,,,,,,
1902,,directmemory_phase2,1441491,,,,object_08a.png,,,49,,,0,,object_05c.png,object_11b.png,object_10b.png,object_11b.png,,0.27450980392156865,,0,,,,,,,,,,,
2174.9000000003725,,directmemory_phase2,1443668,,,,object_06b.png,,,51,,,1,,object_05a.png,object_08a.png,object_10a.png,object_10a.png,,0.28846153846153844,,1,,,,,,,,,,,
3454.600000000559,,directmemory_phase2,1447123,,,,object_03c.png,,,51,,,0,,object_02c.png,object_14b.png,object_12b.png,object_02c.png,,0.2830188679245283,,0,,,,,,,,,,,
1910.7999999998137,,directmemory_phase2,1449036,,,,object_11b.png,,,50,,,1,,object_07a.png,object_07b.png,object_03c.png,object_07b.png,,0.2962962962962963,,1,,,,,,,,,,,
4015.4000000003725,,directmemory_phase2,1453052,,,,object_02a.png,,,49,,,0,,object_02b.png,object_07a.png,object_01c.png,object_07a.png,,0.2909090909090909,,0,,,,,,,,,,,
4982,,directmemory_phase2,1458036,,,,object_08b.png,,,50,,,1,,object_06b.png,object_09a.png,object_14b.png,object_09a.png,,0.30357142857142855,,1,,,,,,,,,,,
1822.7999999998137,,directmemory_phase2,1459860,,,,object_14c.png,,,49,,,1,,object_01c.png,object_05a.png,object_06a.png,object_01c.png,,0.3157894736842105,,1,,,,,,,,,,,
4759.4000000003725,,directmemory_phase2,1464620,,,,object_08c.png,,,49,,,0,,object_01b.png,object_06a.png,object_15c.png,object_15c.png,,0.3103448275862069,,0,,,,,,,,,,,
3814.0999999996275,,directmemory_phase2,1468436,,,,object_13a.png,,,49,,,1,,object_06c.png,object_07c.png,object_12b.png,object_06c.png,,0.3220338983050847,,1,,,,,,,,,,,
14423.5,,directmemory_phase2,1482860,,,,object_14a.png,,,49,,,1,,object_02c.png,object_05a.png,object_08b.png,object_02c.png,,0.3333333333333333,,1,,,,,,,,,,,
null,,thebreak,1482963,,,,<p></p>,,,null,,,,,,,,,,,,,,,,,,,,,,,
88625,,intro_0,1571589,,,,instruct,,,32,,,,,,,,,,,,,,,,,,,,,,,
null,,learn_phase(without_color)3,1575090,,,,black_plus_sign,,,null,object_13c.png,object_07a.png,,,,,,,,,,,,,,,,,,,,,
null,,black_cross(without_color)3,1575712,,,,blue,,,null,object_13c.png,object_07a.png,,,,,,,,,,,,,,,,,,,,,
null,,rt_plussign_withcolor3,1576222,,,,blue,,,null,object_13c.png,object_07a.png,,,,,,,,,,,,,,,,,,,,,
935.8999999994412,,rt_thecrossant_black3,1577628,,,,black_plus_sign,,,49,,,1,,,,,,,1,,,,,,,,,,,,,
null,,color_black3,1577733,,,,black_plus_sign,,,null,,,,,,,,,,,,,,,,,,,,,,,
null,,learn_phase(without_color)3,1581235,,,,black_plus_sign,,,null,object_05b.png,object_04c.png,,,,,,,,,,,,,,,,,,,,,
null,,black_cross(without_color)3,1581907,,,,blue,,,null,object_05b.png,object_04c.png,,,,,,,,,,,,,,,,,,,,,
null,,rt_plussign_withcolor3,1582412,,,,blue,,,null,object_05b.png,object_04c.png,,,,,,,,,,,,,,,,,,,,,
714.5999999996275,,rt_thecrossant_black3,1583744,,,,black_plus_sign,,,49,,,1,,,,,,,1,,,,,,,,,,,,,
null,,color_black3,1583849,,,,black_plus_sign,,,null,,,,,,,,,,,,,,,,,,,,,,,
null,,learn_phase(without_color)3,1587364,,,,black_plus_sign,,,null,object_15a.png,object_04c.png,,,,,,,,,,,,,,,,,,,,,
null,,black_cross(without_color)3,1587789,,,,green,,,null,object_15a.png,object_04c.png,,,,,,,,,,,,,,,,,,,,,
493.59999999962747,,rt_plussign_withcolor3,1588290,,,,green,,,50,object_15a.png,object_04c.png,,,,,,,,,,,,,,,,,,,,,
null,,rt_thecrossant_black3,1589890,,,,black_plus_sign,,,50,,,1,,,,,,,1,,,,,,,,,,,,,
null,,color_black3,1590000,,,,black_plus_sign,,,null,,,,,,,,,,,,,,,,,,,,,,,
null,,learn_phase(without_color)3,1593506,,,,black_plus_sign,,,null,object_09a.png,object_08b.png,,,,,,,,,,,,,,,,,,,,,
null,,black_cross(without_color)3,1594197,,,,blue,,,null,object_09a.png,object_08b.png,,,,,,,,,,,,,,,,,,,,,
431.29999999981374,,rt_plussign_withcolor3,1594700,,,,blue,,,50,object_09a.png,object_08b.png,,,,,,,,,,,,,,,,,,,,,
null,,rt_thecrossant_black3,1596035,,,,black_plus_sign,,,49,,,0,,,,,,,0.75,,,,,,,,,,,,,
null,,warning_page,1601040,,,,warning,,,null,,,,,,,,,,,,,,,,,,,,,,,
null,,color_black3,1601150,,,,black_plus_sign,,,null,,,,,,,,,,,,,,,,,,,,,,,
null,,learn_phase(without_color)3,1604652,,,,black_plus_sign,,,null,object_11b.png,object_08a.png,,,,,,,,,,,,,,,,,,,,,
null,,black_cross(without_color)3,1605416,,,,green,,,null,object_11b.png,object_08a.png,,,,,,,,,,,,,,,,,,,,,
468.29999999981374,,rt_plussign_withcolor3,1605919,,,,green,,,50,object_11b.png,object_08a.png,,,,,,,,,,,,,,,,,,,,,
null,,rt_thecrossant_black3,1607180,,,,black_plus_sign,,,50,,,1,,,,,,,0.8,,,,,,,,,,,,,
null,,color_black3,1607283,,,,black_plus_sign,,,null,,,,,,,,,,,,,,,,,,,,,,,
null,,learn_phase(without_color)3,1610794,,,,black_plus_sign,,,null,object_01c.png,object_12b.png,,,,,,,,,,,,,,,,,,,,,
null,,black_cross(without_color)3,1611487,,,,blue,,,null,object_01c.png,object_12b.png,,,,,,,,,,,,,,,,,,,,,
388.5,,rt_plussign_withcolor3,1611998,,,,blue,,,49,object_01c.png,object_12b.png,,,,,,,,,,,,,,,,,,,,,
null,,rt_thecrossant_black3,1613330,,,,black_plus_sign,,,49,,,1,,,,,,,0.8333333333333334,,,,,,,,,,,,,
null,,color_black3,1613434,,,,black_plus_sign,,,null,,,,,,,,,,,,,,,,,,,,,,,
null,,learn_phase(without_color)3,1616950,,,,black_plus_sign,,,null,object_03b.png,object_05a.png,,,,,,,,,,,,,,,,,,,,,
null,,black_cross(without_color)3,1617431,,,,green,,,null,object_03b.png,object_05a.png,,,,,,,,,,,,,,,,,,,,,
null,,rt_plussign_withcolor3,1617935,,,,green,,,null,object_03b.png,object_05a.png,,,,,,,,,,,,,,,,,,,,,
877.1000000005588,,rt_thecrossant_black3,1619466,,,,black_plus_sign,,,50,,,1,,,,,,,0.8571428571428571,,,,,,,,,,,,,
null,,color_black3,1619568,,,,black_plus_sign,,,null,,,,,,,,,,,,,,,,,,,,,,,
null,,learn_phase(without_color)3,1623082,,,,black_plus_sign,,,null,object_09c.png,object_13b.png,,,,,,,,,,,,,,,,,,,,,
null,,black_cross(without_color)3,1623959,,,,blue,,,null,object_09c.png,object_13b.png,,,,,,,,,,,,,,,,,,,,,
436.5,,rt_plussign_withcolor3,1624467,,,,blue,,,49,object_09c.png,object_13b.png,,,,,,,,,,,,,,,,,,,,,
null,,rt_thecrossant_black3,1625617,,,,black_plus_sign,,,49,,,1,,,,,,,0.875,,,,,,,,,,,,,
null,,color_black3,1625719,,,,black_plus_sign,,,null,,,,,,,,,,,,,,,,,,,,,,,
null,,learn_phase(without_color)3,1629235,,,,black_plus_sign,,,null,object_02a.png,object_07a.png,,,,,,,,,,,,,,,,,,,,,
null,,black_cross(without_color)3,1630333,,,,blue,,,null,object_02a.png,object_07a.png,,,,,,,,,,,,,,,,,,,,,
null,,rt_plussign_withcolor3,1630840,,,,blue,,,null,object_02a.png,object_07a.png,,,,,,,,,,,,,,,,,,,,,
1121.9000000003725,,rt_thecrossant_black3,1631748,,,,black_plus_sign,,,49,,,1,,,,,,,0.8888888888888888,,,,,,,,,,,,,
null,,color_black3,1631850,,,,black_plus_sign,,,null,,,,,,,,,,,,,,,,,,,,,,,
null,,learn_phase(without_color)3,1635363,,,,black_plus_sign,,,null,object_10c.png,object_05a.png,,,,,,,,,,,,,,,,,,,,,
null,,black_cross(without_color)3,1636253,,,,green,,,null,object_10c.png,object_05a.png,,,,,,,,,,,,,,,,,,,,,
null,,rt_plussign_withcolor3,1636761,,,,green,,,null,object_10c.png,object_05a.png,,,,,,,,,,,,,,,,,,,,,
1295.2999999998137,,rt_thecrossant_black3,1637881,,,,black_plus_sign,,,50,,,1,,,,,,,0.9,,,,,,,,,,,,,
null,,color_black3,1637984,,,,black_plus_sign,,,null,,,,,,,,,,,,,,,,,,,,,,,
null,,learn_phase(without_color)3,1641493,,,,black_plus_sign,,,null,object_12a.png,object_10b.png,,,,,,,,,,,,,,,,,,,,,
null,,black_cross(without_color)3,1642335,,,,blue,,,null,object_12a.png,object_10b.png,,,,,,,,,,,,,,,,,,,,,
null,,rt_plussign_withcolor3,1642847,,,,blue,,,null,object_12a.png,object_10b.png,,,,,,,,,,,,,,,,,,,,,
1016.7000000001863,,rt_thecrossant_black3,1644028,,,,black_plus_sign,,,49,,,1,,,,,,,0.9090909090909091,,,,,,,,,,,,,
null,,color_black3,1644136,,,,black_plus_sign,,,null,,,,,,,,,,,,,,,,,,,,,,,
null,,learn_phase(without_color)3,1647639,,,,black_plus_sign,,,null,object_15c.png,object_09b.png,,,,,,,,,,,,,,,,,,,,,
null,,black_cross(without_color)3,1648342,,,,blue,,,null,object_15c.png,object_09b.png,,,,,,,,,,,,,,,,,,,,,
null,,rt_plussign_withcolor3,1648847,,,,blue,,,null,object_15c.png,object_09b.png,,,,,,,,,,,,,,,,,,,,,
1060.5,,rt_thecrossant_black3,1650163,,,,black_plus_sign,,,49,,,1,,,,,,,0.9166666666666666,,,,,,,,,,,,,
null,,color_black3,1650268,,,,black_plus_sign,,,null,,,,,,,,,,,,,,,,,,,,,,,
null,,learn_phase(without_color)3,1653776,,,,black_plus_sign,,,null,object_02c.png,object_14a.png,,,,,,,,,,,,,,,,,,,,,
null,,black_cross(without_color)3,1654533,,,,blue,,,null,object_02c.png,object_14a.png,,,,,,,,,,,,,,,,,,,,,
null,,rt_plussign_withcolor3,1655047,,,,blue,,,null,object_02c.png,object_14a.png,,,,,,,,,,,,,,,,,,,,,
919.0999999996275,,rt_thecrossant_black3,1656308,,,,black_plus_sign,,,49,,,1,,,,,,,0.9230769230769231,,,,,,,,,,,,,
null,,color_black3,1656418,,,,black_plus_sign,,,null,,,,,,,,,,,,,,,,,,,,,,,
null,,learn_phase(without_color)3,1659921,,,,black_plus_sign,,,null,object_04a.png,object_10b.png,,,,,,,,,,,,,,,,,,,,,
null,,black_cross(without_color)3,1660523,,,,blue,,,null,object_04a.png,object_10b.png,,,,,,,,,,,,,,,,,,,,,
null,,rt_plussign_withcolor3,1661030,,,,blue,,,null,object_04a.png,object_10b.png,,,,,,,,,,,,,,,,,,,,,
1056.1000000005588,,rt_thecrossant_black3,1662439,,,,black_plus_sign,,,49,,,1,,,,,,,0.9285714285714286,,,,,,,,,,,,,
null,,color_black3,1662552,,,,black_plus_sign,,,null,,,,,,,,,,,,,,,,,,,,,,,
null,,learn_phase(without_color)3,1666067,,,,black_plus_sign,,,null,object_11c.png,object_09c.png,,,,,,,,,,,,,,,,,,,,,
null,,black_cross(without_color)3,1666959,,,,blue,,,null,object_11c.png,object_09c.png,,,,,,,,,,,,,,,,,,,,,
null,,rt_plussign_withcolor3,1667462,,,,blue,,,null,object_11c.png,object_09c.png,,,,,,,,,,,,,,,,,,,,,
788.5,,rt_thecrossant_black3,1668580,,,,black_plus_sign,,,49,,,1,,,,,,,0.9333333333333333,,,,,,,,,,,,,
null,,color_black3,1668686,,,,black_plus_sign,,,null,,,,,,,,,,,,,,,,,,,,,,,
null,,learn_phase(without_color)3,1672191,,,,black_plus_sign,,,null,object_14c.png,object_01c.png,,,,,,,,,,,,,,,,,,,,,
null,,black_cross(without_color)3,1672815,,,,green,,,null,object_14c.png,object_01c.png,,,,,,,,,,,,,,,,,,,,,
null,,rt_plussign_withcolor3,1673327,,,,green,,,null,object_14c.png,object_01c.png,,,,,,,,,,,,,,,,,,,,,
1036,,rt_thecrossant_black3,1674733,,,,black_plus_sign,,,50,,,1,,,,,,,0.9375,,,,,,,,,,,,,
null,,color_black3,1674835,,,,black_plus_sign,,,null,,,,,,,,,,,,,,,,,,,,,,,
null,,learn_phase(without_color)3,1678347,,,,black_plus_sign,,,null,object_07c.png,object_01a.png,,,,,,,,,,,,,,,,,,,,,
null,,black_cross(without_color)3,1679351,,,,green,,,null,object_07c.png,object_01a.png,,,,,,,,,,,,,,,,,,,,,
null,,rt_plussign_withcolor3,1679866,,,,green,,,null,object_07c.png,object_01a.png,,,,,,,,,,,,,,,,,,,,,
719.0999999996275,,rt_thecrossant_black3,1680876,,,,black_plus_sign,,,50,,,1,,,,,,,0.9411764705882353,,,,,,,,,,,,,
null,,color_black3,1680986,,,,black_plus_sign,,,null,,,,,,,,,,,,,,,,,,,,,,,
null,,learn_phase(without_color)3,1684503,,,,black_plus_sign,,,null,object_12c.png,object_14b.png,,,,,,,,,,,,,,,,,,,,,
null,,black_cross(without_color)3,1684932,,,,blue,,,null,object_12c.png,object_14b.png,,,,,,,,,,,,,,,,,,,,,
null,,rt_plussign_withcolor3,1685444,,,,blue,,,null,object_12c.png,object_14b.png,,,,,,,,,,,,,,,,,,,,,
1179.6000000005588,,rt_thecrossant_black3,1687030,,,,black_plus_sign,,,49,,,1,,,,,,,0.9444444444444444,,,,,,,,,,,,,
null,,color_black3,1687137,,,,black_plus_sign,,,null,,,,,,,,,,,,,,,,,,,,,,,
null,,learn_phase(without_color)3,1690639,,,,black_plus_sign,,,null,object_10a.png,object_06b.png,,,,,,,,,,,,,,,,,,,,,
null,,black_cross(without_color)3,1691104,,,,green,,,null,object_10a.png,object_06b.png,,,,,,,,,,,,,,,,,,,,,
null,,rt_plussign_withcolor3,1691610,,,,green,,,null,object_10a.png,object_06b.png,,,,,,,,,,,,,,,,,,,,,
525.7000000001863,,rt_thecrossant_black3,1693162,,,,black_plus_sign,,,50,,,1,,,,,,,0.9473684210526315,,,,,,,,,,,,,
null,,color_black3,1693269,,,,black_plus_sign,,,null,,,,,,,,,,,,,,,,,,,,,,,
null,,learn_phase(without_color)3,1696785,,,,black_plus_sign,,,null,object_15b.png,object_01b.png,,,,,,,,,,,,,,,,,,,,,
null,,black_cross(without_color)3,1697426,,,,green,,,null,object_15b.png,object_01b.png,,,,,,,,,,,,,,,,,,,,,
null,,rt_plussign_withcolor3,1697936,,,,green,,,null,object_15b.png,object_01b.png,,,,,,,,,,,,,,,,,,,,,
664.7999999998137,,rt_thecrossant_black3,1699312,,,,black_plus_sign,,,50,,,1,,,,,,,0.95,,,,,,,,,,,,,
null,,color_black3,1699419,,,,black_plus_sign,,,null,,,,,,,,,,,,,,,,,,,,,,,
null,,learn_phase(without_color)3,1702925,,,,black_plus_sign,,,null,object_03a.png,object_01b.png,,,,,,,,,,,,,,,,,,,,,
null,,black_cross(without_color)3,1703876,,,,blue,,,null,object_03a.png,object_01b.png,,,,,,,,,,,,,,,,,,,,,
null,,rt_plussign_withcolor3,1704379,,,,blue,,,null,object_03a.png,object_01b.png,,,,,,,,,,,,,,,,,,,,,
824.5,,rt_thecrossant_black3,1705445,,,,black_plus_sign,,,49,,,1,,,,,,,0.9523809523809523,,,,,,,,,,,,,
null,,color_black3,1705553,,,,black_plus_sign,,,null,,,,,,,,,,,,,,,,,,,,,,,
null,,learn_phase(without_color)3,1709069,,,,black_plus_sign,,,null,object_11a.png,object_09a.png,,,,,,,,,,,,,,,,,,,,,
null,,black_cross(without_color)3,1709712,,,,green,,,null,object_11a.png,object_09a.png,,,,,,,,,,,,,,,,,,,,,
null,,rt_plussign_withcolor3,1710213,,,,green,,,null,object_11a.png,object_09a.png,,,,,,,,,,,,,,,,,,,,,
1279.300000000745,,rt_thecrossant_black3,1711599,,,,black_plus_sign,,,50,,,1,,,,,,,0.9545454545454546,,,,,,,,,,,,,
null,,color_black3,1711704,,,,black_plus_sign,,,null,,,,,,,,,,,,,,,,,,,,,,,
null,,learn_phase(without_color)3,1715207,,,,black_plus_sign,,,null,object_03c.png,object_02c.png,,,,,,,,,,,,,,,,,,,,,
null,,black_cross(without_color)3,1715881,,,,green,,,null,object_03c.png,object_02c.png,,,,,,,,,,,,,,,,,,,,,
null,,rt_plussign_withcolor3,1716395,,,,green,,,null,object_03c.png,object_02c.png,,,,,,,,,,,,,,,,,,,,,
823.5999999996275,,rt_thecrossant_black3,1717735,,,,black_plus_sign,,,50,,,1,,,,,,,0.9565217391304348,,,,,,,,,,,,,
null,,color_black3,1717837,,,,black_plus_sign,,,null,,,,,,,,,,,,,,,,,,,,,,,
null,,learn_phase(without_color)3,1721341,,,,black_plus_sign,,,null,object_10a.png,object_04b.png,,,,,,,,,,,,,,,,,,,,,
null,,black_cross(without_color)3,1721862,,,,green,,,null,object_10a.png,object_04b.png,,,,,,,,,,,,,,,,,,,,,
492.90000000037253,,rt_plussign_withcolor3,1722363,,,,green,,,50,object_10a.png,object_04b.png,,,,,,,,,,,,,,,,,,,,,
null,,rt_thecrossant_black3,1723853,,,,black_plus_sign,,,50,,,1,,,,,,,0.9583333333333334,,,,,,,,,,,,,
null,,color_black3,1723969,,,,black_plus_sign,,,null,,,,,,,,,,,,,,,,,,,,,,,
null,,learn_phase(without_color)3,1727472,,,,black_plus_sign,,,null,object_11b.png,object_07b.png,,,,,,,,,,,,,,,,,,,,,
null,,black_cross(without_color)3,1728042,,,,blue,,,null,object_11b.png,object_07b.png,,,,,,,,,,,,,,,,,,,,,
null,,rt_plussign_withcolor3,1728556,,,,blue,,,null,object_11b.png,object_07b.png,,,,,,,,,,,,,,,,,,,,,
670.1999999992549,,rt_thecrossant_black3,1730010,,,,black_plus_sign,,,49,,,1,,,,,,,0.96,,,,,,,,,,,,,
null,,color_black3,1730121,,,,black_plus_sign,,,null,,,,,,,,,,,,,,,,,,,,,,,
null,,learn_phase(without_color)3,1733638,,,,black_plus_sign,,,null,object_14b.png,object_05c.png,,,,,,,,,,,,,,,,,,,,,
null,,black_cross(without_color)3,1734563,,,,blue,,,null,object_14b.png,object_05c.png,,,,,,,,,,,,,,,,,,,,,
null,,rt_plussign_withcolor3,1735064,,,,blue,,,null,object_14b.png,object_05c.png,,,,,,,,,,,,,,,,,,,,,
761.0999999996275,,rt_thecrossant_black3,1736152,,,,black_plus_sign,,,49,,,1,,,,,,,0.9615384615384616,,,,,,,,,,,,,
null,,color_black3,1736254,,,,black_plus_sign,,,null,,,,,,,,,,,,,,,,,,,,,,,
null,,learn_phase(without_color)3,1739765,,,,black_plus_sign,,,null,object_06c.png,object_02b.png,,,,,,,,,,,,,,,,,,,,,
null,,black_cross(without_color)3,1740300,,,,green,,,null,object_06c.png,object_02b.png,,,,,,,,,,,,,,,,,,,,,
null,,rt_plussign_withcolor3,1740812,,,,green,,,null,object_06c.png,object_02b.png,,,,,,,,,,,,,,,,,,,,,
1071.5999999996275,,rt_thecrossant_black3,1742295,,,,black_plus_sign,,,50,,,1,,,,,,,0.9629629629629629,,,,,,,,,,,,,
null,,color_black3,1742404,,,,black_plus_sign,,,null,,,,,,,,,,,,,,,,,,,,,,,
null,,learn_phase(without_color)3,1745911,,,,black_plus_sign,,,null,object_07c.png,object_06a.png,,,,,,,,,,,,,,,,,,,,,
null,,black_cross(without_color)3,1746756,,,,green,,,null,object_07c.png,object_06a.png,,,,,,,,,,,,,,,,,,,,,
null,,rt_plussign_withcolor3,1747259,,,,green,,,null,object_07c.png,object_06a.png,,,,,,,,,,,,,,,,,,,,,
735,,rt_thecrossant_black3,1748431,,,,black_plus_sign,,,50,,,1,,,,,,,0.9642857142857143,,,,,,,,,,,,,
null,,color_black3,1748538,,,,black_plus_sign,,,null,,,,,,,,,,,,,,,,,,,,,,,
null,,learn_phase(without_color)3,1752050,,,,black_plus_sign,,,null,object_13a.png,object_06c.png,,,,,,,,,,,,,,,,,,,,,
null,,black_cross(without_color)3,1752844,,,,green,,,null,object_13a.png,object_06c.png,,,,,,,,,,,,,,,,,,,,,
null,,rt_plussign_withcolor3,1753345,,,,green,,,null,object_13a.png,object_06c.png,,,,,,,,,,,,,,,,,,,,,
1261,,rt_thecrossant_black3,1754563,,,,black_plus_sign,,,50,,,1,,,,,,,0.9655172413793104,,,,,,,,,,,,,
null,,color_black3,1754672,,,,black_plus_sign,,,null,,,,,,,,,,,,,,,,,,,,,,,
null,,learn_phase(without_color)3,1758173,,,,black_plus_sign,,,null,object_15c.png,object_08c.png,,,,,,,,,,,,,,,,,,,,,
null,,black_cross(without_color)3,1759262,,,,green,,,null,object_15c.png,object_08c.png,,,,,,,,,,,,,,,,,,,,,
null,,rt_plussign_withcolor3,1759764,,,,green,,,null,object_15c.png,object_08c.png,,,,,,,,,,,,,,,,,,,,,
1033.800000000745,,rt_thecrossant_black3,1760686,,,,black_plus_sign,,,50,,,1,,,,,,,0.9666666666666667,,,,,,,,,,,,,
null,,color_black3,1760788,,,,black_plus_sign,,,null,,,,,,,,,,,,,,,,,,,,,,,
null,,thebreak,1760904,,,,<p></p>,,,null,,,,,,,,,,,,,,,,,,,,,,,
10060.299999999814,,intro_0,1770965,,,,instruct,,,32,,,,,,,,,,,,,,,,,,,,,,,
2462.300000000745,,directmemory_phase3,1773428,,,,object_12a.png,,,49,,,0,,object_14b.png,object_11c.png,object_10b.png,object_10b.png,,0.32786885245901637,,0,,,,,,,,,,,
2782.7999999998137,,directmemory_phase3,1776212,,,,object_15c.png,,,50,,,0,,object_04a.png,object_01c.png,object_09b.png,object_09b.png,,0.3225806451612903,,0,,,,,,,,,,,
2806.7000000001863,,directmemory_phase3,1779020,,,,object_02b.png,,,49,,,1,,object_06c.png,object_07a.png,object_12a.png,object_06c.png,,0.3333333333333333,,1,,,,,,,,,,,
2391.4000000003725,,directmemory_phase3,1781413,,,,object_05c.png,,,51,,,0,,object_08c.png,object_14b.png,object_11b.png,object_14b.png,,0.328125,,0,,,,,,,,,,,
2366,,directmemory_phase3,1783780,,,,object_07b.png,,,51,,,1,,object_14b.png,object_13b.png,object_11b.png,object_11b.png,,0.3384615384615385,,1,,,,,,,,,,,
1734.7000000001863,,directmemory_phase3,1785516,,,,object_02a.png,,,50,,,0,,object_07a.png,object_06c.png,object_05c.png,object_07a.png,,0.3333333333333333,,0,,,,,,,,,,,
3718.7000000001863,,directmemory_phase3,1789236,,,,object_09c.png,,,49,,,0,,object_05a.png,object_13b.png,object_13c.png,object_13b.png,,0.3283582089552239,,0,,,,,,,,,,,
5015.5,,directmemory_phase3,1794253,,,,object_07c.png,,,49,,,1,,object_01a.png,object_07b.png,object_05a.png,object_01a.png,,0.3382352941176471,,1,,,,,,,,,,,
2797.9000000003725,,directmemory_phase3,1797052,,,,object_15b.png,,,50,,,0,,object_01b.png,object_10a.png,object_03b.png,object_01b.png,,0.3333333333333333,,0,,,,,,,,,,,
2422.2000000001863,,directmemory_phase3,1799476,,,,object_03b.png,,,49,,,1,,object_05a.png,object_07c.png,object_02b.png,object_05a.png,,0.34285714285714286,,1,,,,,,,,,,,
4310.600000000559,,directmemory_phase3,1803788,,,,object_11c.png,,,51,,,1,,object_02c.png,object_15b.png,object_09c.png,object_09c.png,,0.352112676056338,,1,,,,,,,,,,,
2647.4000000003725,,directmemory_phase3,1806437,,,,object_10a.png,,,49,,,1,,object_04b.png,object_13c.png,object_14b.png,object_04b.png,,0.3611111111111111,,1,,,,,,,,,,,
1966,,directmemory_phase3,1808404,,,,object_14a.png,,,51,,,0,,object_02c.png,object_10b.png,object_12a.png,object_02c.png,,0.3561643835616438,,0,,,,,,,,,,,
2310.5999999996275,,directmemory_phase3,1810716,,,,object_06a.png,,,49,,,1,,object_07c.png,object_10a.png,object_08b.png,object_07c.png,,0.36486486486486486,,1,,,,,,,,,,,
4062.5999999996275,,directmemory_phase3,1814780,,,,object_08a.png,,,50,,,0,,object_11b.png,object_15c.png,object_08b.png,object_11b.png,,0.36,,0,,,,,,,,,,,
2319.5999999996275,,directmemory_phase3,1817101,,,,object_01b.png,,,50,,,0,,object_12c.png,object_05a.png,object_03a.png,object_03a.png,,0.35526315789473684,,0,,,,,,,,,,,
3269.9000000003725,,directmemory_phase3,1820372,,,,object_05b.png,,,49,,,1,,object_04c.png,object_09a.png,object_12a.png,object_04c.png,,0.36363636363636365,,1,,,,,,,,,,,
2238.5999999996275,,directmemory_phase3,1822612,,,,object_14b.png,,,51,,,0,,object_12c.png,object_03c.png,object_07a.png,object_12c.png,,0.358974358974359,,0,,,,,,,,,,,
4070.7000000001863,,directmemory_phase3,1826684,,,,object_01c.png,,,51,,,0,,object_12b.png,object_10c.png,object_06c.png,object_12b.png,,0.35443037974683544,,0,,,,,,,,,,,
4695.4000000003725,,directmemory_phase3,1831381,,,,object_06c.png,,,51,,,1,,object_04a.png,object_01c.png,object_13a.png,object_13a.png,,0.3625,,1,,,,,,,,,,,
3134.0999999996275,,directmemory_phase3,1834516,,,,object_09a.png,,,50,,,0,,object_11a.png,object_13a.png,object_06c.png,object_11a.png,,0.35802469135802467,,0,,,,,,,,,,,
1238.5999999996275,,directmemory_phase3,1835756,,,,object_08b.png,,,51,,,1,,object_11b.png,object_14c.png,object_09a.png,object_09a.png,,0.36585365853658536,,1,,,,,,,,,,,
3022.5999999996275,,directmemory_phase3,1838780,,,,object_06b.png,,,49,,,0,,object_15c.png,object_14a.png,object_10a.png,object_10a.png,,0.3614457831325301,,0,,,,,,,,,,,
1398.699999999255,,directmemory_phase3,1840180,,,,object_08c.png,,,50,,,0,,object_05a.png,object_11c.png,object_15c.png,object_15c.png,,0.35714285714285715,,0,,,,,,,,,,,
2463.100000000559,,directmemory_phase3,1842645,,,,object_14c.png,,,50,,,0,,object_01c.png,object_14b.png,object_12a.png,object_01c.png,,0.35294117647058826,,0,,,,,,,,,,,
2014.0999999996275,,directmemory_phase3,1844660,,,,object_10c.png,,,51,,,1,,object_01c.png,object_13c.png,object_05a.png,object_05a.png,,0.36046511627906974,,1,,,,,,,,,,,
3094.5999999996275,,directmemory_phase3,1847756,,,,object_15a.png,,,51,,,0,,object_12c.png,object_04c.png,object_10a.png,object_04c.png,,0.3563218390804598,,0,,,,,,,,,,,
1830.7000000001863,,directmemory_phase3,1849588,,,,object_13c.png,,,49,,,1,,object_07a.png,object_11b.png,object_10c.png,object_07a.png,,0.36363636363636365,,1,,,,,,,,,,,
2078.699999999255,,directmemory_phase3,1851668,,,,object_10b.png,,,51,,,0,,object_04a.png,object_13b.png,object_07c.png,object_04a.png,,0.3595505617977528,,0,,,,,,,,,,,
2055.2000000001863,,directmemory_phase3,1853725,,,,object_02c.png,,,51,,,0,,object_06c.png,object_03c.png,object_09b.png,object_03c.png,,0.35555555555555557,,0,,,,,,,,,,,
null,,thebreak,1853841,,,,<p></p>,,,null,,,,,,,,,,,,,,,,,,,,,,,
10003.599999999627,,intro_0,1863845,,,,instruct,,,32,,,,,,,,,,,,,,,,,,,,,,,
null,,learn_phase(without_color)4,1867359,,,,black_plus_sign,,,null,object_13b.png,object_09c.png,,,,,,,,,,,,,,,,,,,,,
null,,black_cross(without_color)4,1868448,,,,green,,,null,object_13b.png,object_09c.png,,,,,,,,,,,,,,,,,,,,,
355.8999999994412,,rt_plussign_withcolor4,1868954,,,,green,,,50,object_13b.png,object_09c.png,,,,,,,,,,,,,,,,,,,,,
null,,rt_thecrossant_black4,1869877,,,,black_plus_sign,,,50,,,1,,,,,,,1,,,,,,,,,,,,,
null,,color_black4,1869992,,,,black_plus_sign,,,null,,,,,,,,,,,,,,,,,,,,,,,
null,,learn_phase(without_color)4,1873500,,,,black_plus_sign,,,null,object_03c.png,object_02c.png,,,,,,,,,,,,,,,,,,,,,
null,,black_cross(without_color)4,1873990,,,,blue,,,null,object_03c.png,object_02c.png,,,,,,,,,,,,,,,,,,,,,
null,,rt_plussign_withcolor4,1874494,,,,blue,,,null,object_03c.png,object_02c.png,,,,,,,,,,,,,,,,,,,,,
1291.7999999998137,,rt_thecrossant_black4,1876017,,,,black_plus_sign,,,49,,,1,,,,,,,1,,,,,,,,,,,,,
null,,color_black4,1876126,,,,black_plus_sign,,,null,,,,,,,,,,,,,,,,,,,,,,,
null,,learn_phase(without_color)4,1879638,,,,black_plus_sign,,,null,object_14a.png,object_02c.png,,,,,,,,,,,,,,,,,,,,,
null,,black_cross(without_color)4,1880716,,,,green,,,null,object_14a.png,object_02c.png,,,,,,,,,,,,,,,,,,,,,
383,,rt_plussign_withcolor4,1881222,,,,green,,,50,object_14a.png,object_02c.png,,,,,,,,,,,,,,,,,,,,,
null,,rt_thecrossant_black4,1882162,,,,black_plus_sign,,,50,,,1,,,,,,,1,,,,,,,,,,,,,
null,,color_black4,1882276,,,,black_plus_sign,,,null,,,,,,,,,,,,,,,,,,,,,,,
null,,learn_phase(without_color)4,1885785,,,,black_plus_sign,,,null,object_15a.png,object_04c.png,,,,,,,,,,,,,,,,,,,,,
null,,black_cross(without_color)4,1886785,,,,green,,,null,object_15a.png,object_04c.png,,,,,,,,,,,,,,,,,,,,,
395.70000000018626,,rt_plussign_withcolor4,1887291,,,,green,,,49,object_15a.png,object_04c.png,,,,,,,,,,,,,,,,,,,,,
null,,rt_thecrossant_black4,1888312,,,,black_plus_sign,,,50,,,0,,,,,,,0.75,,,,,,,,,,,,,
null,,warning_page,1893317,,,,warning,,,null,,,,,,,,,,,,,,,,,,,,,,,
null,,color_black4,1893426,,,,black_plus_sign,,,null,,,,,,,,,,,,,,,,,,,,,,,
null,,learn_phase(without_color)4,1896942,,,,black_plus_sign,,,null,object_08a.png,object_11b.png,,,,,,,,,,,,,,,,,,,,,
null,,black_cross(without_color)4,1897423,,,,blue,,,null,object_08a.png,object_11b.png,,,,,,,,,,,,,,,,,,,,,
null,,rt_plussign_withcolor4,1897938,,,,blue,,,null,object_08a.png,object_11b.png,,,,,,,,,,,,,,,,,,,,,
1137.3999999994412,,rt_thecrossant_black4,1899476,,,,black_plus_sign,,,49,,,1,,,,,,,0.8,,,,,,,,,,,,,
null,,color_black4,1899591,,,,black_plus_sign,,,null,,,,,,,,,,,,,,,,,,,,,,,
null,,learn_phase(without_color)4,1903097,,,,black_plus_sign,,,null,object_05b.png,object_04c.png,,,,,,,,,,,,,,,,,,,,,
null,,black_cross(without_color)4,1903653,,,,green,,,null,object_05b.png,object_04c.png,,,,,,,,,,,,,,,,,,,,,
null,,rt_plussign_withcolor4,1904157,,,,green,,,null,object_05b.png,object_04c.png,,,,,,,,,,,,,,,,,,,,,
678.2999999998137,,rt_thecrossant_black4,1905622,,,,black_plus_sign,,,50,,,1,,,,,,,0.8333333333333334,,,,,,,,,,,,,
null,,color_black4,1905727,,,,black_plus_sign,,,null,,,,,,,,,,,,,,,,,,,,,,,
null,,learn_phase(without_color)4,1909237,,,,black_plus_sign,,,null,object_12c.png,object_14b.png,,,,,,,,,,,,,,,,,,,,,
null,,black_cross(without_color)4,1909940,,,,green,,,null,object_12c.png,object_14b.png,,,,,,,,,,,,,,,,,,,,,
null,,rt_plussign_withcolor4,1910442,,,,green,,,null,object_12c.png,object_14b.png,,,,,,,,,,,,,,,,,,,,,
833.2000000001863,,rt_thecrossant_black4,1911757,,,,black_plus_sign,,,50,,,1,,,,,,,0.8571428571428571,,,,,,,,,,,,,
null,,color_black4,1911860,,,,black_plus_sign,,,null,,,,,,,,,,,,,,,,,,,,,,,
null,,learn_phase(without_color)4,1915374,,,,black_plus_sign,,,null,object_11a.png,object_09a.png,,,,,,,,,,,,,,,,,,,,,
null,,black_cross(without_color)4,1916159,,,,green,,,null,object_11a.png,object_09a.png,,,,,,,,,,,,,,,,,,,,,
null,,rt_plussign_withcolor4,1916675,,,,green,,,null,object_11a.png,object_09a.png,,,,,,,,,,,,,,,,,,,,,
798.5999999996275,,rt_thecrossant_black4,1917895,,,,black_plus_sign,,,50,,,1,,,,,,,0.875,,,,,,,,,,,,,
null,,color_black4,1918010,,,,black_plus_sign,,,null,,,,,,,,,,,,,,,,,,,,,,,
null,,learn_phase(without_color)4,1921518,,,,black_plus_sign,,,null,object_12a.png,object_10b.png,,,,,,,,,,,,,,,,,,,,,
null,,black_cross(without_color)4,1922094,,,,green,,,null,object_12a.png,object_10b.png,,,,,,,,,,,,,,,,,,,,,
null,,rt_plussign_withcolor4,1922607,,,,green,,,null,object_12a.png,object_10b.png,,,,,,,,,,,,,,,,,,,,,
952.2000000001863,,rt_thecrossant_black4,1924053,,,,black_plus_sign,,,50,,,1,,,,,,,0.8888888888888888,,,,,,,,,,,,,
null,,color_black4,1924161,,,,black_plus_sign,,,null,,,,,,,,,,,,,,,,,,,,,,,
null,,learn_phase(without_color)4,1927675,,,,black_plus_sign,,,null,object_09b.png,object_15c.png,,,,,,,,,,,,,,,,,,,,,
null,,black_cross(without_color)4,1928186,,,,blue,,,null,object_09b.png,object_15c.png,,,,,,,,,,,,,,,,,,,,,
null,,rt_plussign_withcolor4,1928700,,,,blue,,,null,object_09b.png,object_15c.png,,,,,,,,,,,,,,,,,,,,,
851.0999999996275,,rt_thecrossant_black4,1930211,,,,black_plus_sign,,,49,,,1,,,,,,,0.9,,,,,,,,,,,,,
null,,color_black4,1930326,,,,black_plus_sign,,,null,,,,,,,,,,,,,,,,,,,,,,,
null,,learn_phase(without_color)4,1933838,,,,black_plus_sign,,,null,object_15b.png,object_01b.png,,,,,,,,,,,,,,,,,,,,,
null,,black_cross(without_color)4,1934605,,,,blue,,,null,object_15b.png,object_01b.png,,,,,,,,,,,,,,,,,,,,,
null,,rt_plussign_withcolor4,1935110,,,,blue,,,null,object_15b.png,object_01b.png,,,,,,,,,,,,,,,,,,,,,
713.7999999998137,,rt_thecrossant_black4,1936361,,,,black_plus_sign,,,49,,,1,,,,,,,0.9090909090909091,,,,,,,,,,,,,
null,,color_black4,1936478,,,,black_plus_sign,,,null,,,,,,,,,,,,,,,,,,,,,,,
null,,learn_phase(without_color)4,1939985,,,,black_plus_sign,,,null,object_05a.png,object_10c.png,,,,,,,,,,,,,,,,,,,,,
null,,black_cross(without_color)4,1940735,,,,blue,,,null,object_05a.png,object_10c.png,,,,,,,,,,,,,,,,,,,,,
null,,rt_plussign_withcolor4,1941240,,,,blue,,,null,object_05a.png,object_10c.png,,,,,,,,,,,,,,,,,,,,,
875.1999999992549,,rt_thecrossant_black4,1942512,,,,black_plus_sign,,,49,,,1,,,,,,,0.9166666666666666,,,,,,,,,,,,,
null,,color_black4,1942627,,,,black_plus_sign,,,null,,,,,,,,,,,,,,,,,,,,,,,
null,,learn_phase(without_color)4,1946136,,,,black_plus_sign,,,null,object_09c.png,object_11c.png,,,,,,,,,,,,,,,,,,,,,
null,,black_cross(without_color)4,1947072,,,,blue,,,null,object_09c.png,object_11c.png,,,,,,,,,,,,,,,,,,,,,
484.90000000037253,,rt_plussign_withcolor4,1947572,,,,blue,,,49,object_09c.png,object_11c.png,,,,,,,,,,,,,,,,,,,,,
null,,rt_thecrossant_black4,1948664,,,,black_plus_sign,,,49,,,1,,,,,,,0.9230769230769231,,,,,,,,,,,,,
null,,color_black4,1948779,,,,black_plus_sign,,,null,,,,,,,,,,,,,,,,,,,,,,,
null,,learn_phase(without_color)4,1952292,,,,black_plus_sign,,,null,object_01c.png,object_12b.png,,,,,,,,,,,,,,,,,,,,,
null,,black_cross(without_color)4,1953092,,,,green,,,null,object_01c.png,object_12b.png,,,,,,,,,,,,,,,,,,,,,
null,,rt_plussign_withcolor4,1953602,,,,green,,,null,object_01c.png,object_12b.png,,,,,,,,,,,,,,,,,,,,,
1424,,rt_thecrossant_black4,1954822,,,,black_plus_sign,,,50,,,1,,,,,,,0.9285714285714286,,,,,,,,,,,,,
null,,color_black4,1954928,,,,black_plus_sign,,,null,,,,,,,,,,,,,,,,,,,,,,,
null,,learn_phase(without_color)4,1958437,,,,black_plus_sign,,,null,object_06b.png,object_10a.png,,,,,,,,,,,,,,,,,,,,,
null,,black_cross(without_color)4,1959015,,,,blue,,,null,object_06b.png,object_10a.png,,,,,,,,,,,,,,,,,,,,,
null,,rt_plussign_withcolor4,1959529,,,,blue,,,null,object_06b.png,object_10a.png,,,,,,,,,,,,,,,,,,,,,
894.7000000001863,,rt_thecrossant_black4,1960975,,,,black_plus_sign,,,49,,,1,,,,,,,0.9333333333333333,,,,,,,,,,,,,
null,,color_black4,1961080,,,,black_plus_sign,,,null,,,,,,,,,,,,,,,,,,,,,,,
null,,learn_phase(without_color)4,1964590,,,,black_plus_sign,,,null,object_07a.png,object_13c.png,,,,,,,,,,,,,,,,,,,,,
null,,black_cross(without_color)4,1965407,,,,green,,,null,object_07a.png,object_13c.png,,,,,,,,,,,,,,,,,,,,,
null,,rt_plussign_withcolor4,1965912,,,,green,,,null,object_07a.png,object_13c.png,,,,,,,,,,,,,,,,,,,,,
720.0999999996275,,rt_thecrossant_black4,1967112,,,,black_plus_sign,,,50,,,1,,,,,,,0.9375,,,,,,,,,,,,,
null,,color_black4,1967227,,,,black_plus_sign,,,null,,,,,,,,,,,,,,,,,,,,,,,
null,,learn_phase(without_color)4,1970735,,,,black_plus_sign,,,null,object_14c.png,object_01c.png,,,,,,,,,,,,,,,,,,,,,
null,,black_cross(without_color)4,1971491,,,,blue,,,null,object_14c.png,object_01c.png,,,,,,,,,,,,,,,,,,,,,
null,,rt_plussign_withcolor4,1971997,,,,blue,,,null,object_14c.png,object_01c.png,,,,,,,,,,,,,,,,,,,,,
1078.300000000745,,rt_thecrossant_black4,1973249,,,,black_plus_sign,,,49,,,1,,,,,,,0.9411764705882353,,,,,,,,,,,,,
null,,color_black4,1973363,,,,black_plus_sign,,,null,,,,,,,,,,,,,,,,,,,,,,,
null,,learn_phase(without_color)4,1976874,,,,black_plus_sign,,,null,object_11b.png,object_07b.png,,,,,,,,,,,,,,,,,,,,,
null,,black_cross(without_color)4,1977544,,,,green,,,null,object_11b.png,object_07b.png,,,,,,,,,,,,,,,,,,,,,
null,,rt_plussign_withcolor4,1978045,,,,green,,,null,object_11b.png,object_07b.png,,,,,,,,,,,,,,,,,,,,,
895.3999999994412,,rt_thecrossant_black4,1979404,,,,black_plus_sign,,,50,,,1,,,,,,,0.9444444444444444,,,,,,,,,,,,,
null,,color_black4,1979513,,,,black_plus_sign,,,null,,,,,,,,,,,,,,,,,,,,,,,
null,,learn_phase(without_color)4,1983020,,,,black_plus_sign,,,null,object_01b.png,object_03a.png,,,,,,,,,,,,,,,,,,,,,
null,,black_cross(without_color)4,1983829,,,,green,,,null,object_01b.png,object_03a.png,,,,,,,,,,,,,,,,,,,,,
null,,rt_plussign_withcolor4,1984338,,,,green,,,null,object_01b.png,object_03a.png,,,,,,,,,,,,,,,,,,,,,
852.5,,rt_thecrossant_black4,1985552,,,,black_plus_sign,,,50,,,1,,,,,,,0.9473684210526315,,,,,,,,,,,,,
null,,color_black4,1985663,,,,black_plus_sign,,,null,,,,,,,,,,,,,,,,,,,,,,,
null,,learn_phase(without_color)4,1989173,,,,black_plus_sign,,,null,object_07c.png,object_06a.png,,,,,,,,,,,,,,,,,,,,,
null,,black_cross(without_color)4,1990263,,,,blue,,,null,object_07c.png,object_06a.png,,,,,,,,,,,,,,,,,,,,,
null,,rt_plussign_withcolor4,1990775,,,,blue,,,null,object_07c.png,object_06a.png,,,,,,,,,,,,,,,,,,,,,
1086.7999999998137,,rt_thecrossant_black4,1991696,,,,black_plus_sign,,,49,,,1,,,,,,,0.95,,,,,,,,,,,,,
null,,color_black4,1991812,,,,black_plus_sign,,,null,,,,,,,,,,,,,,,,,,,,,,,
null,,learn_phase(without_color)4,1995327,,,,black_plus_sign,,,null,object_07a.png,object_02a.png,,,,,,,,,,,,,,,,,,,,,
null,,black_cross(without_color)4,1996435,,,,green,,,null,object_07a.png,object_02a.png,,,,,,,,,,,,,,,,,,,,,
null,,rt_plussign_withcolor4,1996943,,,,green,,,null,object_07a.png,object_02a.png,,,,,,,,,,,,,,,,,,,,,
1213,,rt_thecrossant_black4,1997858,,,,black_plus_sign,,,50,,,1,,,,,,,0.9523809523809523,,,,,,,,,,,,,
null,,color_black4,1997963,,,,black_plus_sign,,,null,,,,,,,,,,,,,,,,,,,,,,,
null,,learn_phase(without_color)4,2001469,,,,black_plus_sign,,,null,object_03b.png,object_05a.png,,,,,,,,,,,,,,,,,,,,,
null,,black_cross(without_color)4,2002315,,,,blue,,,null,object_03b.png,object_05a.png,,,,,,,,,,,,,,,,,,,,,
465.20000000018626,,rt_plussign_withcolor4,2002815,,,,blue,,,49,object_03b.png,object_05a.png,,,,,,,,,,,,,,,,,,,,,
null,,rt_thecrossant_black4,2003990,,,,black_plus_sign,,,49,,,1,,,,,,,0.9545454545454546,,,,,,,,,,,,,
null,,color_black4,2004097,,,,black_plus_sign,,,null,,,,,,,,,,,,,,,,,,,,,,,
null,,learn_phase(without_color)4,2007603,,,,black_plus_sign,,,null,object_05c.png,object_14b.png,,,,,,,,,,,,,,,,,,,,,
null,,black_cross(without_color)4,2008217,,,,green,,,null,object_05c.png,object_14b.png,,,,,,,,,,,,,,,,,,,,,
468.5,,rt_plussign_withcolor4,2008732,,,,green,,,50,object_05c.png,object_14b.png,,,,,,,,,,,,,,,,,,,,,
null,,rt_thecrossant_black4,2010131,,,,black_plus_sign,,,50,,,1,,,,,,,0.9565217391304348,,,,,,,,,,,,,
null,,color_black4,2010245,,,,black_plus_sign,,,null,,,,,,,,,,,,,,,,,,,,,,,
null,,learn_phase(without_color)4,2013759,,,,black_plus_sign,,,null,object_15c.png,object_08c.png,,,,,,,,,,,,,,,,,,,,,
null,,black_cross(without_color)4,2014467,,,,blue,,,null,object_15c.png,object_08c.png,,,,,,,,,,,,,,,,,,,,,
null,,rt_plussign_withcolor4,2014973,,,,blue,,,null,object_15c.png,object_08c.png,,,,,,,,,,,,,,,,,,,,,
959.8000000007451,,rt_thecrossant_black4,2016294,,,,black_plus_sign,,,49,,,1,,,,,,,0.9583333333333334,,,,,,,,,,,,,
null,,color_black4,2016397,,,,black_plus_sign,,,null,,,,,,,,,,,,,,,,,,,,,,,
null,,learn_phase(without_color)4,2019910,,,,black_plus_sign,,,null,object_08b.png,object_09a.png,,,,,,,,,,,,,,,,,,,,,
null,,black_cross(without_color)4,2020760,,,,green,,,null,object_08b.png,object_09a.png,,,,,,,,,,,,,,,,,,,,,
null,,rt_plussign_withcolor4,2021275,,,,green,,,null,object_08b.png,object_09a.png,,,,,,,,,,,,,,,,,,,,,
883.2999999988824,,rt_thecrossant_black4,2022444,,,,black_plus_sign,,,50,,,1,,,,,,,0.96,,,,,,,,,,,,,
null,,color_black4,2022548,,,,black_plus_sign,,,null,,,,,,,,,,,,,,,,,,,,,,,
null,,learn_phase(without_color)4,2026064,,,,black_plus_sign,,,null,object_04a.png,object_10b.png,,,,,,,,,,,,,,,,,,,,,
null,,black_cross(without_color)4,2027115,,,,green,,,null,object_04a.png,object_10b.png,,,,,,,,,,,,,,,,,,,,,
480.6000000014901,,rt_plussign_withcolor4,2027617,,,,green,,,50,object_04a.png,object_10b.png,,,,,,,,,,,,,,,,,,,,,
null,,rt_thecrossant_black4,2028576,,,,black_plus_sign,,,50,,,1,,,,,,,0.9615384615384616,,,,,,,,,,,,,
null,,color_black4,2028681,,,,black_plus_sign,,,null,,,,,,,,,,,,,,,,,,,,,,,
null,,learn_phase(without_color)4,2032186,,,,black_plus_sign,,,null,object_02b.png,object_06c.png,,,,,,,,,,,,,,,,,,,,,
null,,black_cross(without_color)4,2032938,,,,green,,,null,object_02b.png,object_06c.png,,,,,,,,,,,,,,,,,,,,,
null,,rt_plussign_withcolor4,2033442,,,,green,,,null,object_02b.png,object_06c.png,,,,,,,,,,,,,,,,,,,,,
1376.5999999996275,,rt_thecrossant_black4,2034704,,,,black_plus_sign,,,50,,,1,,,,,,,0.9629629629629629,,,,,,,,,,,,,
null,,color_black4,2034814,,,,black_plus_sign,,,null,,,,,,,,,,,,,,,,,,,,,,,
null,,learn_phase(without_color)4,2038321,,,,black_plus_sign,,,null,object_01a.png,object_07c.png,,,,,,,,,,,,,,,,,,,,,
null,,black_cross(without_color)4,2039375,,,,green,,,null,object_01a.png,object_07c.png,,,,,,,,,,,,,,,,,,,,,
null,,rt_plussign_withcolor4,2039877,,,,green,,,null,object_01a.png,object_07c.png,,,,,,,,,,,,,,,,,,,,,
847,,rt_thecrossant_black4,2040836,,,,black_plus_sign,,,50,,,1,,,,,,,0.9642857142857143,,,,,,,,,,,,,
null,,color_black4,2040947,,,,black_plus_sign,,,null,,,,,,,,,,,,,,,,,,,,,,,
null,,learn_phase(without_color)4,2044452,,,,black_plus_sign,,,null,object_10a.png,object_04b.png,,,,,,,,,,,,,,,,,,,,,
null,,black_cross(without_color)4,2045491,,,,green,,,null,object_10a.png,object_04b.png,,,,,,,,,,,,,,,,,,,,,
481.40000000037253,,rt_plussign_withcolor4,2045992,,,,green,,,50,object_10a.png,object_04b.png,,,,,,,,,,,,,,,,,,,,,
null,,rt_thecrossant_black4,2046970,,,,black_plus_sign,,,50,,,1,,,,,,,0.9655172413793104,,,,,,,,,,,,,
null,,color_black4,2047081,,,,black_plus_sign,,,null,,,,,,,,,,,,,,,,,,,,,,,
null,,learn_phase(without_color)4,2050592,,,,black_plus_sign,,,null,object_06c.png,object_13a.png,,,,,,,,,,,,,,,,,,,,,
null,,black_cross(without_color)4,2051449,,,,green,,,null,object_06c.png,object_13a.png,,,,,,,,,,,,,,,,,,,,,
491.2000000011176,,rt_plussign_withcolor4,2051950,,,,green,,,50,object_06c.png,object_13a.png,,,,,,,,,,,,,,,,,,,,,
null,,rt_thecrossant_black4,2053114,,,,black_plus_sign,,,50,,,1,,,,,,,0.9666666666666667,,,,,,,,,,,,,
null,,color_black4,2053230,,,,black_plus_sign,,,null,,,,,,,,,,,,,,,,,,,,,,,
null,,thebreak,2053347,,,,<p></p>,,,null,,,,,,,,,,,,,,,,,,,,,,,
15585.299999998882,,intro_0,2068933,,,,instruct,,,32,,,,,,,,,,,,,,,,,,,,,,,
2790.10000000149,,directmemory_phase4,2071725,,,,object_11a.png,,,50,,,0,,object_14b.png,object_13a.png,object_09a.png,object_09a.png,,0.3516483516483517,,0,,,,,,,,,,,
2934.7000000011176,,directmemory_phase4,2074661,,,,object_11b.png,,,49,,,0,,object_12b.png,object_07a.png,object_07b.png,object_07b.png,,0.34782608695652173,,0,,,,,,,,,,,
2182.5999999996275,,directmemory_phase4,2076845,,,,object_05c.png,,,49,,,1,,object_14b.png,object_09c.png,object_15b.png,object_14b.png,,0.3548387096774194,,1,,,,,,,,,,,
1702.4000000003725,,directmemory_phase4,2078549,,,,object_05b.png,,,51,,,1,,object_01b.png,object_08a.png,object_04c.png,object_04c.png,,0.3617021276595745,,1,,,,,,,,,,,
2175.5,,directmemory_phase4,2080725,,,,object_12b.png,,,51,,,1,,object_14b.png,object_12c.png,object_01c.png,object_01c.png,,0.3684210526315789,,1,,,,,,,,,,,
2069.9000000003725,,directmemory_phase4,2082797,,,,object_06b.png,,,50,,,1,,object_03b.png,object_10a.png,object_15c.png,object_10a.png,,0.375,,1,,,,,,,,,,,
2198.5999999996275,,directmemory_phase4,2084997,,,,object_10a.png,,,49,,,1,,object_04b.png,object_03a.png,object_09a.png,object_04b.png,,0.38144329896907214,,1,,,,,,,,,,,
1870.5999999996275,,directmemory_phase4,2086869,,,,object_13a.png,,,50,,,0,,object_06c.png,object_07c.png,object_03a.png,object_06c.png,,0.37755102040816324,,0,,,,,,,,,,,
2390.4000000003725,,directmemory_phase4,2089261,,,,object_03c.png,,,51,,,0,,object_02c.png,object_07a.png,object_13c.png,object_02c.png,,0.37373737373737376,,0,,,,,,,,,,,
2535.5,,directmemory_phase4,2091797,,,,object_02a.png,,,51,,,1,,object_09a.png,object_14a.png,object_07a.png,object_07a.png,,0.38,,1,,,,,,,,,,,
2493.9000000003725,,directmemory_phase4,2094293,,,,object_11c.png,,,49,,,0,,object_06c.png,object_08b.png,object_09c.png,object_09c.png,,0.37623762376237624,,0,,,,,,,,,,,
1614.5,,directmemory_phase4,2095909,,,,object_15c.png,,,49,,,0,,object_07c.png,object_09b.png,object_04b.png,object_09b.png,,0.37254901960784315,,0,,,,,,,,,,,
1694.5999999996275,,directmemory_phase4,2097605,,,,object_01b.png,,,49,,,1,,object_03a.png,object_13b.png,object_02c.png,object_03a.png,,0.3786407766990291,,1,,,,,,,,,,,
1782.5999999996275,,directmemory_phase4,2099388,,,,object_14c.png,,,50,,,0,,object_01c.png,object_15c.png,object_14a.png,object_01c.png,,0.375,,0,,,,,,,,,,,
2535.5,,directmemory_phase4,2101925,,,,object_10c.png,,,51,,,0,,object_13c.png,object_05a.png,object_01b.png,object_05a.png,,0.37142857142857144,,0,,,,,,,,,,,
2141.800000000745,,directmemory_phase4,2104069,,,,object_02b.png,,,50,,,0,,object_05a.png,object_14c.png,object_06c.png,object_06c.png,,0.36792452830188677,,0,,,,,,,,,,,
1662.5,,directmemory_phase4,2105733,,,,object_12c.png,,,49,,,0,,object_07b.png,object_14b.png,object_07c.png,object_14b.png,,0.3644859813084112,,0,,,,,,,,,,,
2950.5999999996275,,directmemory_phase4,2108685,,,,object_06a.png,,,51,,,0,,object_07c.png,object_07a.png,object_02a.png,object_07c.png,,0.3611111111111111,,0,,,,,,,,,,,
1990.5,,directmemory_phase4,2110677,,,,object_07c.png,,,51,,,0,,object_07a.png,object_01a.png,object_11a.png,object_01a.png,,0.3577981651376147,,0,,,,,,,,,,,
1150.4000000003725,,directmemory_phase4,2111829,,,,object_08b.png,,,51,,,1,,object_06c.png,object_08c.png,object_09a.png,object_09a.png,,0.36363636363636365,,1,,,,,,,,,,,
1967.5,,directmemory_phase4,2113797,,,,object_03b.png,,,50,,,0,,object_05a.png,object_01b.png,object_14c.png,object_05a.png,,0.36036036036036034,,0,,,,,,,,,,,
2558,,directmemory_phase4,2116357,,,,object_04a.png,,,51,,,0,,object_04b.png,object_10b.png,object_07c.png,object_10b.png,,0.35714285714285715,,0,,,,,,,,,,,
2126.800000000745,,directmemory_phase4,2118485,,,,object_09c.png,,,49,,,0,,object_06c.png,object_13b.png,object_03c.png,object_13b.png,,0.35398230088495575,,0,,,,,,,,,,,
1462.4000000003725,,directmemory_phase4,2119949,,,,object_08c.png,,,50,,,0,,object_15c.png,object_06c.png,object_05c.png,object_15c.png,,0.3508771929824561,,0,,,,,,,,,,,
2382.699999999255,,directmemory_phase4,2122333,,,,object_12a.png,,,51,,,0,,object_02b.png,object_10b.png,object_15c.png,object_10b.png,,0.34782608695652173,,0,,,,,,,,,,,
2591.199999999255,,directmemory_phase4,2124925,,,,object_15a.png,,,50,,,0,,object_04c.png,object_09c.png,object_04a.png,object_04c.png,,0.3448275862068966,,0,,,,,,,,,,,
1974,,directmemory_phase4,2126901,,,,object_07a.png,,,49,,,0,,object_04b.png,object_10b.png,object_13c.png,object_13c.png,,0.3418803418803419,,0,,,,,,,,,,,
1926.5,,directmemory_phase4,2128829,,,,object_08a.png,,,51,,,1,,object_01b.png,object_08b.png,object_11b.png,object_11b.png,,0.3474576271186441,,1,,,,,,,,,,,
2318.5,,directmemory_phase4,2131149,,,,object_14a.png,,,49,,,1,,object_02c.png,object_01c.png,object_02b.png,object_02c.png,,0.35294117647058826,,1,,,,,,,,,,,
1942.4000000003725,,directmemory_phase4,2133093,,,,object_15b.png,,,49,,,1,,object_01b.png,object_05a.png,object_02b.png,object_01b.png,,0.35833333333333334,,1,,,,,,,,,,,
null,,thebreak,2133197,,,,<p></p>,,,null,,,,,,,,,,,,,,,,,,,,,,,
4463.9000000003725,,intro_0,2137661,,,,instruct,,,32,,,,,,,,,,,,,,,,,,,,,,,
17871.200000001118,,intro_1,2155534,,,,instruct,,,32,,,,,,,,,,,,,,,,,,,,,,,
2430.4000000003725,,intro_2,2157965,,,,instruct,,,32,,,,,,,,,,,,,,,,,,,,,,,
,,intro_3,2178628,,,,instruct,,,,,,,,,,,,,,,,,,,,,,,,,,
12471.900000000373,,intro_4,2191102,,,,instruct,,,32,,,,,,,,,,,,,,,,,,,,,,,
2918.199999999255,,inference_phase,2194021,,,,object_08b.png,,,51,object_05a.png,object_11a.png,0,,,,,object_11a.png,,0,,,object_10c.png,,,,,,,,,,
3974.5,,inference_phase,2197997,,,,object_01a.png,,,49,object_08a.png,object_02c.png,0,,,,,object_06a.png,,0,,,object_06a.png,,,,,,,,,,
2326.699999999255,,inference_phase,2200325,,,,object_03a.png,,,51,object_15b.png,object_06b.png,0,,,,,object_15b.png,,0,,,object_09a.png,,,,,,,,,,
1472.0999999996275,,inference_phase,2201798,,,,object_02b.png,,,50,object_05a.png,object_04a.png,0,,,,,object_13a.png,,0,,,object_13a.png,,,,,,,,,,
3077.2999999988824,,inference_phase,2204877,,,,object_15a.png,,,51,object_05b.png,object_08b.png,0,,,,,object_05b.png,,0,,,object_05a.png,,,,,,,,,,
1590.4000000003725,,inference_phase,2206469,,,,object_14c.png,,,50,object_10a.png,object_12c.png,0,,,,,object_12b.png,,0,,,object_12b.png,,,,,,,,,,
