rt,responses,trial_type,time_elapsed,identifier_a,identifier_b,identifier_c,stimulus,button_pressed,response,key_press,stimulus_left,stimulus_right,accuracy,practice_cumulative_accuracy,stimulus_down_left,stimulus_down_mid,stimulus_down_right,stimulus_correct,prac_weighted_accuracy,cumulative_accuracy,weighted_accuracy,stimulus_middle,problems,smooth,distraction,strategies,easier,similar,comments
7080.799999952316,{worker_id:5c101f812a1a620001f04007},id_enter,7083,object_02c.png; object_10a.png; object_12a.png; object_07a.png; object_01b.png; object_08a.png; object_14b.png; object_01a.png; object_06a.png; object_15c.png; object_05a.png; object_03b.png; object_13c.png; object_11a.png; object_07c.png,object_02a.png; object_06c.png; object_12b.png; object_09b.png; object_03c.png; object_07b.png; object_08c.png; object_01c.png; object_05b.png; object_15b.png; object_15a.png; object_11c.png; object_13b.png; object_09c.png; object_06b.png,object_12c.png; object_03a.png; object_04c.png; object_13a.png; object_04b.png; object_14a.png; object_08b.png; object_10b.png; object_05c.png; object_10c.png; object_09a.png; object_11b.png; object_04a.png; object_02b.png; object_14c.png,,,,,,,,,,,,,,,,,,,,,,,
105191.40000009537,,make_fullscreen,112280,,,,fullscreen,0,,,,,,,,,,,,,,,,,,,,,
5665.900000095367,,instruct_1,117949,,,,instruct,0,Next,,,,,,,,,,,,,,,,,,,,
12766.400000095367,,instruct_2,130717,,,,instruct,1,Next,,,,,,,,,,,,,,,,,,,,
8611.200000047684,,instruct_3,139330,,,,instruct,1,Next,,,,,,,,,,,,,,,,,,,,
23475.200000047684,,instruct_4,162806,,,,instruct,1,Next,,,,,,,,,,,,,,,,,,,,
12230.900000095367,,instruct_5,175039,,,,instruct,1,Next,,,,,,,,,,,,,,,,,,,,
4928.300000190735,,instruct_6,179969,,,,instruct,1,Next,,,,,,,,,,,,,,,,,,,,
39087.09999990463,,instruct_7,219057,,,,instruct,1,Next,,,,,,,,,,,,,,,,,,,,
null,,prac_atten_color_black,219495,,,,black_plus_sign,,,null,,,,,,,,,,,,,,,,,,,
null,,prac_atten_color,220461,,,,<p style='position:absolute;top: 50%;right: 50%;transform: translate(50%, -50%);font-size: 125px;color: blue;'>+</p>,,,null,,,,,,,,,,,,,,,,,,,
123.10000014305115,,prac_atten_color_black,222464,,,,black_plus_sign,,,49,,,,,,,,,,,,,,,,,,,
null,,prac_atten_color_black,222902,,,,black_plus_sign,,,null,,,,,,,,,,,,,,,,,,,
null,,prac_atten_color,223321,,,,<p style='position:absolute;top: 50%;right: 50%;transform: translate(50%, -50%);font-size: 125px;color: green;'>+</p>,,,null,,,,,,,,,,,,,,,,,,,
347.60000014305115,,prac_atten_color_black,225323,,,,black_plus_sign,,,50,,,,,,,,,,,,,,,,,,,
null,,prac_atten_color_black,226307,,,,black_plus_sign,,,null,,,,,,,,,,,,,,,,,,,
null,,prac_atten_color,226817,,,,<p style='position:absolute;top: 50%;right: 50%;transform: translate(50%, -50%);font-size: 125px;color: green;'>+</p>,,,null,,,,,,,,,,,,,,,,,,,
283.59999990463257,,prac_atten_color_black,228819,,,,black_plus_sign,,,50,,,,,,,,,,,,,,,,,,,
null,,prac_atten_color_black,229714,,,,black_plus_sign,,,null,,,,,,,,,,,,,,,,,,,
null,,prac_atten_color,230244,,,,<p style='position:absolute;top: 50%;right: 50%;transform: translate(50%, -50%);font-size: 125px;color: blue;'>+</p>,,,null,,,,,,,,,,,,,,,,,,,
750.9000000953674,,prac_atten_color_black,232246,,,,black_plus_sign,,,49,,,,,,,,,,,,,,,,,,,
null,,prac_atten_color_black,233127,,,,black_plus_sign,,,null,,,,,,,,,,,,,,,,,,,
null,,prac_atten_color,233563,,,,<p style='position:absolute;top: 50%;right: 50%;transform: translate(50%, -50%);font-size: 125px;color: green;'>+</p>,,,null,,,,,,,,,,,,,,,,,,,
505,,prac_atten_color_black,235564,,,,black_plus_sign,,,50,,,,,,,,,,,,,,,,,,,
null,,prac_atten_color_black,236534,,,,black_plus_sign,,,null,,,,,,,,,,,,,,,,,,,
null,,prac_atten_color,237281,,,,<p style='position:absolute;top: 50%;right: 50%;transform: translate(50%, -50%);font-size: 125px;color: green;'>+</p>,,,null,,,,,,,,,,,,,,,,,,,
177.40000009536743,,prac_atten_color_black,239282,,,,black_plus_sign,,,50,,,,,,,,,,,,,,,,,,,
null,,prac_atten_color_black,239939,,,,black_plus_sign,,,null,,,,,,,,,,,,,,,,,,,
816.5,,prac_atten_color,240891,,,,<p style='position:absolute;top: 50%;right: 50%;transform: translate(50%, -50%);font-size: 125px;color: blue;'>+</p>,,,49,,,,,,,,,,,,,,,,,,,
null,,prac_atten_color_black,242892,,,,black_plus_sign,,,null,,,,,,,,,,,,,,,,,,,
null,,prac_atten_color_black,243344,,,,black_plus_sign,,,null,,,,,,,,,,,,,,,,,,,
480.89999985694885,,prac_atten_color,244102,,,,<p style='position:absolute;top: 50%;right: 50%;transform: translate(50%, -50%);font-size: 125px;color: green;'>+</p>,,,50,,,,,,,,,,,,,,,,,,,
null,,prac_atten_color_black,246104,,,,black_plus_sign,,,null,,,,,,,,,,,,,,,,,,,
null,,prac_atten_color_black,246750,,,,black_plus_sign,,,null,,,,,,,,,,,,,,,,,,,
712.4000000953674,,prac_atten_color,247695,,,,<p style='position:absolute;top: 50%;right: 50%;transform: translate(50%, -50%);font-size: 125px;color: blue;'>+</p>,,,49,,,,,,,,,,,,,,,,,,,
null,,prac_atten_color_black,249697,,,,black_plus_sign,,,null,,,,,,,,,,,,,,,,,,,
null,,prac_atten_color_black,250157,,,,black_plus_sign,,,null,,,,,,,,,,,,,,,,,,,
null,,prac_atten_color,250719,,,,<p style='position:absolute;top: 50%;right: 50%;transform: translate(50%, -50%);font-size: 125px;color: blue;'>+</p>,,,null,,,,,,,,,,,,,,,,,,,
232.59999990463257,,prac_atten_color_black,252721,,,,black_plus_sign,,,49,,,,,,,,,,,,,,,,,,,
7240.699999809265,,attentioncheck_feedback,259963,,,,cross_check_feedback,0,,,,,,,,,,,,,,,,,,,,,
13090.299999952316,,last_instruct,273055,,,,instruct,,,32,,,,,,,,,,,,,,,,,,,
null,,prac_learn_phase(without_color),276557,,,,black_plus_sign,,,null,object_11b.png,object_11c.png,,,,,,,,,,,,,,,,,
null,,prac_black_cross(without_color),277046,,,,blue,,,null,object_11b.png,object_11c.png,,,,,,,,,,,,,,,,,
null,,prac_rt_plussign_withcolor,277548,,,,blue,,,null,object_11b.png,object_11c.png,,,,,,,,,,,,,,,,,
1632.7999999523163,,prac_rt_thecrossant_black,279063,,,,black_plus_sign,,,49,,,1,1,,,,,,,,,,,,,,,
null,,prac_color_black,279177,,,,black_plus_sign,,,null,,,,,,,,,,,,,,,,,,,
null,,prac_learn_phase(without_color),282680,,,,black_plus_sign,,,null,object_05c.png,object_05b.png,,,,,,,,,,,,,,,,,
null,,black_cross(without_color)1,283567,,,,blue,,,null,object_11b.png,object_11c.png,,,,,,,,,,,,,,,,,
null,,prac_rt_plussign_withcolor,284069,,,,green,,,null,object_05c.png,object_05b.png,,,,,,,,,,,,,,,,,
1103.1999998092651,,prac_rt_thecrossant_black,285636,,,,black_plus_sign,,,50,,,1,1,,,,,,,,,,,,,,,
null,,prac_color_black,285738,,,,black_plus_sign,,,null,,,,,,,,,,,,,,,,,,,
null,,prac_learn_phase(without_color),289241,,,,black_plus_sign,,,null,object_05a.png,object_15a.png,,,,,,,,,,,,,,,,,
null,,black_cross(without_color)1,290127,,,,blue,,,null,object_11b.png,object_11c.png,,,,,,,,,,,,,,,,,
null,,prac_rt_plussign_withcolor,290629,,,,green,,,null,object_05a.png,object_15a.png,,,,,,,,,,,,,,,,,
761.3999998569489,,prac_rt_thecrossant_black,291962,,,,black_plus_sign,,,50,,,1,1,,,,,,,,,,,,,,,
null,,prac_color_black,292065,,,,black_plus_sign,,,null,,,,,,,,,,,,,,,,,,,
null,,prac_learn_phase(without_color),295567,,,,black_plus_sign,,,null,object_14b.png,object_08c.png,,,,,,,,,,,,,,,,,
null,,black_cross(without_color)1,296454,,,,blue,,,null,object_11b.png,object_11c.png,,,,,,,,,,,,,,,,,
null,,prac_rt_plussign_withcolor,296956,,,,blue,,,null,object_14b.png,object_08c.png,,,,,,,,,,,,,,,,,
1055.7999999523163,,prac_rt_thecrossant_black,297865,,,,black_plus_sign,,,49,,,1,1,,,,,,,,,,,,,,,
null,,prac_color_black,297967,,,,black_plus_sign,,,null,,,,,,,,,,,,,,,,,,,
12917.399999856949,,instruct_dir_01,310886,,,,instruct,0,Next,,,,,,,,,,,,,,,,,,,,
8624.199999809265,,instruct_dir_2,319512,,,,instruct,1,Next,,,,,,,,,,,,,,,,,,,,
5722.700000047684,,instruct_dir_3,325236,,,,instruct,1,Next,,,,,,,,,,,,,,,,,,,,
5891,,instruct_dir_4,331128,,,,instruct,1,Start,,,,,,,,,,,,,,,,,,,,
null,,thebreak,331230,,,,<p></p>,,,null,,,,,,,,,,,,,,,,,,,
2319.2999999523163,,intro_0,333550,,,,instruct,,,32,,,,,,,,,,,,,,,,,,,
3988.9000000953674,,prac_directmemory_phase,337540,,,,practice/object_03a.png,,,51,,,1,,practice/object_02b.png,practice/object_02a.png,practice/object_03b.png,practice/object_03b.png,1,1,,,,,,,,,
2807.899999856949,,prac_directmemory_phase,340350,,,,practice/object_02a.png,,,49,,,1,,practice/object_02b.png,practice/object_01b.png,practice/object_01a.png,practice/object_02b.png,1,1,,,,,,,,,
4166.299999952316,,prac_directmemory_phase,344517,,,,practice/object_04a.png,,,51,,,0,,practice/object_02a.png,practice/object_04b.png,practice/object_01b.png,practice/object_04b.png,0,0.6666666666666666,,,,,,,,,
4238.599999904633,,prac_directmemory_phase,348757,,,,practice/object_01a.png,,,51,,,1,,practice/object_02b.png,practice/object_02a.png,practice/object_01b.png,practice/object_01b.png,1,0.75,,,,,,,,,
7179.099999904633,,practice_feedback,355938,,,,practice_feedback,0,,,,,,,,,,,,,,,,,,,,,
11962.599999904633,,last_instruct,367901,,,,instruct,,,32,,,,,,,,,,,,,,,,,,,
null,,prac_learn_phase(without_color),371403,,,,black_plus_sign,,,null,object_11b.png,object_11c.png,,,,,,,,,,,,,,,,,
null,,prac_black_cross(without_color),372386,,,,blue,,,null,object_11b.png,object_11c.png,,,,,,,,,,,,,,,,,
null,,prac_rt_plussign_withcolor,372888,,,,blue,,,null,object_11b.png,object_11c.png,,,,,,,,,,,,,,,,,
1152.4000000953674,,prac_rt_thecrossant_black,373908,,,,black_plus_sign,,,49,,,1,1,,,,,,,,,,,,,,,
null,,prac_color_black,374010,,,,black_plus_sign,,,null,,,,,,,,,,,,,,,,,,,
null,,prac_learn_phase(without_color),377512,,,,black_plus_sign,,,null,object_05c.png,object_05b.png,,,,,,,,,,,,,,,,,
null,,black_cross(without_color)1,378398,,,,blue,,,null,object_11b.png,object_11c.png,,,,,,,,,,,,,,,,,
null,,prac_rt_plussign_withcolor,378901,,,,green,,,null,object_05c.png,object_05b.png,,,,,,,,,,,,,,,,,
1687.1000001430511,,prac_rt_thecrossant_black,380355,,,,black_plus_sign,,,50,,,1,1,,,,,,,,,,,,,,,
null,,prac_color_black,380457,,,,black_plus_sign,,,null,,,,,,,,,,,,,,,,,,,
null,,prac_learn_phase(without_color),383959,,,,black_plus_sign,,,null,object_05a.png,object_15a.png,,,,,,,,,,,,,,,,,
null,,black_cross(without_color)1,384844,,,,blue,,,null,object_11b.png,object_11c.png,,,,,,,,,,,,,,,,,
null,,prac_rt_plussign_withcolor,385345,,,,green,,,null,object_05a.png,object_15a.png,,,,,,,,,,,,,,,,,
941.5,,prac_rt_thecrossant_black,386660,,,,black_plus_sign,,,50,,,1,1,,,,,,,,,,,,,,,
null,,prac_color_black,386763,,,,black_plus_sign,,,null,,,,,,,,,,,,,,,,,,,
null,,prac_learn_phase(without_color),390265,,,,black_plus_sign,,,null,object_14b.png,object_08c.png,,,,,,,,,,,,,,,,,
null,,black_cross(without_color)1,391151,,,,blue,,,null,object_11b.png,object_11c.png,,,,,,,,,,,,,,,,,
null,,prac_rt_plussign_withcolor,391653,,,,blue,,,null,object_14b.png,object_08c.png,,,,,,,,,,,,,,,,,
1182.7000000476837,,prac_rt_thecrossant_black,393049,,,,black_plus_sign,,,49,,,1,1,,,,,,,,,,,,,,,
null,,prac_color_black,393151,,,,black_plus_sign,,,null,,,,,,,,,,,,,,,,,,,
4060.2000000476837,,instruct_dir_01,397212,,,,instruct,0,Next,,,,,,,,,,,,,,,,,,,,
2613.5,,instruct_dir_2,399827,,,,instruct,1,Next,,,,,,,,,,,,,,,,,,,,
6038.5,,instruct_dir_3,405867,,,,instruct,1,Next,,,,,,,,,,,,,,,,,,,,
3671,,instruct_dir_4,409540,,,,instruct,1,Start,,,,,,,,,,,,,,,,,,,,
null,,thebreak,409642,,,,<p></p>,,,null,,,,,,,,,,,,,,,,,,,
1984.3999998569489,,intro_0,411627,,,,instruct,,,32,,,,,,,,,,,,,,,,,,,
2973.699999809265,,prac_directmemory_phase,414602,,,,practice/object_03a.png,,,51,,,1,,practice/object_02b.png,practice/object_02a.png,practice/object_03b.png,practice/object_03b.png,1,1,,,,,,,,,
4013.5999999046326,,prac_directmemory_phase,418617,,,,practice/object_02a.png,,,49,,,1,,practice/object_02b.png,practice/object_01b.png,practice/object_01a.png,practice/object_02b.png,1,1,,,,,,,,,
2986.0999999046326,,prac_directmemory_phase,421604,,,,practice/object_04a.png,,,50,,,1,,practice/object_02a.png,practice/object_04b.png,practice/object_01b.png,practice/object_04b.png,1,1,,,,,,,,,
2288.4000000953674,,prac_directmemory_phase,423894,,,,practice/object_01a.png,,,51,,,1,,practice/object_02b.png,practice/object_02a.png,practice/object_01b.png,practice/object_01b.png,1,1,,,,,,,,,
3214.100000143051,,practice_feedback,427110,,,,practice_feedback,1,,,,,,,,,,,,,,,,,,,,,
9841,,proceed_actualTask,436952,,,,proceed_actualTask,1,Continue,,,,,,,,,,,,,,,,,,,,
7981.200000047684,,last_inst,444935,,,,last_inst,,,32,,,,,,,,,,,,,,,,,,,
null,,learn_phase(without_color)1,448436,,,,black_plus_sign,,,null,object_11b.png,object_11c.png,,,,,,,,,,,,,,,,,
null,,black_cross(without_color)1,449323,,,,blue,,,null,object_11b.png,object_11c.png,,,,,,,,,,,,,,,,,
null,,rt_plussign_withcolor1,449824,,,,blue,,,null,object_11b.png,object_11c.png,,,,,,,,,,,,,,,,,
1473.7000000476837,,rt_thecrossant_black1,450943,,,,black_plus_sign,,,49,,,1,,,,,,,1,,,,,,,,,
null,,color_black1,451046,,,,black_plus_sign,,,null,,,,,,,,,,,,,,,,,,,
null,,learn_phase(without_color)1,454548,,,,black_plus_sign,,,null,object_05c.png,object_05b.png,,,,,,,,,,,,,,,,,
null,,black_cross(without_color)1,455029,,,,blue,,,null,object_05c.png,object_05b.png,,,,,,,,,,,,,,,,,
null,,rt_plussign_withcolor1,455531,,,,blue,,,null,object_05c.png,object_05b.png,,,,,,,,,,,,,,,,,
1037.2000000476837,,rt_thecrossant_black1,457054,,,,black_plus_sign,,,49,,,1,,,,,,,1,,,,,,,,,
null,,color_black1,457157,,,,black_plus_sign,,,null,,,,,,,,,,,,,,,,,,,
null,,learn_phase(without_color)1,460659,,,,black_plus_sign,,,null,object_05a.png,object_15a.png,,,,,,,,,,,,,,,,,
null,,black_cross(without_color)1,461191,,,,blue,,,null,object_05a.png,object_15a.png,,,,,,,,,,,,,,,,,
null,,rt_plussign_withcolor1,461693,,,,blue,,,null,object_05a.png,object_15a.png,,,,,,,,,,,,,,,,,
1049.7999999523163,,rt_thecrossant_black1,463186,,,,black_plus_sign,,,49,,,1,,,,,,,1,,,,,,,,,
null,,color_black1,463289,,,,black_plus_sign,,,null,,,,,,,,,,,,,,,,,,,
null,,learn_phase(without_color)1,466791,,,,black_plus_sign,,,null,object_14b.png,object_08c.png,,,,,,,,,,,,,,,,,
null,,black_cross(without_color)1,467761,,,,blue,,,null,object_14b.png,object_08c.png,,,,,,,,,,,,,,,,,
null,,rt_plussign_withcolor1,468263,,,,blue,,,null,object_14b.png,object_08c.png,,,,,,,,,,,,,,,,,
1064.6000001430511,,rt_thecrossant_black1,469301,,,,black_plus_sign,,,49,,,1,,,,,,,1,,,,,,,,,
null,,color_black1,469404,,,,black_plus_sign,,,null,,,,,,,,,,,,,,,,,,,
null,,learn_phase(without_color)1,472905,,,,black_plus_sign,,,null,object_07b.png,object_08a.png,,,,,,,,,,,,,,,,,
null,,black_cross(without_color)1,473478,,,,blue,,,null,object_07b.png,object_08a.png,,,,,,,,,,,,,,,,,
null,,rt_plussign_withcolor1,473980,,,,blue,,,null,object_07b.png,object_08a.png,,,,,,,,,,,,,,,,,
1416.3999998569489,,rt_thecrossant_black1,475412,,,,black_plus_sign,,,49,,,1,,,,,,,1,,,,,,,,,
null,,color_black1,475527,,,,black_plus_sign,,,null,,,,,,,,,,,,,,,,,,,
null,,learn_phase(without_color)1,479029,,,,black_plus_sign,,,null,object_09a.png,object_15a.png,,,,,,,,,,,,,,,,,
null,,black_cross(without_color)1,479881,,,,green,,,null,object_09a.png,object_15a.png,,,,,,,,,,,,,,,,,
null,,rt_plussign_withcolor1,480382,,,,green,,,null,object_09a.png,object_15a.png,,,,,,,,,,,,,,,,,
959,,rt_thecrossant_black1,481535,,,,black_plus_sign,,,50,,,1,,,,,,,1,,,,,,,,,
null,,color_black1,481637,,,,black_plus_sign,,,null,,,,,,,,,,,,,,,,,,,
null,,learn_phase(without_color)1,485140,,,,black_plus_sign,,,null,object_07a.png,object_09b.png,,,,,,,,,,,,,,,,,
null,,black_cross(without_color)1,485569,,,,green,,,null,object_07a.png,object_09b.png,,,,,,,,,,,,,,,,,
null,,rt_plussign_withcolor1,486071,,,,green,,,null,object_07a.png,object_09b.png,,,,,,,,,,,,,,,,,
1399.2000000476837,,rt_thecrossant_black1,487654,,,,black_plus_sign,,,50,,,1,,,,,,,1,,,,,,,,,
null,,color_black1,487756,,,,black_plus_sign,,,null,,,,,,,,,,,,,,,,,,,
null,,learn_phase(without_color)1,491259,,,,black_plus_sign,,,null,object_13a.png,object_09b.png,,,,,,,,,,,,,,,,,
null,,black_cross(without_color)1,491765,,,,green,,,null,object_13a.png,object_09b.png,,,,,,,,,,,,,,,,,
null,,rt_plussign_withcolor1,492266,,,,green,,,null,object_13a.png,object_09b.png,,,,,,,,,,,,,,,,,
1006.5,,rt_thecrossant_black1,493763,,,,black_plus_sign,,,50,,,1,,,,,,,1,,,,,,,,,
null,,color_black1,493865,,,,black_plus_sign,,,null,,,,,,,,,,,,,,,,,,,
null,,learn_phase(without_color)1,497367,,,,black_plus_sign,,,null,object_01c.png,object_01a.png,,,,,,,,,,,,,,,,,
null,,black_cross(without_color)1,497914,,,,blue,,,null,object_01c.png,object_01a.png,,,,,,,,,,,,,,,,,
null,,rt_plussign_withcolor1,498416,,,,blue,,,null,object_01c.png,object_01a.png,,,,,,,,,,,,,,,,,
1040.2999999523163,,rt_thecrossant_black1,499874,,,,black_plus_sign,,,49,,,1,,,,,,,1,,,,,,,,,
null,,color_black1,499976,,,,black_plus_sign,,,null,,,,,,,,,,,,,,,,,,,
null,,learn_phase(without_color)1,503478,,,,black_plus_sign,,,null,object_03b.png,object_11c.png,,,,,,,,,,,,,,,,,
null,,black_cross(without_color)1,504242,,,,green,,,null,object_03b.png,object_11c.png,,,,,,,,,,,,,,,,,
null,,rt_plussign_withcolor1,504744,,,,green,,,null,object_03b.png,object_11c.png,,,,,,,,,,,,,,,,,
1100.7999999523163,,rt_thecrossant_black1,505985,,,,black_plus_sign,,,50,,,1,,,,,,,1,,,,,,,,,
null,,color_black1,506087,,,,black_plus_sign,,,null,,,,,,,,,,,,,,,,,,,
null,,learn_phase(without_color)1,509590,,,,black_plus_sign,,,null,object_14c.png,object_06b.png,,,,,,,,,,,,,,,,,
null,,black_cross(without_color)1,510515,,,,blue,,,null,object_14c.png,object_06b.png,,,,,,,,,,,,,,,,,
null,,rt_plussign_withcolor1,511017,,,,blue,,,null,object_14c.png,object_06b.png,,,,,,,,,,,,,,,,,
1376,,rt_thecrossant_black1,512098,,,,black_plus_sign,,,49,,,1,,,,,,,1,,,,,,,,,
null,,color_black1,512199,,,,black_plus_sign,,,null,,,,,,,,,,,,,,,,,,,
null,,learn_phase(without_color)1,515702,,,,black_plus_sign,,,null,object_01b.png,object_03c.png,,,,,,,,,,,,,,,,,
null,,black_cross(without_color)1,516261,,,,green,,,null,object_01b.png,object_03c.png,,,,,,,,,,,,,,,,,
null,,rt_plussign_withcolor1,516762,,,,green,,,null,object_01b.png,object_03c.png,,,,,,,,,,,,,,,,,
1535.9000000953674,,rt_thecrossant_black1,518208,,,,black_plus_sign,,,50,,,1,,,,,,,1,,,,,,,,,
null,,color_black1,518311,,,,black_plus_sign,,,null,,,,,,,,,,,,,,,,,,,
null,,learn_phase(without_color)1,521814,,,,black_plus_sign,,,null,object_08b.png,object_08c.png,,,,,,,,,,,,,,,,,
null,,black_cross(without_color)1,522321,,,,green,,,null,object_08b.png,object_08c.png,,,,,,,,,,,,,,,,,
null,,rt_plussign_withcolor1,522823,,,,green,,,null,object_08b.png,object_08c.png,,,,,,,,,,,,,,,,,
1033.2000000476837,,rt_thecrossant_black1,524320,,,,black_plus_sign,,,50,,,1,,,,,,,1,,,,,,,,,
null,,color_black1,524422,,,,black_plus_sign,,,null,,,,,,,,,,,,,,,,,,,
null,,learn_phase(without_color)1,527925,,,,black_plus_sign,,,null,object_15b.png,object_15c.png,,,,,,,,,,,,,,,,,
null,,black_cross(without_color)1,528372,,,,blue,,,null,object_15b.png,object_15c.png,,,,,,,,,,,,,,,,,
null,,rt_plussign_withcolor1,528873,,,,blue,,,null,object_15b.png,object_15c.png,,,,,,,,,,,,,,,,,
1015.1000001430511,,rt_thecrossant_black1,530431,,,,black_plus_sign,,,49,,,1,,,,,,,1,,,,,,,,,
null,,color_black1,530534,,,,black_plus_sign,,,null,,,,,,,,,,,,,,,,,,,
null,,learn_phase(without_color)1,534036,,,,black_plus_sign,,,null,object_10b.png,object_01c.png,,,,,,,,,,,,,,,,,
null,,black_cross(without_color)1,534802,,,,green,,,null,object_10b.png,object_01c.png,,,,,,,,,,,,,,,,,
null,,rt_plussign_withcolor1,535317,,,,green,,,null,object_10b.png,object_01c.png,,,,,,,,,,,,,,,,,
916.1000001430511,,rt_thecrossant_black1,536556,,,,black_plus_sign,,,50,,,1,,,,,,,1,,,,,,,,,
null,,color_black1,536658,,,,black_plus_sign,,,null,,,,,,,,,,,,,,,,,,,
null,,learn_phase(without_color)1,540160,,,,black_plus_sign,,,null,object_02a.png,object_02c.png,,,,,,,,,,,,,,,,,
null,,black_cross(without_color)1,540848,,,,blue,,,null,object_02a.png,object_02c.png,,,,,,,,,,,,,,,,,
null,,rt_plussign_withcolor1,541350,,,,blue,,,null,object_02a.png,object_02c.png,,,,,,,,,,,,,,,,,
951.5999999046326,,rt_thecrossant_black1,542667,,,,black_plus_sign,,,49,,,1,,,,,,,1,,,,,,,,,
null,,color_black1,542769,,,,black_plus_sign,,,null,,,,,,,,,,,,,,,,,,,
null,,learn_phase(without_color)1,546271,,,,black_plus_sign,,,null,object_07c.png,object_06b.png,,,,,,,,,,,,,,,,,
null,,black_cross(without_color)1,546720,,,,green,,,null,object_07c.png,object_06b.png,,,,,,,,,,,,,,,,,
null,,rt_plussign_withcolor1,547222,,,,green,,,null,object_07c.png,object_06b.png,,,,,,,,,,,,,,,,,
1269.1000001430511,,rt_thecrossant_black1,548777,,,,black_plus_sign,,,50,,,1,,,,,,,1,,,,,,,,,
null,,color_black1,548879,,,,black_plus_sign,,,null,,,,,,,,,,,,,,,,,,,
null,,learn_phase(without_color)1,552382,,,,black_plus_sign,,,null,object_03a.png,object_06c.png,,,,,,,,,,,,,,,,,
null,,black_cross(without_color)1,553179,,,,green,,,null,object_03a.png,object_06c.png,,,,,,,,,,,,,,,,,
null,,rt_plussign_withcolor1,553691,,,,green,,,null,object_03a.png,object_06c.png,,,,,,,,,,,,,,,,,
827,,rt_thecrossant_black1,554900,,,,black_plus_sign,,,50,,,1,,,,,,,1,,,,,,,,,
null,,color_black1,555003,,,,black_plus_sign,,,null,,,,,,,,,,,,,,,,,,,
null,,learn_phase(without_color)1,558507,,,,black_plus_sign,,,null,object_02b.png,object_09c.png,,,,,,,,,,,,,,,,,
null,,black_cross(without_color)1,558994,,,,green,,,null,object_02b.png,object_09c.png,,,,,,,,,,,,,,,,,
null,,rt_plussign_withcolor1,559496,,,,green,,,null,object_02b.png,object_09c.png,,,,,,,,,,,,,,,,,
1350.0999999046326,,rt_thecrossant_black1,561013,,,,black_plus_sign,,,50,,,1,,,,,,,1,,,,,,,,,
null,,color_black1,561115,,,,black_plus_sign,,,null,,,,,,,,,,,,,,,,,,,
null,,learn_phase(without_color)1,564618,,,,black_plus_sign,,,null,object_12b.png,object_04c.png,,,,,,,,,,,,,,,,,
null,,black_cross(without_color)1,565353,,,,green,,,null,object_12b.png,object_04c.png,,,,,,,,,,,,,,,,,
null,,rt_plussign_withcolor1,565855,,,,green,,,null,object_12b.png,object_04c.png,,,,,,,,,,,,,,,,,
995.2999999523163,,rt_thecrossant_black1,567124,,,,black_plus_sign,,,50,,,1,,,,,,,1,,,,,,,,,
null,,color_black1,567231,,,,black_plus_sign,,,null,,,,,,,,,,,,,,,,,,,
null,,learn_phase(without_color)1,570734,,,,black_plus_sign,,,null,object_13c.png,object_13b.png,,,,,,,,,,,,,,,,,
null,,black_cross(without_color)1,571585,,,,green,,,null,object_13c.png,object_13b.png,,,,,,,,,,,,,,,,,
null,,rt_plussign_withcolor1,572088,,,,green,,,null,object_13c.png,object_13b.png,,,,,,,,,,,,,,,,,
1124.5,,rt_thecrossant_black1,573241,,,,black_plus_sign,,,50,,,1,,,,,,,1,,,,,,,,,
null,,color_black1,573343,,,,black_plus_sign,,,null,,,,,,,,,,,,,,,,,,,
null,,learn_phase(without_color)1,576846,,,,black_plus_sign,,,null,object_12a.png,object_12b.png,,,,,,,,,,,,,,,,,
null,,black_cross(without_color)1,577701,,,,green,,,null,object_12a.png,object_12b.png,,,,,,,,,,,,,,,,,
null,,rt_plussign_withcolor1,578203,,,,green,,,null,object_12a.png,object_12b.png,,,,,,,,,,,,,,,,,
1354.3999998569489,,rt_thecrossant_black1,579353,,,,black_plus_sign,,,50,,,1,,,,,,,1,,,,,,,,,
null,,color_black1,579455,,,,black_plus_sign,,,null,,,,,,,,,,,,,,,,,,,
null,,learn_phase(without_color)1,582958,,,,black_plus_sign,,,null,object_10a.png,object_06c.png,,,,,,,,,,,,,,,,,
null,,black_cross(without_color)1,583469,,,,green,,,null,object_10a.png,object_06c.png,,,,,,,,,,,,,,,,,
null,,rt_plussign_withcolor1,583971,,,,green,,,null,object_10a.png,object_06c.png,,,,,,,,,,,,,,,,,
1371.7000000476837,,rt_thecrossant_black1,585465,,,,black_plus_sign,,,50,,,1,,,,,,,1,,,,,,,,,
null,,color_black1,585567,,,,black_plus_sign,,,null,,,,,,,,,,,,,,,,,,,
null,,learn_phase(without_color)1,589070,,,,black_plus_sign,,,null,object_10c.png,object_15b.png,,,,,,,,,,,,,,,,,
null,,black_cross(without_color)1,590001,,,,green,,,null,object_10c.png,object_15b.png,,,,,,,,,,,,,,,,,
null,,rt_plussign_withcolor1,590502,,,,green,,,null,object_10c.png,object_15b.png,,,,,,,,,,,,,,,,,
795.5,,rt_thecrossant_black1,591576,,,,black_plus_sign,,,50,,,1,,,,,,,1,,,,,,,,,
null,,color_black1,591679,,,,black_plus_sign,,,null,,,,,,,,,,,,,,,,,,,
null,,learn_phase(without_color)1,595181,,,,black_plus_sign,,,null,object_13b.png,object_04a.png,,,,,,,,,,,,,,,,,
null,,black_cross(without_color)1,596013,,,,blue,,,null,object_13b.png,object_04a.png,,,,,,,,,,,,,,,,,
null,,rt_plussign_withcolor1,596515,,,,blue,,,null,object_13b.png,object_04a.png,,,,,,,,,,,,,,,,,
1416,,rt_thecrossant_black1,597689,,,,black_plus_sign,,,49,,,1,,,,,,,1,,,,,,,,,
null,,color_black1,597792,,,,black_plus_sign,,,null,,,,,,,,,,,,,,,,,,,
null,,learn_phase(without_color)1,601295,,,,black_plus_sign,,,null,object_11a.png,object_09c.png,,,,,,,,,,,,,,,,,
null,,black_cross(without_color)1,601795,,,,green,,,null,object_11a.png,object_09c.png,,,,,,,,,,,,,,,,,
null,,rt_plussign_withcolor1,602297,,,,green,,,null,object_11a.png,object_09c.png,,,,,,,,,,,,,,,,,
1184.7000000476837,,rt_thecrossant_black1,603802,,,,black_plus_sign,,,50,,,1,,,,,,,1,,,,,,,,,
null,,color_black1,603904,,,,black_plus_sign,,,null,,,,,,,,,,,,,,,,,,,
null,,learn_phase(without_color)1,607407,,,,black_plus_sign,,,null,object_02a.png,object_12c.png,,,,,,,,,,,,,,,,,
null,,black_cross(without_color)1,608235,,,,green,,,null,object_02a.png,object_12c.png,,,,,,,,,,,,,,,,,
null,,rt_plussign_withcolor1,608738,,,,green,,,null,object_02a.png,object_12c.png,,,,,,,,,,,,,,,,,
884.9000000953674,,rt_thecrossant_black1,609915,,,,black_plus_sign,,,50,,,1,,,,,,,1,,,,,,,,,
null,,color_black1,610018,,,,black_plus_sign,,,null,,,,,,,,,,,,,,,,,,,
null,,learn_phase(without_color)1,613520,,,,black_plus_sign,,,null,object_07b.png,object_14a.png,,,,,,,,,,,,,,,,,
null,,black_cross(without_color)1,614278,,,,blue,,,null,object_07b.png,object_14a.png,,,,,,,,,,,,,,,,,
null,,rt_plussign_withcolor1,614780,,,,blue,,,null,object_07b.png,object_14a.png,,,,,,,,,,,,,,,,,
1137.2000000476837,,rt_thecrossant_black1,616027,,,,black_plus_sign,,,49,,,1,,,,,,,1,,,,,,,,,
null,,color_black1,616130,,,,black_plus_sign,,,null,,,,,,,,,,,,,,,,,,,
null,,learn_phase(without_color)1,619632,,,,black_plus_sign,,,null,object_03c.png,object_04b.png,,,,,,,,,,,,,,,,,
null,,black_cross(without_color)1,620200,,,,green,,,null,object_03c.png,object_04b.png,,,,,,,,,,,,,,,,,
null,,rt_plussign_withcolor1,620702,,,,green,,,null,object_03c.png,object_04b.png,,,,,,,,,,,,,,,,,
1175,,rt_thecrossant_black1,622139,,,,black_plus_sign,,,50,,,1,,,,,,,1,,,,,,,,,
null,,color_black1,622241,,,,black_plus_sign,,,null,,,,,,,,,,,,,,,,,,,
null,,learn_phase(without_color)1,625744,,,,black_plus_sign,,,null,object_06a.png,object_05b.png,,,,,,,,,,,,,,,,,
null,,black_cross(without_color)1,626302,,,,blue,,,null,object_06a.png,object_05b.png,,,,,,,,,,,,,,,,,
null,,rt_plussign_withcolor1,626804,,,,blue,,,null,object_06a.png,object_05b.png,,,,,,,,,,,,,,,,,
877.9000000953674,,rt_thecrossant_black1,628257,,,,black_plus_sign,,,49,,,1,,,,,,,1,,,,,,,,,
null,,color_black1,628359,,,,black_plus_sign,,,null,,,,,,,,,,,,,,,,,,,
null,,thebreak,628463,,,,<p></p>,,,null,,,,,,,,,,,,,,,,,,,
2060.0999999046326,,intro_0,630524,,,,instruct,,,32,,,,,,,,,,,,,,,,,,,
4985.799999952316,,directmemory_phase1,635510,,,,object_01a.png,,,51,,,1,,object_15b.png,object_07a.png,object_01c.png,object_01c.png,,1,1,,,,,,,,
5974.600000143051,,directmemory_phase1,641487,,,,object_07a.png,,,50,,,0,,object_05b.png,object_03b.png,object_09b.png,object_09b.png,,0.5,0,,,,,,,,
7961.399999856949,,directmemory_phase1,649450,,,,object_04c.png,,,49,,,1,,object_12b.png,object_07b.png,object_02b.png,object_12b.png,,0.6666666666666666,1,,,,,,,,
5559.299999952316,,directmemory_phase1,655010,,,,object_05a.png,,,49,,,1,,object_15a.png,object_05b.png,object_13c.png,object_15a.png,,0.75,1,,,,,,,,
4377.599999904633,,directmemory_phase1,659390,,,,object_02c.png,,,51,,,1,,object_12b.png,object_05a.png,object_02a.png,object_02a.png,,0.8,1,,,,,,,,
5159.600000143051,,directmemory_phase1,664550,,,,object_06a.png,,,49,,,0,,object_01c.png,object_14b.png,object_05b.png,object_05b.png,,0.6666666666666666,0,,,,,,,,
7112.700000047684,,directmemory_phase1,671664,,,,object_03c.png,,,51,,,0,,object_13b.png,object_04b.png,object_09a.png,object_04b.png,,0.5714285714285714,0,,,,,,,,
4760.100000143051,,directmemory_phase1,676426,,,,object_13c.png,,,50,,,1,,object_03b.png,object_13b.png,object_07b.png,object_13b.png,,0.625,1,,,,,,,,
5552,,directmemory_phase1,681979,,,,object_04a.png,,,49,,,1,,object_13b.png,object_11c.png,object_10c.png,object_13b.png,,0.6666666666666666,1,,,,,,,,
2601.5,,directmemory_phase1,684583,,,,object_08a.png,,,50,,,1,,object_05a.png,object_07b.png,object_05b.png,object_07b.png,,0.7,1,,,,,,,,
7236.5,,directmemory_phase1,691820,,,,object_06b.png,,,51,,,1,,object_04b.png,object_06c.png,object_14c.png,object_14c.png,,0.7272727272727273,1,,,,,,,,
7244.599999904633,,directmemory_phase1,699067,,,,object_08c.png,,,51,,,0,,object_08b.png,object_13a.png,object_01c.png,object_08b.png,,0.6666666666666666,0,,,,,,,,
5837.799999952316,,directmemory_phase1,704906,,,,object_09b.png,,,51,,,1,,object_10c.png,object_15a.png,object_13a.png,object_13a.png,,0.6923076923076923,1,,,,,,,,
7237.200000047684,,directmemory_phase1,712145,,,,object_11a.png,,,51,,,1,,object_01c.png,object_13c.png,object_09c.png,object_09c.png,,0.7142857142857143,1,,,,,,,,
7015.5,,directmemory_phase1,719162,,,,object_05c.png,,,51,,,0,,object_05b.png,object_09c.png,object_10b.png,object_05b.png,,0.6666666666666666,0,,,,,,,,
6385.5,,directmemory_phase1,725549,,,,object_09c.png,,,50,,,0,,object_02b.png,object_05c.png,object_01c.png,object_02b.png,,0.625,0,,,,,,,,
8738.5,,directmemory_phase1,734289,,,,object_10b.png,,,51,,,1,,object_15b.png,object_05c.png,object_01c.png,object_01c.png,,0.6470588235294118,1,,,,,,,,
4939.799999952316,,directmemory_phase1,739231,,,,object_01b.png,,,51,,,0,,object_03c.png,object_13b.png,object_07a.png,object_03c.png,,0.6111111111111112,0,,,,,,,,
4663,,directmemory_phase1,743896,,,,object_15c.png,,,50,,,0,,object_15b.png,object_03c.png,object_11a.png,object_15b.png,,0.5789473684210527,0,,,,,,,,
4921.400000095367,,directmemory_phase1,748819,,,,object_03b.png,,,50,,,1,,object_11a.png,object_11c.png,object_15b.png,object_11c.png,,0.6,1,,,,,,,,
4460.200000047684,,directmemory_phase1,753280,,,,object_12a.png,,,49,,,1,,object_12b.png,object_02a.png,object_15c.png,object_12b.png,,0.6190476190476191,1,,,,,,,,
3254.100000143051,,directmemory_phase1,756536,,,,object_14b.png,,,49,,,1,,object_08c.png,object_11c.png,object_12a.png,object_08c.png,,0.6363636363636364,1,,,,,,,,
3237.5999999046326,,directmemory_phase1,759775,,,,object_07b.png,,,50,,,0,,object_14a.png,object_04b.png,object_05b.png,object_14a.png,,0.6086956521739131,0,,,,,,,,
3984.399999856949,,directmemory_phase1,763760,,,,object_12c.png,,,50,,,1,,object_02b.png,object_02a.png,object_15a.png,object_02a.png,,0.625,1,,,,,,,,
5858.700000047684,,directmemory_phase1,769620,,,,object_10a.png,,,51,,,1,,object_15b.png,object_08a.png,object_06c.png,object_06c.png,,0.64,1,,,,,,,,
8217.900000095367,,directmemory_phase1,777839,,,,object_06c.png,,,51,,,1,,object_13a.png,object_09b.png,object_03a.png,object_03a.png,,0.6538461538461539,1,,,,,,,,
6317.5,,directmemory_phase1,784158,,,,object_11b.png,,,50,,,1,,object_10b.png,object_11c.png,object_07b.png,object_11c.png,,0.6666666666666666,1,,,,,,,,
6802.5,,directmemory_phase1,790962,,,,object_10c.png,,,50,,,0,,object_15b.png,object_09c.png,object_12c.png,object_15b.png,,0.6428571428571429,0,,,,,,,,
6848.799999952316,,directmemory_phase1,797812,,,,object_09a.png,,,51,,,1,,object_11c.png,object_05c.png,object_15a.png,object_15a.png,,0.6551724137931034,1,,,,,,,,
7654.700000047684,,directmemory_phase1,805469,,,,object_07c.png,,,50,,,0,,object_06b.png,object_05b.png,object_11a.png,object_06b.png,,0.6333333333333333,0,,,,,,,,
null,,thebreak,805572,,,,<p></p>,,,null,,,,,,,,,,,,,,,,,,,
3100.0999999046326,,intro_0,808673,,,,instruct,,,32,,,,,,,,,,,,,,,,,,,
null,,learn_phase(without_color)2,812174,,,,black_plus_sign,,,null,object_09a.png,object_15a.png,,,,,,,,,,,,,,,,,
null,,black_cross(without_color)2,812656,,,,green,,,null,object_09a.png,object_15a.png,,,,,,,,,,,,,,,,,
null,,rt_plussign_withcolor2,813158,,,,green,,,null,object_09a.png,object_15a.png,,,,,,,,,,,,,,,,,
998.7999999523163,,rt_thecrossant_black2,814680,,,,black_plus_sign,,,50,,,1,,,,,,,1,,,,,,,,,
null,,color_black2,814782,,,,black_plus_sign,,,null,,,,,,,,,,,,,,,,,,,
null,,learn_phase(without_color)2,818284,,,,black_plus_sign,,,null,object_07c.png,object_06b.png,,,,,,,,,,,,,,,,,
null,,black_cross(without_color)2,819034,,,,green,,,null,object_07c.png,object_06b.png,,,,,,,,,,,,,,,,,
null,,rt_plussign_withcolor2,819536,,,,green,,,null,object_07c.png,object_06b.png,,,,,,,,,,,,,,,,,
936.5999999046326,,rt_thecrossant_black2,820791,,,,black_plus_sign,,,50,,,1,,,,,,,1,,,,,,,,,
null,,color_black2,820894,,,,black_plus_sign,,,null,,,,,,,,,,,,,,,,,,,
null,,learn_phase(without_color)2,824396,,,,black_plus_sign,,,null,object_05a.png,object_15a.png,,,,,,,,,,,,,,,,,
null,,black_cross(without_color)2,825346,,,,green,,,null,object_05a.png,object_15a.png,,,,,,,,,,,,,,,,,
null,,rt_plussign_withcolor2,825847,,,,green,,,null,object_05a.png,object_15a.png,,,,,,,,,,,,,,,,,
1245.1000001430511,,rt_thecrossant_black2,826902,,,,black_plus_sign,,,50,,,1,,,,,,,1,,,,,,,,,
null,,color_black2,827005,,,,black_plus_sign,,,null,,,,,,,,,,,,,,,,,,,
null,,learn_phase(without_color)2,830507,,,,black_plus_sign,,,null,object_02c.png,object_02a.png,,,,,,,,,,,,,,,,,
null,,black_cross(without_color)2,830967,,,,blue,,,null,object_02c.png,object_02a.png,,,,,,,,,,,,,,,,,
null,,rt_plussign_withcolor2,831468,,,,blue,,,null,object_02c.png,object_02a.png,,,,,,,,,,,,,,,,,
1287.2999999523163,,rt_thecrossant_black2,833014,,,,black_plus_sign,,,49,,,1,,,,,,,1,,,,,,,,,
null,,color_black2,833120,,,,black_plus_sign,,,null,,,,,,,,,,,,,,,,,,,
null,,learn_phase(without_color)2,836622,,,,black_plus_sign,,,null,object_10c.png,object_15b.png,,,,,,,,,,,,,,,,,
null,,black_cross(without_color)2,837073,,,,green,,,null,object_10c.png,object_15b.png,,,,,,,,,,,,,,,,,
null,,rt_plussign_withcolor2,837575,,,,green,,,null,object_10c.png,object_15b.png,,,,,,,,,,,,,,,,,
795.2000000476837,,rt_thecrossant_black2,839127,,,,black_plus_sign,,,50,,,1,,,,,,,1,,,,,,,,,
null,,color_black2,839230,,,,black_plus_sign,,,null,,,,,,,,,,,,,,,,,,,
null,,learn_phase(without_color)2,842733,,,,black_plus_sign,,,null,object_01a.png,object_01c.png,,,,,,,,,,,,,,,,,
null,,black_cross(without_color)2,843429,,,,blue,,,null,object_01a.png,object_01c.png,,,,,,,,,,,,,,,,,
null,,rt_plussign_withcolor2,843930,,,,blue,,,null,object_01a.png,object_01c.png,,,,,,,,,,,,,,,,,
625.7999999523163,,rt_thecrossant_black2,845240,,,,black_plus_sign,,,49,,,1,,,,,,,1,,,,,,,,,
null,,color_black2,845342,,,,black_plus_sign,,,null,,,,,,,,,,,,,,,,,,,
null,,learn_phase(without_color)2,848844,,,,black_plus_sign,,,null,object_12a.png,object_12b.png,,,,,,,,,,,,,,,,,
null,,black_cross(without_color)2,849517,,,,green,,,null,object_12a.png,object_12b.png,,,,,,,,,,,,,,,,,
null,,rt_plussign_withcolor2,850019,,,,green,,,null,object_12a.png,object_12b.png,,,,,,,,,,,,,,,,,
947.3999998569489,,rt_thecrossant_black2,851351,,,,black_plus_sign,,,50,,,1,,,,,,,1,,,,,,,,,
null,,color_black2,851453,,,,black_plus_sign,,,null,,,,,,,,,,,,,,,,,,,
null,,learn_phase(without_color)2,854957,,,,black_plus_sign,,,null,object_15b.png,object_15c.png,,,,,,,,,,,,,,,,,
null,,black_cross(without_color)2,855607,,,,green,,,null,object_15b.png,object_15c.png,,,,,,,,,,,,,,,,,
null,,rt_plussign_withcolor2,856109,,,,green,,,null,object_15b.png,object_15c.png,,,,,,,,,,,,,,,,,
1221.8000001907349,,rt_thecrossant_black2,857463,,,,black_plus_sign,,,50,,,1,,,,,,,1,,,,,,,,,
null,,color_black2,857569,,,,black_plus_sign,,,null,,,,,,,,,,,,,,,,,,,
null,,learn_phase(without_color)2,861071,,,,black_plus_sign,,,null,object_09c.png,object_11a.png,,,,,,,,,,,,,,,,,
null,,black_cross(without_color)2,861553,,,,green,,,null,object_09c.png,object_11a.png,,,,,,,,,,,,,,,,,
null,,rt_plussign_withcolor2,862056,,,,green,,,null,object_09c.png,object_11a.png,,,,,,,,,,,,,,,,,
975.1000001430511,,rt_thecrossant_black2,863578,,,,black_plus_sign,,,50,,,1,,,,,,,1,,,,,,,,,
null,,color_black2,863681,,,,black_plus_sign,,,null,,,,,,,,,,,,,,,,,,,
null,,learn_phase(without_color)2,867184,,,,black_plus_sign,,,null,object_04b.png,object_03c.png,,,,,,,,,,,,,,,,,
null,,black_cross(without_color)2,867764,,,,blue,,,null,object_04b.png,object_03c.png,,,,,,,,,,,,,,,,,
null,,rt_plussign_withcolor2,868266,,,,blue,,,null,object_04b.png,object_03c.png,,,,,,,,,,,,,,,,,
829.0999999046326,,rt_thecrossant_black2,869691,,,,black_plus_sign,,,49,,,1,,,,,,,1,,,,,,,,,
null,,color_black2,869794,,,,black_plus_sign,,,null,,,,,,,,,,,,,,,,,,,
null,,learn_phase(without_color)2,873296,,,,black_plus_sign,,,null,object_10b.png,object_01c.png,,,,,,,,,,,,,,,,,
null,,black_cross(without_color)2,874248,,,,green,,,null,object_10b.png,object_01c.png,,,,,,,,,,,,,,,,,
null,,rt_plussign_withcolor2,874751,,,,green,,,null,object_10b.png,object_01c.png,,,,,,,,,,,,,,,,,
975.5999999046326,,rt_thecrossant_black2,875805,,,,black_plus_sign,,,50,,,1,,,,,,,1,,,,,,,,,
null,,color_black2,875907,,,,black_plus_sign,,,null,,,,,,,,,,,,,,,,,,,
null,,learn_phase(without_color)2,879410,,,,black_plus_sign,,,null,object_02a.png,object_12c.png,,,,,,,,,,,,,,,,,
null,,black_cross(without_color)2,880305,,,,green,,,null,object_02a.png,object_12c.png,,,,,,,,,,,,,,,,,
null,,rt_plussign_withcolor2,880807,,,,green,,,null,object_02a.png,object_12c.png,,,,,,,,,,,,,,,,,
1424,,rt_thecrossant_black2,881917,,,,black_plus_sign,,,50,,,1,,,,,,,1,,,,,,,,,
null,,color_black2,882020,,,,black_plus_sign,,,null,,,,,,,,,,,,,,,,,,,
null,,learn_phase(without_color)2,885522,,,,black_plus_sign,,,null,object_09b.png,object_07a.png,,,,,,,,,,,,,,,,,
null,,black_cross(without_color)2,886311,,,,green,,,null,object_09b.png,object_07a.png,,,,,,,,,,,,,,,,,
null,,rt_plussign_withcolor2,886813,,,,green,,,null,object_09b.png,object_07a.png,,,,,,,,,,,,,,,,,
1235.2999999523163,,rt_thecrossant_black2,888029,,,,black_plus_sign,,,50,,,1,,,,,,,1,,,,,,,,,
null,,color_black2,888131,,,,black_plus_sign,,,null,,,,,,,,,,,,,,,,,,,
null,,learn_phase(without_color)2,891634,,,,black_plus_sign,,,null,object_03b.png,object_11c.png,,,,,,,,,,,,,,,,,
null,,black_cross(without_color)2,892260,,,,blue,,,null,object_03b.png,object_11c.png,,,,,,,,,,,,,,,,,
null,,rt_plussign_withcolor2,892763,,,,blue,,,null,object_03b.png,object_11c.png,,,,,,,,,,,,,,,,,
1351.1999998092651,,rt_thecrossant_black2,894141,,,,black_plus_sign,,,49,,,1,,,,,,,1,,,,,,,,,
null,,color_black2,894244,,,,black_plus_sign,,,null,,,,,,,,,,,,,,,,,,,
null,,learn_phase(without_color)2,897746,,,,black_plus_sign,,,null,object_08c.png,object_14b.png,,,,,,,,,,,,,,,,,
null,,black_cross(without_color)2,898569,,,,green,,,null,object_08c.png,object_14b.png,,,,,,,,,,,,,,,,,
null,,rt_plussign_withcolor2,899070,,,,green,,,null,object_08c.png,object_14b.png,,,,,,,,,,,,,,,,,
1046.8999998569489,,rt_thecrossant_black2,900252,,,,black_plus_sign,,,50,,,1,,,,,,,1,,,,,,,,,
null,,color_black2,900354,,,,black_plus_sign,,,null,,,,,,,,,,,,,,,,,,,
null,,learn_phase(without_color)2,903857,,,,black_plus_sign,,,null,object_12b.png,object_04c.png,,,,,,,,,,,,,,,,,
null,,black_cross(without_color)2,904914,,,,blue,,,null,object_12b.png,object_04c.png,,,,,,,,,,,,,,,,,
null,,rt_plussign_withcolor2,905415,,,,blue,,,null,object_12b.png,object_04c.png,,,,,,,,,,,,,,,,,
1152.7000000476837,,rt_thecrossant_black2,906362,,,,black_plus_sign,,,49,,,1,,,,,,,1,,,,,,,,,
null,,color_black2,906465,,,,black_plus_sign,,,null,,,,,,,,,,,,,,,,,,,
null,,learn_phase(without_color)2,909968,,,,black_plus_sign,,,null,object_05b.png,object_06a.png,,,,,,,,,,,,,,,,,
null,,black_cross(without_color)2,911068,,,,blue,,,null,object_05b.png,object_06a.png,,,,,,,,,,,,,,,,,
null,,rt_plussign_withcolor2,911570,,,,blue,,,null,object_05b.png,object_06a.png,,,,,,,,,,,,,,,,,
1560.7000000476837,,rt_thecrossant_black2,912473,,,,black_plus_sign,,,49,,,1,,,,,,,1,,,,,,,,,
null,,color_black2,912586,,,,black_plus_sign,,,null,,,,,,,,,,,,,,,,,,,
null,,learn_phase(without_color)2,916089,,,,black_plus_sign,,,null,object_01b.png,object_03c.png,,,,,,,,,,,,,,,,,
null,,black_cross(without_color)2,916943,,,,green,,,null,object_01b.png,object_03c.png,,,,,,,,,,,,,,,,,
null,,rt_plussign_withcolor2,917444,,,,green,,,null,object_01b.png,object_03c.png,,,,,,,,,,,,,,,,,
1600.8999998569489,,rt_thecrossant_black2,918595,,,,black_plus_sign,,,50,,,1,,,,,,,1,,,,,,,,,
null,,color_black2,918697,,,,black_plus_sign,,,null,,,,,,,,,,,,,,,,,,,
null,,learn_phase(without_color)2,922199,,,,black_plus_sign,,,null,object_03a.png,object_06c.png,,,,,,,,,,,,,,,,,
null,,black_cross(without_color)2,922795,,,,green,,,null,object_03a.png,object_06c.png,,,,,,,,,,,,,,,,,
null,,rt_plussign_withcolor2,923297,,,,green,,,null,object_03a.png,object_06c.png,,,,,,,,,,,,,,,,,
1173.9000000953674,,rt_thecrossant_black2,924706,,,,black_plus_sign,,,50,,,1,,,,,,,1,,,,,,,,,
null,,color_black2,924809,,,,black_plus_sign,,,null,,,,,,,,,,,,,,,,,,,
null,,learn_phase(without_color)2,928311,,,,black_plus_sign,,,null,object_05b.png,object_05c.png,,,,,,,,,,,,,,,,,
null,,black_cross(without_color)2,928896,,,,blue,,,null,object_05b.png,object_05c.png,,,,,,,,,,,,,,,,,
null,,rt_plussign_withcolor2,929398,,,,blue,,,null,object_05b.png,object_05c.png,,,,,,,,,,,,,,,,,
1254.6999998092651,,rt_thecrossant_black2,930817,,,,black_plus_sign,,,49,,,1,,,,,,,1,,,,,,,,,
null,,color_black2,930919,,,,black_plus_sign,,,null,,,,,,,,,,,,,,,,,,,
null,,learn_phase(without_color)2,934422,,,,black_plus_sign,,,null,object_07b.png,object_14a.png,,,,,,,,,,,,,,,,,
null,,black_cross(without_color)2,935508,,,,green,,,null,object_07b.png,object_14a.png,,,,,,,,,,,,,,,,,
null,,rt_plussign_withcolor2,936009,,,,green,,,null,object_07b.png,object_14a.png,,,,,,,,,,,,,,,,,
1161.5,,rt_thecrossant_black2,936928,,,,black_plus_sign,,,50,,,1,,,,,,,1,,,,,,,,,
null,,color_black2,937029,,,,black_plus_sign,,,null,,,,,,,,,,,,,,,,,,,
null,,learn_phase(without_color)2,940531,,,,black_plus_sign,,,null,object_09b.png,object_13a.png,,,,,,,,,,,,,,,,,
null,,black_cross(without_color)2,941488,,,,blue,,,null,object_09b.png,object_13a.png,,,,,,,,,,,,,,,,,
null,,rt_plussign_withcolor2,941989,,,,blue,,,null,object_09b.png,object_13a.png,,,,,,,,,,,,,,,,,
1606.3999998569489,,rt_thecrossant_black2,943037,,,,black_plus_sign,,,49,,,1,,,,,,,1,,,,,,,,,
null,,color_black2,943140,,,,black_plus_sign,,,null,,,,,,,,,,,,,,,,,,,
null,,learn_phase(without_color)2,946641,,,,black_plus_sign,,,null,object_07b.png,object_08a.png,,,,,,,,,,,,,,,,,
null,,black_cross(without_color)2,947285,,,,blue,,,null,object_07b.png,object_08a.png,,,,,,,,,,,,,,,,,
null,,rt_plussign_withcolor2,947787,,,,blue,,,null,object_07b.png,object_08a.png,,,,,,,,,,,,,,,,,
1187.9000000953674,,rt_thecrossant_black2,949148,,,,black_plus_sign,,,49,,,1,,,,,,,1,,,,,,,,,
null,,color_black2,949251,,,,black_plus_sign,,,null,,,,,,,,,,,,,,,,,,,
null,,learn_phase(without_color)2,952753,,,,black_plus_sign,,,null,object_02b.png,object_09c.png,,,,,,,,,,,,,,,,,
null,,black_cross(without_color)2,953814,,,,blue,,,null,object_02b.png,object_09c.png,,,,,,,,,,,,,,,,,
null,,rt_plussign_withcolor2,954316,,,,blue,,,null,object_02b.png,object_09c.png,,,,,,,,,,,,,,,,,
1141.2999999523163,,rt_thecrossant_black2,955261,,,,black_plus_sign,,,49,,,1,,,,,,,1,,,,,,,,,
null,,color_black2,955363,,,,black_plus_sign,,,null,,,,,,,,,,,,,,,,,,,
null,,learn_phase(without_color)2,958866,,,,black_plus_sign,,,null,object_04a.png,object_13b.png,,,,,,,,,,,,,,,,,
null,,black_cross(without_color)2,959799,,,,blue,,,null,object_04a.png,object_13b.png,,,,,,,,,,,,,,,,,
null,,rt_plussign_withcolor2,960307,,,,blue,,,null,object_04a.png,object_13b.png,,,,,,,,,,,,,,,,,
1533,,rt_thecrossant_black2,961379,,,,black_plus_sign,,,49,,,1,,,,,,,1,,,,,,,,,
null,,color_black2,961480,,,,black_plus_sign,,,null,,,,,,,,,,,,,,,,,,,
null,,learn_phase(without_color)2,964983,,,,black_plus_sign,,,null,object_08b.png,object_08c.png,,,,,,,,,,,,,,,,,
null,,black_cross(without_color)2,965692,,,,green,,,null,object_08b.png,object_08c.png,,,,,,,,,,,,,,,,,
null,,rt_plussign_withcolor2,966195,,,,green,,,null,object_08b.png,object_08c.png,,,,,,,,,,,,,,,,,
1373.4000000953674,,rt_thecrossant_black2,967490,,,,black_plus_sign,,,50,,,1,,,,,,,1,,,,,,,,,
null,,color_black2,967592,,,,black_plus_sign,,,null,,,,,,,,,,,,,,,,,,,
null,,learn_phase(without_color)2,971095,,,,black_plus_sign,,,null,object_13c.png,object_13b.png,,,,,,,,,,,,,,,,,
null,,black_cross(without_color)2,971713,,,,green,,,null,object_13c.png,object_13b.png,,,,,,,,,,,,,,,,,
null,,rt_plussign_withcolor2,972215,,,,green,,,null,object_13c.png,object_13b.png,,,,,,,,,,,,,,,,,
1045.8000001907349,,rt_thecrossant_black2,973601,,,,black_plus_sign,,,50,,,1,,,,,,,1,,,,,,,,,
null,,color_black2,973704,,,,black_plus_sign,,,null,,,,,,,,,,,,,,,,,,,
null,,learn_phase(without_color)2,977207,,,,black_plus_sign,,,null,object_11b.png,object_11c.png,,,,,,,,,,,,,,,,,
null,,black_cross(without_color)2,977908,,,,green,,,null,object_11b.png,object_11c.png,,,,,,,,,,,,,,,,,
null,,rt_plussign_withcolor2,978410,,,,green,,,null,object_11b.png,object_11c.png,,,,,,,,,,,,,,,,,
1128,,rt_thecrossant_black2,979717,,,,black_plus_sign,,,50,,,1,,,,,,,1,,,,,,,,,
null,,color_black2,979819,,,,black_plus_sign,,,null,,,,,,,,,,,,,,,,,,,
null,,learn_phase(without_color)2,983323,,,,black_plus_sign,,,null,object_06b.png,object_14c.png,,,,,,,,,,,,,,,,,
null,,black_cross(without_color)2,984047,,,,green,,,null,object_06b.png,object_14c.png,,,,,,,,,,,,,,,,,
null,,rt_plussign_withcolor2,984549,,,,green,,,null,object_06b.png,object_14c.png,,,,,,,,,,,,,,,,,
939,,rt_thecrossant_black2,985829,,,,black_plus_sign,,,50,,,1,,,,,,,1,,,,,,,,,
null,,color_black2,985931,,,,black_plus_sign,,,null,,,,,,,,,,,,,,,,,,,
null,,learn_phase(without_color)2,989434,,,,black_plus_sign,,,null,object_06c.png,object_10a.png,,,,,,,,,,,,,,,,,
null,,black_cross(without_color)2,990204,,,,blue,,,null,object_06c.png,object_10a.png,,,,,,,,,,,,,,,,,
null,,rt_plussign_withcolor2,990706,,,,blue,,,null,object_06c.png,object_10a.png,,,,,,,,,,,,,,,,,
1188.9000000953674,,rt_thecrossant_black2,991940,,,,black_plus_sign,,,49,,,1,,,,,,,1,,,,,,,,,
null,,color_black2,992043,,,,black_plus_sign,,,null,,,,,,,,,,,,,,,,,,,
null,,thebreak,992146,,,,<p></p>,,,null,,,,,,,,,,,,,,,,,,,
1877.5999999046326,,intro_0,994025,,,,instruct,,,32,,,,,,,,,,,,,,,,,,,
7252.5,,directmemory_phase2,1001278,,,,object_11b.png,,,49,,,0,,object_10b.png,object_11c.png,object_05b.png,object_11c.png,,0.6129032258064516,0,,,,,,,,
3124.300000190735,,directmemory_phase2,1004404,,,,object_03b.png,,,51,,,1,,object_08c.png,object_12a.png,object_11c.png,object_11c.png,,0.625,1,,,,,,,,
8926.100000143051,,directmemory_phase2,1013332,,,,object_13b.png,,,50,,,1,,object_15a.png,object_04a.png,object_04b.png,object_04a.png,,0.6363636363636364,1,,,,,,,,
5280.899999856949,,directmemory_phase2,1018615,,,,object_06a.png,,,50,,,0,,object_05b.png,object_06c.png,object_14b.png,object_05b.png,,0.6176470588235294,0,,,,,,,,
7660.200000047684,,directmemory_phase2,1026277,,,,object_04b.png,,,51,,,0,,object_10b.png,object_03c.png,object_13b.png,object_03c.png,,0.6,0,,,,,,,,
7408.199999809265,,directmemory_phase2,1033686,,,,object_01b.png,,,50,,,1,,object_14b.png,object_03c.png,object_08c.png,object_03c.png,,0.6111111111111112,1,,,,,,,,
7661.900000095367,,directmemory_phase2,1041350,,,,object_15b.png,,,50,,,0,,object_02b.png,object_06c.png,object_10c.png,object_10c.png,,0.5945945945945946,0,,,,,,,,
7116.899999856949,,directmemory_phase2,1048468,,,,object_06c.png,,,50,,,0,,object_03a.png,object_10b.png,object_11c.png,object_03a.png,,0.5789473684210527,0,,,,,,,,
7656.100000143051,,directmemory_phase2,1056126,,,,object_04c.png,,,50,,,0,,object_12b.png,object_09c.png,object_03a.png,object_12b.png,,0.5641025641025641,0,,,,,,,,
4501.400000095367,,directmemory_phase2,1060628,,,,object_01a.png,,,51,,,0,,object_01c.png,object_12b.png,object_03b.png,object_01c.png,,0.55,0,,,,,,,,
7772.900000095367,,directmemory_phase2,1068403,,,,object_13c.png,,,51,,,0,,object_13b.png,object_09c.png,object_07a.png,object_13b.png,,0.5365853658536586,0,,,,,,,,
4489.299999952316,,directmemory_phase2,1072894,,,,object_07a.png,,,49,,,1,,object_09b.png,object_07b.png,object_03b.png,object_09b.png,,0.5476190476190477,1,,,,,,,,
6380.399999856949,,directmemory_phase2,1079276,,,,object_14c.png,,,50,,,1,,object_12c.png,object_06b.png,object_06c.png,object_06b.png,,0.5581395348837209,1,,,,,,,,
3919.300000190735,,directmemory_phase2,1083197,,,,object_05a.png,,,50,,,1,,object_14b.png,object_15a.png,object_03c.png,object_15a.png,,0.5681818181818182,1,,,,,,,,
6909.5,,directmemory_phase2,1090108,,,,object_01c.png,,,49,,,0,,object_09c.png,object_10b.png,object_13a.png,object_10b.png,,0.5555555555555556,0,,,,,,,,
7318.099999904633,,directmemory_phase2,1097428,,,,object_10a.png,,,49,,,0,,object_09b.png,object_15c.png,object_06c.png,object_06c.png,,0.5434782608695652,0,,,,,,,,
2633.5,,directmemory_phase2,1100063,,,,object_09a.png,,,49,,,1,,object_15a.png,object_03c.png,object_04a.png,object_15a.png,,0.5531914893617021,1,,,,,,,,
4707.100000143051,,directmemory_phase2,1104772,,,,object_02a.png,,,50,,,1,,object_06c.png,object_12c.png,object_10c.png,object_12c.png,,0.5625,1,,,,,,,,
9250.099999904633,,directmemory_phase2,1114023,,,,object_09c.png,,,49,,,0,,object_11b.png,object_03c.png,object_02b.png,object_02b.png,,0.5510204081632653,0,,,,,,,,
5374.299999952316,,directmemory_phase2,1119399,,,,object_08c.png,,,51,,,0,,object_09b.png,object_08b.png,object_05c.png,object_08b.png,,0.54,0,,,,,,,,
5452.099999904633,,directmemory_phase2,1124853,,,,object_07b.png,,,51,,,1,,object_08b.png,object_03c.png,object_14a.png,object_14a.png,,0.5490196078431373,1,,,,,,,,
7170.400000095367,,directmemory_phase2,1132026,,,,object_05c.png,,,49,,,0,,object_15b.png,object_13a.png,object_05b.png,object_05b.png,,0.5384615384615384,0,,,,,,,,
5329,,directmemory_phase2,1137357,,,,object_09b.png,,,49,,,1,,object_13a.png,object_10b.png,object_12b.png,object_13a.png,,0.5471698113207547,1,,,,,,,,
6430.200000047684,,directmemory_phase2,1143788,,,,object_07c.png,,,50,,,1,,object_15c.png,object_06b.png,object_15b.png,object_06b.png,,0.5555555555555556,1,,,,,,,,
2693.2000000476837,,directmemory_phase2,1146483,,,,object_08a.png,,,49,,,1,,object_07b.png,object_15a.png,object_14b.png,object_07b.png,,0.5636363636363636,1,,,,,,,,
6524,,directmemory_phase2,1153009,,,,object_15c.png,,,49,,,0,,object_10a.png,object_15b.png,object_09b.png,object_15b.png,,0.5535714285714286,0,,,,,,,,
2680.7000000476837,,directmemory_phase2,1155691,,,,object_12a.png,,,49,,,1,,object_12b.png,object_09c.png,object_03b.png,object_12b.png,,0.5614035087719298,1,,,,,,,,
6056.899999856949,,directmemory_phase2,1161749,,,,object_11a.png,,,50,,,1,,object_13c.png,object_09c.png,object_09b.png,object_09c.png,,0.5689655172413793,1,,,,,,,,
4893.900000095367,,directmemory_phase2,1166645,,,,object_14b.png,,,50,,,1,,object_10a.png,object_08c.png,object_11c.png,object_08c.png,,0.576271186440678,1,,,,,,,,
3568.7000000476837,,directmemory_phase2,1170215,,,,object_02c.png,,,50,,,1,,object_15c.png,object_02a.png,object_09b.png,object_02a.png,,0.5833333333333334,1,,,,,,,,
null,,thebreak,1170318,,,,<p></p>,,,null,,,,,,,,,,,,,,,,,,,
3177.4000000953674,,intro_0,1173496,,,,instruct,,,32,,,,,,,,,,,,,,,,,,,
null,,learn_phase(without_color)3,1176998,,,,black_plus_sign,,,null,object_07b.png,object_14a.png,,,,,,,,,,,,,,,,,
null,,black_cross(without_color)3,1177518,,,,blue,,,null,object_07b.png,object_14a.png,,,,,,,,,,,,,,,,,
null,,rt_plussign_withcolor3,1178020,,,,blue,,,null,object_07b.png,object_14a.png,,,,,,,,,,,,,,,,,
1574.4000000953674,,rt_thecrossant_black3,1179506,,,,black_plus_sign,,,49,,,1,,,,,,,1,,,,,,,,,
null,,color_black3,1179607,,,,black_plus_sign,,,null,,,,,,,,,,,,,,,,,,,
null,,learn_phase(without_color)3,1183114,,,,black_plus_sign,,,null,object_10a.png,object_06c.png,,,,,,,,,,,,,,,,,
null,,black_cross(without_color)3,1184080,,,,blue,,,null,object_10a.png,object_06c.png,,,,,,,,,,,,,,,,,
null,,rt_plussign_withcolor3,1184582,,,,blue,,,null,object_10a.png,object_06c.png,,,,,,,,,,,,,,,,,
1101.6999998092651,,rt_thecrossant_black3,1185625,,,,black_plus_sign,,,49,,,1,,,,,,,1,,,,,,,,,
null,,color_black3,1185736,,,,black_plus_sign,,,null,,,,,,,,,,,,,,,,,,,
null,,learn_phase(without_color)3,1189239,,,,black_plus_sign,,,null,object_11a.png,object_09c.png,,,,,,,,,,,,,,,,,
null,,black_cross(without_color)3,1190246,,,,green,,,null,object_11a.png,object_09c.png,,,,,,,,,,,,,,,,,
null,,rt_plussign_withcolor3,1190748,,,,green,,,null,object_11a.png,object_09c.png,,,,,,,,,,,,,,,,,
1477.2999999523163,,rt_thecrossant_black3,1191745,,,,black_plus_sign,,,50,,,1,,,,,,,1,,,,,,,,,
null,,color_black3,1191848,,,,black_plus_sign,,,null,,,,,,,,,,,,,,,,,,,
null,,learn_phase(without_color)3,1195351,,,,black_plus_sign,,,null,object_01a.png,object_01c.png,,,,,,,,,,,,,,,,,
null,,black_cross(without_color)3,1196204,,,,blue,,,null,object_01a.png,object_01c.png,,,,,,,,,,,,,,,,,
null,,rt_plussign_withcolor3,1196706,,,,blue,,,null,object_01a.png,object_01c.png,,,,,,,,,,,,,,,,,
1591.7000000476837,,rt_thecrossant_black3,1197858,,,,black_plus_sign,,,49,,,1,,,,,,,1,,,,,,,,,
null,,color_black3,1197959,,,,black_plus_sign,,,null,,,,,,,,,,,,,,,,,,,
null,,learn_phase(without_color)3,1201462,,,,black_plus_sign,,,null,object_08b.png,object_08c.png,,,,,,,,,,,,,,,,,
null,,black_cross(without_color)3,1201907,,,,green,,,null,object_08b.png,object_08c.png,,,,,,,,,,,,,,,,,
null,,rt_plussign_withcolor3,1202410,,,,green,,,null,object_08b.png,object_08c.png,,,,,,,,,,,,,,,,,
1292.1000001430511,,rt_thecrossant_black3,1203969,,,,black_plus_sign,,,50,,,1,,,,,,,1,,,,,,,,,
null,,color_black3,1204071,,,,black_plus_sign,,,null,,,,,,,,,,,,,,,,,,,
null,,learn_phase(without_color)3,1207579,,,,black_plus_sign,,,null,object_03a.png,object_06c.png,,,,,,,,,,,,,,,,,
null,,black_cross(without_color)3,1208356,,,,blue,,,null,object_03a.png,object_06c.png,,,,,,,,,,,,,,,,,
null,,rt_plussign_withcolor3,1208858,,,,blue,,,null,object_03a.png,object_06c.png,,,,,,,,,,,,,,,,,
819,,rt_thecrossant_black3,1210085,,,,black_plus_sign,,,49,,,1,,,,,,,1,,,,,,,,,
null,,color_black3,1210188,,,,black_plus_sign,,,null,,,,,,,,,,,,,,,,,,,
null,,learn_phase(without_color)3,1213703,,,,black_plus_sign,,,null,object_07c.png,object_06b.png,,,,,,,,,,,,,,,,,
null,,black_cross(without_color)3,1214799,,,,green,,,null,object_07c.png,object_06b.png,,,,,,,,,,,,,,,,,
null,,rt_plussign_withcolor3,1215302,,,,green,,,null,object_07c.png,object_06b.png,,,,,,,,,,,,,,,,,
1072.3000001907349,,rt_thecrossant_black3,1216211,,,,black_plus_sign,,,50,,,1,,,,,,,1,,,,,,,,,
null,,color_black3,1216313,,,,black_plus_sign,,,null,,,,,,,,,,,,,,,,,,,
null,,learn_phase(without_color)3,1219816,,,,black_plus_sign,,,null,object_13b.png,object_04a.png,,,,,,,,,,,,,,,,,
null,,black_cross(without_color)3,1220893,,,,blue,,,null,object_13b.png,object_04a.png,,,,,,,,,,,,,,,,,
null,,rt_plussign_withcolor3,1221395,,,,blue,,,null,object_13b.png,object_04a.png,,,,,,,,,,,,,,,,,
1611.4000000953674,,rt_thecrossant_black3,1222323,,,,black_plus_sign,,,49,,,1,,,,,,,1,,,,,,,,,
null,,color_black3,1222425,,,,black_plus_sign,,,null,,,,,,,,,,,,,,,,,,,
null,,learn_phase(without_color)3,1225932,,,,black_plus_sign,,,null,object_10c.png,object_15b.png,,,,,,,,,,,,,,,,,
null,,black_cross(without_color)3,1226962,,,,green,,,null,object_10c.png,object_15b.png,,,,,,,,,,,,,,,,,
null,,rt_plussign_withcolor3,1227464,,,,green,,,null,object_10c.png,object_15b.png,,,,,,,,,,,,,,,,,
1470.6000001430511,,rt_thecrossant_black3,1228440,,,,black_plus_sign,,,50,,,1,,,,,,,1,,,,,,,,,
null,,color_black3,1228542,,,,black_plus_sign,,,null,,,,,,,,,,,,,,,,,,,
null,,learn_phase(without_color)3,1232044,,,,black_plus_sign,,,null,object_02a.png,object_12c.png,,,,,,,,,,,,,,,,,
null,,black_cross(without_color)3,1232568,,,,blue,,,null,object_02a.png,object_12c.png,,,,,,,,,,,,,,,,,
null,,rt_plussign_withcolor3,1233070,,,,blue,,,null,object_02a.png,object_12c.png,,,,,,,,,,,,,,,,,
1709.3999998569489,,rt_thecrossant_black3,1234549,,,,black_plus_sign,,,49,,,1,,,,,,,1,,,,,,,,,
null,,color_black3,1234663,,,,black_plus_sign,,,null,,,,,,,,,,,,,,,,,,,
null,,learn_phase(without_color)3,1238166,,,,black_plus_sign,,,null,object_02b.png,object_09c.png,,,,,,,,,,,,,,,,,
null,,black_cross(without_color)3,1238984,,,,blue,,,null,object_02b.png,object_09c.png,,,,,,,,,,,,,,,,,
null,,rt_plussign_withcolor3,1239486,,,,blue,,,null,object_02b.png,object_09c.png,,,,,,,,,,,,,,,,,
920.7999999523163,,rt_thecrossant_black3,1240674,,,,black_plus_sign,,,49,,,1,,,,,,,1,,,,,,,,,
null,,color_black3,1240776,,,,black_plus_sign,,,null,,,,,,,,,,,,,,,,,,,
null,,learn_phase(without_color)3,1244285,,,,black_plus_sign,,,null,object_08a.png,object_07b.png,,,,,,,,,,,,,,,,,
null,,black_cross(without_color)3,1244833,,,,green,,,null,object_08a.png,object_07b.png,,,,,,,,,,,,,,,,,
null,,rt_plussign_withcolor3,1245335,,,,green,,,null,object_08a.png,object_07b.png,,,,,,,,,,,,,,,,,
1162.5,,rt_thecrossant_black3,1246791,,,,black_plus_sign,,,50,,,1,,,,,,,1,,,,,,,,,
null,,color_black3,1246892,,,,black_plus_sign,,,null,,,,,,,,,,,,,,,,,,,
null,,learn_phase(without_color)3,1250395,,,,black_plus_sign,,,null,object_06a.png,object_05b.png,,,,,,,,,,,,,,,,,
null,,black_cross(without_color)3,1251009,,,,blue,,,null,object_06a.png,object_05b.png,,,,,,,,,,,,,,,,,
null,,rt_plussign_withcolor3,1251512,,,,blue,,,null,object_06a.png,object_05b.png,,,,,,,,,,,,,,,,,
1064.2999999523163,,rt_thecrossant_black3,1252914,,,,black_plus_sign,,,49,,,1,,,,,,,1,,,,,,,,,
null,,color_black3,1253017,,,,black_plus_sign,,,null,,,,,,,,,,,,,,,,,,,
null,,learn_phase(without_color)3,1256534,,,,black_plus_sign,,,null,object_13b.png,object_13c.png,,,,,,,,,,,,,,,,,
null,,black_cross(without_color)3,1257117,,,,blue,,,null,object_13b.png,object_13c.png,,,,,,,,,,,,,,,,,
null,,rt_plussign_withcolor3,1257620,,,,blue,,,null,object_13b.png,object_13c.png,,,,,,,,,,,,,,,,,
1062.7000000476837,,rt_thecrossant_black3,1259044,,,,black_plus_sign,,,49,,,1,,,,,,,1,,,,,,,,,
null,,color_black3,1259147,,,,black_plus_sign,,,null,,,,,,,,,,,,,,,,,,,
null,,learn_phase(without_color)3,1262649,,,,black_plus_sign,,,null,object_01b.png,object_03c.png,,,,,,,,,,,,,,,,,
null,,black_cross(without_color)3,1263274,,,,blue,,,null,object_01b.png,object_03c.png,,,,,,,,,,,,,,,,,
null,,rt_plussign_withcolor3,1263776,,,,blue,,,null,object_01b.png,object_03c.png,,,,,,,,,,,,,,,,,
938.7999999523163,,rt_thecrossant_black3,1265158,,,,black_plus_sign,,,49,,,1,,,,,,,1,,,,,,,,,
null,,color_black3,1265261,,,,black_plus_sign,,,null,,,,,,,,,,,,,,,,,,,
null,,learn_phase(without_color)3,1268763,,,,black_plus_sign,,,null,object_02c.png,object_02a.png,,,,,,,,,,,,,,,,,
null,,black_cross(without_color)3,1269746,,,,green,,,null,object_02c.png,object_02a.png,,,,,,,,,,,,,,,,,
null,,rt_plussign_withcolor3,1270248,,,,green,,,null,object_02c.png,object_02a.png,,,,,,,,,,,,,,,,,
1014.5999999046326,,rt_thecrossant_black3,1271276,,,,black_plus_sign,,,50,,,1,,,,,,,1,,,,,,,,,
null,,color_black3,1271379,,,,black_plus_sign,,,null,,,,,,,,,,,,,,,,,,,
null,,learn_phase(without_color)3,1274882,,,,black_plus_sign,,,null,object_05b.png,object_05c.png,,,,,,,,,,,,,,,,,
null,,black_cross(without_color)3,1275473,,,,green,,,null,object_05b.png,object_05c.png,,,,,,,,,,,,,,,,,
null,,rt_plussign_withcolor3,1275975,,,,green,,,null,object_05b.png,object_05c.png,,,,,,,,,,,,,,,,,
1539.5,,rt_thecrossant_black3,1277389,,,,black_plus_sign,,,50,,,1,,,,,,,1,,,,,,,,,
null,,color_black3,1277491,,,,black_plus_sign,,,null,,,,,,,,,,,,,,,,,,,
null,,learn_phase(without_color)3,1280994,,,,black_plus_sign,,,null,object_09a.png,object_15a.png,,,,,,,,,,,,,,,,,
null,,black_cross(without_color)3,1281880,,,,green,,,null,object_09a.png,object_15a.png,,,,,,,,,,,,,,,,,
null,,rt_plussign_withcolor3,1282395,,,,green,,,null,object_09a.png,object_15a.png,,,,,,,,,,,,,,,,,
1123.5,,rt_thecrossant_black3,1283521,,,,black_plus_sign,,,50,,,1,,,,,,,1,,,,,,,,,
null,,color_black3,1283624,,,,black_plus_sign,,,null,,,,,,,,,,,,,,,,,,,
null,,learn_phase(without_color)3,1287127,,,,black_plus_sign,,,null,object_07a.png,object_09b.png,,,,,,,,,,,,,,,,,
null,,black_cross(without_color)3,1287636,,,,green,,,null,object_07a.png,object_09b.png,,,,,,,,,,,,,,,,,
null,,rt_plussign_withcolor3,1288137,,,,green,,,null,object_07a.png,object_09b.png,,,,,,,,,,,,,,,,,
1419.7999999523163,,rt_thecrossant_black3,1289634,,,,black_plus_sign,,,50,,,1,,,,,,,1,,,,,,,,,
null,,color_black3,1289737,,,,black_plus_sign,,,null,,,,,,,,,,,,,,,,,,,
null,,learn_phase(without_color)3,1293244,,,,black_plus_sign,,,null,object_12b.png,object_12a.png,,,,,,,,,,,,,,,,,
null,,black_cross(without_color)3,1293949,,,,green,,,null,object_12b.png,object_12a.png,,,,,,,,,,,,,,,,,
null,,rt_plussign_withcolor3,1294451,,,,green,,,null,object_12b.png,object_12a.png,,,,,,,,,,,,,,,,,
928.1000001430511,,rt_thecrossant_black3,1295762,,,,black_plus_sign,,,50,,,1,,,,,,,1,,,,,,,,,
null,,color_black3,1295865,,,,black_plus_sign,,,null,,,,,,,,,,,,,,,,,,,
null,,learn_phase(without_color)3,1299380,,,,black_plus_sign,,,null,object_06b.png,object_14c.png,,,,,,,,,,,,,,,,,
null,,black_cross(without_color)3,1300481,,,,blue,,,null,object_06b.png,object_14c.png,,,,,,,,,,,,,,,,,
null,,rt_plussign_withcolor3,1300983,,,,blue,,,null,object_06b.png,object_14c.png,,,,,,,,,,,,,,,,,
1410.5999999046326,,rt_thecrossant_black3,1301896,,,,black_plus_sign,,,49,,,1,,,,,,,1,,,,,,,,,
null,,color_black3,1301999,,,,black_plus_sign,,,null,,,,,,,,,,,,,,,,,,,
null,,learn_phase(without_color)3,1305512,,,,black_plus_sign,,,null,object_05a.png,object_15a.png,,,,,,,,,,,,,,,,,
null,,black_cross(without_color)3,1306246,,,,blue,,,null,object_05a.png,object_15a.png,,,,,,,,,,,,,,,,,
null,,rt_plussign_withcolor3,1306748,,,,blue,,,null,object_05a.png,object_15a.png,,,,,,,,,,,,,,,,,
1708.6000001430511,,rt_thecrossant_black3,1308020,,,,black_plus_sign,,,49,,,1,,,,,,,1,,,,,,,,,
null,,color_black3,1308122,,,,black_plus_sign,,,null,,,,,,,,,,,,,,,,,,,
null,,learn_phase(without_color)3,1311625,,,,black_plus_sign,,,null,object_04b.png,object_03c.png,,,,,,,,,,,,,,,,,
null,,black_cross(without_color)3,1312553,,,,green,,,null,object_04b.png,object_03c.png,,,,,,,,,,,,,,,,,
null,,rt_plussign_withcolor3,1313055,,,,green,,,null,object_04b.png,object_03c.png,,,,,,,,,,,,,,,,,
1279.7000000476837,,rt_thecrossant_black3,1314131,,,,black_plus_sign,,,50,,,1,,,,,,,1,,,,,,,,,
null,,color_black3,1314233,,,,black_plus_sign,,,null,,,,,,,,,,,,,,,,,,,
null,,learn_phase(without_color)3,1317735,,,,black_plus_sign,,,null,object_11c.png,object_11b.png,,,,,,,,,,,,,,,,,
null,,black_cross(without_color)3,1318191,,,,green,,,null,object_11c.png,object_11b.png,,,,,,,,,,,,,,,,,
null,,rt_plussign_withcolor3,1318693,,,,green,,,null,object_11c.png,object_11b.png,,,,,,,,,,,,,,,,,
1313.3999998569489,,rt_thecrossant_black3,1320241,,,,black_plus_sign,,,50,,,1,,,,,,,1,,,,,,,,,
null,,color_black3,1320345,,,,black_plus_sign,,,null,,,,,,,,,,,,,,,,,,,
null,,learn_phase(without_color)3,1323847,,,,black_plus_sign,,,null,object_09b.png,object_13a.png,,,,,,,,,,,,,,,,,
null,,black_cross(without_color)3,1324724,,,,green,,,null,object_09b.png,object_13a.png,,,,,,,,,,,,,,,,,
null,,rt_plussign_withcolor3,1325226,,,,green,,,null,object_09b.png,object_13a.png,,,,,,,,,,,,,,,,,
733.2999999523163,,rt_thecrossant_black3,1326353,,,,black_plus_sign,,,50,,,1,,,,,,,1,,,,,,,,,
null,,color_black3,1326459,,,,black_plus_sign,,,null,,,,,,,,,,,,,,,,,,,
null,,learn_phase(without_color)3,1329961,,,,black_plus_sign,,,null,object_08c.png,object_14b.png,,,,,,,,,,,,,,,,,
null,,black_cross(without_color)3,1330974,,,,green,,,null,object_08c.png,object_14b.png,,,,,,,,,,,,,,,,,
null,,rt_plussign_withcolor3,1331477,,,,green,,,null,object_08c.png,object_14b.png,,,,,,,,,,,,,,,,,
1415.2999999523163,,rt_thecrossant_black3,1332468,,,,black_plus_sign,,,50,,,1,,,,,,,1,,,,,,,,,
null,,color_black3,1332571,,,,black_plus_sign,,,null,,,,,,,,,,,,,,,,,,,
null,,learn_phase(without_color)3,1336074,,,,black_plus_sign,,,null,object_12b.png,object_04c.png,,,,,,,,,,,,,,,,,
null,,black_cross(without_color)3,1336989,,,,blue,,,null,object_12b.png,object_04c.png,,,,,,,,,,,,,,,,,
null,,rt_plussign_withcolor3,1337490,,,,blue,,,null,object_12b.png,object_04c.png,,,,,,,,,,,,,,,,,
1611.4000000953674,,rt_thecrossant_black3,1338580,,,,black_plus_sign,,,49,,,1,,,,,,,1,,,,,,,,,
null,,color_black3,1338682,,,,black_plus_sign,,,null,,,,,,,,,,,,,,,,,,,
null,,learn_phase(without_color)3,1342188,,,,black_plus_sign,,,null,object_10b.png,object_01c.png,,,,,,,,,,,,,,,,,
null,,black_cross(without_color)3,1342721,,,,blue,,,null,object_10b.png,object_01c.png,,,,,,,,,,,,,,,,,
null,,rt_plussign_withcolor3,1343224,,,,blue,,,null,object_10b.png,object_01c.png,,,,,,,,,,,,,,,,,
1488.5999999046326,,rt_thecrossant_black3,1344704,,,,black_plus_sign,,,49,,,1,,,,,,,1,,,,,,,,,
null,,color_black3,1344806,,,,black_plus_sign,,,null,,,,,,,,,,,,,,,,,,,
null,,learn_phase(without_color)3,1348318,,,,black_plus_sign,,,null,object_03b.png,object_11c.png,,,,,,,,,,,,,,,,,
null,,black_cross(without_color)3,1349075,,,,blue,,,null,object_03b.png,object_11c.png,,,,,,,,,,,,,,,,,
null,,rt_plussign_withcolor3,1349578,,,,blue,,,null,object_03b.png,object_11c.png,,,,,,,,,,,,,,,,,
1091.0999999046326,,rt_thecrossant_black3,1350825,,,,black_plus_sign,,,49,,,1,,,,,,,1,,,,,,,,,
null,,color_black3,1350928,,,,black_plus_sign,,,null,,,,,,,,,,,,,,,,,,,
null,,learn_phase(without_color)3,1354447,,,,black_plus_sign,,,null,object_15b.png,object_15c.png,,,,,,,,,,,,,,,,,
null,,black_cross(without_color)3,1355415,,,,green,,,null,object_15b.png,object_15c.png,,,,,,,,,,,,,,,,,
null,,rt_plussign_withcolor3,1355917,,,,green,,,null,object_15b.png,object_15c.png,,,,,,,,,,,,,,,,,
1302.7999999523163,,rt_thecrossant_black3,1356952,,,,black_plus_sign,,,50,,,1,,,,,,,1,,,,,,,,,
null,,color_black3,1357055,,,,black_plus_sign,,,null,,,,,,,,,,,,,,,,,,,
null,,thebreak,1357158,,,,<p></p>,,,null,,,,,,,,,,,,,,,,,,,
1735,,intro_0,1358894,,,,instruct,,,32,,,,,,,,,,,,,,,,,,,
5531.5,,directmemory_phase3,1364427,,,,object_13a.png,,,49,,,1,,object_09b.png,object_15a.png,object_10c.png,object_09b.png,,0.5901639344262295,1,,,,,,,,
10083.700000047684,,directmemory_phase3,1374512,,,,object_11c.png,,,51,,,1,,object_13a.png,object_02a.png,object_11b.png,object_11b.png,,0.5967741935483871,1,,,,,,,,
5383.600000143051,,directmemory_phase3,1379897,,,,object_15c.png,,,51,,,0,,object_06a.png,object_15b.png,object_09c.png,object_15b.png,,0.5873015873015873,0,,,,,,,,
3720.9000000953674,,directmemory_phase3,1383620,,,,object_02c.png,,,51,,,1,,object_01c.png,object_06a.png,object_02a.png,object_02a.png,,0.59375,1,,,,,,,,
8907.400000095367,,directmemory_phase3,1392529,,,,object_13c.png,,,49,,,1,,object_13b.png,object_02a.png,object_11a.png,object_13b.png,,0.6,1,,,,,,,,
2305.399999856949,,directmemory_phase3,1394836,,,,object_14b.png,,,50,,,1,,object_10a.png,object_08c.png,object_09b.png,object_08c.png,,0.6060606060606061,1,,,,,,,,
1964.8999998569489,,directmemory_phase3,1396802,,,,object_04c.png,,,51,,,1,,object_07b.png,object_03a.png,object_12b.png,object_12b.png,,0.6119402985074627,1,,,,,,,,
3673.5,,directmemory_phase3,1400477,,,,object_02a.png,,,49,,,1,,object_12c.png,object_04b.png,object_09c.png,object_12c.png,,0.6176470588235294,1,,,,,,,,
4226,,directmemory_phase3,1404705,,,,object_14c.png,,,49,,,0,,object_02b.png,object_06b.png,object_03c.png,object_06b.png,,0.6086956521739131,0,,,,,,,,
3686,,directmemory_phase3,1408393,,,,object_13b.png,,,49,,,1,,object_04a.png,object_08b.png,object_12b.png,object_04a.png,,0.6142857142857143,1,,,,,,,,
2454.2999999523163,,directmemory_phase3,1410849,,,,object_03b.png,,,49,,,1,,object_11c.png,object_02a.png,object_11a.png,object_11c.png,,0.6197183098591549,1,,,,,,,,
8308.400000095367,,directmemory_phase3,1419159,,,,object_08a.png,,,49,,,1,,object_07b.png,object_15a.png,object_02c.png,object_07b.png,,0.625,1,,,,,,,,
1805.2999999523163,,directmemory_phase3,1420966,,,,object_12a.png,,,51,,,1,,object_03c.png,object_11a.png,object_12b.png,object_12b.png,,0.6301369863013698,1,,,,,,,,
4839.899999856949,,directmemory_phase3,1425807,,,,object_05b.png,,,50,,,0,,object_05c.png,object_14a.png,object_11c.png,object_05c.png,,0.6216216216216216,0,,,,,,,,
6486,,directmemory_phase3,1432295,,,,object_10b.png,,,49,,,0,,object_05b.png,object_14a.png,object_01c.png,object_01c.png,,0.6133333333333333,0,,,,,,,,
2972.5999999046326,,directmemory_phase3,1435269,,,,object_01b.png,,,50,,,1,,object_13c.png,object_03c.png,object_01c.png,object_03c.png,,0.618421052631579,1,,,,,,,,
10883.099999904633,,directmemory_phase3,1446154,,,,object_10c.png,,,51,,,0,,object_10b.png,object_15b.png,object_06c.png,object_15b.png,,0.6103896103896104,0,,,,,,,,
12273.699999809265,,directmemory_phase3,1458429,,,,object_02b.png,,,51,,,1,,object_11c.png,object_09a.png,object_09c.png,object_09c.png,,0.6153846153846154,1,,,,,,,,
5303.800000190735,,directmemory_phase3,1463735,,,,object_14a.png,,,49,,,1,,object_07b.png,object_13b.png,object_11b.png,object_07b.png,,0.620253164556962,1,,,,,,,,
6660.599999904633,,directmemory_phase3,1470397,,,,object_04b.png,,,50,,,0,,object_11c.png,object_08b.png,object_03c.png,object_03c.png,,0.6125,0,,,,,,,,
4779.299999952316,,directmemory_phase3,1475178,,,,object_10a.png,,,49,,,1,,object_06c.png,object_11c.png,object_01a.png,object_06c.png,,0.6172839506172839,1,,,,,,,,
4764.100000143051,,directmemory_phase3,1479944,,,,object_06a.png,,,49,,,1,,object_05b.png,object_12b.png,object_10a.png,object_05b.png,,0.6219512195121951,1,,,,,,,,
3206.7000000476837,,directmemory_phase3,1483152,,,,object_05a.png,,,51,,,1,,object_01c.png,object_15c.png,object_15a.png,object_15a.png,,0.6265060240963856,1,,,,,,,,
3737.2999999523163,,directmemory_phase3,1486891,,,,object_01a.png,,,51,,,1,,object_11c.png,object_02c.png,object_01c.png,object_01c.png,,0.6309523809523809,1,,,,,,,,
1872.2000000476837,,directmemory_phase3,1488765,,,,object_09a.png,,,50,,,1,,object_05c.png,object_15a.png,object_09b.png,object_15a.png,,0.6352941176470588,1,,,,,,,,
7594.900000095367,,directmemory_phase3,1496362,,,,object_07a.png,,,51,,,0,,object_15c.png,object_09b.png,object_15b.png,object_09b.png,,0.627906976744186,0,,,,,,,,
2859.800000190735,,directmemory_phase3,1499223,,,,object_07c.png,,,49,,,1,,object_06b.png,object_03c.png,object_13c.png,object_06b.png,,0.632183908045977,1,,,,,,,,
3537,,directmemory_phase3,1502762,,,,object_11a.png,,,51,,,1,,object_12b.png,object_06a.png,object_09c.png,object_09c.png,,0.6363636363636364,1,,,,,,,,
7243.099999904633,,directmemory_phase3,1510006,,,,object_06c.png,,,51,,,1,,object_09a.png,object_15b.png,object_03a.png,object_03a.png,,0.6404494382022472,1,,,,,,,,
4817.400000095367,,directmemory_phase3,1514825,,,,object_08c.png,,,49,,,1,,object_08b.png,object_04c.png,object_03c.png,object_08b.png,,0.6444444444444445,1,,,,,,,,
null,,thebreak,1514928,,,,<p></p>,,,null,,,,,,,,,,,,,,,,,,,
1784,,intro_0,1516713,,,,instruct,,,32,,,,,,,,,,,,,,,,,,,
null,,learn_phase(without_color)4,1520216,,,,black_plus_sign,,,null,object_07c.png,object_06b.png,,,,,,,,,,,,,,,,,
null,,black_cross(without_color)4,1520787,,,,green,,,null,object_07c.png,object_06b.png,,,,,,,,,,,,,,,,,
null,,rt_plussign_withcolor4,1521289,,,,green,,,null,object_07c.png,object_06b.png,,,,,,,,,,,,,,,,,
900,,rt_thecrossant_black4,1522724,,,,black_plus_sign,,,50,,,1,,,,,,,1,,,,,,,,,
null,,color_black4,1522826,,,,black_plus_sign,,,null,,,,,,,,,,,,,,,,,,,
null,,learn_phase(without_color)4,1526329,,,,black_plus_sign,,,null,object_01c.png,object_01a.png,,,,,,,,,,,,,,,,,
null,,black_cross(without_color)4,1527107,,,,green,,,null,object_01c.png,object_01a.png,,,,,,,,,,,,,,,,,
null,,rt_plussign_withcolor4,1527609,,,,green,,,null,object_01c.png,object_01a.png,,,,,,,,,,,,,,,,,
1047.5,,rt_thecrossant_black4,1528837,,,,black_plus_sign,,,50,,,1,,,,,,,1,,,,,,,,,
null,,color_black4,1528940,,,,black_plus_sign,,,null,,,,,,,,,,,,,,,,,,,
null,,learn_phase(without_color)4,1532442,,,,black_plus_sign,,,null,object_02b.png,object_09c.png,,,,,,,,,,,,,,,,,
null,,black_cross(without_color)4,1533165,,,,blue,,,null,object_02b.png,object_09c.png,,,,,,,,,,,,,,,,,
null,,rt_plussign_withcolor4,1533668,,,,blue,,,null,object_02b.png,object_09c.png,,,,,,,,,,,,,,,,,
1445.6000001430511,,rt_thecrossant_black4,1534949,,,,black_plus_sign,,,49,,,1,,,,,,,1,,,,,,,,,
null,,color_black4,1535052,,,,black_plus_sign,,,null,,,,,,,,,,,,,,,,,,,
null,,learn_phase(without_color)4,1538555,,,,black_plus_sign,,,null,object_10a.png,object_06c.png,,,,,,,,,,,,,,,,,
null,,black_cross(without_color)4,1539106,,,,green,,,null,object_10a.png,object_06c.png,,,,,,,,,,,,,,,,,
null,,rt_plussign_withcolor4,1539608,,,,green,,,null,object_10a.png,object_06c.png,,,,,,,,,,,,,,,,,
1138.1000001430511,,rt_thecrossant_black4,1541074,,,,black_plus_sign,,,50,,,1,,,,,,,1,,,,,,,,,
null,,color_black4,1541178,,,,black_plus_sign,,,null,,,,,,,,,,,,,,,,,,,
null,,learn_phase(without_color)4,1544681,,,,black_plus_sign,,,null,object_14b.png,object_08c.png,,,,,,,,,,,,,,,,,
null,,black_cross(without_color)4,1545288,,,,green,,,null,object_14b.png,object_08c.png,,,,,,,,,,,,,,,,,
null,,rt_plussign_withcolor4,1545790,,,,green,,,null,object_14b.png,object_08c.png,,,,,,,,,,,,,,,,,
859,,rt_thecrossant_black4,1547189,,,,black_plus_sign,,,50,,,1,,,,,,,1,,,,,,,,,
null,,color_black4,1547291,,,,black_plus_sign,,,null,,,,,,,,,,,,,,,,,,,
null,,learn_phase(without_color)4,1550794,,,,black_plus_sign,,,null,object_15b.png,object_10c.png,,,,,,,,,,,,,,,,,
null,,black_cross(without_color)4,1551431,,,,green,,,null,object_15b.png,object_10c.png,,,,,,,,,,,,,,,,,
null,,rt_plussign_withcolor4,1551934,,,,green,,,null,object_15b.png,object_10c.png,,,,,,,,,,,,,,,,,
1003.4000000953674,,rt_thecrossant_black4,1553301,,,,black_plus_sign,,,50,,,1,,,,,,,1,,,,,,,,,
null,,color_black4,1553404,,,,black_plus_sign,,,null,,,,,,,,,,,,,,,,,,,
null,,learn_phase(without_color)4,1556914,,,,black_plus_sign,,,null,object_02c.png,object_02a.png,,,,,,,,,,,,,,,,,
null,,black_cross(without_color)4,1557724,,,,green,,,null,object_02c.png,object_02a.png,,,,,,,,,,,,,,,,,
null,,rt_plussign_withcolor4,1558226,,,,green,,,null,object_02c.png,object_02a.png,,,,,,,,,,,,,,,,,
1157.2000000476837,,rt_thecrossant_black4,1559432,,,,black_plus_sign,,,50,,,1,,,,,,,1,,,,,,,,,
null,,color_black4,1559534,,,,black_plus_sign,,,null,,,,,,,,,,,,,,,,,,,
null,,learn_phase(without_color)4,1563037,,,,black_plus_sign,,,null,object_07b.png,object_08a.png,,,,,,,,,,,,,,,,,
null,,black_cross(without_color)4,1563951,,,,blue,,,null,object_07b.png,object_08a.png,,,,,,,,,,,,,,,,,
null,,rt_plussign_withcolor4,1564456,,,,blue,,,null,object_07b.png,object_08a.png,,,,,,,,,,,,,,,,,
1531.2000000476837,,rt_thecrossant_black4,1565548,,,,black_plus_sign,,,49,,,1,,,,,,,1,,,,,,,,,
null,,color_black4,1565650,,,,black_plus_sign,,,null,,,,,,,,,,,,,,,,,,,
null,,learn_phase(without_color)4,1569154,,,,black_plus_sign,,,null,object_03c.png,object_01b.png,,,,,,,,,,,,,,,,,
null,,black_cross(without_color)4,1569937,,,,green,,,null,object_03c.png,object_01b.png,,,,,,,,,,,,,,,,,
null,,rt_plussign_withcolor4,1570439,,,,green,,,null,object_03c.png,object_01b.png,,,,,,,,,,,,,,,,,
1369.5999999046326,,rt_thecrossant_black4,1571669,,,,black_plus_sign,,,50,,,1,,,,,,,1,,,,,,,,,
null,,color_black4,1571772,,,,black_plus_sign,,,null,,,,,,,,,,,,,,,,,,,
null,,learn_phase(without_color)4,1575275,,,,black_plus_sign,,,null,object_15b.png,object_15c.png,,,,,,,,,,,,,,,,,
null,,black_cross(without_color)4,1576086,,,,green,,,null,object_15b.png,object_15c.png,,,,,,,,,,,,,,,,,
null,,rt_plussign_withcolor4,1576588,,,,green,,,null,object_15b.png,object_15c.png,,,,,,,,,,,,,,,,,
1131.2999999523163,,rt_thecrossant_black4,1577783,,,,black_plus_sign,,,50,,,1,,,,,,,1,,,,,,,,,
null,,color_black4,1577885,,,,black_plus_sign,,,null,,,,,,,,,,,,,,,,,,,
null,,learn_phase(without_color)4,1581389,,,,black_plus_sign,,,null,object_11b.png,object_11c.png,,,,,,,,,,,,,,,,,
null,,black_cross(without_color)4,1582142,,,,blue,,,null,object_11b.png,object_11c.png,,,,,,,,,,,,,,,,,
null,,rt_plussign_withcolor4,1582644,,,,blue,,,null,object_11b.png,object_11c.png,,,,,,,,,,,,,,,,,
1304.5999999046326,,rt_thecrossant_black4,1583896,,,,black_plus_sign,,,49,,,1,,,,,,,1,,,,,,,,,
null,,color_black4,1583998,,,,black_plus_sign,,,null,,,,,,,,,,,,,,,,,,,
null,,learn_phase(without_color)4,1587501,,,,black_plus_sign,,,null,object_13b.png,object_13c.png,,,,,,,,,,,,,,,,,
null,,black_cross(without_color)4,1587951,,,,blue,,,null,object_13b.png,object_13c.png,,,,,,,,,,,,,,,,,
null,,rt_plussign_withcolor4,1588453,,,,blue,,,null,object_13b.png,object_13c.png,,,,,,,,,,,,,,,,,
1261.2000000476837,,rt_thecrossant_black4,1590019,,,,black_plus_sign,,,49,,,1,,,,,,,1,,,,,,,,,
null,,color_black4,1590122,,,,black_plus_sign,,,null,,,,,,,,,,,,,,,,,,,
null,,learn_phase(without_color)4,1593625,,,,black_plus_sign,,,null,object_05b.png,object_06a.png,,,,,,,,,,,,,,,,,
null,,black_cross(without_color)4,1594490,,,,blue,,,null,object_05b.png,object_06a.png,,,,,,,,,,,,,,,,,
null,,rt_plussign_withcolor4,1594992,,,,blue,,,null,object_05b.png,object_06a.png,,,,,,,,,,,,,,,,,
985.4000000953674,,rt_thecrossant_black4,1596131,,,,black_plus_sign,,,49,,,1,,,,,,,1,,,,,,,,,
null,,color_black4,1596235,,,,black_plus_sign,,,null,,,,,,,,,,,,,,,,,,,
null,,learn_phase(without_color)4,1599738,,,,black_plus_sign,,,null,object_08b.png,object_08c.png,,,,,,,,,,,,,,,,,
null,,black_cross(without_color)4,1600825,,,,blue,,,null,object_08b.png,object_08c.png,,,,,,,,,,,,,,,,,
null,,rt_plussign_withcolor4,1601327,,,,blue,,,null,object_08b.png,object_08c.png,,,,,,,,,,,,,,,,,
1798.7999999523163,,rt_thecrossant_black4,1602260,,,,black_plus_sign,,,49,,,1,,,,,,,1,,,,,,,,,
null,,color_black4,1602363,,,,black_plus_sign,,,null,,,,,,,,,,,,,,,,,,,
null,,learn_phase(without_color)4,1605878,,,,black_plus_sign,,,null,object_09b.png,object_13a.png,,,,,,,,,,,,,,,,,
null,,black_cross(without_color)4,1606625,,,,blue,,,null,object_09b.png,object_13a.png,,,,,,,,,,,,,,,,,
null,,rt_plussign_withcolor4,1607127,,,,blue,,,null,object_09b.png,object_13a.png,,,,,,,,,,,,,,,,,
1364,,rt_thecrossant_black4,1608385,,,,black_plus_sign,,,49,,,1,,,,,,,1,,,,,,,,,
null,,color_black4,1608488,,,,black_plus_sign,,,null,,,,,,,,,,,,,,,,,,,
null,,learn_phase(without_color)4,1611991,,,,black_plus_sign,,,null,object_05c.png,object_05b.png,,,,,,,,,,,,,,,,,
null,,black_cross(without_color)4,1612979,,,,blue,,,null,object_05c.png,object_05b.png,,,,,,,,,,,,,,,,,
null,,rt_plussign_withcolor4,1613483,,,,blue,,,null,object_05c.png,object_05b.png,,,,,,,,,,,,,,,,,
983.1000001430511,,rt_thecrossant_black4,1614503,,,,black_plus_sign,,,49,,,1,,,,,,,1,,,,,,,,,
null,,color_black4,1614606,,,,black_plus_sign,,,null,,,,,,,,,,,,,,,,,,,
null,,learn_phase(without_color)4,1618110,,,,black_plus_sign,,,null,object_03a.png,object_06c.png,,,,,,,,,,,,,,,,,
null,,black_cross(without_color)4,1619026,,,,green,,,null,object_03a.png,object_06c.png,,,,,,,,,,,,,,,,,
null,,rt_plussign_withcolor4,1619529,,,,green,,,null,object_03a.png,object_06c.png,,,,,,,,,,,,,,,,,
1546.9000000953674,,rt_thecrossant_black4,1620618,,,,black_plus_sign,,,50,,,1,,,,,,,1,,,,,,,,,
null,,color_black4,1620721,,,,black_plus_sign,,,null,,,,,,,,,,,,,,,,,,,
null,,learn_phase(without_color)4,1624239,,,,black_plus_sign,,,null,object_06b.png,object_14c.png,,,,,,,,,,,,,,,,,
null,,black_cross(without_color)4,1624743,,,,blue,,,null,object_06b.png,object_14c.png,,,,,,,,,,,,,,,,,
null,,rt_plussign_withcolor4,1625246,,,,blue,,,null,object_06b.png,object_14c.png,,,,,,,,,,,,,,,,,
1295.2999999523163,,rt_thecrossant_black4,1626748,,,,black_plus_sign,,,49,,,1,,,,,,,1,,,,,,,,,
null,,color_black4,1626851,,,,black_plus_sign,,,null,,,,,,,,,,,,,,,,,,,
null,,learn_phase(without_color)4,1630354,,,,black_plus_sign,,,null,object_09c.png,object_11a.png,,,,,,,,,,,,,,,,,
null,,black_cross(without_color)4,1631195,,,,green,,,null,object_09c.png,object_11a.png,,,,,,,,,,,,,,,,,
null,,rt_plussign_withcolor4,1631697,,,,green,,,null,object_09c.png,object_11a.png,,,,,,,,,,,,,,,,,
1016.7999999523163,,rt_thecrossant_black4,1632863,,,,black_plus_sign,,,50,,,1,,,,,,,1,,,,,,,,,
null,,color_black4,1632965,,,,black_plus_sign,,,null,,,,,,,,,,,,,,,,,,,
null,,learn_phase(without_color)4,1636468,,,,black_plus_sign,,,null,object_12b.png,object_04c.png,,,,,,,,,,,,,,,,,
null,,black_cross(without_color)4,1637544,,,,green,,,null,object_12b.png,object_04c.png,,,,,,,,,,,,,,,,,
null,,rt_plussign_withcolor4,1638048,,,,green,,,null,object_12b.png,object_04c.png,,,,,,,,,,,,,,,,,
1221.4000000953674,,rt_thecrossant_black4,1638978,,,,black_plus_sign,,,50,,,1,,,,,,,1,,,,,,,,,
null,,color_black4,1639080,,,,black_plus_sign,,,null,,,,,,,,,,,,,,,,,,,
null,,learn_phase(without_color)4,1642583,,,,black_plus_sign,,,null,object_12c.png,object_02a.png,,,,,,,,,,,,,,,,,
null,,black_cross(without_color)4,1643520,,,,green,,,null,object_12c.png,object_02a.png,,,,,,,,,,,,,,,,,
null,,rt_plussign_withcolor4,1644022,,,,green,,,null,object_12c.png,object_02a.png,,,,,,,,,,,,,,,,,
1408.7999999523163,,rt_thecrossant_black4,1645089,,,,black_plus_sign,,,50,,,1,,,,,,,1,,,,,,,,,
null,,color_black4,1645191,,,,black_plus_sign,,,null,,,,,,,,,,,,,,,,,,,
null,,learn_phase(without_color)4,1648694,,,,black_plus_sign,,,null,object_15a.png,object_09a.png,,,,,,,,,,,,,,,,,
null,,black_cross(without_color)4,1649219,,,,green,,,null,object_15a.png,object_09a.png,,,,,,,,,,,,,,,,,
null,,rt_plussign_withcolor4,1649722,,,,green,,,null,object_15a.png,object_09a.png,,,,,,,,,,,,,,,,,
1274,,rt_thecrossant_black4,1651202,,,,black_plus_sign,,,50,,,1,,,,,,,1,,,,,,,,,
null,,color_black4,1651304,,,,black_plus_sign,,,null,,,,,,,,,,,,,,,,,,,
null,,learn_phase(without_color)4,1654814,,,,black_plus_sign,,,null,object_12a.png,object_12b.png,,,,,,,,,,,,,,,,,
null,,black_cross(without_color)4,1655660,,,,green,,,null,object_12a.png,object_12b.png,,,,,,,,,,,,,,,,,
null,,rt_plussign_withcolor4,1656163,,,,green,,,null,object_12a.png,object_12b.png,,,,,,,,,,,,,,,,,
868.1000001430511,,rt_thecrossant_black4,1657321,,,,black_plus_sign,,,50,,,1,,,,,,,1,,,,,,,,,
null,,color_black4,1657424,,,,black_plus_sign,,,null,,,,,,,,,,,,,,,,,,,
null,,learn_phase(without_color)4,1660927,,,,black_plus_sign,,,null,object_03c.png,object_04b.png,,,,,,,,,,,,,,,,,
null,,black_cross(without_color)4,1661763,,,,blue,,,null,object_03c.png,object_04b.png,,,,,,,,,,,,,,,,,
null,,rt_plussign_withcolor4,1662265,,,,blue,,,null,object_03c.png,object_04b.png,,,,,,,,,,,,,,,,,
1358.7000000476837,,rt_thecrossant_black4,1663434,,,,black_plus_sign,,,49,,,1,,,,,,,1,,,,,,,,,
null,,color_black4,1663537,,,,black_plus_sign,,,null,,,,,,,,,,,,,,,,,,,
null,,learn_phase(without_color)4,1667047,,,,black_plus_sign,,,null,object_07a.png,object_09b.png,,,,,,,,,,,,,,,,,
null,,black_cross(without_color)4,1667820,,,,blue,,,null,object_07a.png,object_09b.png,,,,,,,,,,,,,,,,,
null,,rt_plussign_withcolor4,1668322,,,,blue,,,null,object_07a.png,object_09b.png,,,,,,,,,,,,,,,,,
1531.0999999046326,,rt_thecrossant_black4,1669555,,,,black_plus_sign,,,49,,,1,,,,,,,1,,,,,,,,,
null,,color_black4,1669658,,,,black_plus_sign,,,null,,,,,,,,,,,,,,,,,,,
null,,learn_phase(without_color)4,1673161,,,,black_plus_sign,,,null,object_14a.png,object_07b.png,,,,,,,,,,,,,,,,,
null,,black_cross(without_color)4,1674153,,,,blue,,,null,object_14a.png,object_07b.png,,,,,,,,,,,,,,,,,
null,,rt_plussign_withcolor4,1674655,,,,blue,,,null,object_14a.png,object_07b.png,,,,,,,,,,,,,,,,,
1351.3999998569489,,rt_thecrossant_black4,1675670,,,,black_plus_sign,,,49,,,1,,,,,,,1,,,,,,,,,
null,,color_black4,1675772,,,,black_plus_sign,,,null,,,,,,,,,,,,,,,,,,,
null,,learn_phase(without_color)4,1679275,,,,black_plus_sign,,,null,object_15a.png,object_05a.png,,,,,,,,,,,,,,,,,
null,,black_cross(without_color)4,1679764,,,,blue,,,null,object_15a.png,object_05a.png,,,,,,,,,,,,,,,,,
null,,rt_plussign_withcolor4,1680266,,,,blue,,,null,object_15a.png,object_05a.png,,,,,,,,,,,,,,,,,
1554.0999999046326,,rt_thecrossant_black4,1681783,,,,black_plus_sign,,,49,,,1,,,,,,,1,,,,,,,,,
null,,color_black4,1681885,,,,black_plus_sign,,,null,,,,,,,,,,,,,,,,,,,
null,,learn_phase(without_color)4,1685395,,,,black_plus_sign,,,null,object_10b.png,object_01c.png,,,,,,,,,,,,,,,,,
null,,black_cross(without_color)4,1685888,,,,green,,,null,object_10b.png,object_01c.png,,,,,,,,,,,,,,,,,
null,,rt_plussign_withcolor4,1686390,,,,green,,,null,object_10b.png,object_01c.png,,,,,,,,,,,,,,,,,
837,,rt_thecrossant_black4,1687903,,,,black_plus_sign,,,50,,,1,,,,,,,1,,,,,,,,,
null,,color_black4,1688006,,,,black_plus_sign,,,null,,,,,,,,,,,,,,,,,,,
null,,learn_phase(without_color)4,1691511,,,,black_plus_sign,,,null,object_04a.png,object_13b.png,,,,,,,,,,,,,,,,,
null,,black_cross(without_color)4,1692516,,,,green,,,null,object_04a.png,object_13b.png,,,,,,,,,,,,,,,,,
null,,rt_plussign_withcolor4,1693018,,,,green,,,null,object_04a.png,object_13b.png,,,,,,,,,,,,,,,,,
933.4000000953674,,rt_thecrossant_black4,1694018,,,,black_plus_sign,,,50,,,1,,,,,,,1,,,,,,,,,
null,,color_black4,1694120,,,,black_plus_sign,,,null,,,,,,,,,,,,,,,,,,,
null,,learn_phase(without_color)4,1697623,,,,black_plus_sign,,,null,object_11c.png,object_03b.png,,,,,,,,,,,,,,,,,
null,,black_cross(without_color)4,1698685,,,,green,,,null,object_11c.png,object_03b.png,,,,,,,,,,,,,,,,,
null,,rt_plussign_withcolor4,1699188,,,,green,,,null,object_11c.png,object_03b.png,,,,,,,,,,,,,,,,,
1459.1000001430511,,rt_thecrossant_black4,1700131,,,,black_plus_sign,,,50,,,1,,,,,,,1,,,,,,,,,
null,,color_black4,1700233,,,,black_plus_sign,,,null,,,,,,,,,,,,,,,,,,,
null,,thebreak,1700336,,,,<p></p>,,,null,,,,,,,,,,,,,,,,,,,
1556.4000000953674,,intro_0,1701894,,,,instruct,,,32,,,,,,,,,,,,,,,,,,,
5798.799999952316,,directmemory_phase4,1707694,,,,object_02c.png,,,50,,,1,,object_14b.png,object_02a.png,object_15b.png,object_02a.png,,0.6483516483516484,1,,,,,,,,
2915.399999856949,,directmemory_phase4,1710611,,,,object_08a.png,,,49,,,1,,object_07b.png,object_15b.png,object_07a.png,object_07b.png,,0.6521739130434783,1,,,,,,,,
6504.399999856949,,directmemory_phase4,1717117,,,,object_04c.png,,,49,,,1,,object_12b.png,object_05b.png,object_04b.png,object_12b.png,,0.6559139784946236,1,,,,,,,,
6654.700000047684,,directmemory_phase4,1723774,,,,object_15c.png,,,51,,,1,,object_15a.png,object_10a.png,object_15b.png,object_15b.png,,0.6595744680851063,1,,,,,,,,
4533.400000095367,,directmemory_phase4,1728309,,,,object_02b.png,,,49,,,1,,object_09c.png,object_11c.png,object_10c.png,object_09c.png,,0.6631578947368421,1,,,,,,,,
4131.700000047684,,directmemory_phase4,1732443,,,,object_07a.png,,,51,,,1,,object_15a.png,object_03b.png,object_09b.png,object_09b.png,,0.6666666666666666,1,,,,,,,,
5365.299999952316,,directmemory_phase4,1737810,,,,object_13c.png,,,50,,,1,,object_07a.png,object_13b.png,object_09b.png,object_13b.png,,0.6701030927835051,1,,,,,,,,
4126.599999904633,,directmemory_phase4,1741939,,,,object_01a.png,,,51,,,1,,object_09c.png,object_10a.png,object_01c.png,object_01c.png,,0.673469387755102,1,,,,,,,,
5535.200000047684,,directmemory_phase4,1747476,,,,object_11a.png,,,49,,,1,,object_09c.png,object_05b.png,object_13c.png,object_09c.png,,0.6767676767676768,1,,,,,,,,
5104.799999952316,,directmemory_phase4,1752583,,,,object_05b.png,,,49,,,1,,object_05c.png,object_09a.png,object_01c.png,object_05c.png,,0.68,1,,,,,,,,
3760.600000143051,,directmemory_phase4,1756345,,,,object_03b.png,,,51,,,1,,object_06c.png,object_05a.png,object_11c.png,object_11c.png,,0.6831683168316832,1,,,,,,,,
8701.5,,directmemory_phase4,1765049,,,,object_06c.png,,,50,,,0,,object_13a.png,object_13b.png,object_03a.png,object_03a.png,,0.6764705882352942,0,,,,,,,,
8363,,directmemory_phase4,1773413,,,,object_07b.png,,,50,,,0,,object_14a.png,object_03a.png,object_01c.png,object_14a.png,,0.6699029126213593,0,,,,,,,,
1748.1000001430511,,directmemory_phase4,1775163,,,,object_12a.png,,,49,,,1,,object_12b.png,object_15a.png,object_08a.png,object_12b.png,,0.6730769230769231,1,,,,,,,,
1600.4000000953674,,directmemory_phase4,1776765,,,,object_09a.png,,,49,,,1,,object_15a.png,object_12b.png,object_04b.png,object_15a.png,,0.6761904761904762,1,,,,,,,,
6018.400000095367,,directmemory_phase4,1782785,,,,object_14c.png,,,50,,,1,,object_08b.png,object_06b.png,object_05b.png,object_06b.png,,0.6792452830188679,1,,,,,,,,
7060.299999952316,,directmemory_phase4,1789848,,,,object_08b.png,,,50,,,0,,object_09b.png,object_03a.png,object_08c.png,object_08c.png,,0.6728971962616822,0,,,,,,,,
10465.599999904633,,directmemory_phase4,1800315,,,,object_10c.png,,,51,,,0,,object_15b.png,object_01c.png,object_11b.png,object_15b.png,,0.6666666666666666,0,,,,,,,,
1947.7000000476837,,directmemory_phase4,1802265,,,,object_14b.png,,,49,,,1,,object_08c.png,object_09b.png,object_03b.png,object_08c.png,,0.6697247706422018,1,,,,,,,,
7429.299999952316,,directmemory_phase4,1809696,,,,object_11b.png,,,49,,,0,,object_03a.png,object_11c.png,object_05b.png,object_11c.png,,0.6636363636363637,0,,,,,,,,
4540.300000190735,,directmemory_phase4,1814238,,,,object_06a.png,,,49,,,1,,object_05b.png,object_15a.png,object_14b.png,object_05b.png,,0.6666666666666666,1,,,,,,,,
5819.799999952316,,directmemory_phase4,1820060,,,,object_12c.png,,,51,,,1,,object_15b.png,object_08b.png,object_02a.png,object_02a.png,,0.6696428571428571,1,,,,,,,,
5888.200000047684,,directmemory_phase4,1825950,,,,object_10a.png,,,49,,,1,,object_06c.png,object_11c.png,object_01a.png,object_06c.png,,0.672566371681416,1,,,,,,,,
2232.2999999523163,,directmemory_phase4,1828185,,,,object_05a.png,,,50,,,1,,object_03b.png,object_15a.png,object_09b.png,object_15a.png,,0.6754385964912281,1,,,,,,,,
4137,,directmemory_phase4,1832324,,,,object_13a.png,,,49,,,1,,object_09b.png,object_03c.png,object_03a.png,object_09b.png,,0.6782608695652174,1,,,,,,,,
3099.899999856949,,directmemory_phase4,1835425,,,,object_01b.png,,,51,,,1,,object_12b.png,object_15c.png,object_03c.png,object_03c.png,,0.6810344827586207,1,,,,,,,,
2423.5,,directmemory_phase4,1837851,,,,object_04a.png,,,51,,,1,,object_15b.png,object_02b.png,object_13b.png,object_13b.png,,0.6837606837606838,1,,,,,,,,
9029.100000143051,,directmemory_phase4,1846882,,,,object_03c.png,,,51,,,1,,object_04c.png,object_11c.png,object_04b.png,object_04b.png,,0.6864406779661016,1,,,,,,,,
4869.399999856949,,directmemory_phase4,1851753,,,,object_07c.png,,,50,,,1,,object_01b.png,object_06b.png,object_12b.png,object_06b.png,,0.6890756302521008,1,,,,,,,,
3679.9000000953674,,directmemory_phase4,1855435,,,,object_10b.png,,,51,,,1,,object_03c.png,object_04a.png,object_01c.png,object_01c.png,,0.6916666666666667,1,,,,,,,,
null,,thebreak,1855538,,,,<p></p>,,,null,,,,,,,,,,,,,,,,,,,
4205.100000143051,,intro_0,1859745,,,,instruct,,,32,,,,,,,,,,,,,,,,,,,
25121.400000095367,,intro_1,1884868,,,,instruct,,,32,,,,,,,,,,,,,,,,,,,
5301.700000047684,,intro_2,1890171,,,,instruct,,,32,,,,,,,,,,,,,,,,,,,
,,intro_3,1919136,,,,instruct,,,,,,,,,,,,,,,,,,,,,,
6811.099999904633,,intro_4,1925949,,,,instruct,,,32,,,,,,,,,,,,,,,,,,,
8597.700000047684,,inference_phase,1934548,,,,object_03a.png,,,49,object_03b.png,object_03c.png,0,,,,,object_10a.png,,0,,object_10a.png,,,,,,,
8804.099999904633,,inference_phase,1943354,,,,object_02b.png,,,50,object_14b.png,object_08c.png,1,,,,,object_11a.png,,0.5,,object_11a.png,,,,,,,
6372.600000143051,,inference_phase,1949729,,,,object_13a.png,,,50,object_15c.png,object_07a.png,0,,,,,object_07a.png,,0.3333333333333333,,object_08c.png,,,,,,,
3520.9000000953674,,inference_phase,1953251,,,,object_14b.png,,,49,object_06c.png,object_04a.png,0,,,,,object_08b.png,,0.25,,object_08b.png,,,,,,,
5097.5,,inference_phase,1958350,,,,object_05c.png,,,51,object_01b.png,object_09c.png,0,,,,,object_06a.png,,0.2,,object_06a.png,,,,,,,
5342.5,,inference_phase,1963695,,,,object_10b.png,,,50,object_07a.png,object_01a.png,0,,,,,object_01a.png,,0.16666666666666666,,object_09b.png,,,,,,,
8651,,inference_phase,1972348,,,,object_04a.png,,,51,object_15c.png,object_06c.png,0,,,,,object_13c.png,,0.14285714285714285,,object_13c.png,,,,,,,
4540.799999952316,,inference_phase,1976890,,,,object_01b.png,,,49,object_06c.png,object_08b.png,0,,,,,object_04b.png,,0.125,,object_04b.png,,,,,,,
6074.700000047684,,inference_phase,1982967,,,,object_04c.png,,,49,object_01b.png,object_12a.png,0,,,,,object_12a.png,,0.1111111111111111,,object_09b.png,,,,,,,
6862.799999952316,,inference_phase,1989832,,,,object_07c.png,,,51,object_15a.png,object_14c.png,1,,,,,object_14c.png,,0.2,,object_04c.png,,,,,,,
3067.300000190735,,inference_phase,1992901,,,,object_12c.png,,,49,object_02c.png,object_06a.png,1,,,,,object_02c.png,,0.2727272727272727,,object_15a.png,,,,,,,
5476.799999952316,,inference_phase,1998379,,,,object_15c.png,,,50,object_09b.png,object_10c.png,0,,,,,object_10c.png,,0.25,,object_05c.png,,,,,,,
3265.4000000953674,,inference_phase,2001646,,,,object_09a.png,,,51,object_11a.png,object_05a.png,1,,,,,object_05a.png,,0.3076923076923077,,object_09b.png,,,,,,,
6361.5,,inference_phase,2008009,,,,object_11b.png,,,50,object_03b.png,object_01a.png,0,,,,,object_03b.png,,0.2857142857142857,,object_02a.png,,,,,,,
5804.799999952316,,inference_phase,2013816,,,,object_08a.png,,,50,object_06c.png,object_12c.png,1,,,,,object_14a.png,,0.3333333333333333,,object_14a.png,,,,,,,
,,survey,2147228,,,,survey-questions,,,,,,,,,,,,,,,,none,high,NO.  I was trying to memorize pairs!!!,Patterns, columns, color combinations---tried to make associations,Some were for me.  Color combinations.,no, not recently.  Maybe a long time ago, but I don't remember,Not boring!
