rt,responses,trial_type,time_elapsed,identifier_a,identifier_b,identifier_c,stimulus,button_pressed,response,key_press,stimulus_left,stimulus_right,accuracy,practice_cumulative_accuracy,stimulus_down_left,stimulus_down_mid,stimulus_down_right,stimulus_correct,prac_weighted_accuracy,cumulative_accuracy,failed_practice,weighted_accuracy,tooquick,stimulus_middle,problems,smooth,distraction,strategies,easier,similar,comments
23779.599999904633,{worker_id:642e880fcd7287e38beba0b5},id_enter,23782,object_09b.png; object_07c.png; object_01b.png; object_08c.png; object_13b.png; object_02b.png; object_04a.png; object_05b.png; object_10c.png; object_12c.png; object_04b.png; object_05a.png; object_05c.png; object_07a.png; object_06b.png,object_01a.png; object_06a.png; object_03c.png; object_15c.png; object_08b.png; object_14b.png; object_09c.png; object_12a.png; object_07b.png; object_03b.png; object_15b.png; object_15a.png; object_14a.png; object_12b.png; object_03a.png,object_14c.png; object_13a.png; object_09a.png; object_10b.png; object_13c.png; object_01c.png; object_08a.png; object_11a.png; object_02a.png; object_10a.png; object_04c.png; object_02c.png; object_11b.png; object_11c.png; object_06c.png,,,,,,,,,,,,,,,,,,,,,,,,,
8408.5,,make_fullscreen,32196,,,,fullscreen,0,,,,,,,,,,,,,,,,,,,,,,,
7059.700000047684,,instruct_1,39257,,,,instruct,0,Next,,,,,,,,,,,,,,,,,,,,,,
16319.299999952316,,instruct_2,55578,,,,instruct,1,Next,,,,,,,,,,,,,,,,,,,,,,
38.299999952316284,,instruct_3,55617,,,,instruct,1,Next,,,,,,,,,,,,,,,,,,,,,,
28104.799999952316,,instruct_4,83723,,,,instruct,1,Next,,,,,,,,,,,,,,,,,,,,,,
29063.400000095367,,instruct_5,112788,,,,instruct,1,Next,,,,,,,,,,,,,,,,,,,,,,
4188.400000095367,,instruct_6,116978,,,,instruct,1,Next,,,,,,,,,,,,,,,,,,,,,,
45748.40000009537,,instruct_7,162728,,,,instruct,1,Next,,,,,,,,,,,,,,,,,,,,,,
null,,prac_atten_color_black,163651,,,,black_plus_sign,,,null,,,,,,,,,,,,,,,,,,,,,
null,,prac_atten_color,164133,,,,<p style='position:absolute;top: 50%;right: 50%;transform: translate(50%, -50%);font-size: 125px;color: blue;'>+</p>,,,null,,,,,,,,,,,,,,,,,,,,,
null,,prac_atten_color_black,166136,,,,black_plus_sign,,,null,,,,,,,,,,,,,,,,,,,,,
10155.100000143051,,attentioncheck_help,176296,,,,instruct,,,32,,,,,,,,,,,,,,,,,,,,,
null,,prac_atten_color_black,177220,,,,black_plus_sign,,,null,,,,,,,,,,,,,,,,,,,,,
null,,prac_atten_color,177907,,,,<p style='position:absolute;top: 50%;right: 50%;transform: translate(50%, -50%);font-size: 125px;color: green;'>+</p>,,,null,,,,,,,,,,,,,,,,,,,,,
null,,prac_atten_color_black,179910,,,,black_plus_sign,,,null,,,,,,,,,,,,,,,,,,,,,
12615.100000143051,,attentioncheck_help,192531,,,,instruct,,,32,,,,,,,,,,,,,,,,,,,,,
null,,prac_atten_color_black,193260,,,,black_plus_sign,,,null,,,,,,,,,,,,,,,,,,,,,
736.1000001430511,,prac_atten_color,194062,,,,<p style='position:absolute;top: 50%;right: 50%;transform: translate(50%, -50%);font-size: 125px;color: green;'>+</p>,,,50,,,,,,,,,,,,,,,,,,,,,
null,,prac_atten_color_black,196066,,,,black_plus_sign,,,null,,,,,,,,,,,,,,,,,,,,,
null,,prac_atten_color_black,196670,,,,black_plus_sign,,,null,,,,,,,,,,,,,,,,,,,,,
696.2999999523163,,prac_atten_color,197573,,,,<p style='position:absolute;top: 50%;right: 50%;transform: translate(50%, -50%);font-size: 125px;color: blue;'>+</p>,,,49,,,,,,,,,,,,,,,,,,,,,
null,,prac_atten_color_black,199576,,,,black_plus_sign,,,null,,,,,,,,,,,,,,,,,,,,,
null,,prac_atten_color_black,200081,,,,black_plus_sign,,,null,,,,,,,,,,,,,,,,,,,,,
442.2999999523163,,prac_atten_color,200733,,,,<p style='position:absolute;top: 50%;right: 50%;transform: translate(50%, -50%);font-size: 125px;color: green;'>+</p>,,,50,,,,,,,,,,,,,,,,,,,,,
null,,prac_atten_color_black,202737,,,,black_plus_sign,,,null,,,,,,,,,,,,,,,,,,,,,
null,,prac_atten_color_black,203508,,,,black_plus_sign,,,null,,,,,,,,,,,,,,,,,,,,,
481.2000000476837,,prac_atten_color,204483,,,,<p style='position:absolute;top: 50%;right: 50%;transform: translate(50%, -50%);font-size: 125px;color: green;'>+</p>,,,50,,,,,,,,,,,,,,,,,,,,,
null,,prac_atten_color_black,206487,,,,black_plus_sign,,,null,,,,,,,,,,,,,,,,,,,,,
null,,prac_atten_color_black,206920,,,,black_plus_sign,,,null,,,,,,,,,,,,,,,,,,,,,
474.90000009536743,,prac_atten_color,207740,,,,<p style='position:absolute;top: 50%;right: 50%;transform: translate(50%, -50%);font-size: 125px;color: blue;'>+</p>,,,49,,,,,,,,,,,,,,,,,,,,,
null,,prac_atten_color_black,209743,,,,black_plus_sign,,,null,,,,,,,,,,,,,,,,,,,,,
null,,prac_atten_color_black,210331,,,,black_plus_sign,,,null,,,,,,,,,,,,,,,,,,,,,
488.69999980926514,,prac_atten_color,211398,,,,<p style='position:absolute;top: 50%;right: 50%;transform: translate(50%, -50%);font-size: 125px;color: green;'>+</p>,,,50,,,,,,,,,,,,,,,,,,,,,
null,,prac_atten_color_black,213402,,,,black_plus_sign,,,null,,,,,,,,,,,,,,,,,,,,,
null,,prac_atten_color_black,213744,,,,black_plus_sign,,,null,,,,,,,,,,,,,,,,,,,,,
413.60000014305115,,prac_atten_color,214814,,,,<p style='position:absolute;top: 50%;right: 50%;transform: translate(50%, -50%);font-size: 125px;color: blue;'>+</p>,,,49,,,,,,,,,,,,,,,,,,,,,
null,,prac_atten_color_black,216817,,,,black_plus_sign,,,null,,,,,,,,,,,,,,,,,,,,,
null,,prac_atten_color_black,217155,,,,black_plus_sign,,,null,,,,,,,,,,,,,,,,,,,,,
429.90000009536743,,prac_atten_color,217833,,,,<p style='position:absolute;top: 50%;right: 50%;transform: translate(50%, -50%);font-size: 125px;color: blue;'>+</p>,,,49,,,,,,,,,,,,,,,,,,,,,
null,,prac_atten_color_black,219839,,,,black_plus_sign,,,null,,,,,,,,,,,,,,,,,,,,,
9628.699999809265,,attentioncheck_feedback,229470,,,,cross_check_feedback,0,,,,,,,,,,,,,,,,,,,,,,,
19503,,last_instruct,248974,,,,instruct,,,32,,,,,,,,,,,,,,,,,,,,,
null,,prac_learn_phase(without_color),252479,,,,black_plus_sign,,,null,object_08a.png,object_09c.png,,,,,,,,,,,,,,,,,,,
null,,prac_black_cross(without_color),252946,,,,blue,,,null,object_08a.png,object_09c.png,,,,,,,,,,,,,,,,,,,
null,,prac_rt_plussign_withcolor,253451,,,,blue,,,null,object_08a.png,object_09c.png,,,,,,,,,,,,,,,,,,,
1081,,prac_rt_thecrossant_black,254993,,,,black_plus_sign,,,49,,,1,1,,,,,,,,,,,,,,,,,
null,,prac_color_black,255096,,,,black_plus_sign,,,null,,,,,,,,,,,,,,,,,,,,,
null,,prac_learn_phase(without_color),258599,,,,black_plus_sign,,,null,object_06c.png,object_03a.png,,,,,,,,,,,,,,,,,,,
null,,black_cross(without_color)1,259478,,,,green,,,null,object_08a.png,object_09c.png,,,,,,,,,,,,,,,,,,,
null,,prac_rt_plussign_withcolor,259981,,,,green,,,null,object_06c.png,object_03a.png,,,,,,,,,,,,,,,,,,,
783.5999999046326,,prac_rt_thecrossant_black,260953,,,,black_plus_sign,,,50,,,1,1,,,,,,,,,,,,,,,,,
null,,prac_color_black,261058,,,,black_plus_sign,,,null,,,,,,,,,,,,,,,,,,,,,
null,,prac_learn_phase(without_color),264565,,,,black_plus_sign,,,null,object_11c.png,object_12b.png,,,,,,,,,,,,,,,,,,,
null,,black_cross(without_color)1,265444,,,,green,,,null,object_08a.png,object_09c.png,,,,,,,,,,,,,,,,,,,
null,,prac_rt_plussign_withcolor,265947,,,,blue,,,null,object_11c.png,object_12b.png,,,,,,,,,,,,,,,,,,,
1259.1000001430511,,prac_rt_thecrossant_black,267518,,,,black_plus_sign,,,49,,,1,1,,,,,,,,,,,,,,,,,
null,,prac_color_black,267622,,,,black_plus_sign,,,null,,,,,,,,,,,,,,,,,,,,,
null,,prac_learn_phase(without_color),271125,,,,black_plus_sign,,,null,object_11a.png,object_12a.png,,,,,,,,,,,,,,,,,,,
null,,black_cross(without_color)1,272004,,,,green,,,null,object_08a.png,object_09c.png,,,,,,,,,,,,,,,,,,,
null,,prac_rt_plussign_withcolor,272507,,,,green,,,null,object_11a.png,object_12a.png,,,,,,,,,,,,,,,,,,,
591.6000001430511,,prac_rt_thecrossant_black,273773,,,,black_plus_sign,,,50,,,1,1,,,,,,,,,,,,,,,,,
null,,prac_color_black,273878,,,,black_plus_sign,,,null,,,,,,,,,,,,,,,,,,,,,
12666.5,,instruct_dir_01,286548,,,,instruct,0,Next,,,,,,,,,,,,,,,,,,,,,,
15709.900000095367,,instruct_dir_2,302259,,,,instruct,1,Next,,,,,,,,,,,,,,,,,,,,,,
4592.799999952316,,instruct_dir_3,306853,,,,instruct,1,Next,,,,,,,,,,,,,,,,,,,,,,
7321.899999856949,,instruct_dir_4,314176,,,,instruct,1,Start,,,,,,,,,,,,,,,,,,,,,,
null,,thebreak,314278,,,,<p></p>,,,null,,,,,,,,,,,,,,,,,,,,,
5313.200000047684,,intro_0,319593,,,,instruct,,,32,,,,,,,,,,,,,,,,,,,,,
13743.300000190735,,prac_directmemory_phase,333340,,,,practice/object_03a.png,,,51,,,0,,practice/object_03b.png,practice/object_04b.png,practice/object_02a.png,practice/object_03b.png,0,0,,,,,,,,,,,
4675.599999904633,,prac_directmemory_phase,338023,,,,practice/object_01a.png,,,51,,,0,,practice/object_01b.png,practice/object_04b.png,practice/object_03a.png,practice/object_01b.png,0,0,,,,,,,,,,,
3162.600000143051,,prac_directmemory_phase,341189,,,,practice/object_02a.png,,,50,,,0,,practice/object_02b.png,practice/object_03b.png,practice/object_04a.png,practice/object_02b.png,0,0,,,,,,,,,,,
2438,,prac_directmemory_phase,343632,,,,practice/object_04a.png,,,49,,,1,,practice/object_04b.png,practice/object_02b.png,practice/object_03a.png,practice/object_04b.png,1,0.25,,,,,,,,,,,
70797.70000004768,,practice_feedback_force_restart,414432,,,,practice_feedback,0,,,,,,,,,,,,,1,,,,,,,,,,
12583,,last_instruct,427016,,,,instruct,,,32,,,,,,,,,,,,,,,,,,,,,
null,,prac_learn_phase(without_color),430520,,,,black_plus_sign,,,null,object_08a.png,object_09c.png,,,,,,,,,,,,,,,,,,,
null,,prac_black_cross(without_color),431274,,,,blue,,,null,object_08a.png,object_09c.png,,,,,,,,,,,,,,,,,,,
null,,prac_rt_plussign_withcolor,431777,,,,blue,,,null,object_08a.png,object_09c.png,,,,,,,,,,,,,,,,,,,
935,,prac_rt_thecrossant_black,433044,,,,black_plus_sign,,,49,,,1,1,,,,,,,,,,,,,,,,,
null,,prac_color_black,433149,,,,black_plus_sign,,,null,,,,,,,,,,,,,,,,,,,,,
null,,prac_learn_phase(without_color),436654,,,,black_plus_sign,,,null,object_06c.png,object_03a.png,,,,,,,,,,,,,,,,,,,
null,,black_cross(without_color)1,437533,,,,green,,,null,object_08a.png,object_09c.png,,,,,,,,,,,,,,,,,,,
405.69999980926514,,prac_rt_plussign_withcolor,438035,,,,green,,,50,object_06c.png,object_03a.png,,,,,,,,,,,,,,,,,,,
null,,prac_rt_thecrossant_black,439337,,,,black_plus_sign,,,null,,,1,1,,,,,,,,,,,,,,,,,
null,,prac_color_black,439441,,,,black_plus_sign,,,null,,,,,,,,,,,,,,,,,,,,,
null,,prac_learn_phase(without_color),442946,,,,black_plus_sign,,,null,object_11c.png,object_12b.png,,,,,,,,,,,,,,,,,,,
null,,black_cross(without_color)1,443824,,,,green,,,null,object_08a.png,object_09c.png,,,,,,,,,,,,,,,,,,,
null,,prac_rt_plussign_withcolor,444326,,,,blue,,,null,object_11c.png,object_12b.png,,,,,,,,,,,,,,,,,,,
854,,prac_rt_thecrossant_black,445901,,,,black_plus_sign,,,49,,,1,1,,,,,,,,,,,,,,,,,
null,,prac_color_black,446007,,,,black_plus_sign,,,null,,,,,,,,,,,,,,,,,,,,,
null,,prac_learn_phase(without_color),449512,,,,black_plus_sign,,,null,object_11a.png,object_12a.png,,,,,,,,,,,,,,,,,,,
null,,black_cross(without_color)1,450390,,,,green,,,null,object_08a.png,object_09c.png,,,,,,,,,,,,,,,,,,,
407.90000009536743,,prac_rt_plussign_withcolor,450902,,,,green,,,50,object_11a.png,object_12a.png,,,,,,,,,,,,,,,,,,,
null,,prac_rt_thecrossant_black,451817,,,,black_plus_sign,,,null,,,1,1,,,,,,,,,,,,,,,,,
null,,prac_color_black,451920,,,,black_plus_sign,,,null,,,,,,,,,,,,,,,,,,,,,
6925.200000047684,,instruct_dir_01,458847,,,,instruct,0,Next,,,,,,,,,,,,,,,,,,,,,,
6428.900000095367,,instruct_dir_2,465277,,,,instruct,1,Next,,,,,,,,,,,,,,,,,,,,,,
4286.799999952316,,instruct_dir_3,469565,,,,instruct,1,Next,,,,,,,,,,,,,,,,,,,,,,
82.70000004768372,,instruct_dir_4,469649,,,,instruct,1,Start,,,,,,,,,,,,,,,,,,,,,,
null,,thebreak,469751,,,,<p></p>,,,null,,,,,,,,,,,,,,,,,,,,,
18535.299999952316,,intro_0,488288,,,,instruct,,,32,,,,,,,,,,,,,,,,,,,,,
4583.299999952316,,prac_directmemory_phase,492876,,,,practice/object_03a.png,,,49,,,1,,practice/object_03b.png,practice/object_04b.png,practice/object_02a.png,practice/object_03b.png,1,1,,,,,,,,,,,
6785.299999952316,,prac_directmemory_phase,499665,,,,practice/object_01a.png,,,49,,,1,,practice/object_01b.png,practice/object_04b.png,practice/object_03a.png,practice/object_01b.png,1,1,,,,,,,,,,,
3639.300000190735,,prac_directmemory_phase,503309,,,,practice/object_02a.png,,,49,,,1,,practice/object_02b.png,practice/object_03b.png,practice/object_04a.png,practice/object_02b.png,1,1,,,,,,,,,,,
3807.2999999523163,,prac_directmemory_phase,507121,,,,practice/object_04a.png,,,49,,,1,,practice/object_04b.png,practice/object_02b.png,practice/object_03a.png,practice/object_04b.png,1,1,,,,,,,,,,,
22263.699999809265,,practice_feedback,529393,,,,practice_feedback,1,,,,,,,,,,,,,,,,,,,,,,,
73339.29999995232,,proceed_actualTask,602737,,,,proceed_actualTask,1,Continue,,,,,,,,,,,,,,,,,,,,,,
13310.5,,last_inst,616050,,,,last_inst,,,32,,,,,,,,,,,,,,,,,,,,,
null,,learn_phase(without_color)1,619555,,,,black_plus_sign,,,null,object_08a.png,object_09c.png,,,,,,,,,,,,,,,,,,,
null,,black_cross(without_color)1,620432,,,,green,,,null,object_08a.png,object_09c.png,,,,,,,,,,,,,,,,,,,
null,,rt_plussign_withcolor1,620936,,,,green,,,null,object_08a.png,object_09c.png,,,,,,,,,,,,,,,,,,,
1224.6000001430511,,rt_thecrossant_black1,622068,,,,black_plus_sign,,,50,,,1,,,,,,,1,,,,,,,,,,,
null,,color_black1,622171,,,,black_plus_sign,,,null,,,,,,,,,,,,,,,,,,,,,
null,,learn_phase(without_color)1,625678,,,,black_plus_sign,,,null,object_06c.png,object_03a.png,,,,,,,,,,,,,,,,,,,
null,,black_cross(without_color)1,626694,,,,green,,,null,object_06c.png,object_03a.png,,,,,,,,,,,,,,,,,,,
null,,rt_plussign_withcolor1,627197,,,,green,,,null,object_06c.png,object_03a.png,,,,,,,,,,,,,,,,,,,
1098.7000000476837,,rt_thecrossant_black1,628189,,,,black_plus_sign,,,50,,,1,,,,,,,1,,,,,,,,,,,
null,,color_black1,628292,,,,black_plus_sign,,,null,,,,,,,,,,,,,,,,,,,,,
null,,learn_phase(without_color)1,631799,,,,black_plus_sign,,,null,object_11c.png,object_12b.png,,,,,,,,,,,,,,,,,,,
null,,black_cross(without_color)1,632696,,,,green,,,null,object_11c.png,object_12b.png,,,,,,,,,,,,,,,,,,,
null,,rt_plussign_withcolor1,633198,,,,green,,,null,object_11c.png,object_12b.png,,,,,,,,,,,,,,,,,,,
1215.3000001907349,,rt_thecrossant_black1,634309,,,,black_plus_sign,,,50,,,1,,,,,,,1,,,,,,,,,,,
null,,color_black1,634414,,,,black_plus_sign,,,null,,,,,,,,,,,,,,,,,,,,,
null,,learn_phase(without_color)1,637920,,,,black_plus_sign,,,null,object_11a.png,object_12a.png,,,,,,,,,,,,,,,,,,,
null,,black_cross(without_color)1,638639,,,,green,,,null,object_11a.png,object_12a.png,,,,,,,,,,,,,,,,,,,
null,,rt_plussign_withcolor1,639142,,,,green,,,null,object_11a.png,object_12a.png,,,,,,,,,,,,,,,,,,,
1049.1000001430511,,rt_thecrossant_black1,640428,,,,black_plus_sign,,,50,,,1,,,,,,,1,,,,,,,,,,,
null,,color_black1,640533,,,,black_plus_sign,,,null,,,,,,,,,,,,,,,,,,,,,
null,,learn_phase(without_color)1,644039,,,,black_plus_sign,,,null,object_03b.png,object_12c.png,,,,,,,,,,,,,,,,,,,
null,,black_cross(without_color)1,644649,,,,blue,,,null,object_03b.png,object_12c.png,,,,,,,,,,,,,,,,,,,
null,,rt_plussign_withcolor1,645151,,,,blue,,,null,object_03b.png,object_12c.png,,,,,,,,,,,,,,,,,,,
944.7000000476837,,rt_thecrossant_black1,646549,,,,black_plus_sign,,,49,,,1,,,,,,,1,,,,,,,,,,,
null,,color_black1,646653,,,,black_plus_sign,,,null,,,,,,,,,,,,,,,,,,,,,
null,,learn_phase(without_color)1,650158,,,,black_plus_sign,,,null,object_14b.png,object_01c.png,,,,,,,,,,,,,,,,,,,
null,,black_cross(without_color)1,650742,,,,green,,,null,object_14b.png,object_01c.png,,,,,,,,,,,,,,,,,,,
null,,rt_plussign_withcolor1,651244,,,,green,,,null,object_14b.png,object_01c.png,,,,,,,,,,,,,,,,,,,
732,,rt_thecrossant_black1,652666,,,,black_plus_sign,,,50,,,1,,,,,,,1,,,,,,,,,,,
null,,color_black1,652769,,,,black_plus_sign,,,null,,,,,,,,,,,,,,,,,,,,,
null,,learn_phase(without_color)1,656272,,,,black_plus_sign,,,null,object_06a.png,object_13a.png,,,,,,,,,,,,,,,,,,,
null,,black_cross(without_color)1,656740,,,,blue,,,null,object_06a.png,object_13a.png,,,,,,,,,,,,,,,,,,,
null,,rt_plussign_withcolor1,657242,,,,blue,,,null,object_06a.png,object_13a.png,,,,,,,,,,,,,,,,,,,
822.3999998569489,,rt_thecrossant_black1,658779,,,,black_plus_sign,,,49,,,1,,,,,,,1,,,,,,,,,,,
null,,color_black1,658880,,,,black_plus_sign,,,null,,,,,,,,,,,,,,,,,,,,,
null,,learn_phase(without_color)1,662383,,,,black_plus_sign,,,null,object_02b.png,object_14b.png,,,,,,,,,,,,,,,,,,,
null,,black_cross(without_color)1,663436,,,,blue,,,null,object_02b.png,object_14b.png,,,,,,,,,,,,,,,,,,,
null,,rt_plussign_withcolor1,663939,,,,blue,,,null,object_02b.png,object_14b.png,,,,,,,,,,,,,,,,,,,
585.4000000953674,,rt_thecrossant_black1,664894,,,,black_plus_sign,,,49,,,1,,,,,,,1,,,,,,,,,,,
null,,color_black1,664999,,,,black_plus_sign,,,null,,,,,,,,,,,,,,,,,,,,,
null,,learn_phase(without_color)1,668505,,,,black_plus_sign,,,null,object_12b.png,object_07a.png,,,,,,,,,,,,,,,,,,,
null,,black_cross(without_color)1,669523,,,,green,,,null,object_12b.png,object_07a.png,,,,,,,,,,,,,,,,,,,
null,,rt_plussign_withcolor1,670025,,,,green,,,null,object_12b.png,object_07a.png,,,,,,,,,,,,,,,,,,,
1420.8999998569489,,rt_thecrossant_black1,671019,,,,black_plus_sign,,,50,,,1,,,,,,,1,,,,,,,,,,,
null,,color_black1,671123,,,,black_plus_sign,,,null,,,,,,,,,,,,,,,,,,,,,
null,,learn_phase(without_color)1,674630,,,,black_plus_sign,,,null,object_15b.png,object_04c.png,,,,,,,,,,,,,,,,,,,
null,,black_cross(without_color)1,675411,,,,green,,,null,object_15b.png,object_04c.png,,,,,,,,,,,,,,,,,,,
null,,rt_plussign_withcolor1,675914,,,,green,,,null,object_15b.png,object_04c.png,,,,,,,,,,,,,,,,,,,
1203.7999999523163,,rt_thecrossant_black1,677141,,,,black_plus_sign,,,50,,,1,,,,,,,1,,,,,,,,,,,
null,,color_black1,677246,,,,black_plus_sign,,,null,,,,,,,,,,,,,,,,,,,,,
null,,learn_phase(without_color)1,680751,,,,black_plus_sign,,,null,object_06b.png,object_03a.png,,,,,,,,,,,,,,,,,,,
null,,black_cross(without_color)1,681185,,,,green,,,null,object_06b.png,object_03a.png,,,,,,,,,,,,,,,,,,,
null,,rt_plussign_withcolor1,681688,,,,green,,,null,object_06b.png,object_03a.png,,,,,,,,,,,,,,,,,,,
901.2999999523163,,rt_thecrossant_black1,683263,,,,black_plus_sign,,,50,,,1,,,,,,,1,,,,,,,,,,,
null,,color_black1,683368,,,,black_plus_sign,,,null,,,,,,,,,,,,,,,,,,,,,
null,,learn_phase(without_color)1,686873,,,,black_plus_sign,,,null,object_10c.png,object_07b.png,,,,,,,,,,,,,,,,,,,
null,,black_cross(without_color)1,687635,,,,green,,,null,object_10c.png,object_07b.png,,,,,,,,,,,,,,,,,,,
500.30000019073486,,rt_plussign_withcolor1,688138,,,,green,,,50,object_10c.png,object_07b.png,,,,,,,,,,,,,,,,,,,
null,,rt_thecrossant_black1,689383,,,,black_plus_sign,,,null,,,1,,,,,,,1,,,,,,,,,,,
null,,color_black1,689488,,,,black_plus_sign,,,null,,,,,,,,,,,,,,,,,,,,,
null,,learn_phase(without_color)1,693006,,,,black_plus_sign,,,null,object_03c.png,object_01b.png,,,,,,,,,,,,,,,,,,,
null,,black_cross(without_color)1,693860,,,,blue,,,null,object_03c.png,object_01b.png,,,,,,,,,,,,,,,,,,,
null,,rt_plussign_withcolor1,694364,,,,blue,,,null,object_03c.png,object_01b.png,,,,,,,,,,,,,,,,,,,
872.5999999046326,,rt_thecrossant_black1,695520,,,,black_plus_sign,,,49,,,1,,,,,,,1,,,,,,,,,,,
null,,color_black1,695624,,,,black_plus_sign,,,null,,,,,,,,,,,,,,,,,,,,,
null,,learn_phase(without_color)1,699129,,,,black_plus_sign,,,null,object_01a.png,object_09b.png,,,,,,,,,,,,,,,,,,,
null,,black_cross(without_color)1,699628,,,,blue,,,null,object_01a.png,object_09b.png,,,,,,,,,,,,,,,,,,,
null,,rt_plussign_withcolor1,700131,,,,blue,,,null,object_01a.png,object_09b.png,,,,,,,,,,,,,,,,,,,
1069.5999999046326,,rt_thecrossant_black1,701646,,,,black_plus_sign,,,49,,,1,,,,,,,1,,,,,,,,,,,
null,,color_black1,701750,,,,black_plus_sign,,,null,,,,,,,,,,,,,,,,,,,,,
null,,learn_phase(without_color)1,705256,,,,black_plus_sign,,,null,object_05a.png,object_15a.png,,,,,,,,,,,,,,,,,,,
null,,black_cross(without_color)1,706089,,,,blue,,,null,object_05a.png,object_15a.png,,,,,,,,,,,,,,,,,,,
492.60000014305115,,rt_plussign_withcolor1,706593,,,,blue,,,49,object_05a.png,object_15a.png,,,,,,,,,,,,,,,,,,,
null,,rt_thecrossant_black1,707769,,,,black_plus_sign,,,null,,,1,,,,,,,1,,,,,,,,,,,
null,,color_black1,707873,,,,black_plus_sign,,,null,,,,,,,,,,,,,,,,,,,,,
null,,learn_phase(without_color)1,711378,,,,black_plus_sign,,,null,object_08b.png,object_13c.png,,,,,,,,,,,,,,,,,,,
null,,black_cross(without_color)1,711824,,,,blue,,,null,object_08b.png,object_13c.png,,,,,,,,,,,,,,,,,,,
null,,rt_plussign_withcolor1,712327,,,,blue,,,null,object_08b.png,object_13c.png,,,,,,,,,,,,,,,,,,,
1050.9000000953674,,rt_thecrossant_black1,713890,,,,black_plus_sign,,,49,,,1,,,,,,,1,,,,,,,,,,,
null,,color_black1,713995,,,,black_plus_sign,,,null,,,,,,,,,,,,,,,,,,,,,
null,,learn_phase(without_color)1,717498,,,,black_plus_sign,,,null,object_07b.png,object_02a.png,,,,,,,,,,,,,,,,,,,
null,,black_cross(without_color)1,718285,,,,blue,,,null,object_07b.png,object_02a.png,,,,,,,,,,,,,,,,,,,
null,,rt_plussign_withcolor1,718789,,,,blue,,,null,object_07b.png,object_02a.png,,,,,,,,,,,,,,,,,,,
618.7999999523163,,rt_thecrossant_black1,720011,,,,black_plus_sign,,,49,,,1,,,,,,,1,,,,,,,,,,,
null,,color_black1,720115,,,,black_plus_sign,,,null,,,,,,,,,,,,,,,,,,,,,
null,,learn_phase(without_color)1,723621,,,,black_plus_sign,,,null,object_15c.png,object_08c.png,,,,,,,,,,,,,,,,,,,
null,,black_cross(without_color)1,724588,,,,blue,,,null,object_15c.png,object_08c.png,,,,,,,,,,,,,,,,,,,
null,,rt_plussign_withcolor1,725090,,,,blue,,,null,object_15c.png,object_08c.png,,,,,,,,,,,,,,,,,,,
1091,,rt_thecrossant_black1,726131,,,,black_plus_sign,,,49,,,1,,,,,,,1,,,,,,,,,,,
null,,color_black1,726235,,,,black_plus_sign,,,null,,,,,,,,,,,,,,,,,,,,,
null,,learn_phase(without_color)1,729741,,,,black_plus_sign,,,null,object_15a.png,object_02c.png,,,,,,,,,,,,,,,,,,,
null,,black_cross(without_color)1,730251,,,,green,,,null,object_15a.png,object_02c.png,,,,,,,,,,,,,,,,,,,
null,,rt_plussign_withcolor1,730755,,,,green,,,null,object_15a.png,object_02c.png,,,,,,,,,,,,,,,,,,,
1177.3000001907349,,rt_thecrossant_black1,732262,,,,black_plus_sign,,,50,,,1,,,,,,,1,,,,,,,,,,,
null,,color_black1,732365,,,,black_plus_sign,,,null,,,,,,,,,,,,,,,,,,,,,
null,,learn_phase(without_color)1,735870,,,,black_plus_sign,,,null,object_10b.png,object_15c.png,,,,,,,,,,,,,,,,,,,
null,,black_cross(without_color)1,736762,,,,blue,,,null,object_10b.png,object_15c.png,,,,,,,,,,,,,,,,,,,
null,,rt_plussign_withcolor1,737266,,,,blue,,,null,object_10b.png,object_15c.png,,,,,,,,,,,,,,,,,,,
782.6000001430511,,rt_thecrossant_black1,738382,,,,black_plus_sign,,,49,,,1,,,,,,,1,,,,,,,,,,,
null,,color_black1,738486,,,,black_plus_sign,,,null,,,,,,,,,,,,,,,,,,,,,
null,,learn_phase(without_color)1,741991,,,,black_plus_sign,,,null,object_08b.png,object_13b.png,,,,,,,,,,,,,,,,,,,
null,,black_cross(without_color)1,742462,,,,green,,,null,object_08b.png,object_13b.png,,,,,,,,,,,,,,,,,,,
null,,rt_plussign_withcolor1,742965,,,,green,,,null,object_08b.png,object_13b.png,,,,,,,,,,,,,,,,,,,
1005.7999999523163,,rt_thecrossant_black1,744503,,,,black_plus_sign,,,50,,,1,,,,,,,1,,,,,,,,,,,
null,,color_black1,744607,,,,black_plus_sign,,,null,,,,,,,,,,,,,,,,,,,,,
null,,learn_phase(without_color)1,748113,,,,black_plus_sign,,,null,object_14c.png,object_01a.png,,,,,,,,,,,,,,,,,,,
null,,black_cross(without_color)1,749133,,,,blue,,,null,object_14c.png,object_01a.png,,,,,,,,,,,,,,,,,,,
null,,rt_plussign_withcolor1,749636,,,,blue,,,null,object_14c.png,object_01a.png,,,,,,,,,,,,,,,,,,,
664.5,,rt_thecrossant_black1,750624,,,,black_plus_sign,,,49,,,1,,,,,,,1,,,,,,,,,,,
null,,color_black1,750728,,,,black_plus_sign,,,null,,,,,,,,,,,,,,,,,,,,,
null,,learn_phase(without_color)1,754235,,,,black_plus_sign,,,null,object_03b.png,object_10a.png,,,,,,,,,,,,,,,,,,,
null,,black_cross(without_color)1,754969,,,,green,,,null,object_03b.png,object_10a.png,,,,,,,,,,,,,,,,,,,
null,,rt_plussign_withcolor1,755471,,,,green,,,null,object_03b.png,object_10a.png,,,,,,,,,,,,,,,,,,,
1562.2000000476837,,rt_thecrossant_black1,756744,,,,black_plus_sign,,,50,,,1,,,,,,,1,,,,,,,,,,,
null,,color_black1,756848,,,,black_plus_sign,,,null,,,,,,,,,,,,,,,,,,,,,
null,,learn_phase(without_color)1,760352,,,,black_plus_sign,,,null,object_05c.png,object_14a.png,,,,,,,,,,,,,,,,,,,
null,,black_cross(without_color)1,761263,,,,blue,,,null,object_05c.png,object_14a.png,,,,,,,,,,,,,,,,,,,
null,,rt_plussign_withcolor1,761766,,,,blue,,,null,object_05c.png,object_14a.png,,,,,,,,,,,,,,,,,,,
1129.2000000476837,,rt_thecrossant_black1,762866,,,,black_plus_sign,,,49,,,1,,,,,,,1,,,,,,,,,,,
null,,color_black1,762970,,,,black_plus_sign,,,null,,,,,,,,,,,,,,,,,,,,,
null,,learn_phase(without_color)1,766476,,,,black_plus_sign,,,null,object_09a.png,object_03c.png,,,,,,,,,,,,,,,,,,,
null,,black_cross(without_color)1,766944,,,,green,,,null,object_09a.png,object_03c.png,,,,,,,,,,,,,,,,,,,
null,,rt_plussign_withcolor1,767447,,,,green,,,null,object_09a.png,object_03c.png,,,,,,,,,,,,,,,,,,,
1159.7000000476837,,rt_thecrossant_black1,768988,,,,black_plus_sign,,,50,,,1,,,,,,,1,,,,,,,,,,,
null,,color_black1,769092,,,,black_plus_sign,,,null,,,,,,,,,,,,,,,,,,,,,
null,,learn_phase(without_color)1,772599,,,,black_plus_sign,,,null,object_12a.png,object_05b.png,,,,,,,,,,,,,,,,,,,
null,,black_cross(without_color)1,773662,,,,green,,,null,object_12a.png,object_05b.png,,,,,,,,,,,,,,,,,,,
null,,rt_plussign_withcolor1,774165,,,,green,,,null,object_12a.png,object_05b.png,,,,,,,,,,,,,,,,,,,
635.5,,rt_thecrossant_black1,775111,,,,black_plus_sign,,,50,,,1,,,,,,,1,,,,,,,,,,,
null,,color_black1,775216,,,,black_plus_sign,,,null,,,,,,,,,,,,,,,,,,,,,
null,,learn_phase(without_color)1,778721,,,,black_plus_sign,,,null,object_06a.png,object_07c.png,,,,,,,,,,,,,,,,,,,
null,,black_cross(without_color)1,779709,,,,blue,,,null,object_06a.png,object_07c.png,,,,,,,,,,,,,,,,,,,
493.89999985694885,,rt_plussign_withcolor1,780211,,,,blue,,,49,object_06a.png,object_07c.png,,,,,,,,,,,,,,,,,,,
null,,rt_thecrossant_black1,781236,,,,black_plus_sign,,,null,,,1,,,,,,,1,,,,,,,,,,,
null,,color_black1,781340,,,,black_plus_sign,,,null,,,,,,,,,,,,,,,,,,,,,
null,,learn_phase(without_color)1,784845,,,,black_plus_sign,,,null,object_09c.png,object_04a.png,,,,,,,,,,,,,,,,,,,
null,,black_cross(without_color)1,785387,,,,green,,,null,object_09c.png,object_04a.png,,,,,,,,,,,,,,,,,,,
null,,rt_plussign_withcolor1,785891,,,,green,,,null,object_09c.png,object_04a.png,,,,,,,,,,,,,,,,,,,
1181.5,,rt_thecrossant_black1,787358,,,,black_plus_sign,,,50,,,1,,,,,,,1,,,,,,,,,,,
null,,color_black1,787462,,,,black_plus_sign,,,null,,,,,,,,,,,,,,,,,,,,,
null,,learn_phase(without_color)1,790969,,,,black_plus_sign,,,null,object_11b.png,object_14a.png,,,,,,,,,,,,,,,,,,,
null,,black_cross(without_color)1,791495,,,,blue,,,null,object_11b.png,object_14a.png,,,,,,,,,,,,,,,,,,,
null,,rt_plussign_withcolor1,791997,,,,blue,,,null,object_11b.png,object_14a.png,,,,,,,,,,,,,,,,,,,
726,,rt_thecrossant_black1,793478,,,,black_plus_sign,,,49,,,1,,,,,,,1,,,,,,,,,,,
null,,color_black1,793583,,,,black_plus_sign,,,null,,,,,,,,,,,,,,,,,,,,,
null,,learn_phase(without_color)1,797097,,,,black_plus_sign,,,null,object_15b.png,object_04b.png,,,,,,,,,,,,,,,,,,,
null,,black_cross(without_color)1,797561,,,,green,,,null,object_15b.png,object_04b.png,,,,,,,,,,,,,,,,,,,
null,,rt_plussign_withcolor1,798064,,,,green,,,null,object_15b.png,object_04b.png,,,,,,,,,,,,,,,,,,,
765.0999999046326,,rt_thecrossant_black1,799610,,,,black_plus_sign,,,50,,,1,,,,,,,1,,,,,,,,,,,
null,,color_black1,799714,,,,black_plus_sign,,,null,,,,,,,,,,,,,,,,,,,,,
null,,thebreak,799827,,,,<p></p>,,,null,,,,,,,,,,,,,,,,,,,,,
2918.899999856949,,intro_0,802749,,,,instruct,,,32,,,,,,,,,,,,,,,,,,,,,
null,,directmemory_phase1,817754,,,,object_05c.png,,,null,,,0,,object_14a.png,object_01a.png,object_10c.png,object_14a.png,,0,,0,,,,,,,,,
null,,warning_page,822768,,,,warning,,,null,,,,,,,,,,,,,,,,,,,,,
1744.7999999523163,,directmemory_phase1,824558,,,,object_06b.png,,,49,,,0,,object_10c.png,object_03a.png,object_08b.png,object_03a.png,,0,,0,,,,,,,,,
1734.9000000953674,,directmemory_phase1,826297,,,,object_15a.png,,,50,,,1,,object_07b.png,object_02c.png,object_01c.png,object_02c.png,,0.3333333333333333,,1,,,,,,,,,
2432.5,,directmemory_phase1,828738,,,,object_02b.png,,,51,,,0,,object_04a.png,object_14b.png,object_12b.png,object_14b.png,,0.25,,0,,,,,,,,,
2165.5,,directmemory_phase1,830908,,,,object_05b.png,,,51,,,0,,object_12a.png,object_14a.png,object_02b.png,object_12a.png,,0.2,,0,,,,,,,,,
2494.199999809265,,directmemory_phase1,833408,,,,object_03c.png,,,50,,,1,,object_14b.png,object_09a.png,object_02c.png,object_09a.png,,0.3333333333333333,,1,,,,,,,,,
1997.2999999523163,,directmemory_phase1,835411,,,,object_09c.png,,,51,,,0,,object_08a.png,object_09a.png,object_12a.png,object_08a.png,,0.2857142857142857,,0,,,,,,,,,
1973.5,,directmemory_phase1,837388,,,,object_07a.png,,,51,,,1,,object_12a.png,object_08c.png,object_12b.png,object_12b.png,,0.375,,1,,,,,,,,,
2227.100000143051,,directmemory_phase1,839619,,,,object_07c.png,,,51,,,0,,object_07a.png,object_06a.png,object_15b.png,object_06a.png,,0.3333333333333333,,0,,,,,,,,,
2293.199999809265,,directmemory_phase1,841919,,,,object_05a.png,,,51,,,0,,object_15a.png,object_15c.png,object_09b.png,object_15a.png,,0.3,,0,,,,,,,,,
2169.300000190735,,directmemory_phase1,844094,,,,object_10c.png,,,51,,,0,,object_07b.png,object_08b.png,object_07c.png,object_07b.png,,0.2727272727272727,,0,,,,,,,,,
1710.7999999523163,,directmemory_phase1,845810,,,,object_04b.png,,,49,,,0,,object_14a.png,object_05a.png,object_15b.png,object_15b.png,,0.25,,0,,,,,,,,,
1916.7000000476837,,directmemory_phase1,847735,,,,object_10a.png,,,49,,,0,,object_14a.png,object_02c.png,object_03b.png,object_03b.png,,0.23076923076923078,,0,,,,,,,,,
1795.7999999523163,,directmemory_phase1,849537,,,,object_12a.png,,,49,,,0,,object_11b.png,object_15c.png,object_11a.png,object_11a.png,,0.21428571428571427,,0,,,,,,,,,
1677.5999999046326,,directmemory_phase1,851221,,,,object_14a.png,,,49,,,0,,object_15b.png,object_11b.png,object_04c.png,object_11b.png,,0.2,,0,,,,,,,,,
2123.100000143051,,directmemory_phase1,853350,,,,object_06c.png,,,50,,,0,,object_03c.png,object_01c.png,object_03a.png,object_03a.png,,0.1875,,0,,,,,,,,,
2203.7000000476837,,directmemory_phase1,855560,,,,object_13b.png,,,50,,,0,,object_08b.png,object_07b.png,object_02b.png,object_08b.png,,0.17647058823529413,,0,,,,,,,,,
2784.300000190735,,directmemory_phase1,858348,,,,object_09b.png,,,49,,,0,,object_01b.png,object_01a.png,object_14b.png,object_01a.png,,0.16666666666666666,,0,,,,,,,,,
1899.5999999046326,,directmemory_phase1,860255,,,,object_12c.png,,,51,,,1,,object_15a.png,object_07c.png,object_03b.png,object_03b.png,,0.21052631578947367,,1,,,,,,,,,
1813.2000000476837,,directmemory_phase1,862074,,,,object_14b.png,,,51,,,1,,object_13c.png,object_15b.png,object_01c.png,object_01c.png,,0.25,,1,,,,,,,,,
1953.7000000476837,,directmemory_phase1,864034,,,,object_10b.png,,,50,,,1,,object_10a.png,object_15c.png,object_08b.png,object_15c.png,,0.2857142857142857,,1,,,,,,,,,
2236.5999999046326,,directmemory_phase1,866275,,,,object_15b.png,,,50,,,0,,object_10a.png,object_15c.png,object_04c.png,object_04c.png,,0.2727272727272727,,0,,,,,,,,,
1967.9000000953674,,directmemory_phase1,868245,,,,object_13a.png,,,50,,,0,,object_06a.png,object_03c.png,object_04c.png,object_06a.png,,0.2608695652173913,,0,,,,,,,,,
2391.9000000953674,,directmemory_phase1,870644,,,,object_12b.png,,,49,,,0,,object_14b.png,object_11c.png,object_10a.png,object_11c.png,,0.25,,0,,,,,,,,,
3062.2000000476837,,directmemory_phase1,873712,,,,object_08b.png,,,50,,,1,,object_14a.png,object_13c.png,object_01c.png,object_13c.png,,0.28,,1,,,,,,,,,
1425.1999998092651,,directmemory_phase1,875144,,,,object_01b.png,,,51,,,0,,object_12c.png,object_03c.png,object_03b.png,object_03c.png,,0.2692307692307692,,0,,,,,,,,,
2355.7999999523163,,directmemory_phase1,877503,,,,object_08c.png,,,51,,,1,,object_03c.png,object_10c.png,object_15c.png,object_15c.png,,0.2962962962962963,,1,,,,,,,,,
1892.8999998569489,,directmemory_phase1,879402,,,,object_04a.png,,,50,,,1,,object_01b.png,object_09c.png,object_08b.png,object_09c.png,,0.32142857142857145,,1,,,,,,,,,
1852.6000001430511,,directmemory_phase1,881259,,,,object_02a.png,,,51,,,0,,object_07b.png,object_14a.png,object_04c.png,object_07b.png,,0.3103448275862069,,0,,,,,,,,,
2443.0999999046326,,directmemory_phase1,883708,,,,object_01a.png,,,50,,,1,,object_07b.png,object_14c.png,object_11c.png,object_14c.png,,0.3333333333333333,,1,,,,,,,,,
null,,thebreak,883812,,,,<p></p>,,,null,,,,,,,,,,,,,,,,,,,,,
2646.5,,intro_0,886461,,,,instruct,,,32,,,,,,,,,,,,,,,,,,,,,
null,,learn_phase(without_color)2,889965,,,,black_plus_sign,,,null,object_08b.png,object_13c.png,,,,,,,,,,,,,,,,,,,
null,,black_cross(without_color)2,890418,,,,blue,,,null,object_08b.png,object_13c.png,,,,,,,,,,,,,,,,,,,
null,,rt_plussign_withcolor2,890921,,,,blue,,,null,object_08b.png,object_13c.png,,,,,,,,,,,,,,,,,,,
927.2999999523163,,rt_thecrossant_black2,892479,,,,black_plus_sign,,,49,,,1,,,,,,,1,,,,,,,,,,,
null,,color_black2,892584,,,,black_plus_sign,,,null,,,,,,,,,,,,,,,,,,,,,
null,,learn_phase(without_color)2,896090,,,,black_plus_sign,,,null,object_07a.png,object_12b.png,,,,,,,,,,,,,,,,,,,
null,,black_cross(without_color)2,896502,,,,green,,,null,object_07a.png,object_12b.png,,,,,,,,,,,,,,,,,,,
null,,rt_plussign_withcolor2,897007,,,,green,,,null,object_07a.png,object_12b.png,,,,,,,,,,,,,,,,,,,
626.2000000476837,,rt_thecrossant_black2,898606,,,,black_plus_sign,,,50,,,1,,,,,,,1,,,,,,,,,,,
null,,color_black2,898711,,,,black_plus_sign,,,null,,,,,,,,,,,,,,,,,,,,,
null,,learn_phase(without_color)2,902216,,,,black_plus_sign,,,null,object_13a.png,object_06a.png,,,,,,,,,,,,,,,,,,,
null,,black_cross(without_color)2,903152,,,,green,,,null,object_13a.png,object_06a.png,,,,,,,,,,,,,,,,,,,
451.2000000476837,,rt_plussign_withcolor2,903655,,,,green,,,50,object_13a.png,object_06a.png,,,,,,,,,,,,,,,,,,,
null,,rt_thecrossant_black2,904728,,,,black_plus_sign,,,null,,,1,,,,,,,1,,,,,,,,,,,
null,,color_black2,904833,,,,black_plus_sign,,,null,,,,,,,,,,,,,,,,,,,,,
null,,learn_phase(without_color)2,908338,,,,black_plus_sign,,,null,object_04c.png,object_15b.png,,,,,,,,,,,,,,,,,,,
null,,black_cross(without_color)2,908909,,,,blue,,,null,object_04c.png,object_15b.png,,,,,,,,,,,,,,,,,,,
null,,rt_plussign_withcolor2,909412,,,,blue,,,null,object_04c.png,object_15b.png,,,,,,,,,,,,,,,,,,,
1161.5,,rt_thecrossant_black2,910851,,,,black_plus_sign,,,49,,,1,,,,,,,1,,,,,,,,,,,
null,,color_black2,910957,,,,black_plus_sign,,,null,,,,,,,,,,,,,,,,,,,,,
null,,learn_phase(without_color)2,914463,,,,black_plus_sign,,,null,object_14b.png,object_02b.png,,,,,,,,,,,,,,,,,,,
null,,black_cross(without_color)2,914907,,,,blue,,,null,object_14b.png,object_02b.png,,,,,,,,,,,,,,,,,,,
null,,rt_plussign_withcolor2,915410,,,,blue,,,null,object_14b.png,object_02b.png,,,,,,,,,,,,,,,,,,,
671.7999999523163,,rt_thecrossant_black2,916973,,,,black_plus_sign,,,49,,,1,,,,,,,1,,,,,,,,,,,
null,,color_black2,917077,,,,black_plus_sign,,,null,,,,,,,,,,,,,,,,,,,,,
null,,learn_phase(without_color)2,920582,,,,black_plus_sign,,,null,object_07b.png,object_10c.png,,,,,,,,,,,,,,,,,,,
null,,black_cross(without_color)2,921456,,,,green,,,null,object_07b.png,object_10c.png,,,,,,,,,,,,,,,,,,,
411.2999999523163,,rt_plussign_withcolor2,921960,,,,green,,,50,object_07b.png,object_10c.png,,,,,,,,,,,,,,,,,,,
null,,rt_thecrossant_black2,923095,,,,black_plus_sign,,,null,,,1,,,,,,,1,,,,,,,,,,,
null,,color_black2,923200,,,,black_plus_sign,,,null,,,,,,,,,,,,,,,,,,,,,
null,,learn_phase(without_color)2,926706,,,,black_plus_sign,,,null,object_12b.png,object_11c.png,,,,,,,,,,,,,,,,,,,
null,,black_cross(without_color)2,927630,,,,green,,,null,object_12b.png,object_11c.png,,,,,,,,,,,,,,,,,,,
null,,rt_plussign_withcolor2,928132,,,,green,,,null,object_12b.png,object_11c.png,,,,,,,,,,,,,,,,,,,
1031,,rt_thecrossant_black2,929218,,,,black_plus_sign,,,50,,,1,,,,,,,1,,,,,,,,,,,
null,,color_black2,929321,,,,black_plus_sign,,,null,,,,,,,,,,,,,,,,,,,,,
null,,learn_phase(without_color)2,932826,,,,black_plus_sign,,,null,object_07b.png,object_02a.png,,,,,,,,,,,,,,,,,,,
null,,black_cross(without_color)2,933371,,,,blue,,,null,object_07b.png,object_02a.png,,,,,,,,,,,,,,,,,,,
null,,rt_plussign_withcolor2,933873,,,,blue,,,null,object_07b.png,object_02a.png,,,,,,,,,,,,,,,,,,,
1139.5,,rt_thecrossant_black2,935337,,,,black_plus_sign,,,49,,,1,,,,,,,1,,,,,,,,,,,
null,,color_black2,935442,,,,black_plus_sign,,,null,,,,,,,,,,,,,,,,,,,,,
null,,learn_phase(without_color)2,938947,,,,black_plus_sign,,,null,object_09b.png,object_01a.png,,,,,,,,,,,,,,,,,,,
null,,black_cross(without_color)2,939724,,,,green,,,null,object_09b.png,object_01a.png,,,,,,,,,,,,,,,,,,,
null,,rt_plussign_withcolor2,940235,,,,green,,,null,object_09b.png,object_01a.png,,,,,,,,,,,,,,,,,,,
744.4000000953674,,rt_thecrossant_black2,941470,,,,black_plus_sign,,,50,,,1,,,,,,,1,,,,,,,,,,,
null,,color_black2,941574,,,,black_plus_sign,,,null,,,,,,,,,,,,,,,,,,,,,
null,,learn_phase(without_color)2,945080,,,,black_plus_sign,,,null,object_10b.png,object_15c.png,,,,,,,,,,,,,,,,,,,
null,,black_cross(without_color)2,946178,,,,blue,,,null,object_10b.png,object_15c.png,,,,,,,,,,,,,,,,,,,
null,,rt_plussign_withcolor2,946681,,,,blue,,,null,object_10b.png,object_15c.png,,,,,,,,,,,,,,,,,,,
894.7999999523163,,rt_thecrossant_black2,947592,,,,black_plus_sign,,,49,,,1,,,,,,,1,,,,,,,,,,,
null,,color_black2,947696,,,,black_plus_sign,,,null,,,,,,,,,,,,,,,,,,,,,
null,,learn_phase(without_color)2,951200,,,,black_plus_sign,,,null,object_06b.png,object_03a.png,,,,,,,,,,,,,,,,,,,
null,,black_cross(without_color)2,952293,,,,green,,,null,object_06b.png,object_03a.png,,,,,,,,,,,,,,,,,,,
null,,rt_plussign_withcolor2,952796,,,,green,,,null,object_06b.png,object_03a.png,,,,,,,,,,,,,,,,,,,
1677.3999998569489,,rt_thecrossant_black2,953711,,,,black_plus_sign,,,50,,,1,,,,,,,1,,,,,,,,,,,
null,,color_black2,953813,,,,black_plus_sign,,,null,,,,,,,,,,,,,,,,,,,,,
null,,learn_phase(without_color)2,957318,,,,black_plus_sign,,,null,object_12c.png,object_03b.png,,,,,,,,,,,,,,,,,,,
null,,black_cross(without_color)2,957897,,,,blue,,,null,object_12c.png,object_03b.png,,,,,,,,,,,,,,,,,,,
457.2000000476837,,rt_plussign_withcolor2,958399,,,,blue,,,49,object_12c.png,object_03b.png,,,,,,,,,,,,,,,,,,,
null,,rt_thecrossant_black2,959826,,,,black_plus_sign,,,null,,,1,,,,,,,1,,,,,,,,,,,
null,,color_black2,959931,,,,black_plus_sign,,,null,,,,,,,,,,,,,,,,,,,,,
null,,learn_phase(without_color)2,963436,,,,black_plus_sign,,,null,object_15b.png,object_04b.png,,,,,,,,,,,,,,,,,,,
null,,black_cross(without_color)2,964171,,,,green,,,null,object_15b.png,object_04b.png,,,,,,,,,,,,,,,,,,,
null,,rt_plussign_withcolor2,964675,,,,green,,,null,object_15b.png,object_04b.png,,,,,,,,,,,,,,,,,,,
708.0999999046326,,rt_thecrossant_black2,965950,,,,black_plus_sign,,,50,,,1,,,,,,,1,,,,,,,,,,,
null,,color_black2,966055,,,,black_plus_sign,,,null,,,,,,,,,,,,,,,,,,,,,
null,,learn_phase(without_color)2,969562,,,,black_plus_sign,,,null,object_08c.png,object_15c.png,,,,,,,,,,,,,,,,,,,
null,,black_cross(without_color)2,970352,,,,green,,,null,object_08c.png,object_15c.png,,,,,,,,,,,,,,,,,,,
null,,rt_plussign_withcolor2,970854,,,,green,,,null,object_08c.png,object_15c.png,,,,,,,,,,,,,,,,,,,
912.4000000953674,,rt_thecrossant_black2,972075,,,,black_plus_sign,,,50,,,1,,,,,,,1,,,,,,,,,,,
null,,color_black2,972179,,,,black_plus_sign,,,null,,,,,,,,,,,,,,,,,,,,,
null,,learn_phase(without_color)2,975686,,,,black_plus_sign,,,null,object_08b.png,object_13b.png,,,,,,,,,,,,,,,,,,,
null,,black_cross(without_color)2,976652,,,,green,,,null,object_08b.png,object_13b.png,,,,,,,,,,,,,,,,,,,
419.10000014305115,,rt_plussign_withcolor2,977155,,,,green,,,50,object_08b.png,object_13b.png,,,,,,,,,,,,,,,,,,,
null,,rt_thecrossant_black2,978197,,,,black_plus_sign,,,null,,,1,,,,,,,1,,,,,,,,,,,
null,,color_black2,978303,,,,black_plus_sign,,,null,,,,,,,,,,,,,,,,,,,,,
null,,learn_phase(without_color)2,981810,,,,black_plus_sign,,,null,object_01c.png,object_14b.png,,,,,,,,,,,,,,,,,,,
null,,black_cross(without_color)2,982839,,,,blue,,,null,object_01c.png,object_14b.png,,,,,,,,,,,,,,,,,,,
null,,rt_plussign_withcolor2,983343,,,,blue,,,null,object_01c.png,object_14b.png,,,,,,,,,,,,,,,,,,,
1328,,rt_thecrossant_black2,984324,,,,black_plus_sign,,,49,,,1,,,,,,,1,,,,,,,,,,,
null,,color_black2,984427,,,,black_plus_sign,,,null,,,,,,,,,,,,,,,,,,,,,
null,,learn_phase(without_color)2,987932,,,,black_plus_sign,,,null,object_01b.png,object_03c.png,,,,,,,,,,,,,,,,,,,
null,,black_cross(without_color)2,988461,,,,blue,,,null,object_01b.png,object_03c.png,,,,,,,,,,,,,,,,,,,
null,,rt_plussign_withcolor2,988963,,,,blue,,,null,object_01b.png,object_03c.png,,,,,,,,,,,,,,,,,,,
1429.2000000476837,,rt_thecrossant_black2,990444,,,,black_plus_sign,,,49,,,1,,,,,,,1,,,,,,,,,,,
null,,color_black2,990549,,,,black_plus_sign,,,null,,,,,,,,,,,,,,,,,,,,,
null,,learn_phase(without_color)2,994057,,,,black_plus_sign,,,null,object_14a.png,object_05c.png,,,,,,,,,,,,,,,,,,,
null,,black_cross(without_color)2,994801,,,,green,,,null,object_14a.png,object_05c.png,,,,,,,,,,,,,,,,,,,
430.60000014305115,,rt_plussign_withcolor2,995305,,,,green,,,50,object_14a.png,object_05c.png,,,,,,,,,,,,,,,,,,,
null,,rt_thecrossant_black2,996570,,,,black_plus_sign,,,null,,,1,,,,,,,1,,,,,,,,,,,
null,,color_black2,996675,,,,black_plus_sign,,,null,,,,,,,,,,,,,,,,,,,,,
null,,learn_phase(without_color)2,1000180,,,,black_plus_sign,,,null,object_01a.png,object_14c.png,,,,,,,,,,,,,,,,,,,
null,,black_cross(without_color)2,1000943,,,,green,,,null,object_01a.png,object_14c.png,,,,,,,,,,,,,,,,,,,
445.2000000476837,,rt_plussign_withcolor2,1001446,,,,green,,,50,object_01a.png,object_14c.png,,,,,,,,,,,,,,,,,,,
null,,rt_thecrossant_black2,1002691,,,,black_plus_sign,,,null,,,1,,,,,,,1,,,,,,,,,,,
null,,color_black2,1002805,,,,black_plus_sign,,,null,,,,,,,,,,,,,,,,,,,,,
null,,learn_phase(without_color)2,1006313,,,,black_plus_sign,,,null,object_12a.png,object_05b.png,,,,,,,,,,,,,,,,,,,
null,,black_cross(without_color)2,1006936,,,,green,,,null,object_12a.png,object_05b.png,,,,,,,,,,,,,,,,,,,
null,,rt_plussign_withcolor2,1007439,,,,green,,,null,object_12a.png,object_05b.png,,,,,,,,,,,,,,,,,,,
1109.7999999523163,,rt_thecrossant_black2,1008825,,,,black_plus_sign,,,50,,,1,,,,,,,1,,,,,,,,,,,
null,,color_black2,1008929,,,,black_plus_sign,,,null,,,,,,,,,,,,,,,,,,,,,
null,,learn_phase(without_color)2,1012432,,,,black_plus_sign,,,null,object_09a.png,object_03c.png,,,,,,,,,,,,,,,,,,,
null,,black_cross(without_color)2,1012972,,,,blue,,,null,object_09a.png,object_03c.png,,,,,,,,,,,,,,,,,,,
null,,rt_plussign_withcolor2,1013475,,,,blue,,,null,object_09a.png,object_03c.png,,,,,,,,,,,,,,,,,,,
1004.3999998569489,,rt_thecrossant_black2,1014944,,,,black_plus_sign,,,49,,,1,,,,,,,1,,,,,,,,,,,
null,,color_black2,1015049,,,,black_plus_sign,,,null,,,,,,,,,,,,,,,,,,,,,
null,,learn_phase(without_color)2,1018556,,,,black_plus_sign,,,null,object_08a.png,object_09c.png,,,,,,,,,,,,,,,,,,,
null,,black_cross(without_color)2,1019312,,,,blue,,,null,object_08a.png,object_09c.png,,,,,,,,,,,,,,,,,,,
443,,rt_plussign_withcolor2,1019815,,,,blue,,,50,object_08a.png,object_09c.png,,,,,,,,,,,,,,,,,,,
null,,rt_thecrossant_black2,1021069,,,,black_plus_sign,,,null,,,0,,,,,,,0.9545454545454546,,,,,,,,,,,
null,,color_black2,1021174,,,,black_plus_sign,,,null,,,,,,,,,,,,,,,,,,,,,
null,,learn_phase(without_color)2,1024681,,,,black_plus_sign,,,null,object_07c.png,object_06a.png,,,,,,,,,,,,,,,,,,,
null,,black_cross(without_color)2,1025352,,,,blue,,,null,object_07c.png,object_06a.png,,,,,,,,,,,,,,,,,,,
null,,rt_plussign_withcolor2,1025856,,,,blue,,,null,object_07c.png,object_06a.png,,,,,,,,,,,,,,,,,,,
981,,rt_thecrossant_black2,1027195,,,,black_plus_sign,,,49,,,1,,,,,,,0.9565217391304348,,,,,,,,,,,
null,,color_black2,1027299,,,,black_plus_sign,,,null,,,,,,,,,,,,,,,,,,,,,
null,,learn_phase(without_color)2,1030804,,,,black_plus_sign,,,null,object_15a.png,object_05a.png,,,,,,,,,,,,,,,,,,,
null,,black_cross(without_color)2,1031291,,,,green,,,null,object_15a.png,object_05a.png,,,,,,,,,,,,,,,,,,,
null,,rt_plussign_withcolor2,1031793,,,,green,,,null,object_15a.png,object_05a.png,,,,,,,,,,,,,,,,,,,
881.8999998569489,,rt_thecrossant_black2,1033312,,,,black_plus_sign,,,50,,,1,,,,,,,0.9583333333333334,,,,,,,,,,,
null,,color_black2,1033416,,,,black_plus_sign,,,null,,,,,,,,,,,,,,,,,,,,,
null,,learn_phase(without_color)2,1036920,,,,black_plus_sign,,,null,object_02c.png,object_15a.png,,,,,,,,,,,,,,,,,,,
null,,black_cross(without_color)2,1038009,,,,green,,,null,object_02c.png,object_15a.png,,,,,,,,,,,,,,,,,,,
null,,rt_plussign_withcolor2,1038513,,,,green,,,null,object_02c.png,object_15a.png,,,,,,,,,,,,,,,,,,,
627.4000000953674,,rt_thecrossant_black2,1039432,,,,black_plus_sign,,,50,,,1,,,,,,,0.96,,,,,,,,,,,
null,,color_black2,1039539,,,,black_plus_sign,,,null,,,,,,,,,,,,,,,,,,,,,
null,,learn_phase(without_color)2,1043045,,,,black_plus_sign,,,null,object_10a.png,object_03b.png,,,,,,,,,,,,,,,,,,,
null,,black_cross(without_color)2,1043969,,,,green,,,null,object_10a.png,object_03b.png,,,,,,,,,,,,,,,,,,,
478.59999990463257,,rt_plussign_withcolor2,1044472,,,,green,,,50,object_10a.png,object_03b.png,,,,,,,,,,,,,,,,,,,
null,,rt_thecrossant_black2,1045563,,,,black_plus_sign,,,null,,,1,,,,,,,0.9615384615384616,,,,,,,,,,,
null,,color_black2,1045666,,,,black_plus_sign,,,null,,,,,,,,,,,,,,,,,,,,,
null,,learn_phase(without_color)2,1049173,,,,black_plus_sign,,,null,object_11b.png,object_14a.png,,,,,,,,,,,,,,,,,,,
null,,black_cross(without_color)2,1049779,,,,blue,,,null,object_11b.png,object_14a.png,,,,,,,,,,,,,,,,,,,
null,,rt_plussign_withcolor2,1050282,,,,blue,,,null,object_11b.png,object_14a.png,,,,,,,,,,,,,,,,,,,
1175.2000000476837,,rt_thecrossant_black2,1051684,,,,black_plus_sign,,,49,,,1,,,,,,,0.9629629629629629,,,,,,,,,,,
null,,color_black2,1051791,,,,black_plus_sign,,,null,,,,,,,,,,,,,,,,,,,,,
null,,learn_phase(without_color)2,1055297,,,,black_plus_sign,,,null,object_11a.png,object_12a.png,,,,,,,,,,,,,,,,,,,
null,,black_cross(without_color)2,1055947,,,,green,,,null,object_11a.png,object_12a.png,,,,,,,,,,,,,,,,,,,
null,,rt_plussign_withcolor2,1056451,,,,green,,,null,object_11a.png,object_12a.png,,,,,,,,,,,,,,,,,,,
803.0999999046326,,rt_thecrossant_black2,1057809,,,,black_plus_sign,,,50,,,1,,,,,,,0.9642857142857143,,,,,,,,,,,
null,,color_black2,1057913,,,,black_plus_sign,,,null,,,,,,,,,,,,,,,,,,,,,
null,,learn_phase(without_color)2,1061419,,,,black_plus_sign,,,null,object_09c.png,object_04a.png,,,,,,,,,,,,,,,,,,,
null,,black_cross(without_color)2,1061879,,,,green,,,null,object_09c.png,object_04a.png,,,,,,,,,,,,,,,,,,,
null,,rt_plussign_withcolor2,1062382,,,,green,,,null,object_09c.png,object_04a.png,,,,,,,,,,,,,,,,,,,
834.0999999046326,,rt_thecrossant_black2,1063930,,,,black_plus_sign,,,50,,,1,,,,,,,0.9655172413793104,,,,,,,,,,,
null,,color_black2,1064034,,,,black_plus_sign,,,null,,,,,,,,,,,,,,,,,,,,,
null,,learn_phase(without_color)2,1067539,,,,black_plus_sign,,,null,object_06c.png,object_03a.png,,,,,,,,,,,,,,,,,,,
null,,black_cross(without_color)2,1068232,,,,green,,,null,object_06c.png,object_03a.png,,,,,,,,,,,,,,,,,,,
null,,rt_plussign_withcolor2,1068735,,,,green,,,null,object_06c.png,object_03a.png,,,,,,,,,,,,,,,,,,,
661.7999999523163,,rt_thecrossant_black2,1070052,,,,black_plus_sign,,,50,,,1,,,,,,,0.9666666666666667,,,,,,,,,,,
null,,color_black2,1070154,,,,black_plus_sign,,,null,,,,,,,,,,,,,,,,,,,,,
null,,thebreak,1070259,,,,<p></p>,,,null,,,,,,,,,,,,,,,,,,,,,
2160.4000000953674,,intro_0,1072422,,,,instruct,,,32,,,,,,,,,,,,,,,,,,,,,
2763.5999999046326,,directmemory_phase2,1075190,,,,object_12c.png,,,49,,,1,,object_03b.png,object_08b.png,object_05a.png,object_03b.png,,0.3548387096774194,,1,,,,,,,,,
1574.1000001430511,,directmemory_phase2,1076771,,,,object_03a.png,,,51,,,1,,object_04c.png,object_08b.png,object_06c.png,object_06c.png,,0.375,,1,,,,,,,,,
1668.9000000953674,,directmemory_phase2,1078445,,,,object_11a.png,,,50,,,1,,object_04c.png,object_12a.png,object_03b.png,object_12a.png,,0.3939393939393939,,1,,,,,,,,,
1425.2000000476837,,directmemory_phase2,1079876,,,,object_11b.png,,,49,,,0,,object_13a.png,object_14a.png,object_08b.png,object_14a.png,,0.38235294117647056,,0,,,,,,,,,
1645.6999998092651,,directmemory_phase2,1081528,,,,object_08a.png,,,49,,,0,,object_11a.png,object_09c.png,object_03c.png,object_09c.png,,0.37142857142857144,,0,,,,,,,,,
1918.3999998569489,,directmemory_phase2,1083450,,,,object_09b.png,,,49,,,0,,object_09c.png,object_07a.png,object_01a.png,object_01a.png,,0.3611111111111111,,0,,,,,,,,,
1652.0999999046326,,directmemory_phase2,1085107,,,,object_07b.png,,,51,,,0,,object_02a.png,object_11c.png,object_03c.png,object_02a.png,,0.35135135135135137,,0,,,,,,,,,
1579.2999999523163,,directmemory_phase2,1086694,,,,object_13b.png,,,51,,,1,,object_15a.png,object_05c.png,object_08b.png,object_08b.png,,0.3684210526315789,,1,,,,,,,,,
3259,,directmemory_phase2,1089961,,,,object_05c.png,,,50,,,0,,object_14a.png,object_03c.png,object_08c.png,object_14a.png,,0.358974358974359,,0,,,,,,,,,
1947.6999998092651,,directmemory_phase2,1091916,,,,object_02c.png,,,49,,,1,,object_15a.png,object_08b.png,object_09a.png,object_15a.png,,0.375,,1,,,,,,,,,
2601,,directmemory_phase2,1094525,,,,object_14b.png,,,51,,,1,,object_11a.png,object_08b.png,object_01c.png,object_01c.png,,0.3902439024390244,,1,,,,,,,,,
2332.399999856949,,directmemory_phase2,1096864,,,,object_01a.png,,,49,,,1,,object_14c.png,object_11a.png,object_07b.png,object_14c.png,,0.40476190476190477,,1,,,,,,,,,
2549.100000143051,,directmemory_phase2,1099419,,,,object_03c.png,,,49,,,1,,object_09a.png,object_11b.png,object_14a.png,object_09a.png,,0.4186046511627907,,1,,,,,,,,,
2954.0999999046326,,directmemory_phase2,1102379,,,,object_08b.png,,,51,,,0,,object_14a.png,object_13c.png,object_01c.png,object_13c.png,,0.4090909090909091,,0,,,,,,,,,
1350.7000000476837,,directmemory_phase2,1103732,,,,object_07a.png,,,49,,,1,,object_12b.png,object_09c.png,object_05c.png,object_12b.png,,0.4222222222222222,,1,,,,,,,,,
1741.7000000476837,,directmemory_phase2,1105480,,,,object_08c.png,,,50,,,1,,object_07a.png,object_15c.png,object_12b.png,object_15c.png,,0.43478260869565216,,1,,,,,,,,,
1438.7000000476837,,directmemory_phase2,1106924,,,,object_01b.png,,,49,,,0,,object_04a.png,object_03c.png,object_03b.png,object_03c.png,,0.425531914893617,,0,,,,,,,,,
1776.2000000476837,,directmemory_phase2,1108704,,,,object_10a.png,,,50,,,1,,object_13a.png,object_03b.png,object_15c.png,object_03b.png,,0.4375,,1,,,,,,,,,
1599,,directmemory_phase2,1110308,,,,object_10c.png,,,50,,,1,,object_01b.png,object_07b.png,object_12a.png,object_07b.png,,0.4489795918367347,,1,,,,,,,,,
1405.2000000476837,,directmemory_phase2,1111719,,,,object_05b.png,,,49,,,1,,object_12a.png,object_14b.png,object_07a.png,object_12a.png,,0.46,,1,,,,,,,,,
1891.5,,directmemory_phase2,1113618,,,,object_02b.png,,,51,,,0,,object_14b.png,object_01a.png,object_04b.png,object_14b.png,,0.45098039215686275,,0,,,,,,,,,
2474.4000000953674,,directmemory_phase2,1116099,,,,object_04b.png,,,50,,,1,,object_10c.png,object_15b.png,object_15c.png,object_15b.png,,0.46153846153846156,,1,,,,,,,,,
136.5,,directmemory_phase2,1116242,,,,object_10b.png,,,49,,,0,,object_11a.png,object_15c.png,object_12b.png,object_15c.png,,0.4528301886792453,,0,,,,,,,,,
2747.199999809265,,directmemory_phase2,1118996,,,,object_07c.png,,,49,,,1,,object_06a.png,object_12b.png,object_01b.png,object_06a.png,,0.46296296296296297,,1,,,,,,,,,
1940.0999999046326,,directmemory_phase2,1120942,,,,object_11c.png,,,50,,,0,,object_01a.png,object_01c.png,object_12b.png,object_12b.png,,0.45454545454545453,,0,,,,,,,,,
1538,,directmemory_phase2,1122486,,,,object_15b.png,,,51,,,1,,object_10a.png,object_09c.png,object_04c.png,object_04c.png,,0.4642857142857143,,1,,,,,,,,,
1675.8999998569489,,directmemory_phase2,1124169,,,,object_04a.png,,,50,,,1,,object_01b.png,object_09c.png,object_15a.png,object_09c.png,,0.47368421052631576,,1,,,,,,,,,
1805,,directmemory_phase2,1125980,,,,object_05a.png,,,49,,,1,,object_15a.png,object_09c.png,object_13b.png,object_15a.png,,0.4827586206896552,,1,,,,,,,,,
2281,,directmemory_phase2,1128267,,,,object_06b.png,,,50,,,1,,object_07a.png,object_03a.png,object_12b.png,object_03a.png,,0.4915254237288136,,1,,,,,,,,,
1571.6000001430511,,directmemory_phase2,1129842,,,,object_13a.png,,,51,,,1,,object_14b.png,object_01c.png,object_06a.png,object_06a.png,,0.5,,1,,,,,,,,,
null,,thebreak,1129944,,,,<p></p>,,,null,,,,,,,,,,,,,,,,,,,,,
2018.6000001430511,,intro_0,1131964,,,,instruct,,,32,,,,,,,,,,,,,,,,,,,,,
null,,learn_phase(without_color)3,1135467,,,,black_plus_sign,,,null,object_06a.png,object_13a.png,,,,,,,,,,,,,,,,,,,
null,,black_cross(without_color)3,1136031,,,,blue,,,null,object_06a.png,object_13a.png,,,,,,,,,,,,,,,,,,,
130.5,,rt_plussign_withcolor3,1136535,,,,blue,,,50,object_06a.png,object_13a.png,,,,,,,,,,,,,,,,,,,
null,,rt_thecrossant_black3,1137982,,,,black_plus_sign,,,49,,,0,,,,,,,0,,,,,,,,,,,
null,,color_black3,1138091,,,,black_plus_sign,,,null,,,,,,,,,,,,,,,,,,,,,
null,,learn_phase(without_color)3,1141599,,,,black_plus_sign,,,null,object_14b.png,object_01c.png,,,,,,,,,,,,,,,,,,,
null,,black_cross(without_color)3,1142202,,,,green,,,null,object_14b.png,object_01c.png,,,,,,,,,,,,,,,,,,,
null,,rt_plussign_withcolor3,1142705,,,,green,,,null,object_14b.png,object_01c.png,,,,,,,,,,,,,,,,,,,
696.1000001430511,,rt_thecrossant_black3,1144111,,,,black_plus_sign,,,50,,,1,,,,,,,0.5,,,,,,,,,,,
null,,color_black3,1144214,,,,black_plus_sign,,,null,,,,,,,,,,,,,,,,,,,,,
null,,learn_phase(without_color)3,1147719,,,,black_plus_sign,,,null,object_03b.png,object_10a.png,,,,,,,,,,,,,,,,,,,
null,,black_cross(without_color)3,1148188,,,,green,,,null,object_03b.png,object_10a.png,,,,,,,,,,,,,,,,,,,
null,,rt_plussign_withcolor3,1148691,,,,green,,,null,object_03b.png,object_10a.png,,,,,,,,,,,,,,,,,,,
708.2000000476837,,rt_thecrossant_black3,1150231,,,,black_plus_sign,,,50,,,1,,,,,,,0.6666666666666666,,,,,,,,,,,
null,,color_black3,1150336,,,,black_plus_sign,,,null,,,,,,,,,,,,,,,,,,,,,
null,,learn_phase(without_color)3,1153842,,,,black_plus_sign,,,null,object_07c.png,object_06a.png,,,,,,,,,,,,,,,,,,,
null,,black_cross(without_color)3,1154416,,,,blue,,,null,object_07c.png,object_06a.png,,,,,,,,,,,,,,,,,,,
474.7000000476837,,rt_plussign_withcolor3,1154918,,,,blue,,,49,object_07c.png,object_06a.png,,,,,,,,,,,,,,,,,,,
null,,rt_thecrossant_black3,1156353,,,,black_plus_sign,,,null,,,1,,,,,,,0.75,,,,,,,,,,,
null,,color_black3,1156458,,,,black_plus_sign,,,null,,,,,,,,,,,,,,,,,,,,,
null,,learn_phase(without_color)3,1159966,,,,black_plus_sign,,,null,object_11b.png,object_14a.png,,,,,,,,,,,,,,,,,,,
null,,black_cross(without_color)3,1160711,,,,green,,,null,object_11b.png,object_14a.png,,,,,,,,,,,,,,,,,,,
473.40000009536743,,rt_plussign_withcolor3,1161215,,,,green,,,50,object_11b.png,object_14a.png,,,,,,,,,,,,,,,,,,,
null,,rt_thecrossant_black3,1162481,,,,black_plus_sign,,,null,,,1,,,,,,,0.8,,,,,,,,,,,
null,,color_black3,1162586,,,,black_plus_sign,,,null,,,,,,,,,,,,,,,,,,,,,
null,,learn_phase(without_color)3,1166092,,,,black_plus_sign,,,null,object_13c.png,object_08b.png,,,,,,,,,,,,,,,,,,,
null,,black_cross(without_color)3,1166688,,,,blue,,,null,object_13c.png,object_08b.png,,,,,,,,,,,,,,,,,,,
428,,rt_plussign_withcolor3,1167191,,,,blue,,,49,object_13c.png,object_08b.png,,,,,,,,,,,,,,,,,,,
null,,rt_thecrossant_black3,1168607,,,,black_plus_sign,,,null,,,1,,,,,,,0.8333333333333334,,,,,,,,,,,
null,,color_black3,1168713,,,,black_plus_sign,,,null,,,,,,,,,,,,,,,,,,,,,
null,,learn_phase(without_color)3,1172220,,,,black_plus_sign,,,null,object_05b.png,object_12a.png,,,,,,,,,,,,,,,,,,,
null,,black_cross(without_color)3,1172651,,,,blue,,,null,object_05b.png,object_12a.png,,,,,,,,,,,,,,,,,,,
null,,rt_plussign_withcolor3,1173154,,,,blue,,,null,object_05b.png,object_12a.png,,,,,,,,,,,,,,,,,,,
767.2999999523163,,rt_thecrossant_black3,1174733,,,,black_plus_sign,,,49,,,1,,,,,,,0.8571428571428571,,,,,,,,,,,
null,,color_black3,1174839,,,,black_plus_sign,,,null,,,,,,,,,,,,,,,,,,,,,
null,,learn_phase(without_color)3,1178346,,,,black_plus_sign,,,null,object_01a.png,object_09b.png,,,,,,,,,,,,,,,,,,,
null,,black_cross(without_color)3,1178777,,,,blue,,,null,object_01a.png,object_09b.png,,,,,,,,,,,,,,,,,,,
null,,rt_plussign_withcolor3,1179280,,,,blue,,,null,object_01a.png,object_09b.png,,,,,,,,,,,,,,,,,,,
565,,rt_thecrossant_black3,1180858,,,,black_plus_sign,,,49,,,1,,,,,,,0.875,,,,,,,,,,,
null,,color_black3,1180963,,,,black_plus_sign,,,null,,,,,,,,,,,,,,,,,,,,,
null,,learn_phase(without_color)3,1184471,,,,black_plus_sign,,,null,object_07b.png,object_10c.png,,,,,,,,,,,,,,,,,,,
null,,black_cross(without_color)3,1185121,,,,blue,,,null,object_07b.png,object_10c.png,,,,,,,,,,,,,,,,,,,
459,,rt_plussign_withcolor3,1185625,,,,blue,,,49,object_07b.png,object_10c.png,,,,,,,,,,,,,,,,,,,
null,,rt_thecrossant_black3,1186985,,,,black_plus_sign,,,null,,,1,,,,,,,0.8888888888888888,,,,,,,,,,,
null,,color_black3,1187090,,,,black_plus_sign,,,null,,,,,,,,,,,,,,,,,,,,,
null,,learn_phase(without_color)3,1190598,,,,black_plus_sign,,,null,object_15c.png,object_10b.png,,,,,,,,,,,,,,,,,,,
null,,black_cross(without_color)3,1191263,,,,blue,,,null,object_15c.png,object_10b.png,,,,,,,,,,,,,,,,,,,
null,,rt_plussign_withcolor3,1191766,,,,blue,,,null,object_15c.png,object_10b.png,,,,,,,,,,,,,,,,,,,
760.5,,rt_thecrossant_black3,1193109,,,,black_plus_sign,,,49,,,1,,,,,,,0.9,,,,,,,,,,,
null,,color_black3,1193213,,,,black_plus_sign,,,null,,,,,,,,,,,,,,,,,,,,,
null,,learn_phase(without_color)3,1196720,,,,black_plus_sign,,,null,object_15a.png,object_02c.png,,,,,,,,,,,,,,,,,,,
null,,black_cross(without_color)3,1197665,,,,blue,,,null,object_15a.png,object_02c.png,,,,,,,,,,,,,,,,,,,
null,,rt_plussign_withcolor3,1198168,,,,blue,,,null,object_15a.png,object_02c.png,,,,,,,,,,,,,,,,,,,
891.6000001430511,,rt_thecrossant_black3,1199232,,,,black_plus_sign,,,49,,,1,,,,,,,0.9090909090909091,,,,,,,,,,,
null,,color_black3,1199349,,,,black_plus_sign,,,null,,,,,,,,,,,,,,,,,,,,,
null,,learn_phase(without_color)3,1202855,,,,black_plus_sign,,,null,object_06c.png,object_03a.png,,,,,,,,,,,,,,,,,,,
null,,black_cross(without_color)3,1203931,,,,green,,,null,object_06c.png,object_03a.png,,,,,,,,,,,,,,,,,,,
461.5,,rt_plussign_withcolor3,1204434,,,,green,,,50,object_06c.png,object_03a.png,,,,,,,,,,,,,,,,,,,
null,,rt_thecrossant_black3,1205368,,,,black_plus_sign,,,null,,,1,,,,,,,0.9166666666666666,,,,,,,,,,,
null,,color_black3,1205473,,,,black_plus_sign,,,null,,,,,,,,,,,,,,,,,,,,,
null,,learn_phase(without_color)3,1208981,,,,black_plus_sign,,,null,object_09a.png,object_03c.png,,,,,,,,,,,,,,,,,,,
null,,black_cross(without_color)3,1209918,,,,green,,,null,object_09a.png,object_03c.png,,,,,,,,,,,,,,,,,,,
444.2000000476837,,rt_plussign_withcolor3,1210421,,,,green,,,50,object_09a.png,object_03c.png,,,,,,,,,,,,,,,,,,,
null,,rt_thecrossant_black3,1211494,,,,black_plus_sign,,,null,,,1,,,,,,,0.9230769230769231,,,,,,,,,,,
null,,color_black3,1211600,,,,black_plus_sign,,,null,,,,,,,,,,,,,,,,,,,,,
null,,learn_phase(without_color)3,1215105,,,,black_plus_sign,,,null,object_15b.png,object_04c.png,,,,,,,,,,,,,,,,,,,
null,,black_cross(without_color)3,1215760,,,,blue,,,null,object_15b.png,object_04c.png,,,,,,,,,,,,,,,,,,,
null,,rt_plussign_withcolor3,1216264,,,,blue,,,null,object_15b.png,object_04c.png,,,,,,,,,,,,,,,,,,,
1286.3999998569489,,rt_thecrossant_black3,1217617,,,,black_plus_sign,,,50,,,0,,,,,,,0.8571428571428571,,,,,,,,,,,
null,,color_black3,1217722,,,,black_plus_sign,,,null,,,,,,,,,,,,,,,,,,,,,
null,,learn_phase(without_color)3,1221228,,,,black_plus_sign,,,null,object_11a.png,object_12a.png,,,,,,,,,,,,,,,,,,,
null,,black_cross(without_color)3,1222080,,,,green,,,null,object_11a.png,object_12a.png,,,,,,,,,,,,,,,,,,,
null,,rt_plussign_withcolor3,1222584,,,,green,,,null,object_11a.png,object_12a.png,,,,,,,,,,,,,,,,,,,
769,,rt_thecrossant_black3,1223740,,,,black_plus_sign,,,50,,,1,,,,,,,0.8666666666666667,,,,,,,,,,,
null,,color_black3,1223846,,,,black_plus_sign,,,null,,,,,,,,,,,,,,,,,,,,,
null,,learn_phase(without_color)3,1227351,,,,black_plus_sign,,,null,object_05a.png,object_15a.png,,,,,,,,,,,,,,,,,,,
null,,black_cross(without_color)3,1228246,,,,blue,,,null,object_05a.png,object_15a.png,,,,,,,,,,,,,,,,,,,
417.59999990463257,,rt_plussign_withcolor3,1228750,,,,blue,,,49,object_05a.png,object_15a.png,,,,,,,,,,,,,,,,,,,
null,,rt_thecrossant_black3,1229865,,,,black_plus_sign,,,null,,,1,,,,,,,0.875,,,,,,,,,,,
null,,color_black3,1229969,,,,black_plus_sign,,,null,,,,,,,,,,,,,,,,,,,,,
null,,learn_phase(without_color)3,1233477,,,,black_plus_sign,,,null,object_14b.png,object_02b.png,,,,,,,,,,,,,,,,,,,
null,,black_cross(without_color)3,1233920,,,,green,,,null,object_14b.png,object_02b.png,,,,,,,,,,,,,,,,,,,
408.2000000476837,,rt_plussign_withcolor3,1234424,,,,green,,,50,object_14b.png,object_02b.png,,,,,,,,,,,,,,,,,,,
null,,rt_thecrossant_black3,1235991,,,,black_plus_sign,,,null,,,1,,,,,,,0.8823529411764706,,,,,,,,,,,
null,,color_black3,1236096,,,,black_plus_sign,,,null,,,,,,,,,,,,,,,,,,,,,
null,,learn_phase(without_color)3,1239602,,,,black_plus_sign,,,null,object_12b.png,object_07a.png,,,,,,,,,,,,,,,,,,,
null,,black_cross(without_color)3,1240583,,,,blue,,,null,object_12b.png,object_07a.png,,,,,,,,,,,,,,,,,,,
447.2999999523163,,rt_plussign_withcolor3,1241086,,,,blue,,,49,object_12b.png,object_07a.png,,,,,,,,,,,,,,,,,,,
null,,rt_thecrossant_black3,1242114,,,,black_plus_sign,,,null,,,1,,,,,,,0.8888888888888888,,,,,,,,,,,
null,,color_black3,1242218,,,,black_plus_sign,,,null,,,,,,,,,,,,,,,,,,,,,
null,,learn_phase(without_color)3,1245725,,,,black_plus_sign,,,null,object_08a.png,object_09c.png,,,,,,,,,,,,,,,,,,,
null,,black_cross(without_color)3,1246297,,,,blue,,,null,object_08a.png,object_09c.png,,,,,,,,,,,,,,,,,,,
null,,rt_plussign_withcolor3,1246800,,,,blue,,,null,object_08a.png,object_09c.png,,,,,,,,,,,,,,,,,,,
1089.2999999523163,,rt_thecrossant_black3,1248239,,,,black_plus_sign,,,49,,,1,,,,,,,0.8947368421052632,,,,,,,,,,,
null,,color_black3,1248344,,,,black_plus_sign,,,null,,,,,,,,,,,,,,,,,,,,,
null,,learn_phase(without_color)3,1251852,,,,black_plus_sign,,,null,object_01a.png,object_14c.png,,,,,,,,,,,,,,,,,,,
null,,black_cross(without_color)3,1252498,,,,blue,,,null,object_01a.png,object_14c.png,,,,,,,,,,,,,,,,,,,
482.80000019073486,,rt_plussign_withcolor3,1253001,,,,blue,,,49,object_01a.png,object_14c.png,,,,,,,,,,,,,,,,,,,
null,,rt_thecrossant_black3,1254366,,,,black_plus_sign,,,null,,,1,,,,,,,0.9,,,,,,,,,,,
null,,color_black3,1254470,,,,black_plus_sign,,,null,,,,,,,,,,,,,,,,,,,,,
null,,learn_phase(without_color)3,1257977,,,,black_plus_sign,,,null,object_12b.png,object_11c.png,,,,,,,,,,,,,,,,,,,
null,,black_cross(without_color)3,1258950,,,,blue,,,null,object_12b.png,object_11c.png,,,,,,,,,,,,,,,,,,,
null,,rt_plussign_withcolor3,1259455,,,,blue,,,null,object_12b.png,object_11c.png,,,,,,,,,,,,,,,,,,,
755.4000000953674,,rt_thecrossant_black3,1260491,,,,black_plus_sign,,,49,,,1,,,,,,,0.9047619047619048,,,,,,,,,,,
null,,color_black3,1260596,,,,black_plus_sign,,,null,,,,,,,,,,,,,,,,,,,,,
null,,learn_phase(without_color)3,1264102,,,,black_plus_sign,,,null,object_03a.png,object_06b.png,,,,,,,,,,,,,,,,,,,
null,,black_cross(without_color)3,1264707,,,,green,,,null,object_03a.png,object_06b.png,,,,,,,,,,,,,,,,,,,
465.7000000476837,,rt_plussign_withcolor3,1265211,,,,green,,,50,object_03a.png,object_06b.png,,,,,,,,,,,,,,,,,,,
null,,rt_thecrossant_black3,1266616,,,,black_plus_sign,,,null,,,1,,,,,,,0.9090909090909091,,,,,,,,,,,
null,,color_black3,1266720,,,,black_plus_sign,,,null,,,,,,,,,,,,,,,,,,,,,
null,,learn_phase(without_color)3,1270228,,,,black_plus_sign,,,null,object_03b.png,object_12c.png,,,,,,,,,,,,,,,,,,,
null,,black_cross(without_color)3,1271177,,,,blue,,,null,object_03b.png,object_12c.png,,,,,,,,,,,,,,,,,,,
361.2000000476837,,rt_plussign_withcolor3,1271682,,,,blue,,,49,object_03b.png,object_12c.png,,,,,,,,,,,,,,,,,,,
null,,rt_thecrossant_black3,1272742,,,,black_plus_sign,,,null,,,1,,,,,,,0.9130434782608695,,,,,,,,,,,
null,,color_black3,1272847,,,,black_plus_sign,,,null,,,,,,,,,,,,,,,,,,,,,
null,,learn_phase(without_color)3,1276354,,,,black_plus_sign,,,null,object_03c.png,object_01b.png,,,,,,,,,,,,,,,,,,,
null,,black_cross(without_color)3,1276942,,,,green,,,null,object_03c.png,object_01b.png,,,,,,,,,,,,,,,,,,,
null,,rt_plussign_withcolor3,1277446,,,,green,,,null,object_03c.png,object_01b.png,,,,,,,,,,,,,,,,,,,
1078.7000000476837,,rt_thecrossant_black3,1278869,,,,black_plus_sign,,,50,,,1,,,,,,,0.9166666666666666,,,,,,,,,,,
null,,color_black3,1278974,,,,black_plus_sign,,,null,,,,,,,,,,,,,,,,,,,,,
null,,learn_phase(without_color)3,1282482,,,,black_plus_sign,,,null,object_02a.png,object_07b.png,,,,,,,,,,,,,,,,,,,
null,,black_cross(without_color)3,1283015,,,,blue,,,null,object_02a.png,object_07b.png,,,,,,,,,,,,,,,,,,,
null,,rt_plussign_withcolor3,1283519,,,,blue,,,null,object_02a.png,object_07b.png,,,,,,,,,,,,,,,,,,,
808.6000001430511,,rt_thecrossant_black3,1284994,,,,black_plus_sign,,,49,,,1,,,,,,,0.92,,,,,,,,,,,
null,,color_black3,1285098,,,,black_plus_sign,,,null,,,,,,,,,,,,,,,,,,,,,
null,,learn_phase(without_color)3,1288603,,,,black_plus_sign,,,null,object_04a.png,object_09c.png,,,,,,,,,,,,,,,,,,,
null,,black_cross(without_color)3,1289512,,,,green,,,null,object_04a.png,object_09c.png,,,,,,,,,,,,,,,,,,,
null,,rt_plussign_withcolor3,1290018,,,,green,,,null,object_04a.png,object_09c.png,,,,,,,,,,,,,,,,,,,
632.5,,rt_thecrossant_black3,1291118,,,,black_plus_sign,,,50,,,1,,,,,,,0.9230769230769231,,,,,,,,,,,
null,,color_black3,1291222,,,,black_plus_sign,,,null,,,,,,,,,,,,,,,,,,,,,
null,,learn_phase(without_color)3,1294728,,,,black_plus_sign,,,null,object_08b.png,object_13b.png,,,,,,,,,,,,,,,,,,,
null,,black_cross(without_color)3,1295822,,,,blue,,,null,object_08b.png,object_13b.png,,,,,,,,,,,,,,,,,,,
466.2000000476837,,rt_plussign_withcolor3,1296324,,,,blue,,,49,object_08b.png,object_13b.png,,,,,,,,,,,,,,,,,,,
null,,rt_thecrossant_black3,1297238,,,,black_plus_sign,,,null,,,1,,,,,,,0.9259259259259259,,,,,,,,,,,
null,,color_black3,1297343,,,,black_plus_sign,,,null,,,,,,,,,,,,,,,,,,,,,
null,,learn_phase(without_color)3,1300851,,,,black_plus_sign,,,null,object_05c.png,object_14a.png,,,,,,,,,,,,,,,,,,,
null,,black_cross(without_color)3,1301579,,,,blue,,,null,object_05c.png,object_14a.png,,,,,,,,,,,,,,,,,,,
null,,rt_plussign_withcolor3,1302083,,,,blue,,,null,object_05c.png,object_14a.png,,,,,,,,,,,,,,,,,,,
1251.5999999046326,,rt_thecrossant_black3,1303374,,,,black_plus_sign,,,49,,,1,,,,,,,0.9285714285714286,,,,,,,,,,,
null,,color_black3,1303479,,,,black_plus_sign,,,null,,,,,,,,,,,,,,,,,,,,,
null,,learn_phase(without_color)3,1306986,,,,black_plus_sign,,,null,object_15c.png,object_08c.png,,,,,,,,,,,,,,,,,,,
null,,black_cross(without_color)3,1308035,,,,green,,,null,object_15c.png,object_08c.png,,,,,,,,,,,,,,,,,,,
null,,rt_plussign_withcolor3,1308538,,,,green,,,null,object_15c.png,object_08c.png,,,,,,,,,,,,,,,,,,,
901.5999999046326,,rt_thecrossant_black3,1309499,,,,black_plus_sign,,,50,,,1,,,,,,,0.9310344827586207,,,,,,,,,,,
null,,color_black3,1309603,,,,black_plus_sign,,,null,,,,,,,,,,,,,,,,,,,,,
null,,learn_phase(without_color)3,1313110,,,,black_plus_sign,,,null,object_15b.png,object_04b.png,,,,,,,,,,,,,,,,,,,
null,,black_cross(without_color)3,1313519,,,,green,,,null,object_15b.png,object_04b.png,,,,,,,,,,,,,,,,,,,
null,,rt_plussign_withcolor3,1314022,,,,green,,,null,object_15b.png,object_04b.png,,,,,,,,,,,,,,,,,,,
1304.5,,rt_thecrossant_black3,1315623,,,,black_plus_sign,,,50,,,1,,,,,,,0.9333333333333333,,,,,,,,,,,
null,,color_black3,1315728,,,,black_plus_sign,,,null,,,,,,,,,,,,,,,,,,,,,
null,,thebreak,1315836,,,,<p></p>,,,null,,,,,,,,,,,,,,,,,,,,,
2171.5,,intro_0,1318012,,,,instruct,,,32,,,,,,,,,,,,,,,,,,,,,
1618.2999999523163,,directmemory_phase3,1319635,,,,object_05a.png,,,50,,,0,,object_15a.png,object_14a.png,object_05b.png,object_15a.png,,0.4918032786885246,,0,,,,,,,,,
1110.8999998569489,,directmemory_phase3,1320752,,,,object_02c.png,,,50,,,1,,object_09a.png,object_15a.png,object_08b.png,object_15a.png,,0.5,,1,,,,,,,,,
1594.1000001430511,,directmemory_phase3,1322352,,,,object_05c.png,,,50,,,0,,object_08b.png,object_04a.png,object_14a.png,object_14a.png,,0.49206349206349204,,0,,,,,,,,,
1545.5999999046326,,directmemory_phase3,1323904,,,,object_11a.png,,,51,,,1,,object_14b.png,object_04c.png,object_12a.png,object_12a.png,,0.5,,1,,,,,,,,,
2995.699999809265,,directmemory_phase3,1326906,,,,object_07a.png,,,51,,,1,,object_06a.png,object_02b.png,object_12b.png,object_12b.png,,0.5076923076923077,,1,,,,,,,,,
2654.5,,directmemory_phase3,1329568,,,,object_14a.png,,,49,,,1,,object_11b.png,object_10b.png,object_08b.png,object_11b.png,,0.5151515151515151,,1,,,,,,,,,
2387,,directmemory_phase3,1331961,,,,object_09a.png,,,51,,,0,,object_13a.png,object_03c.png,object_01a.png,object_03c.png,,0.5074626865671642,,0,,,,,,,,,
994.0999999046326,,directmemory_phase3,1332966,,,,object_02b.png,,,50,,,0,,object_09c.png,object_04b.png,object_14b.png,object_14b.png,,0.5,,0,,,,,,,,,
1275,,directmemory_phase3,1334247,,,,object_08c.png,,,51,,,1,,object_07b.png,object_07c.png,object_15c.png,object_15c.png,,0.5072463768115942,,1,,,,,,,,,
1436.1999998092651,,directmemory_phase3,1335688,,,,object_01a.png,,,50,,,0,,object_11a.png,object_03b.png,object_14c.png,object_14c.png,,0.5,,0,,,,,,,,,
2462.5999999046326,,directmemory_phase3,1338157,,,,object_08b.png,,,50,,,0,,object_11b.png,object_07b.png,object_13c.png,object_13c.png,,0.49295774647887325,,0,,,,,,,,,
1887.7000000476837,,directmemory_phase3,1340053,,,,object_07c.png,,,50,,,0,,object_12a.png,object_04a.png,object_06a.png,object_06a.png,,0.4861111111111111,,0,,,,,,,,,
1189,,directmemory_phase3,1341248,,,,object_10a.png,,,51,,,1,,object_06a.png,object_09a.png,object_03b.png,object_03b.png,,0.4931506849315068,,1,,,,,,,,,
1232.4000000953674,,directmemory_phase3,1342486,,,,object_04a.png,,,51,,,0,,object_05c.png,object_09c.png,object_12a.png,object_09c.png,,0.4864864864864865,,0,,,,,,,,,
1189.5999999046326,,directmemory_phase3,1343682,,,,object_10c.png,,,50,,,0,,object_03b.png,object_13b.png,object_07b.png,object_07b.png,,0.48,,0,,,,,,,,,
1066.2999999523163,,directmemory_phase3,1344755,,,,object_03a.png,,,50,,,1,,object_15a.png,object_06c.png,object_02c.png,object_06c.png,,0.4868421052631579,,1,1,,,,,,,,
null,,slowdown_page,1354763,,,,too_quick,,,null,,,,,,,,,,,,,,,,,,,,,
2282.7999999523163,,directmemory_phase3,1357052,,,,object_13a.png,,,51,,,1,,object_15b.png,object_10b.png,object_06a.png,object_06a.png,,0.4935064935064935,,1,,,,,,,,,
2828.7000000476837,,directmemory_phase3,1359887,,,,object_09b.png,,,50,,,0,,object_14b.png,object_07c.png,object_01a.png,object_01a.png,,0.48717948717948717,,0,,,,,,,,,
2891.5,,directmemory_phase3,1362785,,,,object_01b.png,,,51,,,0,,object_03c.png,object_15b.png,object_05c.png,object_03c.png,,0.4810126582278481,,0,,,,,,,,,
2973,,directmemory_phase3,1365765,,,,object_01c.png,,,51,,,1,,object_06a.png,object_10a.png,object_14b.png,object_14b.png,,0.4875,,1,,,,,,,,,
3645.7000000476837,,directmemory_phase3,1369418,,,,object_11c.png,,,51,,,0,,object_12b.png,object_15b.png,object_04c.png,object_12b.png,,0.48148148148148145,,0,,,,,,,,,
2918.7000000476837,,directmemory_phase3,1372342,,,,object_05b.png,,,50,,,1,,object_05a.png,object_12a.png,object_03c.png,object_12a.png,,0.4878048780487805,,1,,,,,,,,,
2962.7000000476837,,directmemory_phase3,1375312,,,,object_04c.png,,,49,,,1,,object_15b.png,object_08b.png,object_11b.png,object_15b.png,,0.4939759036144578,,1,,,,,,,,,
4370.299999952316,,directmemory_phase3,1379690,,,,object_08a.png,,,51,,,1,,object_15b.png,object_01c.png,object_09c.png,object_09c.png,,0.5,,1,,,,,,,,,
3263.100000143051,,directmemory_phase3,1382962,,,,object_06b.png,,,49,,,1,,object_03a.png,object_03b.png,object_10c.png,object_03a.png,,0.5058823529411764,,1,,,,,,,,,
3644.4000000953674,,directmemory_phase3,1386617,,,,object_12c.png,,,49,,,0,,object_15b.png,object_01b.png,object_03b.png,object_03b.png,,0.5,,0,,,,,,,,,
3883.5,,directmemory_phase3,1390508,,,,object_13b.png,,,50,,,1,,object_07c.png,object_08b.png,object_14a.png,object_08b.png,,0.5057471264367817,,1,,,,,,,,,
4239.399999856949,,directmemory_phase3,1394755,,,,object_10b.png,,,51,,,1,,object_12b.png,object_14c.png,object_15c.png,object_15c.png,,0.5113636363636364,,1,,,,,,,,,
3232.2999999523163,,directmemory_phase3,1397993,,,,object_02a.png,,,50,,,1,,object_11b.png,object_07b.png,object_12a.png,object_07b.png,,0.5168539325842697,,1,,,,,,,,,
3042.4000000953674,,directmemory_phase3,1401041,,,,object_04b.png,,,50,,,0,,object_15b.png,object_09c.png,object_07a.png,object_15b.png,,0.5111111111111111,,0,,,,,,,,,
null,,thebreak,1401149,,,,<p></p>,,,null,,,,,,,,,,,,,,,,,,,,,
155729.29999995232,,intro_0,1556882,,,,instruct,,,32,,,,,,,,,,,,,,,,,,,,,
null,,learn_phase(without_color)4,1560388,,,,black_plus_sign,,,null,object_05a.png,object_15a.png,,,,,,,,,,,,,,,,,,,
null,,black_cross(without_color)4,1561388,,,,blue,,,null,object_05a.png,object_15a.png,,,,,,,,,,,,,,,,,,,
448,,rt_plussign_withcolor4,1561891,,,,blue,,,49,object_05a.png,object_15a.png,,,,,,,,,,,,,,,,,,,
null,,rt_thecrossant_black4,1562903,,,,black_plus_sign,,,null,,,1,,,,,,,1,,,,,,,,,,,
null,,color_black4,1563009,,,,black_plus_sign,,,null,,,,,,,,,,,,,,,,,,,,,
null,,learn_phase(without_color)4,1566516,,,,black_plus_sign,,,null,object_04c.png,object_15b.png,,,,,,,,,,,,,,,,,,,
null,,black_cross(without_color)4,1567576,,,,blue,,,null,object_04c.png,object_15b.png,,,,,,,,,,,,,,,,,,,
498.5,,rt_plussign_withcolor4,1568079,,,,blue,,,49,object_04c.png,object_15b.png,,,,,,,,,,,,,,,,,,,
null,,rt_thecrossant_black4,1569029,,,,black_plus_sign,,,null,,,1,,,,,,,1,,,,,,,,,,,
null,,color_black4,1569133,,,,black_plus_sign,,,null,,,,,,,,,,,,,,,,,,,,,
null,,learn_phase(without_color)4,1572642,,,,black_plus_sign,,,null,object_03c.png,object_09a.png,,,,,,,,,,,,,,,,,,,
null,,black_cross(without_color)4,1573387,,,,blue,,,null,object_03c.png,object_09a.png,,,,,,,,,,,,,,,,,,,
null,,rt_plussign_withcolor4,1573891,,,,blue,,,null,object_03c.png,object_09a.png,,,,,,,,,,,,,,,,,,,
1182.2999999523163,,rt_thecrossant_black4,1575155,,,,black_plus_sign,,,49,,,1,,,,,,,1,,,,,,,,,,,
null,,color_black4,1575257,,,,black_plus_sign,,,null,,,,,,,,,,,,,,,,,,,,,
null,,learn_phase(without_color)4,1578760,,,,black_plus_sign,,,null,object_08b.png,object_13c.png,,,,,,,,,,,,,,,,,,,
null,,black_cross(without_color)4,1579579,,,,blue,,,null,object_08b.png,object_13c.png,,,,,,,,,,,,,,,,,,,
482.2000000476837,,rt_plussign_withcolor4,1580083,,,,blue,,,49,object_08b.png,object_13c.png,,,,,,,,,,,,,,,,,,,
null,,rt_thecrossant_black4,1581277,,,,black_plus_sign,,,null,,,1,,,,,,,1,,,,,,,,,,,
null,,color_black4,1581380,,,,black_plus_sign,,,null,,,,,,,,,,,,,,,,,,,,,
null,,learn_phase(without_color)4,1584887,,,,black_plus_sign,,,null,object_02a.png,object_07b.png,,,,,,,,,,,,,,,,,,,
null,,black_cross(without_color)4,1585535,,,,blue,,,null,object_02a.png,object_07b.png,,,,,,,,,,,,,,,,,,,
null,,rt_plussign_withcolor4,1586038,,,,blue,,,null,object_02a.png,object_07b.png,,,,,,,,,,,,,,,,,,,
1025.0999999046326,,rt_thecrossant_black4,1587399,,,,black_plus_sign,,,49,,,1,,,,,,,1,,,,,,,,,,,
null,,color_black4,1587504,,,,black_plus_sign,,,null,,,,,,,,,,,,,,,,,,,,,
null,,learn_phase(without_color)4,1591013,,,,black_plus_sign,,,null,object_03c.png,object_01b.png,,,,,,,,,,,,,,,,,,,
null,,black_cross(without_color)4,1591801,,,,blue,,,null,object_03c.png,object_01b.png,,,,,,,,,,,,,,,,,,,
491.60000014305115,,rt_plussign_withcolor4,1592305,,,,blue,,,49,object_03c.png,object_01b.png,,,,,,,,,,,,,,,,,,,
null,,rt_thecrossant_black4,1593527,,,,black_plus_sign,,,null,,,1,,,,,,,1,,,,,,,,,,,
null,,color_black4,1593631,,,,black_plus_sign,,,null,,,,,,,,,,,,,,,,,,,,,
null,,learn_phase(without_color)4,1597139,,,,black_plus_sign,,,null,object_07b.png,object_10c.png,,,,,,,,,,,,,,,,,,,
null,,black_cross(without_color)4,1597845,,,,blue,,,null,object_07b.png,object_10c.png,,,,,,,,,,,,,,,,,,,
null,,rt_plussign_withcolor4,1598348,,,,blue,,,null,object_07b.png,object_10c.png,,,,,,,,,,,,,,,,,,,
1162.9000000953674,,rt_thecrossant_black4,1599651,,,,black_plus_sign,,,49,,,1,,,,,,,1,,,,,,,,,,,
null,,color_black4,1599756,,,,black_plus_sign,,,null,,,,,,,,,,,,,,,,,,,,,
null,,learn_phase(without_color)4,1603262,,,,black_plus_sign,,,null,object_02b.png,object_14b.png,,,,,,,,,,,,,,,,,,,
null,,black_cross(without_color)4,1604150,,,,blue,,,null,object_02b.png,object_14b.png,,,,,,,,,,,,,,,,,,,
449,,rt_plussign_withcolor4,1604655,,,,blue,,,49,object_02b.png,object_14b.png,,,,,,,,,,,,,,,,,,,
null,,rt_thecrossant_black4,1605776,,,,black_plus_sign,,,null,,,1,,,,,,,1,,,,,,,,,,,
null,,color_black4,1605881,,,,black_plus_sign,,,null,,,,,,,,,,,,,,,,,,,,,
null,,learn_phase(without_color)4,1609388,,,,black_plus_sign,,,null,object_12a.png,object_05b.png,,,,,,,,,,,,,,,,,,,
null,,black_cross(without_color)4,1610071,,,,blue,,,null,object_12a.png,object_05b.png,,,,,,,,,,,,,,,,,,,
null,,rt_plussign_withcolor4,1610575,,,,blue,,,null,object_12a.png,object_05b.png,,,,,,,,,,,,,,,,,,,
1171.9000000953674,,rt_thecrossant_black4,1611901,,,,black_plus_sign,,,49,,,1,,,,,,,1,,,,,,,,,,,
null,,color_black4,1612013,,,,black_plus_sign,,,null,,,,,,,,,,,,,,,,,,,,,
null,,learn_phase(without_color)4,1615521,,,,black_plus_sign,,,null,object_15c.png,object_08c.png,,,,,,,,,,,,,,,,,,,
null,,black_cross(without_color)4,1616233,,,,green,,,null,object_15c.png,object_08c.png,,,,,,,,,,,,,,,,,,,
362.90000009536743,,rt_plussign_withcolor4,1616736,,,,green,,,50,object_15c.png,object_08c.png,,,,,,,,,,,,,,,,,,,
null,,rt_thecrossant_black4,1618036,,,,black_plus_sign,,,null,,,1,,,,,,,1,,,,,,,,,,,
null,,color_black4,1618143,,,,black_plus_sign,,,null,,,,,,,,,,,,,,,,,,,,,
null,,learn_phase(without_color)4,1621650,,,,black_plus_sign,,,null,object_01a.png,object_09b.png,,,,,,,,,,,,,,,,,,,
null,,black_cross(without_color)4,1622456,,,,green,,,null,object_01a.png,object_09b.png,,,,,,,,,,,,,,,,,,,
null,,rt_plussign_withcolor4,1622960,,,,green,,,null,object_01a.png,object_09b.png,,,,,,,,,,,,,,,,,,,
876.1000001430511,,rt_thecrossant_black4,1624163,,,,black_plus_sign,,,50,,,1,,,,,,,1,,,,,,,,,,,
null,,color_black4,1624267,,,,black_plus_sign,,,null,,,,,,,,,,,,,,,,,,,,,
null,,learn_phase(without_color)4,1627776,,,,black_plus_sign,,,null,object_06b.png,object_03a.png,,,,,,,,,,,,,,,,,,,
null,,black_cross(without_color)4,1628599,,,,green,,,null,object_06b.png,object_03a.png,,,,,,,,,,,,,,,,,,,
null,,rt_plussign_withcolor4,1629102,,,,green,,,null,object_06b.png,object_03a.png,,,,,,,,,,,,,,,,,,,
943.1000001430511,,rt_thecrossant_black4,1630291,,,,black_plus_sign,,,50,,,1,,,,,,,1,,,,,,,,,,,
null,,color_black4,1630395,,,,black_plus_sign,,,null,,,,,,,,,,,,,,,,,,,,,
null,,learn_phase(without_color)4,1633901,,,,black_plus_sign,,,null,object_14b.png,object_01c.png,,,,,,,,,,,,,,,,,,,
null,,black_cross(without_color)4,1634959,,,,green,,,null,object_14b.png,object_01c.png,,,,,,,,,,,,,,,,,,,
426.90000009536743,,rt_plussign_withcolor4,1635464,,,,green,,,50,object_14b.png,object_01c.png,,,,,,,,,,,,,,,,,,,
null,,rt_thecrossant_black4,1636415,,,,black_plus_sign,,,null,,,1,,,,,,,1,,,,,,,,,,,
null,,color_black4,1636521,,,,black_plus_sign,,,null,,,,,,,,,,,,,,,,,,,,,
null,,learn_phase(without_color)4,1640030,,,,black_plus_sign,,,null,object_09c.png,object_04a.png,,,,,,,,,,,,,,,,,,,
null,,black_cross(without_color)4,1640476,,,,blue,,,null,object_09c.png,object_04a.png,,,,,,,,,,,,,,,,,,,
null,,rt_plussign_withcolor4,1640980,,,,blue,,,null,object_09c.png,object_04a.png,,,,,,,,,,,,,,,,,,,
1435.5,,rt_thecrossant_black4,1642543,,,,black_plus_sign,,,49,,,1,,,,,,,1,,,,,,,,,,,
null,,color_black4,1642648,,,,black_plus_sign,,,null,,,,,,,,,,,,,,,,,,,,,
null,,learn_phase(without_color)4,1646152,,,,black_plus_sign,,,null,object_15c.png,object_10b.png,,,,,,,,,,,,,,,,,,,
null,,black_cross(without_color)4,1646830,,,,green,,,null,object_15c.png,object_10b.png,,,,,,,,,,,,,,,,,,,
null,,rt_plussign_withcolor4,1647334,,,,green,,,null,object_15c.png,object_10b.png,,,,,,,,,,,,,,,,,,,
694.2000000476837,,rt_thecrossant_black4,1648665,,,,black_plus_sign,,,50,,,1,,,,,,,1,,,,,,,,,,,
null,,color_black4,1648770,,,,black_plus_sign,,,null,,,,,,,,,,,,,,,,,,,,,
null,,learn_phase(without_color)4,1652280,,,,black_plus_sign,,,null,object_12c.png,object_03b.png,,,,,,,,,,,,,,,,,,,
null,,black_cross(without_color)4,1653089,,,,green,,,null,object_12c.png,object_03b.png,,,,,,,,,,,,,,,,,,,
405.90000009536743,,rt_plussign_withcolor4,1653592,,,,green,,,50,object_12c.png,object_03b.png,,,,,,,,,,,,,,,,,,,
null,,rt_thecrossant_black4,1654794,,,,black_plus_sign,,,null,,,1,,,,,,,1,,,,,,,,,,,
null,,color_black4,1654899,,,,black_plus_sign,,,null,,,,,,,,,,,,,,,,,,,,,
null,,learn_phase(without_color)4,1658407,,,,black_plus_sign,,,null,object_04b.png,object_15b.png,,,,,,,,,,,,,,,,,,,
null,,black_cross(without_color)4,1659390,,,,green,,,null,object_04b.png,object_15b.png,,,,,,,,,,,,,,,,,,,
401.2000000476837,,rt_plussign_withcolor4,1659894,,,,green,,,50,object_04b.png,object_15b.png,,,,,,,,,,,,,,,,,,,
null,,rt_thecrossant_black4,1660922,,,,black_plus_sign,,,null,,,1,,,,,,,1,,,,,,,,,,,
null,,color_black4,1661027,,,,black_plus_sign,,,null,,,,,,,,,,,,,,,,,,,,,
null,,learn_phase(without_color)4,1664535,,,,black_plus_sign,,,null,object_13b.png,object_08b.png,,,,,,,,,,,,,,,,,,,
null,,black_cross(without_color)4,1665575,,,,blue,,,null,object_13b.png,object_08b.png,,,,,,,,,,,,,,,,,,,
null,,rt_plussign_withcolor4,1666079,,,,blue,,,null,object_13b.png,object_08b.png,,,,,,,,,,,,,,,,,,,
1110.7999999523163,,rt_thecrossant_black4,1667050,,,,black_plus_sign,,,49,,,1,,,,,,,1,,,,,,,,,,,
null,,color_black4,1667156,,,,black_plus_sign,,,null,,,,,,,,,,,,,,,,,,,,,
null,,learn_phase(without_color)4,1670662,,,,black_plus_sign,,,null,object_10a.png,object_03b.png,,,,,,,,,,,,,,,,,,,
null,,black_cross(without_color)4,1671692,,,,blue,,,null,object_10a.png,object_03b.png,,,,,,,,,,,,,,,,,,,
null,,rt_plussign_withcolor4,1672196,,,,blue,,,null,object_10a.png,object_03b.png,,,,,,,,,,,,,,,,,,,
1746.6000001430511,,rt_thecrossant_black4,1673177,,,,black_plus_sign,,,49,,,1,,,,,,,1,,,,,,,,,,,
null,,color_black4,1673281,,,,black_plus_sign,,,null,,,,,,,,,,,,,,,,,,,,,
null,,learn_phase(without_color)4,1676789,,,,black_plus_sign,,,null,object_01a.png,object_14c.png,,,,,,,,,,,,,,,,,,,
null,,black_cross(without_color)4,1677312,,,,green,,,null,object_01a.png,object_14c.png,,,,,,,,,,,,,,,,,,,
null,,rt_plussign_withcolor4,1677815,,,,green,,,null,object_01a.png,object_14c.png,,,,,,,,,,,,,,,,,,,
1164.5999999046326,,rt_thecrossant_black4,1679307,,,,black_plus_sign,,,50,,,1,,,,,,,1,,,,,,,,,,,
null,,color_black4,1679412,,,,black_plus_sign,,,null,,,,,,,,,,,,,,,,,,,,,
null,,learn_phase(without_color)4,1682919,,,,black_plus_sign,,,null,object_06a.png,object_07c.png,,,,,,,,,,,,,,,,,,,
null,,black_cross(without_color)4,1683795,,,,blue,,,null,object_06a.png,object_07c.png,,,,,,,,,,,,,,,,,,,
null,,rt_plussign_withcolor4,1684299,,,,blue,,,null,object_06a.png,object_07c.png,,,,,,,,,,,,,,,,,,,
884.8000001907349,,rt_thecrossant_black4,1685433,,,,black_plus_sign,,,49,,,1,,,,,,,1,,,,,,,,,,,
null,,color_black4,1685539,,,,black_plus_sign,,,null,,,,,,,,,,,,,,,,,,,,,
null,,learn_phase(without_color)4,1689046,,,,black_plus_sign,,,null,object_15a.png,object_02c.png,,,,,,,,,,,,,,,,,,,
null,,black_cross(without_color)4,1689540,,,,blue,,,null,object_15a.png,object_02c.png,,,,,,,,,,,,,,,,,,,
null,,rt_plussign_withcolor4,1690049,,,,blue,,,null,object_15a.png,object_02c.png,,,,,,,,,,,,,,,,,,,
1029,,rt_thecrossant_black4,1691563,,,,black_plus_sign,,,49,,,1,,,,,,,1,,,,,,,,,,,
null,,color_black4,1691668,,,,black_plus_sign,,,null,,,,,,,,,,,,,,,,,,,,,
null,,learn_phase(without_color)4,1695176,,,,black_plus_sign,,,null,object_14a.png,object_05c.png,,,,,,,,,,,,,,,,,,,
null,,black_cross(without_color)4,1696086,,,,blue,,,null,object_14a.png,object_05c.png,,,,,,,,,,,,,,,,,,,
null,,rt_plussign_withcolor4,1696591,,,,blue,,,null,object_14a.png,object_05c.png,,,,,,,,,,,,,,,,,,,
629.6000001430511,,rt_thecrossant_black4,1697692,,,,black_plus_sign,,,49,,,1,,,,,,,1,,,,,,,,,,,
null,,color_black4,1697810,,,,black_plus_sign,,,null,,,,,,,,,,,,,,,,,,,,,
null,,learn_phase(without_color)4,1701317,,,,black_plus_sign,,,null,object_06a.png,object_13a.png,,,,,,,,,,,,,,,,,,,
null,,black_cross(without_color)4,1702291,,,,blue,,,null,object_06a.png,object_13a.png,,,,,,,,,,,,,,,,,,,
490.5,,rt_plussign_withcolor4,1702793,,,,blue,,,49,object_06a.png,object_13a.png,,,,,,,,,,,,,,,,,,,
null,,rt_thecrossant_black4,1703826,,,,black_plus_sign,,,null,,,1,,,,,,,1,,,,,,,,,,,
null,,color_black4,1703931,,,,black_plus_sign,,,null,,,,,,,,,,,,,,,,,,,,,
null,,learn_phase(without_color)4,1707438,,,,black_plus_sign,,,null,object_12a.png,object_11a.png,,,,,,,,,,,,,,,,,,,
null,,black_cross(without_color)4,1708185,,,,blue,,,null,object_12a.png,object_11a.png,,,,,,,,,,,,,,,,,,,
null,,rt_plussign_withcolor4,1708688,,,,blue,,,null,object_12a.png,object_11a.png,,,,,,,,,,,,,,,,,,,
1237.1999998092651,,rt_thecrossant_black4,1709952,,,,black_plus_sign,,,49,,,1,,,,,,,1,,,,,,,,,,,
null,,color_black4,1710055,,,,black_plus_sign,,,null,,,,,,,,,,,,,,,,,,,,,
null,,learn_phase(without_color)4,1713560,,,,black_plus_sign,,,null,object_14a.png,object_11b.png,,,,,,,,,,,,,,,,,,,
null,,black_cross(without_color)4,1714564,,,,blue,,,null,object_14a.png,object_11b.png,,,,,,,,,,,,,,,,,,,
null,,rt_plussign_withcolor4,1715068,,,,blue,,,null,object_14a.png,object_11b.png,,,,,,,,,,,,,,,,,,,
866.1999998092651,,rt_thecrossant_black4,1716075,,,,black_plus_sign,,,49,,,1,,,,,,,1,,,,,,,,,,,
null,,color_black4,1716179,,,,black_plus_sign,,,null,,,,,,,,,,,,,,,,,,,,,
null,,learn_phase(without_color)4,1719685,,,,black_plus_sign,,,null,object_12b.png,object_11c.png,,,,,,,,,,,,,,,,,,,
null,,black_cross(without_color)4,1720609,,,,blue,,,null,object_12b.png,object_11c.png,,,,,,,,,,,,,,,,,,,
null,,rt_plussign_withcolor4,1721113,,,,blue,,,null,object_12b.png,object_11c.png,,,,,,,,,,,,,,,,,,,
1147.0999999046326,,rt_thecrossant_black4,1722203,,,,black_plus_sign,,,49,,,1,,,,,,,1,,,,,,,,,,,
null,,color_black4,1722310,,,,black_plus_sign,,,null,,,,,,,,,,,,,,,,,,,,,
null,,learn_phase(without_color)4,1725820,,,,black_plus_sign,,,null,object_03a.png,object_06c.png,,,,,,,,,,,,,,,,,,,
null,,black_cross(without_color)4,1726314,,,,blue,,,null,object_03a.png,object_06c.png,,,,,,,,,,,,,,,,,,,
null,,rt_plussign_withcolor4,1726817,,,,blue,,,null,object_03a.png,object_06c.png,,,,,,,,,,,,,,,,,,,
1392.0999999046326,,rt_thecrossant_black4,1728334,,,,black_plus_sign,,,49,,,1,,,,,,,1,,,,,,,,,,,
null,,color_black4,1728439,,,,black_plus_sign,,,null,,,,,,,,,,,,,,,,,,,,,
null,,learn_phase(without_color)4,1731949,,,,black_plus_sign,,,null,object_09c.png,object_08a.png,,,,,,,,,,,,,,,,,,,
null,,black_cross(without_color)4,1732708,,,,blue,,,null,object_09c.png,object_08a.png,,,,,,,,,,,,,,,,,,,
375.2999999523163,,rt_plussign_withcolor4,1733212,,,,blue,,,49,object_09c.png,object_08a.png,,,,,,,,,,,,,,,,,,,
null,,rt_thecrossant_black4,1734463,,,,black_plus_sign,,,null,,,1,,,,,,,1,,,,,,,,,,,
null,,color_black4,1734568,,,,black_plus_sign,,,null,,,,,,,,,,,,,,,,,,,,,
null,,learn_phase(without_color)4,1738076,,,,black_plus_sign,,,null,object_12b.png,object_07a.png,,,,,,,,,,,,,,,,,,,
null,,black_cross(without_color)4,1738775,,,,blue,,,null,object_12b.png,object_07a.png,,,,,,,,,,,,,,,,,,,
421.89999985694885,,rt_plussign_withcolor4,1739280,,,,blue,,,49,object_12b.png,object_07a.png,,,,,,,,,,,,,,,,,,,
null,,rt_thecrossant_black4,1740592,,,,black_plus_sign,,,null,,,1,,,,,,,1,,,,,,,,,,,
null,,color_black4,1740696,,,,black_plus_sign,,,null,,,,,,,,,,,,,,,,,,,,,
null,,thebreak,1740802,,,,<p></p>,,,null,,,,,,,,,,,,,,,,,,,,,
12094,,intro_0,1752901,,,,instruct,,,32,,,,,,,,,,,,,,,,,,,,,
2692.0999999046326,,directmemory_phase4,1755597,,,,object_11a.png,,,49,,,1,,object_12a.png,object_01a.png,object_01c.png,object_12a.png,,0.5164835164835165,,1,,,,,,,,,
3486.0999999046326,,directmemory_phase4,1759089,,,,object_05c.png,,,49,,,1,,object_14a.png,object_15c.png,object_13b.png,object_14a.png,,0.5217391304347826,,1,,,,,,,,,
2737.2999999523163,,directmemory_phase4,1761832,,,,object_08c.png,,,49,,,1,,object_15c.png,object_12b.png,object_01b.png,object_15c.png,,0.5268817204301075,,1,,,,,,,,,
2608.2000000476837,,directmemory_phase4,1764445,,,,object_14c.png,,,50,,,1,,object_10b.png,object_01a.png,object_14b.png,object_01a.png,,0.5319148936170213,,1,,,,,,,,,
1657.5,,directmemory_phase4,1766109,,,,object_02c.png,,,51,,,1,,object_15b.png,object_08a.png,object_15a.png,object_15a.png,,0.5368421052631579,,1,,,,,,,,,
2525.199999809265,,directmemory_phase4,1768639,,,,object_01b.png,,,50,,,0,,object_03c.png,object_12b.png,object_02b.png,object_03c.png,,0.53125,,0,,,,,,,,,
2998.600000143051,,directmemory_phase4,1771644,,,,object_11b.png,,,49,,,0,,object_13c.png,object_14a.png,object_15c.png,object_14a.png,,0.5257731958762887,,0,,,,,,,,,
2291.100000143051,,directmemory_phase4,1773944,,,,object_06a.png,,,49,,,0,,object_01c.png,object_01a.png,object_13a.png,object_13a.png,,0.5204081632653061,,0,,,,,,,,,
1390.7000000476837,,directmemory_phase4,1775342,,,,object_04b.png,,,50,,,1,,object_05c.png,object_15b.png,object_01a.png,object_15b.png,,0.5252525252525253,,1,,,,,,,,,
2681.2999999523163,,directmemory_phase4,1778031,,,,object_10c.png,,,51,,,1,,object_12a.png,object_09b.png,object_07b.png,object_07b.png,,0.53,,1,,,,,,,,,
2737.2999999523163,,directmemory_phase4,1780774,,,,object_14b.png,,,49,,,1,,object_01c.png,object_13c.png,object_14a.png,object_01c.png,,0.5346534653465347,,1,,,,,,,,,
2569.5,,directmemory_phase4,1783352,,,,object_04c.png,,,51,,,1,,object_15c.png,object_02c.png,object_15b.png,object_15b.png,,0.5392156862745098,,1,,,,,,,,,
2620.7000000476837,,directmemory_phase4,1785975,,,,object_11c.png,,,49,,,0,,object_09c.png,object_13a.png,object_12b.png,object_12b.png,,0.5339805825242718,,0,,,,,,,,,
2940,,directmemory_phase4,1788919,,,,object_15c.png,,,51,,,0,,object_09c.png,object_10b.png,object_01c.png,object_10b.png,,0.5288461538461539,,0,,,,,,,,,
1792,,directmemory_phase4,1790718,,,,object_03b.png,,,49,,,1,,object_10a.png,object_04c.png,object_12b.png,object_10a.png,,0.5333333333333333,,1,,,,,,,,,
2508,,directmemory_phase4,1793234,,,,object_13b.png,,,49,,,0,,object_03c.png,object_10c.png,object_08b.png,object_08b.png,,0.5283018867924528,,0,,,,,,,,,
2279.5999999046326,,directmemory_phase4,1795519,,,,object_02a.png,,,51,,,1,,object_14a.png,object_10a.png,object_07b.png,object_07b.png,,0.5327102803738317,,1,,,,,,,,,
3019.7000000476837,,directmemory_phase4,1798541,,,,object_09c.png,,,49,,,0,,object_11c.png,object_03b.png,object_08a.png,object_08a.png,,0.5277777777777778,,0,,,,,,,,,
2951.0999999046326,,directmemory_phase4,1801495,,,,object_12c.png,,,50,,,1,,object_09b.png,object_03b.png,object_15c.png,object_03b.png,,0.5321100917431193,,1,,,,,,,,,
2572.4000000953674,,directmemory_phase4,1804073,,,,object_05b.png,,,50,,,0,,object_14b.png,object_09b.png,object_12a.png,object_12a.png,,0.5272727272727272,,0,,,,,,,,,
3188.600000143051,,directmemory_phase4,1807271,,,,object_08b.png,,,51,,,1,,object_11a.png,object_01a.png,object_13c.png,object_13c.png,,0.5315315315315315,,1,,,,,,,,,
1463.9000000953674,,directmemory_phase4,1808745,,,,object_03a.png,,,51,,,1,,object_10a.png,object_06a.png,object_06c.png,object_06c.png,,0.5357142857142857,,1,,,,,,,,,
3559.2000000476837,,directmemory_phase4,1812310,,,,object_09b.png,,,49,,,1,,object_01a.png,object_15a.png,object_05a.png,object_01a.png,,0.5398230088495575,,1,,,,,,,,,
3325.9000000953674,,directmemory_phase4,1815640,,,,object_04a.png,,,49,,,0,,object_09b.png,object_09c.png,object_12b.png,object_09c.png,,0.5350877192982456,,0,,,,,,,,,
3936.100000143051,,directmemory_phase4,1819581,,,,object_02b.png,,,49,,,0,,object_10c.png,object_14b.png,object_12b.png,object_14b.png,,0.5304347826086957,,0,,,,,,,,,
1624.9000000953674,,directmemory_phase4,1821211,,,,object_07c.png,,,51,,,0,,object_06a.png,object_12a.png,object_04b.png,object_06a.png,,0.5258620689655172,,0,,,,,,,,,
3192.199999809265,,directmemory_phase4,1824407,,,,object_05a.png,,,50,,,0,,object_15a.png,object_07b.png,object_12c.png,object_15a.png,,0.5213675213675214,,0,,,,,,,,,
2151.7000000476837,,directmemory_phase4,1826563,,,,object_06b.png,,,49,,,1,,object_03a.png,object_14b.png,object_05a.png,object_03a.png,,0.5254237288135594,,1,,,,,,,,,
2306.300000190735,,directmemory_phase4,1828873,,,,object_07a.png,,,51,,,1,,object_03b.png,object_04b.png,object_12b.png,object_12b.png,,0.5294117647058824,,1,,,,,,,,,
2175.7000000476837,,directmemory_phase4,1831054,,,,object_03c.png,,,49,,,1,,object_09a.png,object_02c.png,object_03b.png,object_09a.png,,0.5333333333333333,,1,,,,,,,,,
null,,thebreak,1831159,,,,<p></p>,,,null,,,,,,,,,,,,,,,,,,,,,
30184.60000014305,,intro_0,1861347,,,,instruct,,,32,,,,,,,,,,,,,,,,,,,,,
54022.299999952316,,intro_1,1915374,,,,instruct,,,32,,,,,,,,,,,,,,,,,,,,,
8260.600000143051,,intro_2,1923638,,,,instruct,,,32,,,,,,,,,,,,,,,,,,,,,
,,intro_3,1988628,,,,instruct,,,,,,,,,,,,,,,,,,,,,,,,
55964.09999990463,,intro_4,2044599,,,,instruct,,,32,,,,,,,,,,,,,,,,,,,,,
3199.600000143051,,inference_phase,2047804,,,,object_02b.png,,,50,object_07b.png,object_01c.png,0,,,,,object_01c.png,,0,,,,object_11a.png,,,,,,,
3448.100000143051,,inference_phase,2051260,,,,object_08a.png,,,51,object_09b.png,object_03b.png,0,,,,,object_04a.png,,0,,,,object_04a.png,,,,,,,
4438.599999904633,,inference_phase,2055702,,,,object_06c.png,,,49,object_06b.png,object_13b.png,1,,,,,object_06b.png,,0.3333333333333333,,,,object_01a.png,,,,,,,
3787.7999999523163,,inference_phase,2059495,,,,object_14c.png,,,51,object_12c.png,object_15c.png,0,,,,,object_09b.png,,0.25,,,,object_09b.png,,,,,,,
4786.300000190735,,inference_phase,2064288,,,,object_13b.png,,,51,object_14b.png,object_13c.png,1,,,,,object_13c.png,,0.4,,,,object_02c.png,,,,,,,
4395,,inference_phase,2068690,,,,object_11b.png,,,51,object_04b.png,object_05c.png,1,,,,,object_05c.png,,0.5,,,,object_14b.png,,,,,,,
5415.099999904633,,inference_phase,2074111,,,,object_07a.png,,,51,object_06a.png,object_02a.png,0,,,,,object_11c.png,,0.42857142857142855,,,,object_11c.png,,,,,,,
3129.9000000953674,,inference_phase,2077251,,,,object_13a.png,,,50,object_04a.png,object_07c.png,0,,,,,object_07c.png,,0.375,,,,object_14a.png,,,,,,,
3027.2999999523163,,inference_phase,2080285,,,,object_01b.png,,,50,object_09a.png,object_02c.png,0,,,,,object_09a.png,,0.3333333333333333,,,,object_14a.png,,,,,,,
3440.2999999523163,,inference_phase,2083730,,,,object_04c.png,,,51,object_04b.png,object_05c.png,0,,,,,object_04b.png,,0.3,,,,object_15a.png,,,,,,,
3276.2999999523163,,inference_phase,2087015,,,,object_11a.png,,,49,object_10c.png,object_14a.png,0,,,,,object_05b.png,,0.2727272727272727,,,,object_05b.png,,,,,,,
2739.7999999523163,,inference_phase,2089764,,,,object_10a.png,,,51,object_12c.png,object_10c.png,0,,,,,object_12c.png,,0.25,,,,object_15b.png,,,,,,,
3644.300000190735,,inference_phase,2093419,,,,object_10c.png,,,51,object_02a.png,object_01c.png,0,,,,,object_02a.png,,0.23076923076923078,,,,object_06a.png,,,,,,,
3708.7999999523163,,inference_phase,2097135,,,,object_08c.png,,,50,object_10b.png,object_09a.png,0,,,,,object_10b.png,,0.21428571428571427,,,,object_01a.png,,,,,,,
3764,,inference_phase,2100904,,,,object_05a.png,,,51,object_15c.png,object_02c.png,1,,,,,object_02c.png,,0.26666666666666666,,,,object_02a.png,,,,,,,
,,survey,2599749,,,,survey-questions,,,,,,,,,,,,,,,,,,none,high,No,Well my main strategies were to identify unique features of the pairs and what connects them together in my imagination,Yes some of the pairs blend in well together to form a know object so remembering those pairs were a bit easier,No,I think the duration of the pairs should be extended before the attention check flashes
