rt,responses,trial_type,time_elapsed,identifier_a,identifier_b,identifier_c,tasktype,browser_type,local_time,UTC_time,stimulus,button_pressed,response,key_press,stimulus_left,stimulus_right,accuracy,practice_cumulative_accuracy,stimulus_down_left,stimulus_down_mid,stimulus_down_right,stimulus_correct,prac_weighted_accuracy,cumulative_accuracy,weighted_accuracy,stimulus_middle,problems,smooth,distraction,strategies,easier,similar,comments,detectfocus,breakfocus,completion_code
7035.099999904633,{worker_id:600319e3a3b1a337cab57a3e},id_enter,7040,object_09b.png; object_03b.png; object_11a.png; object_07c.png; object_05c.png; object_14a.png; object_08c.png; object_02c.png; object_10c.png; object_08a.png; object_13c.png; object_04a.png; object_01c.png; object_06a.png; object_11b.png,object_05b.png; object_15c.png; object_06c.png; object_05a.png; object_12c.png; object_10b.png; object_02a.png; object_09c.png; object_12a.png; object_02b.png; object_13a.png; object_01b.png; object_15a.png; object_04b.png; object_12b.png,object_09a.png; object_06b.png; object_01a.png; object_04c.png; object_03c.png; object_13b.png; object_07a.png; object_07b.png; object_14c.png; object_15b.png; object_10a.png; object_03a.png; object_11c.png; object_14b.png; object_08b.png,blocked,Mozilla/5.0 (Windows NT 10.0; Win64; x64) AppleWebKit/537.36 (KHTML, like Gecko) Chrome/109.0.0.0 Safari/537.36,4/28/2025, 12:41:02 PM,2025-04-28 16:41:02.436,,,,,,,,,,,,,,,,,,,,,,,,,,
22972.200000286102,,make_fullscreen,30044,,,,,,,,fullscreen,0,,,,,,,,,,,,,,,,,,,,,,,,
6226.400000095367,,instruct_1,36274,,,,,,,,instruct,0,Next,,,,,,,,,,,,,,,,,,,,,,,
16788.099999904633,,instruct_2,53067,,,,,,,,instruct,1,Next,,,,,,,,,,,,,,,,,,,,,,,
11876.5,,instruct_3,64946,,,,,,,,instruct,1,Next,,,,,,,,,,,,,,,,,,,,,,,
30092.400000095367,,instruct_4,95042,,,,,,,,instruct,1,Next,,,,,,,,,,,,,,,,,,,,,,,
17940.599999904633,,instruct_5,112986,,,,,,,,instruct,1,Next,,,,,,,,,,,,,,,,,,,,,,,
5517.599999904633,,instruct_6,118506,,,,,,,,instruct,1,Next,,,,,,,,,,,,,,,,,,,,,,,
40620.2999997139,,instruct_7,159129,,,,,,,,instruct,1,Next,,,,,,,,,,,,,,,,,,,,,,,
null,,prac_atten_color_black,159476,,,,,,,,black_plus_sign,,,null,,,,,,,,,,,,,,,,,,,,,,
672.7000002861023,,prac_atten_color,160540,,,,,,,,<p style='position:absolute;top: 50%;right: 50%;transform: translate(50%, -50%);font-size: 125px;color: blue;'>+</p>,,,49,,,,,,,,,,,,,,,,,,,,,,
null,,prac_atten_color_black,162548,,,,,,,,black_plus_sign,,,null,,,,,,,,,,,,,,,,,,,,,,
null,,prac_atten_color_black,162900,,,,,,,,black_plus_sign,,,null,,,,,,,,,,,,,,,,,,,,,,
768.6999998092651,,prac_atten_color,163964,,,,,,,,<p style='position:absolute;top: 50%;right: 50%;transform: translate(50%, -50%);font-size: 125px;color: green;'>+</p>,,,50,,,,,,,,,,,,,,,,,,,,,,
null,,prac_atten_color_black,165972,,,,,,,,black_plus_sign,,,null,,,,,,,,,,,,,,,,,,,,,,
null,,prac_atten_color_black,166316,,,,,,,,black_plus_sign,,,null,,,,,,,,,,,,,,,,,,,,,,
441.5,,prac_atten_color,167284,,,,,,,,<p style='position:absolute;top: 50%;right: 50%;transform: translate(50%, -50%);font-size: 125px;color: green;'>+</p>,,,50,,,,,,,,,,,,,,,,,,,,,,
null,,prac_atten_color_black,169292,,,,,,,,black_plus_sign,,,null,,,,,,,,,,,,,,,,,,,,,,
null,,prac_atten_color_black,169732,,,,,,,,black_plus_sign,,,null,,,,,,,,,,,,,,,,,,,,,,
593.7000002861023,,prac_atten_color,170564,,,,,,,,<p style='position:absolute;top: 50%;right: 50%;transform: translate(50%, -50%);font-size: 125px;color: blue;'>+</p>,,,49,,,,,,,,,,,,,,,,,,,,,,
null,,prac_atten_color_black,172572,,,,,,,,black_plus_sign,,,null,,,,,,,,,,,,,,,,,,,,,,
null,,prac_atten_color_black,173156,,,,,,,,black_plus_sign,,,null,,,,,,,,,,,,,,,,,,,,,,
529,,prac_atten_color,173868,,,,,,,,<p style='position:absolute;top: 50%;right: 50%;transform: translate(50%, -50%);font-size: 125px;color: green;'>+</p>,,,50,,,,,,,,,,,,,,,,,,,,,,
null,,prac_atten_color_black,175877,,,,,,,,black_plus_sign,,,null,,,,,,,,,,,,,,,,,,,,,,
null,,prac_atten_color_black,176573,,,,,,,,black_plus_sign,,,null,,,,,,,,,,,,,,,,,,,,,,
504.69999980926514,,prac_atten_color,177117,,,,,,,,<p style='position:absolute;top: 50%;right: 50%;transform: translate(50%, -50%);font-size: 125px;color: green;'>+</p>,,,50,,,,,,,,,,,,,,,,,,,,,,
null,,prac_atten_color_black,179125,,,,,,,,black_plus_sign,,,null,,,,,,,,,,,,,,,,,,,,,,
null,,prac_atten_color_black,179997,,,,,,,,black_plus_sign,,,null,,,,,,,,,,,,,,,,,,,,,,
null,,prac_atten_color,180701,,,,,,,,<p style='position:absolute;top: 50%;right: 50%;transform: translate(50%, -50%);font-size: 125px;color: blue;'>+</p>,,,null,,,,,,,,,,,,,,,,,,,,,,
9.200000286102295,,prac_atten_color_black,182709,,,,,,,,black_plus_sign,,,49,,,,,,,,,,,,,,,,,,,,,,
null,,prac_atten_color_black,183413,,,,,,,,black_plus_sign,,,null,,,,,,,,,,,,,,,,,,,,,,
496.30000019073486,,prac_atten_color,184157,,,,,,,,<p style='position:absolute;top: 50%;right: 50%;transform: translate(50%, -50%);font-size: 125px;color: green;'>+</p>,,,50,,,,,,,,,,,,,,,,,,,,,,
null,,prac_atten_color_black,186165,,,,,,,,black_plus_sign,,,null,,,,,,,,,,,,,,,,,,,,,,
null,,prac_atten_color_black,186829,,,,,,,,black_plus_sign,,,null,,,,,,,,,,,,,,,,,,,,,,
616,,prac_atten_color,187925,,,,,,,,<p style='position:absolute;top: 50%;right: 50%;transform: translate(50%, -50%);font-size: 125px;color: blue;'>+</p>,,,49,,,,,,,,,,,,,,,,,,,,,,
null,,prac_atten_color_black,189932,,,,,,,,black_plus_sign,,,null,,,,,,,,,,,,,,,,,,,,,,
null,,prac_atten_color_black,190244,,,,,,,,black_plus_sign,,,null,,,,,,,,,,,,,,,,,,,,,,
673.6999998092651,,prac_atten_color,190932,,,,,,,,<p style='position:absolute;top: 50%;right: 50%;transform: translate(50%, -50%);font-size: 125px;color: blue;'>+</p>,,,49,,,,,,,,,,,,,,,,,,,,,,
null,,prac_atten_color_black,192940,,,,,,,,black_plus_sign,,,null,,,,,,,,,,,,,,,,,,,,,,
9258.800000190735,,attentioncheck_feedback,202202,,,,,,,,cross_check_feedback,0,,,,,,,,,,,,,,,,,,,,,,,,
37067.5,,last_instruct,239272,,,,,,,,instruct,,,32,,,,,,,,,,,,,,,,,,,,,,
null,,prac_learn_phase(without_color),242782,,,,,,,,black_plus_sign,,,null,object_14a.png,object_10b.png,,,,,,,,,,,,,,,,,,,,
null,,prac_black_cross(without_color),243406,,,,,,,,blue,,,null,object_14a.png,object_10b.png,,,,,,,,,,,,,,,,,,,,
null,,prac_rt_plussign_withcolor,243910,,,,,,,,blue,,,null,object_14a.png,object_10b.png,,,,,,,,,,,,,,,,,,,,
788.0999999046326,,prac_rt_thecrossant_black,245302,,,,,,,,black_plus_sign,,,49,,,1,1,,,,,,,,,,,,,,,,,,
null,,prac_color_black,245406,,,,,,,,black_plus_sign,,,null,,,,,,,,,,,,,,,,,,,,,,
null,,prac_learn_phase(without_color),248910,,,,,,,,black_plus_sign,,,null,object_01c.png,object_15a.png,,,,,,,,,,,,,,,,,,,,
null,,black_cross(without_color)1,249350,,,,,,,,blue,,,null,object_14a.png,object_10b.png,,,,,,,,,,,,,,,,,,,,
null,,prac_rt_plussign_withcolor,249854,,,,,,,,green,,,null,object_01c.png,object_15a.png,,,,,,,,,,,,,,,,,,,,
1098.5999999046326,,prac_rt_thecrossant_black,250926,,,,,,,,black_plus_sign,,,50,,,1,1,,,,,,,,,,,,,,,,,,
null,,prac_color_black,251030,,,,,,,,black_plus_sign,,,null,,,,,,,,,,,,,,,,,,,,,,
null,,prac_learn_phase(without_color),254534,,,,,,,,black_plus_sign,,,null,object_02c.png,object_09c.png,,,,,,,,,,,,,,,,,,,,
null,,black_cross(without_color)1,254974,,,,,,,,blue,,,null,object_14a.png,object_10b.png,,,,,,,,,,,,,,,,,,,,
null,,prac_rt_plussign_withcolor,255479,,,,,,,,blue,,,null,object_02c.png,object_09c.png,,,,,,,,,,,,,,,,,,,,
1238.4000000953674,,prac_rt_thecrossant_black,256558,,,,,,,,black_plus_sign,,,49,,,1,1,,,,,,,,,,,,,,,,,,
null,,prac_color_black,256663,,,,,,,,black_plus_sign,,,null,,,,,,,,,,,,,,,,,,,,,,
null,,prac_learn_phase(without_color),260167,,,,,,,,black_plus_sign,,,null,object_10c.png,object_12a.png,,,,,,,,,,,,,,,,,,,,
null,,black_cross(without_color)1,260607,,,,,,,,blue,,,null,object_14a.png,object_10b.png,,,,,,,,,,,,,,,,,,,,
null,,prac_rt_plussign_withcolor,261110,,,,,,,,green,,,null,object_10c.png,object_12a.png,,,,,,,,,,,,,,,,,,,,
1729.1999998092651,,prac_rt_thecrossant_black,262349,,,,,,,,black_plus_sign,,,50,,,1,1,,,,,,,,,,,,,,,,,,
null,,prac_color_black,262454,,,,,,,,black_plus_sign,,,null,,,,,,,,,,,,,,,,,,,,,,
9599.900000095367,,instruct_dir_01,272057,,,,,,,,instruct,0,Next,,,,,,,,,,,,,,,,,,,,,,,
33860.09999990463,,instruct_dir_2,305920,,,,,,,,instruct,1,Next,,,,,,,,,,,,,,,,,,,,,,,
9869.700000286102,,instruct_dir_3,315792,,,,,,,,instruct,1,Next,,,,,,,,,,,,,,,,,,,,,,,
9588.900000095367,,instruct_dir_4,325384,,,,,,,,instruct,1,Start,,,,,,,,,,,,,,,,,,,,,,,
null,,thebreak,325487,,,,,,,,<p></p>,,,null,,,,,,,,,,,,,,,,,,,,,,
2597.5,,intro_0,328086,,,,,,,,instruct,,,32,,,,,,,,,,,,,,,,,,,,,,
5037.200000286102,,prac_directmemory_phase,333126,,,,,,,,practice/object_03b.png,,,50,,,1,,practice/object_04a.png,practice/object_03a.png,practice/object_02a.png,practice/object_03a.png,1,1,,,,,,,,,,,,
1963.5,,prac_directmemory_phase,335094,,,,,,,,practice/object_04b.png,,,50,,,1,,practice/object_02a.png,practice/object_04a.png,practice/object_01a.png,practice/object_04a.png,1,1,,,,,,,,,,,,
2141.4000000953674,,prac_directmemory_phase,337239,,,,,,,,practice/object_02b.png,,,51,,,1,,practice/object_03a.png,practice/object_04a.png,practice/object_02a.png,practice/object_02a.png,1,1,,,,,,,,,,,,
4443.599999904633,,prac_directmemory_phase,341686,,,,,,,,practice/object_01b.png,,,50,,,1,,practice/object_03a.png,practice/object_01a.png,practice/object_04a.png,practice/object_01a.png,1,1,,,,,,,,,,,,
9790.699999809265,,practice_feedback,351480,,,,,,,,practice_feedback,1,,,,,,,,,,,,,,,,,,,,,,,,
11300.900000095367,,proceed_actualTask,362784,,,,,,,,proceed_actualTask,1,Continue,,,,,,,,,,,,,,,,,,,,,,,
14067.800000190735,,last_inst,376855,,,,,,,,last_inst,,,32,,,,,,,,,,,,,,,,,,,,,,
null,,learn_phase(without_color)1,380360,,,,,,,,black_plus_sign,,,null,object_14a.png,object_10b.png,,,,,,,,,,,,,,,,,,,,
null,,black_cross(without_color)1,380800,,,,,,,,blue,,,null,object_14a.png,object_10b.png,,,,,,,,,,,,,,,,,,,,
null,,rt_plussign_withcolor1,381303,,,,,,,,blue,,,null,object_14a.png,object_10b.png,,,,,,,,,,,,,,,,,,,,
null,,rt_thecrossant_black1,382880,,,,,,,,black_plus_sign,,,null,,,,,,,,,,NaN,,,,,,,,,,,,
null,,color_black1,382984,,,,,,,,black_plus_sign,,,null,,,,,,,,,,,,,,,,,,,,,,
null,,learn_phase(without_color)1,386487,,,,,,,,black_plus_sign,,,null,object_01c.png,object_15a.png,,,,,,,,,,,,,,,,,,,,
null,,black_cross(without_color)1,387271,,,,,,,,green,,,null,object_01c.png,object_15a.png,,,,,,,,,,,,,,,,,,,,
461.3999996185303,,rt_plussign_withcolor1,387776,,,,,,,,green,,,50,object_01c.png,object_15a.png,,,,,,,,,,,,,,,,,,,,
null,,rt_thecrossant_black1,389008,,,,,,,,black_plus_sign,,,null,,,1,,,,,,,1,,,,,,,,,,,,
null,,color_black1,389112,,,,,,,,black_plus_sign,,,null,,,,,,,,,,,,,,,,,,,,,,
null,,learn_phase(without_color)1,392616,,,,,,,,black_plus_sign,,,null,object_02c.png,object_09c.png,,,,,,,,,,,,,,,,,,,,
null,,black_cross(without_color)1,393504,,,,,,,,blue,,,null,object_02c.png,object_09c.png,,,,,,,,,,,,,,,,,,,,
452.19999980926514,,rt_plussign_withcolor1,394008,,,,,,,,blue,,,49,object_02c.png,object_09c.png,,,,,,,,,,,,,,,,,,,,
null,,rt_thecrossant_black1,395136,,,,,,,,black_plus_sign,,,null,,,1,,,,,,,1,,,,,,,,,,,,
null,,color_black1,395240,,,,,,,,black_plus_sign,,,null,,,,,,,,,,,,,,,,,,,,,,
null,,learn_phase(without_color)1,398744,,,,,,,,black_plus_sign,,,null,object_10c.png,object_12a.png,,,,,,,,,,,,,,,,,,,,
null,,black_cross(without_color)1,399520,,,,,,,,green,,,null,object_10c.png,object_12a.png,,,,,,,,,,,,,,,,,,,,
404.90000009536743,,rt_plussign_withcolor1,400024,,,,,,,,green,,,50,object_10c.png,object_12a.png,,,,,,,,,,,,,,,,,,,,
null,,rt_thecrossant_black1,401264,,,,,,,,black_plus_sign,,,null,,,1,,,,,,,1,,,,,,,,,,,,
null,,color_black1,401368,,,,,,,,black_plus_sign,,,null,,,,,,,,,,,,,,,,,,,,,,
null,,learn_phase(without_color)1,404872,,,,,,,,black_plus_sign,,,null,object_03b.png,object_15c.png,,,,,,,,,,,,,,,,,,,,
null,,black_cross(without_color)1,405664,,,,,,,,blue,,,null,object_03b.png,object_15c.png,,,,,,,,,,,,,,,,,,,,
null,,rt_plussign_withcolor1,406168,,,,,,,,blue,,,null,object_03b.png,object_15c.png,,,,,,,,,,,,,,,,,,,,
1147.6000003814697,,rt_thecrossant_black1,407392,,,,,,,,black_plus_sign,,,49,,,1,,,,,,,1,,,,,,,,,,,,
null,,color_black1,407496,,,,,,,,black_plus_sign,,,null,,,,,,,,,,,,,,,,,,,,,,
null,,learn_phase(without_color)1,410999,,,,,,,,black_plus_sign,,,null,object_06a.png,object_04b.png,,,,,,,,,,,,,,,,,,,,
null,,black_cross(without_color)1,411767,,,,,,,,blue,,,null,object_06a.png,object_04b.png,,,,,,,,,,,,,,,,,,,,
null,,rt_plussign_withcolor1,412271,,,,,,,,blue,,,null,object_06a.png,object_04b.png,,,,,,,,,,,,,,,,,,,,
1289.7000002861023,,rt_thecrossant_black1,413520,,,,,,,,black_plus_sign,,,50,,,0,,,,,,,0.8,,,,,,,,,,,,
null,,color_black1,413624,,,,,,,,black_plus_sign,,,null,,,,,,,,,,,,,,,,,,,,,,
null,,learn_phase(without_color)1,417129,,,,,,,,black_plus_sign,,,null,object_08c.png,object_02a.png,,,,,,,,,,,,,,,,,,,,
null,,black_cross(without_color)1,417769,,,,,,,,green,,,null,object_08c.png,object_02a.png,,,,,,,,,,,,,,,,,,,,
null,,rt_plussign_withcolor1,418273,,,,,,,,green,,,null,object_08c.png,object_02a.png,,,,,,,,,,,,,,,,,,,,
926.7000002861023,,rt_thecrossant_black1,419641,,,,,,,,black_plus_sign,,,50,,,1,,,,,,,0.8333333333333334,,,,,,,,,,,,
null,,color_black1,419745,,,,,,,,black_plus_sign,,,null,,,,,,,,,,,,,,,,,,,,,,
null,,learn_phase(without_color)1,423249,,,,,,,,black_plus_sign,,,null,object_05c.png,object_12c.png,,,,,,,,,,,,,,,,,,,,
null,,black_cross(without_color)1,424265,,,,,,,,blue,,,null,object_05c.png,object_12c.png,,,,,,,,,,,,,,,,,,,,
null,,rt_plussign_withcolor1,424769,,,,,,,,blue,,,null,object_05c.png,object_12c.png,,,,,,,,,,,,,,,,,,,,
867.1000003814697,,rt_thecrossant_black1,425769,,,,,,,,black_plus_sign,,,50,,,0,,,,,,,0.7142857142857143,,,,,,,,,,,,
null,,color_black1,425873,,,,,,,,black_plus_sign,,,null,,,,,,,,,,,,,,,,,,,,,,
null,,learn_phase(without_color)1,429377,,,,,,,,black_plus_sign,,,null,object_11a.png,object_06c.png,,,,,,,,,,,,,,,,,,,,
null,,black_cross(without_color)1,430345,,,,,,,,blue,,,null,object_11a.png,object_06c.png,,,,,,,,,,,,,,,,,,,,
null,,rt_plussign_withcolor1,430849,,,,,,,,blue,,,null,object_11a.png,object_06c.png,,,,,,,,,,,,,,,,,,,,
1123.6999998092651,,rt_thecrossant_black1,431896,,,,,,,,black_plus_sign,,,49,,,1,,,,,,,0.75,,,,,,,,,,,,
null,,color_black1,431999,,,,,,,,black_plus_sign,,,null,,,,,,,,,,,,,,,,,,,,,,
null,,learn_phase(without_color)1,435504,,,,,,,,black_plus_sign,,,null,object_08a.png,object_02b.png,,,,,,,,,,,,,,,,,,,,
null,,black_cross(without_color)1,436400,,,,,,,,green,,,null,object_08a.png,object_02b.png,,,,,,,,,,,,,,,,,,,,
null,,rt_plussign_withcolor1,436905,,,,,,,,green,,,null,object_08a.png,object_02b.png,,,,,,,,,,,,,,,,,,,,
1164.1000003814697,,rt_thecrossant_black1,438025,,,,,,,,black_plus_sign,,,50,,,1,,,,,,,0.7777777777777778,,,,,,,,,,,,
null,,color_black1,438129,,,,,,,,black_plus_sign,,,null,,,,,,,,,,,,,,,,,,,,,,
null,,learn_phase(without_color)1,441633,,,,,,,,black_plus_sign,,,null,object_07c.png,object_05a.png,,,,,,,,,,,,,,,,,,,,
null,,black_cross(without_color)1,442081,,,,,,,,green,,,null,object_07c.png,object_05a.png,,,,,,,,,,,,,,,,,,,,
null,,rt_plussign_withcolor1,442585,,,,,,,,green,,,null,object_07c.png,object_05a.png,,,,,,,,,,,,,,,,,,,,
null,,rt_thecrossant_black1,444153,,,,,,,,black_plus_sign,,,null,,,,,,,,,,0.7777777777777778,,,,,,,,,,,,
null,,color_black1,444257,,,,,,,,black_plus_sign,,,null,,,,,,,,,,,,,,,,,,,,,,
null,,learn_phase(without_color)1,447761,,,,,,,,black_plus_sign,,,null,object_09b.png,object_05b.png,,,,,,,,,,,,,,,,,,,,
null,,black_cross(without_color)1,448353,,,,,,,,blue,,,null,object_09b.png,object_05b.png,,,,,,,,,,,,,,,,,,,,
null,,rt_plussign_withcolor1,448857,,,,,,,,blue,,,null,object_09b.png,object_05b.png,,,,,,,,,,,,,,,,,,,,
726.6000003814697,,rt_thecrossant_black1,450281,,,,,,,,black_plus_sign,,,49,,,1,,,,,,,0.8,,,,,,,,,,,,
null,,color_black1,450385,,,,,,,,black_plus_sign,,,null,,,,,,,,,,,,,,,,,,,,,,
null,,learn_phase(without_color)1,453889,,,,,,,,black_plus_sign,,,null,object_13c.png,object_13a.png,,,,,,,,,,,,,,,,,,,,
null,,black_cross(without_color)1,454545,,,,,,,,green,,,null,object_13c.png,object_13a.png,,,,,,,,,,,,,,,,,,,,
null,,rt_plussign_withcolor1,455049,,,,,,,,green,,,null,object_13c.png,object_13a.png,,,,,,,,,,,,,,,,,,,,
1108,,rt_thecrossant_black1,456409,,,,,,,,black_plus_sign,,,50,,,1,,,,,,,0.8181818181818182,,,,,,,,,,,,
null,,color_black1,456513,,,,,,,,black_plus_sign,,,null,,,,,,,,,,,,,,,,,,,,,,
null,,learn_phase(without_color)1,460016,,,,,,,,black_plus_sign,,,null,object_11b.png,object_12b.png,,,,,,,,,,,,,,,,,,,,
null,,black_cross(without_color)1,461056,,,,,,,,blue,,,null,object_11b.png,object_12b.png,,,,,,,,,,,,,,,,,,,,
null,,rt_plussign_withcolor1,461560,,,,,,,,blue,,,null,object_11b.png,object_12b.png,,,,,,,,,,,,,,,,,,,,
887.4000000953674,,rt_thecrossant_black1,462534,,,,,,,,black_plus_sign,,,49,,,1,,,,,,,0.8333333333333334,,,,,,,,,,,,
null,,color_black1,462638,,,,,,,,black_plus_sign,,,null,,,,,,,,,,,,,,,,,,,,,,
null,,learn_phase(without_color)1,466144,,,,,,,,black_plus_sign,,,null,object_04a.png,object_01b.png,,,,,,,,,,,,,,,,,,,,
null,,black_cross(without_color)1,466896,,,,,,,,green,,,null,object_04a.png,object_01b.png,,,,,,,,,,,,,,,,,,,,
null,,rt_plussign_withcolor1,467401,,,,,,,,green,,,null,object_04a.png,object_01b.png,,,,,,,,,,,,,,,,,,,,
1142,,rt_thecrossant_black1,468665,,,,,,,,black_plus_sign,,,50,,,1,,,,,,,0.8461538461538461,,,,,,,,,,,,
null,,color_black1,468769,,,,,,,,black_plus_sign,,,null,,,,,,,,,,,,,,,,,,,,,,
null,,thebreak,468880,,,,,,,,<p></p>,,,null,,,,,,,,,,,,,,,,,,,,,,
1874.2999997138977,,intro_0,470756,,,,,,,,instruct,,,32,,,,,,,,,,,,,,,,,,,,,,
4830.299999713898,,directmemory_phase1,475590,,,,,,,,object_10b.png,,,51,,,1,,object_13c.png,object_11a.png,object_14a.png,object_14a.png,,1,1,,,,,,,,,,,
4890.299999713898,,directmemory_phase1,480485,,,,,,,,object_04b.png,,,49,,,1,,object_06a.png,object_01c.png,object_05c.png,object_06a.png,,1,1,,,,,,,,,,,
4892,,directmemory_phase1,485381,,,,,,,,object_05a.png,,,49,,,1,,object_07c.png,object_04a.png,object_14a.png,object_07c.png,,1,1,,,,,,,,,,,
3724.5999999046326,,directmemory_phase1,489110,,,,,,,,object_12b.png,,,51,,,0,,object_11b.png,object_03b.png,object_01c.png,object_11b.png,,0.75,0,,,,,,,,,,,
2939.0999999046326,,directmemory_phase1,492053,,,,,,,,object_09c.png,,,51,,,1,,object_03b.png,object_14a.png,object_02c.png,object_02c.png,,0.8,1,,,,,,,,,,,
6123.900000095367,,directmemory_phase1,498181,,,,,,,,object_15a.png,,,49,,,1,,object_01c.png,object_08a.png,object_11a.png,object_01c.png,,0.8333333333333334,1,,,,,,,,,,,
2380.5,,directmemory_phase1,500566,,,,,,,,object_15c.png,,,49,,,1,,object_03b.png,object_14a.png,object_08a.png,object_03b.png,,0.8571428571428571,1,,,,,,,,,,,
1579.2999997138977,,directmemory_phase1,502149,,,,,,,,object_12c.png,,,51,,,1,,object_08a.png,object_02c.png,object_05c.png,object_05c.png,,0.875,1,,,,,,,,,,,
4268,,directmemory_phase1,506421,,,,,,,,object_05b.png,,,49,,,1,,object_09b.png,object_06a.png,object_01c.png,object_09b.png,,0.8888888888888888,1,,,,,,,,,,,
5724.900000095367,,directmemory_phase1,512150,,,,,,,,object_02b.png,,,50,,,0,,object_10c.png,object_13c.png,object_08a.png,object_08a.png,,0.8,0,,,,,,,,,,,
2859,,directmemory_phase1,515013,,,,,,,,object_02a.png,,,51,,,1,,object_02c.png,object_03b.png,object_08c.png,object_08c.png,,0.8181818181818182,1,,,,,,,,,,,
4043.8999996185303,,directmemory_phase1,519060,,,,,,,,object_13a.png,,,50,,,0,,object_13c.png,object_02c.png,object_08c.png,object_13c.png,,0.75,0,,,,,,,,,,,
6140.900000095367,,directmemory_phase1,525205,,,,,,,,object_01b.png,,,50,,,0,,object_04a.png,object_11a.png,object_01c.png,object_04a.png,,0.6923076923076923,0,,,,,,,,,,,
2266.800000190735,,directmemory_phase1,527476,,,,,,,,object_12a.png,,,51,,,1,,object_13c.png,object_07c.png,object_10c.png,object_10c.png,,0.7142857142857143,1,,,,,,,,,,,
4476,,directmemory_phase1,531956,,,,,,,,object_06c.png,,,49,,,1,,object_11a.png,object_01c.png,object_08c.png,object_11a.png,,0.7333333333333333,1,,,,,,,,,,,
null,,thebreak,532065,,,,,,,,<p></p>,,,null,,,,,,,,,,,,,,,,,,,,,,
1857.3000001907349,,intro_0,533924,,,,,,,,instruct,,,32,,,,,,,,,,,,,,,,,,,,,,
null,,learn_phase(without_color)2,537434,,,,,,,,black_plus_sign,,,null,object_06a.png,object_04b.png,,,,,,,,,,,,,,,,,,,,
null,,black_cross(without_color)2,538066,,,,,,,,green,,,null,object_06a.png,object_04b.png,,,,,,,,,,,,,,,,,,,,
null,,rt_plussign_withcolor2,538570,,,,,,,,green,,,null,object_06a.png,object_04b.png,,,,,,,,,,,,,,,,,,,,
null,,rt_thecrossant_black2,539954,,,,,,,,black_plus_sign,,,null,,,,,,,,,,NaN,,,,,,,,,,,,
null,,color_black2,540058,,,,,,,,black_plus_sign,,,null,,,,,,,,,,,,,,,,,,,,,,
null,,learn_phase(without_color)2,543562,,,,,,,,black_plus_sign,,,null,object_10c.png,object_12a.png,,,,,,,,,,,,,,,,,,,,
null,,black_cross(without_color)2,544626,,,,,,,,green,,,null,object_10c.png,object_12a.png,,,,,,,,,,,,,,,,,,,,
null,,rt_plussign_withcolor2,545131,,,,,,,,green,,,null,object_10c.png,object_12a.png,,,,,,,,,,,,,,,,,,,,
906.2000002861023,,rt_thecrossant_black2,546082,,,,,,,,black_plus_sign,,,50,,,1,,,,,,,1,,,,,,,,,,,,
null,,color_black2,546187,,,,,,,,black_plus_sign,,,null,,,,,,,,,,,,,,,,,,,,,,
null,,learn_phase(without_color)2,549691,,,,,,,,black_plus_sign,,,null,object_09b.png,object_05b.png,,,,,,,,,,,,,,,,,,,,
null,,black_cross(without_color)2,550579,,,,,,,,blue,,,null,object_09b.png,object_05b.png,,,,,,,,,,,,,,,,,,,,
null,,rt_plussign_withcolor2,551083,,,,,,,,blue,,,null,object_09b.png,object_05b.png,,,,,,,,,,,,,,,,,,,,
1404.5,,rt_thecrossant_black2,552203,,,,,,,,black_plus_sign,,,49,,,1,,,,,,,1,,,,,,,,,,,,
null,,color_black2,552307,,,,,,,,black_plus_sign,,,null,,,,,,,,,,,,,,,,,,,,,,
null,,learn_phase(without_color)2,555810,,,,,,,,black_plus_sign,,,null,object_11a.png,object_06c.png,,,,,,,,,,,,,,,,,,,,
null,,black_cross(without_color)2,556754,,,,,,,,green,,,null,object_11a.png,object_06c.png,,,,,,,,,,,,,,,,,,,,
449.2999997138977,,rt_plussign_withcolor2,557258,,,,,,,,green,,,50,object_11a.png,object_06c.png,,,,,,,,,,,,,,,,,,,,
null,,rt_thecrossant_black2,558330,,,,,,,,black_plus_sign,,,null,,,1,,,,,,,1,,,,,,,,,,,,
null,,color_black2,558434,,,,,,,,black_plus_sign,,,null,,,,,,,,,,,,,,,,,,,,,,
null,,learn_phase(without_color)2,561938,,,,,,,,black_plus_sign,,,null,object_05c.png,object_12c.png,,,,,,,,,,,,,,,,,,,,
null,,black_cross(without_color)2,562666,,,,,,,,green,,,null,object_05c.png,object_12c.png,,,,,,,,,,,,,,,,,,,,
null,,rt_plussign_withcolor2,563170,,,,,,,,green,,,null,object_05c.png,object_12c.png,,,,,,,,,,,,,,,,,,,,
1039.4000000953674,,rt_thecrossant_black2,564458,,,,,,,,black_plus_sign,,,50,,,1,,,,,,,1,,,,,,,,,,,,
null,,color_black2,564562,,,,,,,,black_plus_sign,,,null,,,,,,,,,,,,,,,,,,,,,,
null,,learn_phase(without_color)2,568066,,,,,,,,black_plus_sign,,,null,object_11b.png,object_12b.png,,,,,,,,,,,,,,,,,,,,
null,,black_cross(without_color)2,568770,,,,,,,,blue,,,null,object_11b.png,object_12b.png,,,,,,,,,,,,,,,,,,,,
null,,rt_plussign_withcolor2,569275,,,,,,,,blue,,,null,object_11b.png,object_12b.png,,,,,,,,,,,,,,,,,,,,
1294.4000000953674,,rt_thecrossant_black2,570579,,,,,,,,black_plus_sign,,,49,,,1,,,,,,,1,,,,,,,,,,,,
null,,color_black2,570683,,,,,,,,black_plus_sign,,,null,,,,,,,,,,,,,,,,,,,,,,
null,,learn_phase(without_color)2,574187,,,,,,,,black_plus_sign,,,null,object_01c.png,object_15a.png,,,,,,,,,,,,,,,,,,,,
null,,black_cross(without_color)2,574979,,,,,,,,blue,,,null,object_01c.png,object_15a.png,,,,,,,,,,,,,,,,,,,,
null,,rt_plussign_withcolor2,575483,,,,,,,,blue,,,null,object_01c.png,object_15a.png,,,,,,,,,,,,,,,,,,,,
1142.5999999046326,,rt_thecrossant_black2,576707,,,,,,,,black_plus_sign,,,49,,,1,,,,,,,1,,,,,,,,,,,,
null,,color_black2,576811,,,,,,,,black_plus_sign,,,null,,,,,,,,,,,,,,,,,,,,,,
null,,learn_phase(without_color)2,580314,,,,,,,,black_plus_sign,,,null,object_07c.png,object_05a.png,,,,,,,,,,,,,,,,,,,,
null,,black_cross(without_color)2,581098,,,,,,,,blue,,,null,object_07c.png,object_05a.png,,,,,,,,,,,,,,,,,,,,
null,,rt_plussign_withcolor2,581602,,,,,,,,blue,,,null,object_07c.png,object_05a.png,,,,,,,,,,,,,,,,,,,,
1187.4000000953674,,rt_thecrossant_black2,582834,,,,,,,,black_plus_sign,,,49,,,1,,,,,,,1,,,,,,,,,,,,
null,,color_black2,582938,,,,,,,,black_plus_sign,,,null,,,,,,,,,,,,,,,,,,,,,,
null,,learn_phase(without_color)2,586442,,,,,,,,black_plus_sign,,,null,object_08c.png,object_02a.png,,,,,,,,,,,,,,,,,,,,
null,,black_cross(without_color)2,587434,,,,,,,,blue,,,null,object_08c.png,object_02a.png,,,,,,,,,,,,,,,,,,,,
null,,rt_plussign_withcolor2,587938,,,,,,,,blue,,,null,object_08c.png,object_02a.png,,,,,,,,,,,,,,,,,,,,
1003,,rt_thecrossant_black2,588954,,,,,,,,black_plus_sign,,,49,,,1,,,,,,,1,,,,,,,,,,,,
null,,color_black2,589058,,,,,,,,black_plus_sign,,,null,,,,,,,,,,,,,,,,,,,,,,
null,,learn_phase(without_color)2,592563,,,,,,,,black_plus_sign,,,null,object_13c.png,object_13a.png,,,,,,,,,,,,,,,,,,,,
null,,black_cross(without_color)2,593210,,,,,,,,blue,,,null,object_13c.png,object_13a.png,,,,,,,,,,,,,,,,,,,,
null,,rt_plussign_withcolor2,593715,,,,,,,,blue,,,null,object_13c.png,object_13a.png,,,,,,,,,,,,,,,,,,,,
1455.3999996185303,,rt_thecrossant_black2,595083,,,,,,,,black_plus_sign,,,49,,,1,,,,,,,1,,,,,,,,,,,,
null,,color_black2,595187,,,,,,,,black_plus_sign,,,null,,,,,,,,,,,,,,,,,,,,,,
null,,learn_phase(without_color)2,598692,,,,,,,,black_plus_sign,,,null,object_08a.png,object_02b.png,,,,,,,,,,,,,,,,,,,,
null,,black_cross(without_color)2,599372,,,,,,,,green,,,null,object_08a.png,object_02b.png,,,,,,,,,,,,,,,,,,,,
null,,rt_plussign_withcolor2,599876,,,,,,,,green,,,null,object_08a.png,object_02b.png,,,,,,,,,,,,,,,,,,,,
1040.2000002861023,,rt_thecrossant_black2,601212,,,,,,,,black_plus_sign,,,50,,,1,,,,,,,1,,,,,,,,,,,,
null,,color_black2,601324,,,,,,,,black_plus_sign,,,null,,,,,,,,,,,,,,,,,,,,,,
null,,learn_phase(without_color)2,604827,,,,,,,,black_plus_sign,,,null,object_03b.png,object_15c.png,,,,,,,,,,,,,,,,,,,,
null,,black_cross(without_color)2,605795,,,,,,,,blue,,,null,object_03b.png,object_15c.png,,,,,,,,,,,,,,,,,,,,
null,,rt_plussign_withcolor2,606300,,,,,,,,blue,,,null,object_03b.png,object_15c.png,,,,,,,,,,,,,,,,,,,,
871.6999998092651,,rt_thecrossant_black2,607347,,,,,,,,black_plus_sign,,,49,,,1,,,,,,,1,,,,,,,,,,,,
null,,color_black2,607451,,,,,,,,black_plus_sign,,,null,,,,,,,,,,,,,,,,,,,,,,
null,,learn_phase(without_color)2,610955,,,,,,,,black_plus_sign,,,null,object_14a.png,object_10b.png,,,,,,,,,,,,,,,,,,,,
null,,black_cross(without_color)2,611604,,,,,,,,blue,,,null,object_14a.png,object_10b.png,,,,,,,,,,,,,,,,,,,,
null,,rt_plussign_withcolor2,612108,,,,,,,,blue,,,null,object_14a.png,object_10b.png,,,,,,,,,,,,,,,,,,,,
1096.4000000953674,,rt_thecrossant_black2,613472,,,,,,,,black_plus_sign,,,50,,,0,,,,,,,0.9166666666666666,,,,,,,,,,,,
null,,color_black2,613580,,,,,,,,black_plus_sign,,,null,,,,,,,,,,,,,,,,,,,,,,
null,,learn_phase(without_color)2,617084,,,,,,,,black_plus_sign,,,null,object_04a.png,object_01b.png,,,,,,,,,,,,,,,,,,,,
null,,black_cross(without_color)2,617716,,,,,,,,blue,,,null,object_04a.png,object_01b.png,,,,,,,,,,,,,,,,,,,,
null,,rt_plussign_withcolor2,618220,,,,,,,,blue,,,null,object_04a.png,object_01b.png,,,,,,,,,,,,,,,,,,,,
1129.4000000953674,,rt_thecrossant_black2,619596,,,,,,,,black_plus_sign,,,49,,,1,,,,,,,0.9230769230769231,,,,,,,,,,,,
null,,color_black2,619700,,,,,,,,black_plus_sign,,,null,,,,,,,,,,,,,,,,,,,,,,
null,,learn_phase(without_color)2,623204,,,,,,,,black_plus_sign,,,null,object_02c.png,object_09c.png,,,,,,,,,,,,,,,,,,,,
null,,black_cross(without_color)2,623788,,,,,,,,green,,,null,object_02c.png,object_09c.png,,,,,,,,,,,,,,,,,,,,
null,,rt_plussign_withcolor2,624292,,,,,,,,green,,,null,object_02c.png,object_09c.png,,,,,,,,,,,,,,,,,,,,
964.7999997138977,,rt_thecrossant_black2,625724,,,,,,,,black_plus_sign,,,50,,,1,,,,,,,0.9285714285714286,,,,,,,,,,,,
null,,color_black2,625828,,,,,,,,black_plus_sign,,,null,,,,,,,,,,,,,,,,,,,,,,
null,,thebreak,625932,,,,,,,,<p></p>,,,null,,,,,,,,,,,,,,,,,,,,,,
1702,,intro_0,627635,,,,,,,,instruct,,,32,,,,,,,,,,,,,,,,,,,,,,
2989.7000002861023,,directmemory_phase2,630628,,,,,,,,object_12c.png,,,50,,,1,,object_09b.png,object_05c.png,object_01c.png,object_05c.png,,0.75,1,,,,,,,,,,,
2365.0999999046326,,directmemory_phase2,632996,,,,,,,,object_05a.png,,,51,,,1,,object_14a.png,object_10c.png,object_07c.png,object_07c.png,,0.7647058823529411,1,,,,,,,,,,,
2075.9000000953674,,directmemory_phase2,635076,,,,,,,,object_01b.png,,,49,,,1,,object_04a.png,object_08a.png,object_11a.png,object_04a.png,,0.7777777777777778,1,,,,,,,,,,,
2859.300000190735,,directmemory_phase2,637939,,,,,,,,object_09c.png,,,51,,,1,,object_13c.png,object_08a.png,object_02c.png,object_02c.png,,0.7894736842105263,1,,,,,,,,,,,
2574.5999999046326,,directmemory_phase2,640516,,,,,,,,object_04b.png,,,51,,,1,,object_14a.png,object_05c.png,object_06a.png,object_06a.png,,0.8,1,,,,,,,,,,,
2491.9000000953674,,directmemory_phase2,643012,,,,,,,,object_02b.png,,,49,,,1,,object_08a.png,object_05c.png,object_07c.png,object_08a.png,,0.8095238095238095,1,,,,,,,,,,,
4365.099999904633,,directmemory_phase2,647379,,,,,,,,object_12a.png,,,50,,,1,,object_09b.png,object_10c.png,object_13c.png,object_10c.png,,0.8181818181818182,1,,,,,,,,,,,
3387.8999996185303,,directmemory_phase2,650771,,,,,,,,object_10b.png,,,49,,,1,,object_14a.png,object_09b.png,object_05c.png,object_14a.png,,0.8260869565217391,1,,,,,,,,,,,
1883.6999998092651,,directmemory_phase2,652659,,,,,,,,object_06c.png,,,50,,,1,,object_09b.png,object_11a.png,object_08a.png,object_11a.png,,0.8333333333333334,1,,,,,,,,,,,
4012.699999809265,,directmemory_phase2,656676,,,,,,,,object_05b.png,,,50,,,1,,object_10c.png,object_09b.png,object_08c.png,object_09b.png,,0.84,1,,,,,,,,,,,
3275,,directmemory_phase2,659956,,,,,,,,object_13a.png,,,50,,,1,,object_06a.png,object_13c.png,object_10c.png,object_13c.png,,0.8461538461538461,1,,,,,,,,,,,
3259.699999809265,,directmemory_phase2,663220,,,,,,,,object_15c.png,,,51,,,1,,object_06a.png,object_07c.png,object_03b.png,object_03b.png,,0.8518518518518519,1,,,,,,,,,,,
8188.5,,directmemory_phase2,671412,,,,,,,,object_15a.png,,,49,,,1,,object_01c.png,object_04a.png,object_10c.png,object_01c.png,,0.8571428571428571,1,,,,,,,,,,,
4331.099999904633,,directmemory_phase2,675748,,,,,,,,object_12b.png,,,50,,,1,,object_14a.png,object_11b.png,object_10c.png,object_11b.png,,0.8620689655172413,1,,,,,,,,,,,
5467.400000095367,,directmemory_phase2,681219,,,,,,,,object_02a.png,,,49,,,1,,object_08c.png,object_14a.png,object_03b.png,object_08c.png,,0.8666666666666667,1,,,,,,,,,,,
null,,thebreak,681324,,,,,,,,<p></p>,,,null,,,,,,,,,,,,,,,,,,,,,,
1526.0999999046326,,intro_0,682852,,,,,,,,instruct,,,32,,,,,,,,,,,,,,,,,,,,,,
null,,learn_phase(without_color)3,686356,,,,,,,,black_plus_sign,,,null,object_14a.png,object_10b.png,,,,,,,,,,,,,,,,,,,,
null,,black_cross(without_color)3,686860,,,,,,,,green,,,null,object_14a.png,object_10b.png,,,,,,,,,,,,,,,,,,,,
null,,rt_plussign_withcolor3,687365,,,,,,,,green,,,null,object_14a.png,object_10b.png,,,,,,,,,,,,,,,,,,,,
null,,rt_thecrossant_black3,688877,,,,,,,,black_plus_sign,,,null,,,,,,,,,,NaN,,,,,,,,,,,,
null,,color_black3,688981,,,,,,,,black_plus_sign,,,null,,,,,,,,,,,,,,,,,,,,,,
null,,learn_phase(without_color)3,692485,,,,,,,,black_plus_sign,,,null,object_09b.png,object_05b.png,,,,,,,,,,,,,,,,,,,,
null,,black_cross(without_color)3,693149,,,,,,,,blue,,,null,object_09b.png,object_05b.png,,,,,,,,,,,,,,,,,,,,
469.19999980926514,,rt_plussign_withcolor3,693652,,,,,,,,blue,,,50,object_09b.png,object_05b.png,,,,,,,,,,,,,,,,,,,,
null,,rt_thecrossant_black3,695001,,,,,,,,black_plus_sign,,,null,,,0,,,,,,,0,,,,,,,,,,,,
null,,warning_page,700013,,,,,,,,warning,,,null,,,,,,,,,,,,,,,,,,,,,,
null,,color_black3,700117,,,,,,,,black_plus_sign,,,null,,,,,,,,,,,,,,,,,,,,,,
null,,learn_phase(without_color)3,703620,,,,,,,,black_plus_sign,,,null,object_05c.png,object_12c.png,,,,,,,,,,,,,,,,,,,,
null,,black_cross(without_color)3,704388,,,,,,,,green,,,null,object_05c.png,object_12c.png,,,,,,,,,,,,,,,,,,,,
null,,rt_plussign_withcolor3,704892,,,,,,,,green,,,null,object_05c.png,object_12c.png,,,,,,,,,,,,,,,,,,,,
1064.3999996185303,,rt_thecrossant_black3,706140,,,,,,,,black_plus_sign,,,50,,,1,,,,,,,0.5,,,,,,,,,,,,
null,,color_black3,706244,,,,,,,,black_plus_sign,,,null,,,,,,,,,,,,,,,,,,,,,,
null,,learn_phase(without_color)3,709748,,,,,,,,black_plus_sign,,,null,object_11a.png,object_06c.png,,,,,,,,,,,,,,,,,,,,
null,,black_cross(without_color)3,710788,,,,,,,,blue,,,null,object_11a.png,object_06c.png,,,,,,,,,,,,,,,,,,,,
null,,rt_plussign_withcolor3,711292,,,,,,,,blue,,,null,object_11a.png,object_06c.png,,,,,,,,,,,,,,,,,,,,
975.0999999046326,,rt_thecrossant_black3,712269,,,,,,,,black_plus_sign,,,49,,,1,,,,,,,0.6666666666666666,,,,,,,,,,,,
null,,color_black3,712373,,,,,,,,black_plus_sign,,,null,,,,,,,,,,,,,,,,,,,,,,
null,,learn_phase(without_color)3,715877,,,,,,,,black_plus_sign,,,null,object_11b.png,object_12b.png,,,,,,,,,,,,,,,,,,,,
null,,black_cross(without_color)3,716877,,,,,,,,green,,,null,object_11b.png,object_12b.png,,,,,,,,,,,,,,,,,,,,
null,,rt_plussign_withcolor3,717381,,,,,,,,green,,,null,object_11b.png,object_12b.png,,,,,,,,,,,,,,,,,,,,
1448.1999998092651,,rt_thecrossant_black3,718397,,,,,,,,black_plus_sign,,,50,,,1,,,,,,,0.75,,,,,,,,,,,,
null,,color_black3,718501,,,,,,,,black_plus_sign,,,null,,,,,,,,,,,,,,,,,,,,,,
null,,learn_phase(without_color)3,722006,,,,,,,,black_plus_sign,,,null,object_07c.png,object_05a.png,,,,,,,,,,,,,,,,,,,,
null,,black_cross(without_color)3,723006,,,,,,,,green,,,null,object_07c.png,object_05a.png,,,,,,,,,,,,,,,,,,,,
null,,rt_plussign_withcolor3,723510,,,,,,,,green,,,null,object_07c.png,object_05a.png,,,,,,,,,,,,,,,,,,,,
1281.4000000953674,,rt_thecrossant_black3,724526,,,,,,,,black_plus_sign,,,50,,,1,,,,,,,0.8,,,,,,,,,,,,
null,,color_black3,724630,,,,,,,,black_plus_sign,,,null,,,,,,,,,,,,,,,,,,,,,,
null,,learn_phase(without_color)3,728133,,,,,,,,black_plus_sign,,,null,object_01c.png,object_15a.png,,,,,,,,,,,,,,,,,,,,
null,,black_cross(without_color)3,729181,,,,,,,,blue,,,null,object_01c.png,object_15a.png,,,,,,,,,,,,,,,,,,,,
null,,rt_plussign_withcolor3,729685,,,,,,,,blue,,,null,object_01c.png,object_15a.png,,,,,,,,,,,,,,,,,,,,
1602.3000001907349,,rt_thecrossant_black3,730653,,,,,,,,black_plus_sign,,,49,,,1,,,,,,,0.8333333333333334,,,,,,,,,,,,
null,,color_black3,730757,,,,,,,,black_plus_sign,,,null,,,,,,,,,,,,,,,,,,,,,,
null,,learn_phase(without_color)3,734261,,,,,,,,black_plus_sign,,,null,object_02c.png,object_09c.png,,,,,,,,,,,,,,,,,,,,
null,,black_cross(without_color)3,734925,,,,,,,,blue,,,null,object_02c.png,object_09c.png,,,,,,,,,,,,,,,,,,,,
null,,rt_plussign_withcolor3,735429,,,,,,,,blue,,,null,object_02c.png,object_09c.png,,,,,,,,,,,,,,,,,,,,
1486.2000002861023,,rt_thecrossant_black3,736781,,,,,,,,black_plus_sign,,,49,,,1,,,,,,,0.8571428571428571,,,,,,,,,,,,
null,,color_black3,736885,,,,,,,,black_plus_sign,,,null,,,,,,,,,,,,,,,,,,,,,,
null,,learn_phase(without_color)3,740389,,,,,,,,black_plus_sign,,,null,object_04a.png,object_01b.png,,,,,,,,,,,,,,,,,,,,
null,,black_cross(without_color)3,741397,,,,,,,,green,,,null,object_04a.png,object_01b.png,,,,,,,,,,,,,,,,,,,,
461,,rt_plussign_withcolor3,741901,,,,,,,,green,,,50,object_04a.png,object_01b.png,,,,,,,,,,,,,,,,,,,,
null,,rt_thecrossant_black3,742913,,,,,,,,black_plus_sign,,,null,,,1,,,,,,,0.875,,,,,,,,,,,,
null,,color_black3,743022,,,,,,,,black_plus_sign,,,null,,,,,,,,,,,,,,,,,,,,,,
null,,learn_phase(without_color)3,746526,,,,,,,,black_plus_sign,,,null,object_03b.png,object_15c.png,,,,,,,,,,,,,,,,,,,,
null,,black_cross(without_color)3,746958,,,,,,,,green,,,null,object_03b.png,object_15c.png,,,,,,,,,,,,,,,,,,,,
null,,rt_plussign_withcolor3,747462,,,,,,,,green,,,null,object_03b.png,object_15c.png,,,,,,,,,,,,,,,,,,,,
1237.7000002861023,,rt_thecrossant_black3,749046,,,,,,,,black_plus_sign,,,50,,,1,,,,,,,0.8888888888888888,,,,,,,,,,,,
null,,color_black3,749150,,,,,,,,black_plus_sign,,,null,,,,,,,,,,,,,,,,,,,,,,
null,,learn_phase(without_color)3,752653,,,,,,,,black_plus_sign,,,null,object_13c.png,object_13a.png,,,,,,,,,,,,,,,,,,,,
null,,black_cross(without_color)3,753573,,,,,,,,green,,,null,object_13c.png,object_13a.png,,,,,,,,,,,,,,,,,,,,
477.09999990463257,,rt_plussign_withcolor3,754077,,,,,,,,green,,,50,object_13c.png,object_13a.png,,,,,,,,,,,,,,,,,,,,
null,,rt_thecrossant_black3,755172,,,,,,,,black_plus_sign,,,null,,,1,,,,,,,0.9,,,,,,,,,,,,
null,,color_black3,755276,,,,,,,,black_plus_sign,,,null,,,,,,,,,,,,,,,,,,,,,,
null,,learn_phase(without_color)3,758781,,,,,,,,black_plus_sign,,,null,object_10c.png,object_12a.png,,,,,,,,,,,,,,,,,,,,
null,,black_cross(without_color)3,759277,,,,,,,,blue,,,null,object_10c.png,object_12a.png,,,,,,,,,,,,,,,,,,,,
null,,rt_plussign_withcolor3,759781,,,,,,,,blue,,,null,object_10c.png,object_12a.png,,,,,,,,,,,,,,,,,,,,
1308.6999998092651,,rt_thecrossant_black3,761293,,,,,,,,black_plus_sign,,,49,,,1,,,,,,,0.9090909090909091,,,,,,,,,,,,
null,,color_black3,761397,,,,,,,,black_plus_sign,,,null,,,,,,,,,,,,,,,,,,,,,,
null,,learn_phase(without_color)3,764901,,,,,,,,black_plus_sign,,,null,object_08a.png,object_02b.png,,,,,,,,,,,,,,,,,,,,
null,,black_cross(without_color)3,765701,,,,,,,,blue,,,null,object_08a.png,object_02b.png,,,,,,,,,,,,,,,,,,,,
null,,rt_plussign_withcolor3,766205,,,,,,,,blue,,,null,object_08a.png,object_02b.png,,,,,,,,,,,,,,,,,,,,
979.4000000953674,,rt_thecrossant_black3,767421,,,,,,,,black_plus_sign,,,49,,,1,,,,,,,0.9166666666666666,,,,,,,,,,,,
null,,color_black3,767525,,,,,,,,black_plus_sign,,,null,,,,,,,,,,,,,,,,,,,,,,
null,,learn_phase(without_color)3,771029,,,,,,,,black_plus_sign,,,null,object_08c.png,object_02a.png,,,,,,,,,,,,,,,,,,,,
null,,black_cross(without_color)3,771917,,,,,,,,green,,,null,object_08c.png,object_02a.png,,,,,,,,,,,,,,,,,,,,
403.40000009536743,,rt_plussign_withcolor3,772422,,,,,,,,green,,,50,object_08c.png,object_02a.png,,,,,,,,,,,,,,,,,,,,
null,,rt_thecrossant_black3,773550,,,,,,,,black_plus_sign,,,null,,,1,,,,,,,0.9230769230769231,,,,,,,,,,,,
null,,color_black3,773654,,,,,,,,black_plus_sign,,,null,,,,,,,,,,,,,,,,,,,,,,
null,,learn_phase(without_color)3,777157,,,,,,,,black_plus_sign,,,null,object_06a.png,object_04b.png,,,,,,,,,,,,,,,,,,,,
null,,black_cross(without_color)3,777862,,,,,,,,green,,,null,object_06a.png,object_04b.png,,,,,,,,,,,,,,,,,,,,
null,,rt_plussign_withcolor3,778367,,,,,,,,green,,,null,object_06a.png,object_04b.png,,,,,,,,,,,,,,,,,,,,
1203.8000001907349,,rt_thecrossant_black3,779678,,,,,,,,black_plus_sign,,,50,,,1,,,,,,,0.9285714285714286,,,,,,,,,,,,
null,,color_black3,779782,,,,,,,,black_plus_sign,,,null,,,,,,,,,,,,,,,,,,,,,,
null,,thebreak,779886,,,,,,,,<p></p>,,,null,,,,,,,,,,,,,,,,,,,,,,
1539.1999998092651,,intro_0,781427,,,,,,,,instruct,,,32,,,,,,,,,,,,,,,,,,,,,,
2365,,directmemory_phase3,783795,,,,,,,,object_09c.png,,,50,,,1,,object_01c.png,object_02c.png,object_04a.png,object_02c.png,,0.8709677419354839,1,,,,,,,,,,,
2891.7000002861023,,directmemory_phase3,786691,,,,,,,,object_10b.png,,,49,,,1,,object_14a.png,object_05c.png,object_11a.png,object_14a.png,,0.875,1,,,,,,,,,,,
5692.200000286102,,directmemory_phase3,792387,,,,,,,,object_12b.png,,,51,,,1,,object_06a.png,object_01c.png,object_11b.png,object_11b.png,,0.8787878787878788,1,,,,,,,,,,,
4555.099999904633,,directmemory_phase3,796947,,,,,,,,object_15a.png,,,51,,,1,,object_08c.png,object_07c.png,object_01c.png,object_01c.png,,0.8823529411764706,1,,,,,,,,,,,
1836,,directmemory_phase3,798787,,,,,,,,object_05b.png,,,51,,,1,,object_14a.png,object_11a.png,object_09b.png,object_09b.png,,0.8857142857142857,1,,,,,,,,,,,
2939.699999809265,,directmemory_phase3,801731,,,,,,,,object_13a.png,,,49,,,1,,object_13c.png,object_03b.png,object_05c.png,object_13c.png,,0.8888888888888888,1,,,,,,,,,,,
7724.5,,directmemory_phase3,809459,,,,,,,,object_01b.png,,,50,,,1,,object_11a.png,object_04a.png,object_05c.png,object_04a.png,,0.8918918918918919,1,,,,,,,,,,,
1643.0999999046326,,directmemory_phase3,811107,,,,,,,,object_02b.png,,,49,,,1,,object_08a.png,object_07c.png,object_09b.png,object_08a.png,,0.8947368421052632,1,,,,,,,,,,,
3099.699999809265,,directmemory_phase3,814210,,,,,,,,object_15c.png,,,50,,,1,,object_10c.png,object_03b.png,object_05c.png,object_03b.png,,0.8974358974358975,1,,,,,,,,,,,
1995.9000000953674,,directmemory_phase3,816210,,,,,,,,object_12c.png,,,49,,,1,,object_05c.png,object_08c.png,object_03b.png,object_05c.png,,0.9,1,,,,,,,,,,,
2123.7999997138977,,directmemory_phase3,818338,,,,,,,,object_02a.png,,,50,,,1,,object_06a.png,object_08c.png,object_03b.png,object_08c.png,,0.9024390243902439,1,,,,,,,,,,,
2268.8999996185303,,directmemory_phase3,820611,,,,,,,,object_06c.png,,,51,,,1,,object_07c.png,object_09b.png,object_11a.png,object_11a.png,,0.9047619047619048,1,,,,,,,,,,,
4106.89999961853,,directmemory_phase3,824722,,,,,,,,object_04b.png,,,51,,,1,,object_11a.png,object_02c.png,object_06a.png,object_06a.png,,0.9069767441860465,1,,,,,,,,,,,
2427.7999997138977,,directmemory_phase3,827154,,,,,,,,object_12a.png,,,49,,,1,,object_10c.png,object_08c.png,object_03b.png,object_10c.png,,0.9090909090909091,1,,,,,,,,,,,
1515.6000003814697,,directmemory_phase3,828674,,,,,,,,object_05a.png,,,51,,,1,,object_08a.png,object_11a.png,object_07c.png,object_07c.png,,0.9111111111111111,1,,,,,,,,,,,
null,,thebreak,828782,,,,,,,,<p></p>,,,null,,,,,,,,,,,,,,,,,,,,,,
1729.8000001907349,,intro_0,830514,,,,,,,,instruct,,,32,,,,,,,,,,,,,,,,,,,,,,
null,,learn_phase(without_color)4,834022,,,,,,,,black_plus_sign,,,null,object_09b.png,object_05b.png,,,,,,,,,,,,,,,,,,,,
null,,black_cross(without_color)4,834895,,,,,,,,blue,,,null,object_09b.png,object_05b.png,,,,,,,,,,,,,,,,,,,,
null,,rt_plussign_withcolor4,835399,,,,,,,,blue,,,null,object_09b.png,object_05b.png,,,,,,,,,,,,,,,,,,,,
1004,,rt_thecrossant_black4,836543,,,,,,,,black_plus_sign,,,49,,,1,,,,,,,1,,,,,,,,,,,,
null,,color_black4,836647,,,,,,,,black_plus_sign,,,null,,,,,,,,,,,,,,,,,,,,,,
null,,learn_phase(without_color)4,840152,,,,,,,,black_plus_sign,,,null,object_11a.png,object_06c.png,,,,,,,,,,,,,,,,,,,,
null,,black_cross(without_color)4,840576,,,,,,,,green,,,null,object_11a.png,object_06c.png,,,,,,,,,,,,,,,,,,,,
null,,rt_plussign_withcolor4,841080,,,,,,,,green,,,null,object_11a.png,object_06c.png,,,,,,,,,,,,,,,,,,,,
1082.5,,rt_thecrossant_black4,842672,,,,,,,,black_plus_sign,,,49,,,0,,,,,,,0.5,,,,,,,,,,,,
null,,color_black4,842776,,,,,,,,black_plus_sign,,,null,,,,,,,,,,,,,,,,,,,,,,
null,,learn_phase(without_color)4,846280,,,,,,,,black_plus_sign,,,null,object_13c.png,object_13a.png,,,,,,,,,,,,,,,,,,,,
null,,black_cross(without_color)4,847256,,,,,,,,green,,,null,object_13c.png,object_13a.png,,,,,,,,,,,,,,,,,,,,
null,,rt_plussign_withcolor4,847760,,,,,,,,green,,,null,object_13c.png,object_13a.png,,,,,,,,,,,,,,,,,,,,
946.3000001907349,,rt_thecrossant_black4,848799,,,,,,,,black_plus_sign,,,49,,,0,,,,,,,0.3333333333333333,,,,,,,,,,,,
null,,warning_page,853807,,,,,,,,warning,,,null,,,,,,,,,,,,,,,,,,,,,,
null,,color_black4,853911,,,,,,,,black_plus_sign,,,null,,,,,,,,,,,,,,,,,,,,,,
null,,learn_phase(without_color)4,857416,,,,,,,,black_plus_sign,,,null,object_04a.png,object_01b.png,,,,,,,,,,,,,,,,,,,,
null,,black_cross(without_color)4,857952,,,,,,,,green,,,null,object_04a.png,object_01b.png,,,,,,,,,,,,,,,,,,,,
null,,rt_plussign_withcolor4,858456,,,,,,,,green,,,null,object_04a.png,object_01b.png,,,,,,,,,,,,,,,,,,,,
1460.3000001907349,,rt_thecrossant_black4,859928,,,,,,,,black_plus_sign,,,50,,,1,,,,,,,0.5,,,,,,,,,,,,
null,,color_black4,860032,,,,,,,,black_plus_sign,,,null,,,,,,,,,,,,,,,,,,,,,,
null,,learn_phase(without_color)4,863536,,,,,,,,black_plus_sign,,,null,object_06a.png,object_04b.png,,,,,,,,,,,,,,,,,,,,
null,,black_cross(without_color)4,864056,,,,,,,,blue,,,null,object_06a.png,object_04b.png,,,,,,,,,,,,,,,,,,,,
null,,rt_plussign_withcolor4,864560,,,,,,,,blue,,,null,object_06a.png,object_04b.png,,,,,,,,,,,,,,,,,,,,
936.1999998092651,,rt_thecrossant_black4,866048,,,,,,,,black_plus_sign,,,49,,,1,,,,,,,0.6,,,,,,,,,,,,
null,,color_black4,866152,,,,,,,,black_plus_sign,,,null,,,,,,,,,,,,,,,,,,,,,,
null,,learn_phase(without_color)4,869656,,,,,,,,black_plus_sign,,,null,object_01c.png,object_15a.png,,,,,,,,,,,,,,,,,,,,
null,,black_cross(without_color)4,870280,,,,,,,,blue,,,null,object_01c.png,object_15a.png,,,,,,,,,,,,,,,,,,,,
null,,rt_plussign_withcolor4,870784,,,,,,,,blue,,,null,object_01c.png,object_15a.png,,,,,,,,,,,,,,,,,,,,
1240.4000000953674,,rt_thecrossant_black4,872176,,,,,,,,black_plus_sign,,,49,,,1,,,,,,,0.6666666666666666,,,,,,,,,,,,
null,,color_black4,872280,,,,,,,,black_plus_sign,,,null,,,,,,,,,,,,,,,,,,,,,,
null,,learn_phase(without_color)4,875791,,,,,,,,black_plus_sign,,,null,object_11b.png,object_12b.png,,,,,,,,,,,,,,,,,,,,
null,,black_cross(without_color)4,876391,,,,,,,,blue,,,null,object_11b.png,object_12b.png,,,,,,,,,,,,,,,,,,,,
null,,rt_plussign_withcolor4,876895,,,,,,,,blue,,,null,object_11b.png,object_12b.png,,,,,,,,,,,,,,,,,,,,
908.3000001907349,,rt_thecrossant_black4,878304,,,,,,,,black_plus_sign,,,49,,,1,,,,,,,0.7142857142857143,,,,,,,,,,,,
null,,color_black4,878408,,,,,,,,black_plus_sign,,,null,,,,,,,,,,,,,,,,,,,,,,
null,,learn_phase(without_color)4,881911,,,,,,,,black_plus_sign,,,null,object_05c.png,object_12c.png,,,,,,,,,,,,,,,,,,,,
null,,black_cross(without_color)4,882888,,,,,,,,green,,,null,object_05c.png,object_12c.png,,,,,,,,,,,,,,,,,,,,
null,,rt_plussign_withcolor4,883392,,,,,,,,green,,,null,object_05c.png,object_12c.png,,,,,,,,,,,,,,,,,,,,
936.8999996185303,,rt_thecrossant_black4,884432,,,,,,,,black_plus_sign,,,50,,,1,,,,,,,0.75,,,,,,,,,,,,
null,,color_black4,884536,,,,,,,,black_plus_sign,,,null,,,,,,,,,,,,,,,,,,,,,,
null,,learn_phase(without_color)4,888040,,,,,,,,black_plus_sign,,,null,object_02c.png,object_09c.png,,,,,,,,,,,,,,,,,,,,
null,,black_cross(without_color)4,889064,,,,,,,,blue,,,null,object_02c.png,object_09c.png,,,,,,,,,,,,,,,,,,,,
null,,rt_plussign_withcolor4,889568,,,,,,,,blue,,,null,object_02c.png,object_09c.png,,,,,,,,,,,,,,,,,,,,
1241.7000002861023,,rt_thecrossant_black4,890560,,,,,,,,black_plus_sign,,,49,,,1,,,,,,,0.7777777777777778,,,,,,,,,,,,
null,,color_black4,890664,,,,,,,,black_plus_sign,,,null,,,,,,,,,,,,,,,,,,,,,,
null,,learn_phase(without_color)4,894168,,,,,,,,black_plus_sign,,,null,object_08c.png,object_02a.png,,,,,,,,,,,,,,,,,,,,
null,,black_cross(without_color)4,894592,,,,,,,,blue,,,null,object_08c.png,object_02a.png,,,,,,,,,,,,,,,,,,,,
null,,rt_plussign_withcolor4,895096,,,,,,,,blue,,,null,object_08c.png,object_02a.png,,,,,,,,,,,,,,,,,,,,
1429.0999999046326,,rt_thecrossant_black4,896688,,,,,,,,black_plus_sign,,,49,,,1,,,,,,,0.8,,,,,,,,,,,,
null,,color_black4,896792,,,,,,,,black_plus_sign,,,null,,,,,,,,,,,,,,,,,,,,,,
null,,learn_phase(without_color)4,900305,,,,,,,,black_plus_sign,,,null,object_03b.png,object_15c.png,,,,,,,,,,,,,,,,,,,,
null,,black_cross(without_color)4,901041,,,,,,,,blue,,,null,object_03b.png,object_15c.png,,,,,,,,,,,,,,,,,,,,
null,,rt_plussign_withcolor4,901545,,,,,,,,blue,,,null,object_03b.png,object_15c.png,,,,,,,,,,,,,,,,,,,,
731.7000002861023,,rt_thecrossant_black4,902825,,,,,,,,black_plus_sign,,,49,,,1,,,,,,,0.8181818181818182,,,,,,,,,,,,
null,,color_black4,902929,,,,,,,,black_plus_sign,,,null,,,,,,,,,,,,,,,,,,,,,,
null,,learn_phase(without_color)4,906433,,,,,,,,black_plus_sign,,,null,object_10c.png,object_12a.png,,,,,,,,,,,,,,,,,,,,
null,,black_cross(without_color)4,907505,,,,,,,,green,,,null,object_10c.png,object_12a.png,,,,,,,,,,,,,,,,,,,,
449.09999990463257,,rt_plussign_withcolor4,908009,,,,,,,,green,,,50,object_10c.png,object_12a.png,,,,,,,,,,,,,,,,,,,,
null,,rt_thecrossant_black4,908953,,,,,,,,black_plus_sign,,,null,,,1,,,,,,,0.8333333333333334,,,,,,,,,,,,
null,,color_black4,909057,,,,,,,,black_plus_sign,,,null,,,,,,,,,,,,,,,,,,,,,,
null,,learn_phase(without_color)4,912561,,,,,,,,black_plus_sign,,,null,object_14a.png,object_10b.png,,,,,,,,,,,,,,,,,,,,
null,,black_cross(without_color)4,913185,,,,,,,,green,,,null,object_14a.png,object_10b.png,,,,,,,,,,,,,,,,,,,,
null,,rt_plussign_withcolor4,913689,,,,,,,,green,,,null,object_14a.png,object_10b.png,,,,,,,,,,,,,,,,,,,,
1313.9000000953674,,rt_thecrossant_black4,915081,,,,,,,,black_plus_sign,,,50,,,1,,,,,,,0.8461538461538461,,,,,,,,,,,,
null,,color_black4,915185,,,,,,,,black_plus_sign,,,null,,,,,,,,,,,,,,,,,,,,,,
null,,learn_phase(without_color)4,918689,,,,,,,,black_plus_sign,,,null,object_08a.png,object_02b.png,,,,,,,,,,,,,,,,,,,,
null,,black_cross(without_color)4,919353,,,,,,,,blue,,,null,object_08a.png,object_02b.png,,,,,,,,,,,,,,,,,,,,
null,,rt_plussign_withcolor4,919858,,,,,,,,blue,,,null,object_08a.png,object_02b.png,,,,,,,,,,,,,,,,,,,,
953.0999999046326,,rt_thecrossant_black4,921210,,,,,,,,black_plus_sign,,,49,,,1,,,,,,,0.8571428571428571,,,,,,,,,,,,
null,,color_black4,921314,,,,,,,,black_plus_sign,,,null,,,,,,,,,,,,,,,,,,,,,,
null,,learn_phase(without_color)4,924825,,,,,,,,black_plus_sign,,,null,object_07c.png,object_05a.png,,,,,,,,,,,,,,,,,,,,
null,,black_cross(without_color)4,925249,,,,,,,,blue,,,null,object_07c.png,object_05a.png,,,,,,,,,,,,,,,,,,,,
null,,rt_plussign_withcolor4,925753,,,,,,,,blue,,,null,object_07c.png,object_05a.png,,,,,,,,,,,,,,,,,,,,
1178.0999999046326,,rt_thecrossant_black4,927337,,,,,,,,black_plus_sign,,,49,,,1,,,,,,,0.8666666666666667,,,,,,,,,,,,
null,,color_black4,927441,,,,,,,,black_plus_sign,,,null,,,,,,,,,,,,,,,,,,,,,,
null,,thebreak,927545,,,,,,,,<p></p>,,,null,,,,,,,,,,,,,,,,,,,,,,
1751.3999996185303,,intro_0,929298,,,,,,,,instruct,,,32,,,,,,,,,,,,,,,,,,,,,,
4397.900000095367,,directmemory_phase4,933699,,,,,,,,object_15a.png,,,49,,,1,,object_01c.png,object_08c.png,object_14a.png,object_01c.png,,0.9130434782608695,1,,,,,,,,,,,
1626.0999999046326,,directmemory_phase4,935330,,,,,,,,object_05b.png,,,51,,,1,,object_03b.png,object_10c.png,object_09b.png,object_09b.png,,0.9148936170212766,1,,,,,,,,,,,
2795.300000190735,,directmemory_phase4,938130,,,,,,,,object_01b.png,,,50,,,1,,object_03b.png,object_04a.png,object_02c.png,object_04a.png,,0.9166666666666666,1,,,,,,,,,,,
2635.4000000953674,,directmemory_phase4,940770,,,,,,,,object_02b.png,,,50,,,1,,object_10c.png,object_08a.png,object_06a.png,object_08a.png,,0.9183673469387755,1,,,,,,,,,,,
1467,,directmemory_phase4,942241,,,,,,,,object_05a.png,,,51,,,1,,object_11a.png,object_05c.png,object_07c.png,object_07c.png,,0.92,1,,,,,,,,,,,
4590,,directmemory_phase4,946834,,,,,,,,object_04b.png,,,49,,,1,,object_06a.png,object_13c.png,object_14a.png,object_06a.png,,0.9215686274509803,1,,,,,,,,,,,
1659,,directmemory_phase4,948498,,,,,,,,object_15c.png,,,50,,,1,,object_09b.png,object_03b.png,object_08a.png,object_03b.png,,0.9230769230769231,1,,,,,,,,,,,
3403.5,,directmemory_phase4,951905,,,,,,,,object_09c.png,,,51,,,1,,object_08a.png,object_08c.png,object_02c.png,object_02c.png,,0.9245283018867925,1,,,,,,,,,,,
3916,,directmemory_phase4,955826,,,,,,,,object_10b.png,,,50,,,1,,object_06a.png,object_14a.png,object_09b.png,object_14a.png,,0.9259259259259259,1,,,,,,,,,,,
1516.4000000953674,,directmemory_phase4,957346,,,,,,,,object_13a.png,,,49,,,1,,object_13c.png,object_01c.png,object_03b.png,object_13c.png,,0.9272727272727272,1,,,,,,,,,,,
1418.9000000953674,,directmemory_phase4,958770,,,,,,,,object_06c.png,,,51,,,1,,object_01c.png,object_10c.png,object_11a.png,object_11a.png,,0.9285714285714286,1,,,,,,,,,,,
5387.699999809265,,directmemory_phase4,964162,,,,,,,,object_02a.png,,,49,,,0,,object_14a.png,object_08c.png,object_02c.png,object_08c.png,,0.9122807017543859,0,,,,,,,,,,,
1707.3999996185303,,directmemory_phase4,965874,,,,,,,,object_12b.png,,,51,,,1,,object_07c.png,object_02c.png,object_11b.png,object_11b.png,,0.9137931034482759,1,,,,,,,,,,,
1868.5,,directmemory_phase4,967747,,,,,,,,object_12a.png,,,49,,,1,,object_10c.png,object_03b.png,object_04a.png,object_10c.png,,0.9152542372881356,1,,,,,,,,,,,
1802.8000001907349,,directmemory_phase4,969554,,,,,,,,object_12c.png,,,50,,,1,,object_03b.png,object_05c.png,object_01c.png,object_05c.png,,0.9166666666666666,1,,,,,,,,,,,
null,,thebreak,969658,,,,,,,,<p></p>,,,null,,,,,,,,,,,,,,,,,,,,,,
1605.7999997138977,,intro_0,971266,,,,,,,,instruct,,,32,,,,,,,,,,,,,,,,,,,,,,
null,,learn_phase(without_color)5,974770,,,,,,,,black_plus_sign,,,null,object_12c.png,object_03c.png,,,,,,,,,,,,,,,,,,,,
null,,black_cross(without_color)5,975706,,,,,,,,green,,,null,object_12c.png,object_03c.png,,,,,,,,,,,,,,,,,,,,
null,,rt_plussign_withcolor5,976208,,,,,,,,green,,,null,object_12c.png,object_03c.png,,,,,,,,,,,,,,,,,,,,
null,,rt_thecrossant_black5,977290,,,,,,,,black_plus_sign,,,null,,,,,,,,,,NaN,,,,,,,,,,,,
null,,warning_page,982298,,,,,,,,warning,,,null,,,,,,,,,,,,,,,,,,,,,,
null,,color_black5,982402,,,,,,,,black_plus_sign,,,null,,,,,,,,,,,,,,,,,,,,,,
null,,learn_phase(without_color)5,985906,,,,,,,,black_plus_sign,,,null,object_12a.png,object_14c.png,,,,,,,,,,,,,,,,,,,,
null,,black_cross(without_color)5,986410,,,,,,,,blue,,,null,object_12a.png,object_14c.png,,,,,,,,,,,,,,,,,,,,
null,,rt_plussign_withcolor5,986914,,,,,,,,blue,,,null,object_12a.png,object_14c.png,,,,,,,,,,,,,,,,,,,,
1233.2999997138977,,rt_thecrossant_black5,988418,,,,,,,,black_plus_sign,,,49,,,1,,,,,,,1,,,,,,,,,,,,
null,,color_black5,988522,,,,,,,,black_plus_sign,,,null,,,,,,,,,,,,,,,,,,,,,,
null,,learn_phase(without_color)5,992026,,,,,,,,black_plus_sign,,,null,object_09c.png,object_07b.png,,,,,,,,,,,,,,,,,,,,
null,,black_cross(without_color)5,992458,,,,,,,,green,,,null,object_09c.png,object_07b.png,,,,,,,,,,,,,,,,,,,,
null,,rt_plussign_withcolor5,992963,,,,,,,,green,,,null,object_09c.png,object_07b.png,,,,,,,,,,,,,,,,,,,,
1252.7000002861023,,rt_thecrossant_black5,994547,,,,,,,,black_plus_sign,,,50,,,1,,,,,,,1,,,,,,,,,,,,
null,,color_black5,994651,,,,,,,,black_plus_sign,,,null,,,,,,,,,,,,,,,,,,,,,,
null,,learn_phase(without_color)5,998162,,,,,,,,black_plus_sign,,,null,object_15c.png,object_06b.png,,,,,,,,,,,,,,,,,,,,
null,,black_cross(without_color)5,999226,,,,,,,,blue,,,null,object_15c.png,object_06b.png,,,,,,,,,,,,,,,,,,,,
375,,rt_plussign_withcolor5,999730,,,,,,,,blue,,,49,object_15c.png,object_06b.png,,,,,,,,,,,,,,,,,,,,
null,,rt_thecrossant_black5,1000682,,,,,,,,black_plus_sign,,,null,,,1,,,,,,,1,,,,,,,,,,,,
null,,color_black5,1000786,,,,,,,,black_plus_sign,,,null,,,,,,,,,,,,,,,,,,,,,,
null,,learn_phase(without_color)5,1004290,,,,,,,,black_plus_sign,,,null,object_06c.png,object_01a.png,,,,,,,,,,,,,,,,,,,,
null,,black_cross(without_color)5,1005210,,,,,,,,green,,,null,object_06c.png,object_01a.png,,,,,,,,,,,,,,,,,,,,
486.09999990463257,,rt_plussign_withcolor5,1005714,,,,,,,,green,,,50,object_06c.png,object_01a.png,,,,,,,,,,,,,,,,,,,,
null,,rt_thecrossant_black5,1006810,,,,,,,,black_plus_sign,,,null,,,1,,,,,,,1,,,,,,,,,,,,
null,,color_black5,1006914,,,,,,,,black_plus_sign,,,null,,,,,,,,,,,,,,,,,,,,,,
null,,learn_phase(without_color)5,1010418,,,,,,,,black_plus_sign,,,null,object_02b.png,object_15b.png,,,,,,,,,,,,,,,,,,,,
null,,black_cross(without_color)5,1010858,,,,,,,,green,,,null,object_02b.png,object_15b.png,,,,,,,,,,,,,,,,,,,,
null,,rt_plussign_withcolor5,1011362,,,,,,,,green,,,null,object_02b.png,object_15b.png,,,,,,,,,,,,,,,,,,,,
1279.1000003814697,,rt_thecrossant_black5,1012938,,,,,,,,black_plus_sign,,,50,,,1,,,,,,,1,,,,,,,,,,,,
null,,color_black5,1013042,,,,,,,,black_plus_sign,,,null,,,,,,,,,,,,,,,,,,,,,,
null,,learn_phase(without_color)5,1016546,,,,,,,,black_plus_sign,,,null,object_15a.png,object_11c.png,,,,,,,,,,,,,,,,,,,,
null,,black_cross(without_color)5,1017330,,,,,,,,blue,,,null,object_15a.png,object_11c.png,,,,,,,,,,,,,,,,,,,,
null,,rt_plussign_withcolor5,1017835,,,,,,,,blue,,,null,object_15a.png,object_11c.png,,,,,,,,,,,,,,,,,,,,
585.0999999046326,,rt_thecrossant_black5,1019067,,,,,,,,black_plus_sign,,,49,,,1,,,,,,,1,,,,,,,,,,,,
null,,color_black5,1019171,,,,,,,,black_plus_sign,,,null,,,,,,,,,,,,,,,,,,,,,,
null,,learn_phase(without_color)5,1022682,,,,,,,,black_plus_sign,,,null,object_02a.png,object_07a.png,,,,,,,,,,,,,,,,,,,,
null,,black_cross(without_color)5,1023602,,,,,,,,green,,,null,object_02a.png,object_07a.png,,,,,,,,,,,,,,,,,,,,
446.1000003814697,,rt_plussign_withcolor5,1024106,,,,,,,,green,,,50,object_02a.png,object_07a.png,,,,,,,,,,,,,,,,,,,,
null,,rt_thecrossant_black5,1025194,,,,,,,,black_plus_sign,,,null,,,1,,,,,,,1,,,,,,,,,,,,
null,,color_black5,1025298,,,,,,,,black_plus_sign,,,null,,,,,,,,,,,,,,,,,,,,,,
null,,learn_phase(without_color)5,1028802,,,,,,,,black_plus_sign,,,null,object_05b.png,object_09a.png,,,,,,,,,,,,,,,,,,,,
null,,black_cross(without_color)5,1029882,,,,,,,,green,,,null,object_05b.png,object_09a.png,,,,,,,,,,,,,,,,,,,,
null,,rt_plussign_withcolor5,1030387,,,,,,,,green,,,null,object_05b.png,object_09a.png,,,,,,,,,,,,,,,,,,,,
1076.4000000953674,,rt_thecrossant_black5,1031323,,,,,,,,black_plus_sign,,,50,,,1,,,,,,,1,,,,,,,,,,,,
null,,color_black5,1031427,,,,,,,,black_plus_sign,,,null,,,,,,,,,,,,,,,,,,,,,,
null,,learn_phase(without_color)5,1034931,,,,,,,,black_plus_sign,,,null,object_05a.png,object_04c.png,,,,,,,,,,,,,,,,,,,,
null,,black_cross(without_color)5,1035955,,,,,,,,blue,,,null,object_05a.png,object_04c.png,,,,,,,,,,,,,,,,,,,,
null,,rt_plussign_withcolor5,1036459,,,,,,,,blue,,,null,object_05a.png,object_04c.png,,,,,,,,,,,,,,,,,,,,
1701.9000000953674,,rt_thecrossant_black5,1037451,,,,,,,,black_plus_sign,,,49,,,1,,,,,,,1,,,,,,,,,,,,
null,,color_black5,1037555,,,,,,,,black_plus_sign,,,null,,,,,,,,,,,,,,,,,,,,,,
null,,learn_phase(without_color)5,1041059,,,,,,,,black_plus_sign,,,null,object_12b.png,object_08b.png,,,,,,,,,,,,,,,,,,,,
null,,black_cross(without_color)5,1042035,,,,,,,,green,,,null,object_12b.png,object_08b.png,,,,,,,,,,,,,,,,,,,,
492.90000009536743,,rt_plussign_withcolor5,1042539,,,,,,,,green,,,50,object_12b.png,object_08b.png,,,,,,,,,,,,,,,,,,,,
null,,rt_thecrossant_black5,1043578,,,,,,,,black_plus_sign,,,null,,,1,,,,,,,1,,,,,,,,,,,,
null,,color_black5,1043683,,,,,,,,black_plus_sign,,,null,,,,,,,,,,,,,,,,,,,,,,
null,,learn_phase(without_color)5,1047194,,,,,,,,black_plus_sign,,,null,object_13a.png,object_10a.png,,,,,,,,,,,,,,,,,,,,
null,,black_cross(without_color)5,1048298,,,,,,,,blue,,,null,object_13a.png,object_10a.png,,,,,,,,,,,,,,,,,,,,
null,,rt_plussign_withcolor5,1048802,,,,,,,,blue,,,null,object_13a.png,object_10a.png,,,,,,,,,,,,,,,,,,,,
1322,,rt_thecrossant_black5,1049706,,,,,,,,black_plus_sign,,,49,,,1,,,,,,,1,,,,,,,,,,,,
null,,color_black5,1049810,,,,,,,,black_plus_sign,,,null,,,,,,,,,,,,,,,,,,,,,,
null,,learn_phase(without_color)5,1053314,,,,,,,,black_plus_sign,,,null,object_01b.png,object_03a.png,,,,,,,,,,,,,,,,,,,,
null,,black_cross(without_color)5,1054202,,,,,,,,green,,,null,object_01b.png,object_03a.png,,,,,,,,,,,,,,,,,,,,
404.69999980926514,,rt_plussign_withcolor5,1054707,,,,,,,,green,,,50,object_01b.png,object_03a.png,,,,,,,,,,,,,,,,,,,,
null,,rt_thecrossant_black5,1055834,,,,,,,,black_plus_sign,,,null,,,1,,,,,,,1,,,,,,,,,,,,
null,,color_black5,1055939,,,,,,,,black_plus_sign,,,null,,,,,,,,,,,,,,,,,,,,,,
null,,learn_phase(without_color)5,1059443,,,,,,,,black_plus_sign,,,null,object_04b.png,object_14b.png,,,,,,,,,,,,,,,,,,,,
null,,black_cross(without_color)5,1060539,,,,,,,,green,,,null,object_04b.png,object_14b.png,,,,,,,,,,,,,,,,,,,,
null,,rt_plussign_withcolor5,1061043,,,,,,,,green,,,null,object_04b.png,object_14b.png,,,,,,,,,,,,,,,,,,,,
1247.2000002861023,,rt_thecrossant_black5,1061961,,,,,,,,black_plus_sign,,,50,,,1,,,,,,,1,,,,,,,,,,,,
null,,color_black5,1062067,,,,,,,,black_plus_sign,,,null,,,,,,,,,,,,,,,,,,,,,,
null,,learn_phase(without_color)5,1065579,,,,,,,,black_plus_sign,,,null,object_10b.png,object_13b.png,,,,,,,,,,,,,,,,,,,,
null,,black_cross(without_color)5,1066283,,,,,,,,blue,,,null,object_10b.png,object_13b.png,,,,,,,,,,,,,,,,,,,,
null,,rt_plussign_withcolor5,1066787,,,,,,,,blue,,,null,object_10b.png,object_13b.png,,,,,,,,,,,,,,,,,,,,
1259.8000001907349,,rt_thecrossant_black5,1068099,,,,,,,,black_plus_sign,,,49,,,1,,,,,,,1,,,,,,,,,,,,
null,,color_black5,1068203,,,,,,,,black_plus_sign,,,null,,,,,,,,,,,,,,,,,,,,,,
null,,thebreak,1068307,,,,,,,,<p></p>,,,null,,,,,,,,,,,,,,,,,,,,,,
1307.5,,intro_0,1069617,,,,,,,,instruct,,,32,,,,,,,,,,,,,,,,,,,,,,
5853,,directmemory_phase5,1075473,,,,,,,,object_10a.png,,,49,,,0,,object_05b.png,object_13a.png,object_12c.png,object_13a.png,,0.9016393442622951,0,,,,,,,,,,,
1578.1999998092651,,directmemory_phase5,1077056,,,,,,,,object_13b.png,,,50,,,0,,object_15c.png,object_12a.png,object_10b.png,object_10b.png,,0.8870967741935484,0,,,,,,,,,,,
3515.300000190735,,directmemory_phase5,1080577,,,,,,,,object_03a.png,,,49,,,1,,object_01b.png,object_05a.png,object_12a.png,object_01b.png,,0.8888888888888888,1,,,,,,,,,,,
1531.2999997138977,,directmemory_phase5,1082114,,,,,,,,object_03c.png,,,51,,,1,,object_09c.png,object_02b.png,object_12c.png,object_12c.png,,0.890625,1,,,,,,,,,,,
1611.1999998092651,,directmemory_phase5,1083730,,,,,,,,object_14b.png,,,51,,,1,,object_15a.png,object_13a.png,object_04b.png,object_04b.png,,0.8923076923076924,1,,,,,,,,,,,
3564.0999999046326,,directmemory_phase5,1087298,,,,,,,,object_15b.png,,,49,,,1,,object_02b.png,object_12a.png,object_15c.png,object_02b.png,,0.8939393939393939,1,,,,,,,,,,,
4938.200000286102,,directmemory_phase5,1092241,,,,,,,,object_07a.png,,,50,,,0,,object_02a.png,object_13a.png,object_04b.png,object_02a.png,,0.8805970149253731,0,,,,,,,,,,,
4267.199999809265,,directmemory_phase5,1096513,,,,,,,,object_01a.png,,,50,,,1,,object_15c.png,object_06c.png,object_01b.png,object_06c.png,,0.8823529411764706,1,,,,,,,,,,,
2508.4000000953674,,directmemory_phase5,1099026,,,,,,,,object_09a.png,,,49,,,1,,object_05b.png,object_15c.png,object_15a.png,object_05b.png,,0.8840579710144928,1,,,,,,,,,,,
2026.5,,directmemory_phase5,1101057,,,,,,,,object_07b.png,,,50,,,0,,object_09c.png,object_05a.png,object_01b.png,object_09c.png,,0.8714285714285714,0,,,,,,,,,,,
2108,,directmemory_phase5,1103169,,,,,,,,object_04c.png,,,51,,,1,,object_15a.png,object_12c.png,object_05a.png,object_05a.png,,0.8732394366197183,1,,,,,,,,,,,
3419.4000000953674,,directmemory_phase5,1106593,,,,,,,,object_11c.png,,,51,,,0,,object_15a.png,object_04b.png,object_15c.png,object_15a.png,,0.8611111111111112,0,,,,,,,,,,,
2107.4000000953674,,directmemory_phase5,1108705,,,,,,,,object_14c.png,,,51,,,1,,object_15a.png,object_04b.png,object_12a.png,object_12a.png,,0.863013698630137,1,,,,,,,,,,,
2604.5,,directmemory_phase5,1111314,,,,,,,,object_08b.png,,,49,,,1,,object_12b.png,object_12c.png,object_01b.png,object_12b.png,,0.8648648648648649,1,,,,,,,,,,,
2842.5,,directmemory_phase5,1114161,,,,,,,,object_06b.png,,,49,,,1,,object_15c.png,object_10b.png,object_12a.png,object_15c.png,,0.8666666666666667,1,,,,,,,,,,,
null,,thebreak,1114268,,,,,,,,<p></p>,,,null,,,,,,,,,,,,,,,,,,,,,,
1426.1999998092651,,intro_0,1115696,,,,,,,,instruct,,,32,,,,,,,,,,,,,,,,,,,,,,
null,,learn_phase(without_color)6,1119202,,,,,,,,black_plus_sign,,,null,object_10b.png,object_13b.png,,,,,,,,,,,,,,,,,,,,
null,,black_cross(without_color)6,1120115,,,,,,,,blue,,,null,object_10b.png,object_13b.png,,,,,,,,,,,,,,,,,,,,
null,,rt_plussign_withcolor6,1120619,,,,,,,,blue,,,null,object_10b.png,object_13b.png,,,,,,,,,,,,,,,,,,,,
1077.5,,rt_thecrossant_black6,1121716,,,,,,,,black_plus_sign,,,49,,,1,,,,,,,1,,,,,,,,,,,,
null,,color_black6,1121820,,,,,,,,black_plus_sign,,,null,,,,,,,,,,,,,,,,,,,,,,
null,,learn_phase(without_color)6,1125323,,,,,,,,black_plus_sign,,,null,object_06c.png,object_01a.png,,,,,,,,,,,,,,,,,,,,
null,,black_cross(without_color)6,1126076,,,,,,,,green,,,null,object_06c.png,object_01a.png,,,,,,,,,,,,,,,,,,,,
null,,rt_plussign_withcolor6,1126580,,,,,,,,green,,,null,object_06c.png,object_01a.png,,,,,,,,,,,,,,,,,,,,
1229.3000001907349,,rt_thecrossant_black6,1127844,,,,,,,,black_plus_sign,,,50,,,1,,,,,,,1,,,,,,,,,,,,
null,,color_black6,1127948,,,,,,,,black_plus_sign,,,null,,,,,,,,,,,,,,,,,,,,,,
null,,learn_phase(without_color)6,1131452,,,,,,,,black_plus_sign,,,null,object_01b.png,object_03a.png,,,,,,,,,,,,,,,,,,,,
null,,black_cross(without_color)6,1132220,,,,,,,,blue,,,null,object_01b.png,object_03a.png,,,,,,,,,,,,,,,,,,,,
null,,rt_plussign_withcolor6,1132724,,,,,,,,blue,,,null,object_01b.png,object_03a.png,,,,,,,,,,,,,,,,,,,,
1079.9000000953674,,rt_thecrossant_black6,1133972,,,,,,,,black_plus_sign,,,49,,,1,,,,,,,1,,,,,,,,,,,,
null,,color_black6,1134076,,,,,,,,black_plus_sign,,,null,,,,,,,,,,,,,,,,,,,,,,
null,,learn_phase(without_color)6,1137579,,,,,,,,black_plus_sign,,,null,object_05b.png,object_09a.png,,,,,,,,,,,,,,,,,,,,
null,,black_cross(without_color)6,1138492,,,,,,,,green,,,null,object_05b.png,object_09a.png,,,,,,,,,,,,,,,,,,,,
null,,rt_plussign_withcolor6,1138996,,,,,,,,green,,,null,object_05b.png,object_09a.png,,,,,,,,,,,,,,,,,,,,
1124.1999998092651,,rt_thecrossant_black6,1140092,,,,,,,,black_plus_sign,,,50,,,1,,,,,,,1,,,,,,,,,,,,
null,,color_black6,1140196,,,,,,,,black_plus_sign,,,null,,,,,,,,,,,,,,,,,,,,,,
null,,learn_phase(without_color)6,1143708,,,,,,,,black_plus_sign,,,null,object_12a.png,object_14c.png,,,,,,,,,,,,,,,,,,,,
null,,black_cross(without_color)6,1144740,,,,,,,,green,,,null,object_12a.png,object_14c.png,,,,,,,,,,,,,,,,,,,,
null,,rt_plussign_withcolor6,1145244,,,,,,,,green,,,null,object_12a.png,object_14c.png,,,,,,,,,,,,,,,,,,,,
1443.1999998092651,,rt_thecrossant_black6,1146220,,,,,,,,black_plus_sign,,,50,,,1,,,,,,,1,,,,,,,,,,,,
null,,color_black6,1146324,,,,,,,,black_plus_sign,,,null,,,,,,,,,,,,,,,,,,,,,,
null,,learn_phase(without_color)6,1149828,,,,,,,,black_plus_sign,,,null,object_04b.png,object_14b.png,,,,,,,,,,,,,,,,,,,,
null,,black_cross(without_color)6,1150356,,,,,,,,green,,,null,object_04b.png,object_14b.png,,,,,,,,,,,,,,,,,,,,
475.09999990463257,,rt_plussign_withcolor6,1150860,,,,,,,,green,,,50,object_04b.png,object_14b.png,,,,,,,,,,,,,,,,,,,,
null,,rt_thecrossant_black6,1152348,,,,,,,,black_plus_sign,,,null,,,1,,,,,,,1,,,,,,,,,,,,
null,,color_black6,1152452,,,,,,,,black_plus_sign,,,null,,,,,,,,,,,,,,,,,,,,,,
null,,learn_phase(without_color)6,1155957,,,,,,,,black_plus_sign,,,null,object_02a.png,object_07a.png,,,,,,,,,,,,,,,,,,,,
null,,black_cross(without_color)6,1156380,,,,,,,,green,,,null,object_02a.png,object_07a.png,,,,,,,,,,,,,,,,,,,,
null,,rt_plussign_withcolor6,1156885,,,,,,,,green,,,null,object_02a.png,object_07a.png,,,,,,,,,,,,,,,,,,,,
994,,rt_thecrossant_black6,1158477,,,,,,,,black_plus_sign,,,50,,,1,,,,,,,1,,,,,,,,,,,,
null,,color_black6,1158581,,,,,,,,black_plus_sign,,,null,,,,,,,,,,,,,,,,,,,,,,
null,,learn_phase(without_color)6,1162093,,,,,,,,black_plus_sign,,,null,object_12c.png,object_03c.png,,,,,,,,,,,,,,,,,,,,
null,,black_cross(without_color)6,1163117,,,,,,,,blue,,,null,object_12c.png,object_03c.png,,,,,,,,,,,,,,,,,,,,
402.19999980926514,,rt_plussign_withcolor6,1163621,,,,,,,,blue,,,49,object_12c.png,object_03c.png,,,,,,,,,,,,,,,,,,,,
null,,rt_thecrossant_black6,1164613,,,,,,,,black_plus_sign,,,null,,,1,,,,,,,1,,,,,,,,,,,,
null,,color_black6,1164717,,,,,,,,black_plus_sign,,,null,,,,,,,,,,,,,,,,,,,,,,
null,,learn_phase(without_color)6,1168228,,,,,,,,black_plus_sign,,,null,object_15a.png,object_11c.png,,,,,,,,,,,,,,,,,,,,
null,,black_cross(without_color)6,1169196,,,,,,,,blue,,,null,object_15a.png,object_11c.png,,,,,,,,,,,,,,,,,,,,
null,,rt_plussign_withcolor6,1169700,,,,,,,,blue,,,null,object_15a.png,object_11c.png,,,,,,,,,,,,,,,,,,,,
1285.4000000953674,,rt_thecrossant_black6,1170748,,,,,,,,black_plus_sign,,,49,,,1,,,,,,,1,,,,,,,,,,,,
null,,color_black6,1170852,,,,,,,,black_plus_sign,,,null,,,,,,,,,,,,,,,,,,,,,,
null,,learn_phase(without_color)6,1174356,,,,,,,,black_plus_sign,,,null,object_12b.png,object_08b.png,,,,,,,,,,,,,,,,,,,,
null,,black_cross(without_color)6,1174940,,,,,,,,green,,,null,object_12b.png,object_08b.png,,,,,,,,,,,,,,,,,,,,
null,,rt_plussign_withcolor6,1175444,,,,,,,,green,,,null,object_12b.png,object_08b.png,,,,,,,,,,,,,,,,,,,,
1196.9000000953674,,rt_thecrossant_black6,1176876,,,,,,,,black_plus_sign,,,50,,,1,,,,,,,1,,,,,,,,,,,,
null,,color_black6,1176980,,,,,,,,black_plus_sign,,,null,,,,,,,,,,,,,,,,,,,,,,
null,,learn_phase(without_color)6,1180485,,,,,,,,black_plus_sign,,,null,object_02b.png,object_15b.png,,,,,,,,,,,,,,,,,,,,
null,,black_cross(without_color)6,1181085,,,,,,,,blue,,,null,object_02b.png,object_15b.png,,,,,,,,,,,,,,,,,,,,
null,,rt_plussign_withcolor6,1181589,,,,,,,,blue,,,null,object_02b.png,object_15b.png,,,,,,,,,,,,,,,,,,,,
843.5,,rt_thecrossant_black6,1183005,,,,,,,,black_plus_sign,,,49,,,1,,,,,,,1,,,,,,,,,,,,
null,,color_black6,1183109,,,,,,,,black_plus_sign,,,null,,,,,,,,,,,,,,,,,,,,,,
null,,learn_phase(without_color)6,1186621,,,,,,,,black_plus_sign,,,null,object_15c.png,object_06b.png,,,,,,,,,,,,,,,,,,,,
null,,black_cross(without_color)6,1187173,,,,,,,,blue,,,null,object_15c.png,object_06b.png,,,,,,,,,,,,,,,,,,,,
null,,rt_plussign_withcolor6,1187677,,,,,,,,blue,,,null,object_15c.png,object_06b.png,,,,,,,,,,,,,,,,,,,,
1015.0999999046326,,rt_thecrossant_black6,1189141,,,,,,,,black_plus_sign,,,49,,,1,,,,,,,1,,,,,,,,,,,,
null,,color_black6,1189245,,,,,,,,black_plus_sign,,,null,,,,,,,,,,,,,,,,,,,,,,
null,,learn_phase(without_color)6,1192756,,,,,,,,black_plus_sign,,,null,object_05a.png,object_04c.png,,,,,,,,,,,,,,,,,,,,
null,,black_cross(without_color)6,1193484,,,,,,,,blue,,,null,object_05a.png,object_04c.png,,,,,,,,,,,,,,,,,,,,
null,,rt_plussign_withcolor6,1193988,,,,,,,,blue,,,null,object_05a.png,object_04c.png,,,,,,,,,,,,,,,,,,,,
825.9000000953674,,rt_thecrossant_black6,1195276,,,,,,,,black_plus_sign,,,49,,,1,,,,,,,1,,,,,,,,,,,,
null,,color_black6,1195380,,,,,,,,black_plus_sign,,,null,,,,,,,,,,,,,,,,,,,,,,
null,,learn_phase(without_color)6,1198884,,,,,,,,black_plus_sign,,,null,object_13a.png,object_10a.png,,,,,,,,,,,,,,,,,,,,
null,,black_cross(without_color)6,1199604,,,,,,,,green,,,null,object_13a.png,object_10a.png,,,,,,,,,,,,,,,,,,,,
null,,rt_plussign_withcolor6,1200109,,,,,,,,green,,,null,object_13a.png,object_10a.png,,,,,,,,,,,,,,,,,,,,
1043.9000000953674,,rt_thecrossant_black6,1201405,,,,,,,,black_plus_sign,,,50,,,1,,,,,,,1,,,,,,,,,,,,
null,,color_black6,1201509,,,,,,,,black_plus_sign,,,null,,,,,,,,,,,,,,,,,,,,,,
null,,learn_phase(without_color)6,1205013,,,,,,,,black_plus_sign,,,null,object_09c.png,object_07b.png,,,,,,,,,,,,,,,,,,,,
null,,black_cross(without_color)6,1205949,,,,,,,,green,,,null,object_09c.png,object_07b.png,,,,,,,,,,,,,,,,,,,,
null,,rt_plussign_withcolor6,1206454,,,,,,,,green,,,null,object_09c.png,object_07b.png,,,,,,,,,,,,,,,,,,,,
1142.8000001907349,,rt_thecrossant_black6,1207534,,,,,,,,black_plus_sign,,,50,,,1,,,,,,,1,,,,,,,,,,,,
null,,color_black6,1207638,,,,,,,,black_plus_sign,,,null,,,,,,,,,,,,,,,,,,,,,,
null,,thebreak,1207741,,,,,,,,<p></p>,,,null,,,,,,,,,,,,,,,,,,,,,,
1327.7999997138977,,intro_0,1209071,,,,,,,,instruct,,,32,,,,,,,,,,,,,,,,,,,,,,
3743,,directmemory_phase6,1212816,,,,,,,,object_11c.png,,,50,,,1,,object_05a.png,object_15a.png,object_02b.png,object_15a.png,,0.868421052631579,1,,,,,,,,,,,
1802.6999998092651,,directmemory_phase6,1214624,,,,,,,,object_03a.png,,,51,,,1,,object_09c.png,object_10b.png,object_01b.png,object_01b.png,,0.8701298701298701,1,,,,,,,,,,,
2090.7999997138977,,directmemory_phase6,1216720,,,,,,,,object_03c.png,,,50,,,1,,object_15a.png,object_12c.png,object_05b.png,object_12c.png,,0.8717948717948718,1,,,,,,,,,,,
4795.5,,directmemory_phase6,1221520,,,,,,,,object_15b.png,,,51,,,0,,object_02b.png,object_01b.png,object_15c.png,object_02b.png,,0.8607594936708861,0,,,,,,,,,,,
1835.5999999046326,,directmemory_phase6,1223360,,,,,,,,object_06b.png,,,51,,,1,,object_05b.png,object_04b.png,object_15c.png,object_15c.png,,0.8625,1,,,,,,,,,,,
2698.6000003814697,,directmemory_phase6,1226064,,,,,,,,object_01a.png,,,50,,,1,,object_12a.png,object_06c.png,object_04b.png,object_06c.png,,0.8641975308641975,1,,,,,,,,,,,
2330.800000190735,,directmemory_phase6,1228399,,,,,,,,object_08b.png,,,50,,,1,,object_12a.png,object_12b.png,object_02b.png,object_12b.png,,0.8658536585365854,1,,,,,,,,,,,
1595.1999998092651,,directmemory_phase6,1229999,,,,,,,,object_04c.png,,,51,,,1,,object_12a.png,object_06c.png,object_05a.png,object_05a.png,,0.8674698795180723,1,,,,,,,,,,,
2123.2999997138977,,directmemory_phase6,1232127,,,,,,,,object_14c.png,,,51,,,0,,object_04b.png,object_12a.png,object_13a.png,object_12a.png,,0.8571428571428571,0,,,,,,,,,,,
2364.0999999046326,,directmemory_phase6,1234496,,,,,,,,object_09a.png,,,51,,,1,,object_13a.png,object_15c.png,object_05b.png,object_05b.png,,0.8588235294117647,1,,,,,,,,,,,
2234.5,,directmemory_phase6,1236735,,,,,,,,object_10a.png,,,51,,,1,,object_12a.png,object_05b.png,object_13a.png,object_13a.png,,0.8604651162790697,1,,,,,,,,,,,
1595,,directmemory_phase6,1238335,,,,,,,,object_14b.png,,,50,,,1,,object_12c.png,object_04b.png,object_06c.png,object_04b.png,,0.8620689655172413,1,,,,,,,,,,,
2282.7999997138977,,directmemory_phase6,1240623,,,,,,,,object_07a.png,,,51,,,1,,object_05b.png,object_15a.png,object_02a.png,object_02a.png,,0.8636363636363636,1,,,,,,,,,,,
1803.3000001907349,,directmemory_phase6,1242431,,,,,,,,object_07b.png,,,51,,,1,,object_12a.png,object_02b.png,object_09c.png,object_09c.png,,0.8651685393258427,1,,,,,,,,,,,
1819,,directmemory_phase6,1244255,,,,,,,,object_13b.png,,,49,,,1,,object_10b.png,object_13a.png,object_06c.png,object_10b.png,,0.8666666666666667,1,,,,,,,,,,,
null,,thebreak,1244365,,,,,,,,<p></p>,,,null,,,,,,,,,,,,,,,,,,,,,,
1520.2000002861023,,intro_0,1245888,,,,,,,,instruct,,,32,,,,,,,,,,,,,,,,,,,,,,
null,,learn_phase(without_color)7,1249397,,,,,,,,black_plus_sign,,,null,object_05a.png,object_04c.png,,,,,,,,,,,,,,,,,,,,
null,,black_cross(without_color)7,1250101,,,,,,,,blue,,,null,object_05a.png,object_04c.png,,,,,,,,,,,,,,,,,,,,
439.90000009536743,,rt_plussign_withcolor7,1250605,,,,,,,,blue,,,49,object_05a.png,object_04c.png,,,,,,,,,,,,,,,,,,,,
null,,rt_thecrossant_black7,1251917,,,,,,,,black_plus_sign,,,null,,,1,,,,,,,1,,,,,,,,,,,,
null,,color_black7,1252021,,,,,,,,black_plus_sign,,,null,,,,,,,,,,,,,,,,,,,,,,
null,,learn_phase(without_color)7,1255525,,,,,,,,black_plus_sign,,,null,object_01b.png,object_03a.png,,,,,,,,,,,,,,,,,,,,
null,,black_cross(without_color)7,1255981,,,,,,,,blue,,,null,object_01b.png,object_03a.png,,,,,,,,,,,,,,,,,,,,
null,,rt_plussign_withcolor7,1256485,,,,,,,,blue,,,null,object_01b.png,object_03a.png,,,,,,,,,,,,,,,,,,,,
1120.5,,rt_thecrossant_black7,1258046,,,,,,,,black_plus_sign,,,49,,,1,,,,,,,1,,,,,,,,,,,,
null,,color_black7,1258149,,,,,,,,black_plus_sign,,,null,,,,,,,,,,,,,,,,,,,,,,
null,,learn_phase(without_color)7,1261655,,,,,,,,black_plus_sign,,,null,object_06c.png,object_01a.png,,,,,,,,,,,,,,,,,,,,
null,,black_cross(without_color)7,1262335,,,,,,,,blue,,,null,object_06c.png,object_01a.png,,,,,,,,,,,,,,,,,,,,
null,,rt_plussign_withcolor7,1262839,,,,,,,,blue,,,null,object_06c.png,object_01a.png,,,,,,,,,,,,,,,,,,,,
664.5999999046326,,rt_thecrossant_black7,1264174,,,,,,,,black_plus_sign,,,49,,,1,,,,,,,1,,,,,,,,,,,,
null,,color_black7,1264278,,,,,,,,black_plus_sign,,,null,,,,,,,,,,,,,,,,,,,,,,
null,,learn_phase(without_color)7,1267782,,,,,,,,black_plus_sign,,,null,object_05b.png,object_09a.png,,,,,,,,,,,,,,,,,,,,
null,,black_cross(without_color)7,1268502,,,,,,,,green,,,null,object_05b.png,object_09a.png,,,,,,,,,,,,,,,,,,,,
null,,rt_plussign_withcolor7,1269006,,,,,,,,green,,,null,object_05b.png,object_09a.png,,,,,,,,,,,,,,,,,,,,
1111.0999999046326,,rt_thecrossant_black7,1270294,,,,,,,,black_plus_sign,,,50,,,1,,,,,,,1,,,,,,,,,,,,
null,,color_black7,1270398,,,,,,,,black_plus_sign,,,null,,,,,,,,,,,,,,,,,,,,,,
null,,learn_phase(without_color)7,1273903,,,,,,,,black_plus_sign,,,null,object_12a.png,object_14c.png,,,,,,,,,,,,,,,,,,,,
null,,black_cross(without_color)7,1274823,,,,,,,,green,,,null,object_12a.png,object_14c.png,,,,,,,,,,,,,,,,,,,,
423.30000019073486,,rt_plussign_withcolor7,1275327,,,,,,,,green,,,50,object_12a.png,object_14c.png,,,,,,,,,,,,,,,,,,,,
null,,rt_thecrossant_black7,1276423,,,,,,,,black_plus_sign,,,null,,,1,,,,,,,1,,,,,,,,,,,,
null,,color_black7,1276527,,,,,,,,black_plus_sign,,,null,,,,,,,,,,,,,,,,,,,,,,
null,,learn_phase(without_color)7,1280031,,,,,,,,black_plus_sign,,,null,object_15c.png,object_06b.png,,,,,,,,,,,,,,,,,,,,
null,,black_cross(without_color)7,1281015,,,,,,,,blue,,,null,object_15c.png,object_06b.png,,,,,,,,,,,,,,,,,,,,
null,,rt_plussign_withcolor7,1281519,,,,,,,,blue,,,null,object_15c.png,object_06b.png,,,,,,,,,,,,,,,,,,,,
1077.0999999046326,,rt_thecrossant_black7,1282551,,,,,,,,black_plus_sign,,,49,,,1,,,,,,,1,,,,,,,,,,,,
null,,color_black7,1282655,,,,,,,,black_plus_sign,,,null,,,,,,,,,,,,,,,,,,,,,,
null,,learn_phase(without_color)7,1286161,,,,,,,,black_plus_sign,,,null,object_04b.png,object_14b.png,,,,,,,,,,,,,,,,,,,,
null,,black_cross(without_color)7,1287031,,,,,,,,blue,,,null,object_04b.png,object_14b.png,,,,,,,,,,,,,,,,,,,,
null,,rt_plussign_withcolor7,1287535,,,,,,,,blue,,,null,object_04b.png,object_14b.png,,,,,,,,,,,,,,,,,,,,
1218.6999998092651,,rt_thecrossant_black7,1288687,,,,,,,,black_plus_sign,,,49,,,1,,,,,,,1,,,,,,,,,,,,
null,,color_black7,1288790,,,,,,,,black_plus_sign,,,null,,,,,,,,,,,,,,,,,,,,,,
null,,learn_phase(without_color)7,1292294,,,,,,,,black_plus_sign,,,null,object_15a.png,object_11c.png,,,,,,,,,,,,,,,,,,,,
null,,black_cross(without_color)7,1293118,,,,,,,,green,,,null,object_15a.png,object_11c.png,,,,,,,,,,,,,,,,,,,,
null,,rt_plussign_withcolor7,1293622,,,,,,,,green,,,null,object_15a.png,object_11c.png,,,,,,,,,,,,,,,,,,,,
1013,,rt_thecrossant_black7,1294806,,,,,,,,black_plus_sign,,,49,,,0,,,,,,,0.875,,,,,,,,,,,,
null,,warning_page,1299815,,,,,,,,warning,,,null,,,,,,,,,,,,,,,,,,,,,,
null,,color_black7,1299919,,,,,,,,black_plus_sign,,,null,,,,,,,,,,,,,,,,,,,,,,
null,,learn_phase(without_color)7,1303431,,,,,,,,black_plus_sign,,,null,object_12b.png,object_08b.png,,,,,,,,,,,,,,,,,,,,
null,,black_cross(without_color)7,1304151,,,,,,,,green,,,null,object_12b.png,object_08b.png,,,,,,,,,,,,,,,,,,,,
null,,rt_plussign_withcolor7,1304655,,,,,,,,green,,,null,object_12b.png,object_08b.png,,,,,,,,,,,,,,,,,,,,
1205.7000002861023,,rt_thecrossant_black7,1305943,,,,,,,,black_plus_sign,,,50,,,1,,,,,,,0.8888888888888888,,,,,,,,,,,,
null,,color_black7,1306047,,,,,,,,black_plus_sign,,,null,,,,,,,,,,,,,,,,,,,,,,
null,,learn_phase(without_color)7,1309551,,,,,,,,black_plus_sign,,,null,object_02a.png,object_07a.png,,,,,,,,,,,,,,,,,,,,
null,,black_cross(without_color)7,1310615,,,,,,,,blue,,,null,object_02a.png,object_07a.png,,,,,,,,,,,,,,,,,,,,
null,,rt_plussign_withcolor7,1311119,,,,,,,,blue,,,null,object_02a.png,object_07a.png,,,,,,,,,,,,,,,,,,,,
829,,rt_thecrossant_black7,1312071,,,,,,,,black_plus_sign,,,49,,,1,,,,,,,0.9,,,,,,,,,,,,
null,,color_black7,1312175,,,,,,,,black_plus_sign,,,null,,,,,,,,,,,,,,,,,,,,,,
null,,learn_phase(without_color)7,1315686,,,,,,,,black_plus_sign,,,null,object_12c.png,object_03c.png,,,,,,,,,,,,,,,,,,,,
null,,black_cross(without_color)7,1316686,,,,,,,,green,,,null,object_12c.png,object_03c.png,,,,,,,,,,,,,,,,,,,,
null,,rt_plussign_withcolor7,1317191,,,,,,,,green,,,null,object_12c.png,object_03c.png,,,,,,,,,,,,,,,,,,,,
1197.9000000953674,,rt_thecrossant_black7,1318207,,,,,,,,black_plus_sign,,,50,,,1,,,,,,,0.9090909090909091,,,,,,,,,,,,
null,,color_black7,1318311,,,,,,,,black_plus_sign,,,null,,,,,,,,,,,,,,,,,,,,,,
null,,learn_phase(without_color)7,1321815,,,,,,,,black_plus_sign,,,null,object_02b.png,object_15b.png,,,,,,,,,,,,,,,,,,,,
null,,black_cross(without_color)7,1322879,,,,,,,,blue,,,null,object_02b.png,object_15b.png,,,,,,,,,,,,,,,,,,,,
null,,rt_plussign_withcolor7,1323383,,,,,,,,blue,,,null,object_02b.png,object_15b.png,,,,,,,,,,,,,,,,,,,,
1159.0999999046326,,rt_thecrossant_black7,1324335,,,,,,,,black_plus_sign,,,49,,,1,,,,,,,0.9166666666666666,,,,,,,,,,,,
null,,color_black7,1324439,,,,,,,,black_plus_sign,,,null,,,,,,,,,,,,,,,,,,,,,,
null,,learn_phase(without_color)7,1327951,,,,,,,,black_plus_sign,,,null,object_13a.png,object_10a.png,,,,,,,,,,,,,,,,,,,,
null,,black_cross(without_color)7,1328519,,,,,,,,green,,,null,object_13a.png,object_10a.png,,,,,,,,,,,,,,,,,,,,
null,,rt_plussign_withcolor7,1329024,,,,,,,,green,,,null,object_13a.png,object_10a.png,,,,,,,,,,,,,,,,,,,,
1538,,rt_thecrossant_black7,1330472,,,,,,,,black_plus_sign,,,50,,,1,,,,,,,0.9230769230769231,,,,,,,,,,,,
null,,color_black7,1330576,,,,,,,,black_plus_sign,,,null,,,,,,,,,,,,,,,,,,,,,,
null,,learn_phase(without_color)7,1334088,,,,,,,,black_plus_sign,,,null,object_09c.png,object_07b.png,,,,,,,,,,,,,,,,,,,,
null,,black_cross(without_color)7,1335168,,,,,,,,blue,,,null,object_09c.png,object_07b.png,,,,,,,,,,,,,,,,,,,,
461.5,,rt_plussign_withcolor7,1335672,,,,,,,,blue,,,49,object_09c.png,object_07b.png,,,,,,,,,,,,,,,,,,,,
null,,rt_thecrossant_black7,1336608,,,,,,,,black_plus_sign,,,null,,,1,,,,,,,0.9285714285714286,,,,,,,,,,,,
null,,color_black7,1336712,,,,,,,,black_plus_sign,,,null,,,,,,,,,,,,,,,,,,,,,,
null,,learn_phase(without_color)7,1340223,,,,,,,,black_plus_sign,,,null,object_10b.png,object_13b.png,,,,,,,,,,,,,,,,,,,,
null,,black_cross(without_color)7,1340815,,,,,,,,blue,,,null,object_10b.png,object_13b.png,,,,,,,,,,,,,,,,,,,,
null,,rt_plussign_withcolor7,1341319,,,,,,,,blue,,,null,object_10b.png,object_13b.png,,,,,,,,,,,,,,,,,,,,
1274.8999996185303,,rt_thecrossant_black7,1342743,,,,,,,,black_plus_sign,,,49,,,1,,,,,,,0.9333333333333333,,,,,,,,,,,,
null,,color_black7,1342847,,,,,,,,black_plus_sign,,,null,,,,,,,,,,,,,,,,,,,,,,
null,,thebreak,1342951,,,,,,,,<p></p>,,,null,,,,,,,,,,,,,,,,,,,,,,
2245.1000003814697,,intro_0,1345199,,,,,,,,instruct,,,32,,,,,,,,,,,,,,,,,,,,,,
2892.699999809265,,directmemory_phase7,1348095,,,,,,,,object_03a.png,,,49,,,1,,object_01b.png,object_10b.png,object_13a.png,object_01b.png,,0.8681318681318682,1,,,,,,,,,,,
1482.8000001907349,,directmemory_phase7,1349583,,,,,,,,object_14b.png,,,49,,,1,,object_04b.png,object_05b.png,object_02b.png,object_04b.png,,0.8695652173913043,1,,,,,,,,,,,
1947.5,,directmemory_phase7,1351535,,,,,,,,object_08b.png,,,51,,,1,,object_06c.png,object_09c.png,object_12b.png,object_12b.png,,0.8709677419354839,1,,,,,,,,,,,
1402.6999998092651,,directmemory_phase7,1352942,,,,,,,,object_07a.png,,,51,,,1,,object_12a.png,object_10b.png,object_02a.png,object_02a.png,,0.8723404255319149,1,,,,,,,,,,,
1531,,directmemory_phase7,1354478,,,,,,,,object_07b.png,,,49,,,1,,object_09c.png,object_15a.png,object_06c.png,object_09c.png,,0.8736842105263158,1,,,,,,,,,,,
3179.4000000953674,,directmemory_phase7,1357663,,,,,,,,object_09a.png,,,50,,,1,,object_15a.png,object_05b.png,object_15c.png,object_05b.png,,0.875,1,,,,,,,,,,,
3402.7999997138977,,directmemory_phase7,1361071,,,,,,,,object_14c.png,,,50,,,1,,object_05a.png,object_12a.png,object_02b.png,object_12a.png,,0.8762886597938144,1,,,,,,,,,,,
2651.800000190735,,directmemory_phase7,1363727,,,,,,,,object_15b.png,,,50,,,1,,object_04b.png,object_02b.png,object_05b.png,object_02b.png,,0.8775510204081632,1,,,,,,,,,,,
1994.0999999046326,,directmemory_phase7,1365726,,,,,,,,object_01a.png,,,51,,,1,,object_01b.png,object_05b.png,object_06c.png,object_06c.png,,0.8787878787878788,1,,,,,,,,,,,
1371,,directmemory_phase7,1367102,,,,,,,,object_11c.png,,,51,,,1,,object_09c.png,object_02b.png,object_15a.png,object_15a.png,,0.88,1,,,,,,,,,,,
1706.6999998092651,,directmemory_phase7,1368814,,,,,,,,object_04c.png,,,51,,,1,,object_12a.png,object_10b.png,object_05a.png,object_05a.png,,0.8811881188118812,1,,,,,,,,,,,
1962.8999996185303,,directmemory_phase7,1370782,,,,,,,,object_10a.png,,,50,,,1,,object_02a.png,object_13a.png,object_12c.png,object_13a.png,,0.8823529411764706,1,,,,,,,,,,,
1467.1000003814697,,directmemory_phase7,1372254,,,,,,,,object_03c.png,,,50,,,1,,object_02a.png,object_12c.png,object_01b.png,object_12c.png,,0.883495145631068,1,,,,,,,,,,,
2123.699999809265,,directmemory_phase7,1374383,,,,,,,,object_13b.png,,,51,,,1,,object_15c.png,object_02a.png,object_10b.png,object_10b.png,,0.8846153846153846,1,,,,,,,,,,,
1610,,directmemory_phase7,1375998,,,,,,,,object_06b.png,,,49,,,1,,object_15c.png,object_05b.png,object_06c.png,object_15c.png,,0.8857142857142857,1,,,,,,,,,,,
null,,thebreak,1376103,,,,,,,,<p></p>,,,null,,,,,,,,,,,,,,,,,,,,,,
1476.0999999046326,,intro_0,1377582,,,,,,,,instruct,,,32,,,,,,,,,,,,,,,,,,,,,,
null,,learn_phase(without_color)8,1381088,,,,,,,,black_plus_sign,,,null,object_04b.png,object_14b.png,,,,,,,,,,,,,,,,,,,,
null,,black_cross(without_color)8,1381826,,,,,,,,green,,,null,object_04b.png,object_14b.png,,,,,,,,,,,,,,,,,,,,
null,,rt_plussign_withcolor8,1382330,,,,,,,,green,,,null,object_04b.png,object_14b.png,,,,,,,,,,,,,,,,,,,,
1075.5999999046326,,rt_thecrossant_black8,1383602,,,,,,,,black_plus_sign,,,50,,,1,,,,,,,1,,,,,,,,,,,,
null,,color_black8,1383706,,,,,,,,black_plus_sign,,,null,,,,,,,,,,,,,,,,,,,,,,
null,,learn_phase(without_color)8,1387217,,,,,,,,black_plus_sign,,,null,object_02a.png,object_07a.png,,,,,,,,,,,,,,,,,,,,
null,,black_cross(without_color)8,1387689,,,,,,,,blue,,,null,object_02a.png,object_07a.png,,,,,,,,,,,,,,,,,,,,
null,,rt_plussign_withcolor8,1388193,,,,,,,,blue,,,null,object_02a.png,object_07a.png,,,,,,,,,,,,,,,,,,,,
1309.2999997138977,,rt_thecrossant_black8,1389737,,,,,,,,black_plus_sign,,,49,,,1,,,,,,,1,,,,,,,,,,,,
null,,color_black8,1389841,,,,,,,,black_plus_sign,,,null,,,,,,,,,,,,,,,,,,,,,,
null,,learn_phase(without_color)8,1393345,,,,,,,,black_plus_sign,,,null,object_12b.png,object_08b.png,,,,,,,,,,,,,,,,,,,,
null,,black_cross(without_color)8,1394041,,,,,,,,blue,,,null,object_12b.png,object_08b.png,,,,,,,,,,,,,,,,,,,,
null,,rt_plussign_withcolor8,1394545,,,,,,,,blue,,,null,object_12b.png,object_08b.png,,,,,,,,,,,,,,,,,,,,
818.2000002861023,,rt_thecrossant_black8,1395865,,,,,,,,black_plus_sign,,,49,,,1,,,,,,,1,,,,,,,,,,,,
null,,color_black8,1395969,,,,,,,,black_plus_sign,,,null,,,,,,,,,,,,,,,,,,,,,,
null,,learn_phase(without_color)8,1399473,,,,,,,,black_plus_sign,,,null,object_05a.png,object_04c.png,,,,,,,,,,,,,,,,,,,,
null,,black_cross(without_color)8,1400345,,,,,,,,green,,,null,object_05a.png,object_04c.png,,,,,,,,,,,,,,,,,,,,
437,,rt_plussign_withcolor8,1400849,,,,,,,,green,,,50,object_05a.png,object_04c.png,,,,,,,,,,,,,,,,,,,,
null,,rt_thecrossant_black8,1401993,,,,,,,,black_plus_sign,,,null,,,1,,,,,,,1,,,,,,,,,,,,
null,,color_black8,1402097,,,,,,,,black_plus_sign,,,null,,,,,,,,,,,,,,,,,,,,,,
null,,learn_phase(without_color)8,1405609,,,,,,,,black_plus_sign,,,null,object_12a.png,object_14c.png,,,,,,,,,,,,,,,,,,,,
null,,black_cross(without_color)8,1406401,,,,,,,,green,,,null,object_12a.png,object_14c.png,,,,,,,,,,,,,,,,,,,,
null,,rt_plussign_withcolor8,1406905,,,,,,,,green,,,null,object_12a.png,object_14c.png,,,,,,,,,,,,,,,,,,,,
1364.0999999046326,,rt_thecrossant_black8,1408129,,,,,,,,black_plus_sign,,,50,,,1,,,,,,,1,,,,,,,,,,,,
null,,color_black8,1408234,,,,,,,,black_plus_sign,,,null,,,,,,,,,,,,,,,,,,,,,,
null,,learn_phase(without_color)8,1411745,,,,,,,,black_plus_sign,,,null,object_06c.png,object_01a.png,,,,,,,,,,,,,,,,,,,,
null,,black_cross(without_color)8,1412241,,,,,,,,green,,,null,object_06c.png,object_01a.png,,,,,,,,,,,,,,,,,,,,
null,,rt_plussign_withcolor8,1412745,,,,,,,,green,,,null,object_06c.png,object_01a.png,,,,,,,,,,,,,,,,,,,,
1497.8000001907349,,rt_thecrossant_black8,1414265,,,,,,,,black_plus_sign,,,50,,,1,,,,,,,1,,,,,,,,,,,,
null,,color_black8,1414369,,,,,,,,black_plus_sign,,,null,,,,,,,,,,,,,,,,,,,,,,
null,,learn_phase(without_color)8,1417873,,,,,,,,black_plus_sign,,,null,object_15c.png,object_06b.png,,,,,,,,,,,,,,,,,,,,
null,,black_cross(without_color)8,1418673,,,,,,,,blue,,,null,object_15c.png,object_06b.png,,,,,,,,,,,,,,,,,,,,
null,,rt_plussign_withcolor8,1419177,,,,,,,,blue,,,null,object_15c.png,object_06b.png,,,,,,,,,,,,,,,,,,,,
753.3999996185303,,rt_thecrossant_black8,1420393,,,,,,,,black_plus_sign,,,49,,,1,,,,,,,1,,,,,,,,,,,,
null,,color_black8,1420497,,,,,,,,black_plus_sign,,,null,,,,,,,,,,,,,,,,,,,,,,
null,,learn_phase(without_color)8,1424001,,,,,,,,black_plus_sign,,,null,object_10b.png,object_13b.png,,,,,,,,,,,,,,,,,,,,
null,,black_cross(without_color)8,1424833,,,,,,,,green,,,null,object_10b.png,object_13b.png,,,,,,,,,,,,,,,,,,,,
null,,rt_plussign_withcolor8,1425337,,,,,,,,green,,,null,object_10b.png,object_13b.png,,,,,,,,,,,,,,,,,,,,
925.9000000953674,,rt_thecrossant_black8,1426521,,,,,,,,black_plus_sign,,,50,,,1,,,,,,,1,,,,,,,,,,,,
null,,color_black8,1426625,,,,,,,,black_plus_sign,,,null,,,,,,,,,,,,,,,,,,,,,,
null,,learn_phase(without_color)8,1430137,,,,,,,,black_plus_sign,,,null,object_01b.png,object_03a.png,,,,,,,,,,,,,,,,,,,,
null,,black_cross(without_color)8,1430953,,,,,,,,blue,,,null,object_01b.png,object_03a.png,,,,,,,,,,,,,,,,,,,,
null,,rt_plussign_withcolor8,1431458,,,,,,,,blue,,,null,object_01b.png,object_03a.png,,,,,,,,,,,,,,,,,,,,
1107.5,,rt_thecrossant_black8,1432657,,,,,,,,black_plus_sign,,,49,,,1,,,,,,,1,,,,,,,,,,,,
null,,color_black8,1432762,,,,,,,,black_plus_sign,,,null,,,,,,,,,,,,,,,,,,,,,,
null,,learn_phase(without_color)8,1436273,,,,,,,,black_plus_sign,,,null,object_12c.png,object_03c.png,,,,,,,,,,,,,,,,,,,,
null,,black_cross(without_color)8,1436729,,,,,,,,green,,,null,object_12c.png,object_03c.png,,,,,,,,,,,,,,,,,,,,
null,,rt_plussign_withcolor8,1437233,,,,,,,,green,,,null,object_12c.png,object_03c.png,,,,,,,,,,,,,,,,,,,,
1305.9000000953674,,rt_thecrossant_black8,1438793,,,,,,,,black_plus_sign,,,50,,,1,,,,,,,1,,,,,,,,,,,,
null,,color_black8,1438896,,,,,,,,black_plus_sign,,,null,,,,,,,,,,,,,,,,,,,,,,
null,,learn_phase(without_color)8,1442401,,,,,,,,black_plus_sign,,,null,object_15a.png,object_11c.png,,,,,,,,,,,,,,,,,,,,
null,,black_cross(without_color)8,1443313,,,,,,,,blue,,,null,object_15a.png,object_11c.png,,,,,,,,,,,,,,,,,,,,
475.30000019073486,,rt_plussign_withcolor8,1443818,,,,,,,,blue,,,49,object_15a.png,object_11c.png,,,,,,,,,,,,,,,,,,,,
null,,rt_thecrossant_black8,1444914,,,,,,,,black_plus_sign,,,null,,,1,,,,,,,1,,,,,,,,,,,,
null,,color_black8,1445018,,,,,,,,black_plus_sign,,,null,,,,,,,,,,,,,,,,,,,,,,
null,,learn_phase(without_color)8,1448522,,,,,,,,black_plus_sign,,,null,object_09c.png,object_07b.png,,,,,,,,,,,,,,,,,,,,
null,,black_cross(without_color)8,1449570,,,,,,,,blue,,,null,object_09c.png,object_07b.png,,,,,,,,,,,,,,,,,,,,
null,,rt_plussign_withcolor8,1450074,,,,,,,,blue,,,null,object_09c.png,object_07b.png,,,,,,,,,,,,,,,,,,,,
1506.7999997138977,,rt_thecrossant_black8,1451042,,,,,,,,black_plus_sign,,,49,,,1,,,,,,,1,,,,,,,,,,,,
null,,color_black8,1451146,,,,,,,,black_plus_sign,,,null,,,,,,,,,,,,,,,,,,,,,,
null,,learn_phase(without_color)8,1454657,,,,,,,,black_plus_sign,,,null,object_02b.png,object_15b.png,,,,,,,,,,,,,,,,,,,,
null,,black_cross(without_color)8,1455554,,,,,,,,green,,,null,object_02b.png,object_15b.png,,,,,,,,,,,,,,,,,,,,
null,,rt_plussign_withcolor8,1456058,,,,,,,,green,,,null,object_02b.png,object_15b.png,,,,,,,,,,,,,,,,,,,,
1145.0999999046326,,rt_thecrossant_black8,1457177,,,,,,,,black_plus_sign,,,50,,,1,,,,,,,1,,,,,,,,,,,,
null,,color_black8,1457282,,,,,,,,black_plus_sign,,,null,,,,,,,,,,,,,,,,,,,,,,
null,,learn_phase(without_color)8,1460792,,,,,,,,black_plus_sign,,,null,object_13a.png,object_10a.png,,,,,,,,,,,,,,,,,,,,
null,,black_cross(without_color)8,1461217,,,,,,,,green,,,null,object_13a.png,object_10a.png,,,,,,,,,,,,,,,,,,,,
null,,rt_plussign_withcolor8,1461721,,,,,,,,green,,,null,object_13a.png,object_10a.png,,,,,,,,,,,,,,,,,,,,
1105.9000000953674,,rt_thecrossant_black8,1463313,,,,,,,,black_plus_sign,,,50,,,1,,,,,,,1,,,,,,,,,,,,
null,,color_black8,1463418,,,,,,,,black_plus_sign,,,null,,,,,,,,,,,,,,,,,,,,,,
null,,learn_phase(without_color)8,1466922,,,,,,,,black_plus_sign,,,null,object_05b.png,object_09a.png,,,,,,,,,,,,,,,,,,,,
null,,black_cross(without_color)8,1467353,,,,,,,,blue,,,null,object_05b.png,object_09a.png,,,,,,,,,,,,,,,,,,,,
null,,rt_plussign_withcolor8,1467858,,,,,,,,blue,,,null,object_05b.png,object_09a.png,,,,,,,,,,,,,,,,,,,,
781.9000000953674,,rt_thecrossant_black8,1469442,,,,,,,,black_plus_sign,,,49,,,1,,,,,,,1,,,,,,,,,,,,
null,,color_black8,1469546,,,,,,,,black_plus_sign,,,null,,,,,,,,,,,,,,,,,,,,,,
null,,thebreak,1469650,,,,,,,,<p></p>,,,null,,,,,,,,,,,,,,,,,,,,,,
2137.7000002861023,,intro_0,1471790,,,,,,,,instruct,,,32,,,,,,,,,,,,,,,,,,,,,,
3357.9000000953674,,directmemory_phase8,1475151,,,,,,,,object_15b.png,,,51,,,1,,object_09c.png,object_12a.png,object_02b.png,object_02b.png,,0.8867924528301887,1,,,,,,,,,,,
1577.5999999046326,,directmemory_phase8,1476734,,,,,,,,object_13b.png,,,50,,,1,,object_15c.png,object_10b.png,object_15a.png,object_10b.png,,0.8878504672897196,1,,,,,,,,,,,
1818.9000000953674,,directmemory_phase8,1478558,,,,,,,,object_01a.png,,,50,,,1,,object_10b.png,object_06c.png,object_05b.png,object_06c.png,,0.8888888888888888,1,,,,,,,,,,,
1323.0999999046326,,directmemory_phase8,1479886,,,,,,,,object_11c.png,,,49,,,1,,object_15a.png,object_09c.png,object_05b.png,object_15a.png,,0.8899082568807339,1,,,,,,,,,,,
1882.8999996185303,,directmemory_phase8,1481774,,,,,,,,object_14c.png,,,51,,,1,,object_05a.png,object_05b.png,object_12a.png,object_12a.png,,0.8909090909090909,1,,,,,,,,,,,
2122.800000190735,,directmemory_phase8,1483902,,,,,,,,object_07a.png,,,49,,,1,,object_02a.png,object_13a.png,object_09c.png,object_02a.png,,0.8918918918918919,1,,,,,,,,,,,
1757.3000001907349,,directmemory_phase8,1485662,,,,,,,,object_04c.png,,,51,,,1,,object_02b.png,object_05b.png,object_05a.png,object_05a.png,,0.8928571428571429,1,,,,,,,,,,,
1500.8000001907349,,directmemory_phase8,1487166,,,,,,,,object_06b.png,,,50,,,1,,object_02a.png,object_15c.png,object_15a.png,object_15c.png,,0.8938053097345132,1,,,,,,,,,,,
1402.6999998092651,,directmemory_phase8,1488574,,,,,,,,object_08b.png,,,49,,,1,,object_12b.png,object_02a.png,object_04b.png,object_12b.png,,0.8947368421052632,1,,,,,,,,,,,
1835,,directmemory_phase8,1490414,,,,,,,,object_03c.png,,,51,,,1,,object_15a.png,object_12a.png,object_12c.png,object_12c.png,,0.8956521739130435,1,,,,,,,,,,,
1338.8000001907349,,directmemory_phase8,1491758,,,,,,,,object_14b.png,,,51,,,1,,object_02a.png,object_15a.png,object_04b.png,object_04b.png,,0.896551724137931,1,,,,,,,,,,,
1851.0999999046326,,directmemory_phase8,1493614,,,,,,,,object_03a.png,,,51,,,1,,object_12a.png,object_02b.png,object_01b.png,object_01b.png,,0.8974358974358975,1,,,,,,,,,,,
1402.9000000953674,,directmemory_phase8,1495022,,,,,,,,object_07b.png,,,49,,,1,,object_09c.png,object_02a.png,object_15c.png,object_09c.png,,0.8983050847457628,1,,,,,,,,,,,
2779.5999999046326,,directmemory_phase8,1497806,,,,,,,,object_09a.png,,,51,,,1,,object_02b.png,object_13a.png,object_05b.png,object_05b.png,,0.8991596638655462,1,,,,,,,,,,,
1194.0999999046326,,directmemory_phase8,1499005,,,,,,,,object_10a.png,,,49,,,1,,object_13a.png,object_06c.png,object_05a.png,object_13a.png,,0.9,1,,,,,,,,,,,
null,,thebreak,1499114,,,,,,,,<p></p>,,,null,,,,,,,,,,,,,,,,,,,,,,
8688.89999961853,,intro_0,1507807,,,,,,,,instruct,,,32,,,,,,,,,,,,,,,,,,,,,,
21182.099999904633,,intro_1,1528991,,,,,,,,instruct,,,32,,,,,,,,,,,,,,,,,,,,,,
7500.700000286102,,intro_2,1536494,,,,,,,,instruct,,,32,,,,,,,,,,,,,,,,,,,,,,
,,intro_3,1558880,,,,,,,,instruct,,,,,,,,,,,,,,,,,,,,,,,,,
11421.400000095367,,intro_4,1570304,,,,,,,,instruct,,,32,,,,,,,,,,,,,,,,,,,,,,
2794.2999997138977,,inference_phase,1573102,,,,,,,,object_03a.png,,,51,object_04a.png,object_13c.png,0,,,,,object_04a.png,,0,,object_02c.png,,,,,,,,,,
4042.7999997138977,,inference_phase,1577150,,,,,,,,object_14c.png,,,49,object_09b.png,object_10c.png,0,,,,,object_10c.png,,0,,object_07c.png,,,,,,,,,,
2731,,inference_phase,1579886,,,,,,,,object_11c.png,,,49,object_08a.png,object_02c.png,0,,,,,object_01c.png,,0,,object_01c.png,,,,,,,,,,
4572.5,,inference_phase,1584463,,,,,,,,object_01a.png,,,51,object_11a.png,object_08c.png,0,,,,,object_11a.png,,0,,object_06a.png,,,,,,,,,,
3706.1000003814697,,inference_phase,1588174,,,,,,,,object_07b.png,,,49,object_03b.png,object_02c.png,0,,,,,object_02c.png,,0,,object_10c.png,,,,,,,,,,
4539.60000038147,,inference_phase,1592718,,,,,,,,object_14b.png,,,50,object_11a.png,object_06a.png,0,,,,,object_06a.png,,0,,object_05c.png,,,,,,,,,,
3628.199999809265,,inference_phase,1596351,,,,,,,,object_10a.png,,,50,object_04a.png,object_01c.png,1,,,,,object_13c.png,,0.14285714285714285,,object_13c.png,,,,,,,,,,
3754.5,,inference_phase,1600109,,,,,,,,object_13b.png,,,49,object_14a.png,object_08a.png,1,,,,,object_14a.png,,0.25,,object_03b.png,,,,,,,,,,
4267.400000095367,,inference_phase,1604382,,,,,,,,object_03c.png,,,50,object_05c.png,object_10c.png,0,,,,,object_05c.png,,0.2222222222222222,,object_09b.png,,,,,,,,,,
2220,,inference_phase,1606606,,,,,,,,object_15b.png,,,51,object_08a.png,object_14a.png,0,,,,,object_08a.png,,0.2,,object_13c.png,,,,,,,,,,
3034.2999997138977,,inference_phase,1609645,,,,,,,,object_07a.png,,,49,object_07c.png,object_14a.png,0,,,,,object_08c.png,,0.18181818181818182,,object_08c.png,,,,,,,,,,
1979.8000001907349,,inference_phase,1611629,,,,,,,,object_08b.png,,,51,object_11b.png,object_06a.png,0,,,,,object_11b.png,,0.16666666666666666,,object_03b.png,,,,,,,,,,
3211.3999996185303,,inference_phase,1614845,,,,,,,,object_06b.png,,,49,object_03b.png,object_07c.png,1,,,,,object_03b.png,,0.23076923076923078,,object_05c.png,,,,,,,,,,
3147.7999997138977,,inference_phase,1617998,,,,,,,,object_09a.png,,,51,object_08a.png,object_09b.png,1,,,,,object_09b.png,,0.2857142857142857,,object_13c.png,,,,,,,,,,
3178.7999997138977,,inference_phase,1621181,,,,,,,,object_04c.png,,,49,object_07c.png,object_01c.png,1,,,,,object_07c.png,,0.3333333333333333,,object_11a.png,,,,,,,,,,
,,survey,1743615,,,,,,,,survey-questions,,,,,,,,,,,,,,,,none,high,No.,Made up phrases and tried to relate commonalities.,Yes. Some like the jewel toned shapes stood out to me as a pair.,No.,It was quite enjoyable.,,,
14349.400000095367,,thank_you,1758076,,,,,,,,<p> Congratulations, you are all done!</p><p> <strong>Please click space on your keyboard to end the experiment!</strong> The secret code to enter at the beginning screen is: <strong>CIMBPENS</strong></p><p> Please make sure to submit the HIT and email uciccnl@gmail.com if you had any issues! </p><br><p>Please remember to submit this data by clicking space after copying the code. Failure of submission will lead to in-complete payment</p>,,,32,,,,,,,,,,,,,,,,,,,,0,0,C78LSMTN
