rt,responses,trial_type,time_elapsed,identifier_a,identifier_b,identifier_c,tasktype,browser_type,local_time,UTC_time,stimulus,button_pressed,response,key_press,stimulus_left,stimulus_right,accuracy,practice_cumulative_accuracy,stimulus_down_left,stimulus_down_mid,stimulus_down_right,stimulus_correct,prac_weighted_accuracy,cumulative_accuracy,weighted_accuracy,stimulus_middle,problems,smooth,distraction,strategies,easier,similar,comments,detectfocus,breakfocus,completion_code
234549.40000000596,{worker_id:67d8591e059fa98302073a33},id_enter,234556,object_08a.png; object_03a.png; object_01c.png; object_03c.png; object_04b.png; object_02c.png; object_04c.png; object_10a.png; object_11b.png; object_12a.png; object_02a.png; object_02b.png; object_15c.png; object_05a.png; object_15b.png,object_10b.png; object_06b.png; object_13a.png; object_04a.png; object_07c.png; object_06a.png; object_13c.png; object_07a.png; object_10c.png; object_11c.png; object_11a.png; object_15a.png; object_12c.png; object_14b.png; object_03b.png,object_01a.png; object_01b.png; object_07b.png; object_06c.png; object_14c.png; object_12b.png; object_09b.png; object_09a.png; object_13b.png; object_14a.png; object_08c.png; object_05c.png; object_09c.png; object_08b.png; object_05b.png,interleaved,Mozilla/5.0 (Windows NT 10.0; Win64; x64) AppleWebKit/537.36 (KHTML, like Gecko) Chrome/135.0.0.0 Safari/537.36,4/28/2025, 12:11:51 PM,2025-04-28 17:11:51.530,,,,,,,,,,,,,,,,,,,,,,,,,,
56061.29999998212,,make_fullscreen,290658,,,,,,,,fullscreen,0,,,,,,,,,,,,,,,,,,,,,,,,
18636,,instruct_1,309298,,,,,,,,instruct,0,Next,,,,,,,,,,,,,,,,,,,,,,,
14027.299999982119,,instruct_2,323327,,,,,,,,instruct,1,Next,,,,,,,,,,,,,,,,,,,,,,,
10189.90000000596,,instruct_3,333519,,,,,,,,instruct,1,Next,,,,,,,,,,,,,,,,,,,,,,,
41950.39999997616,,instruct_4,375473,,,,,,,,instruct,1,Next,,,,,,,,,,,,,,,,,,,,,,,
63657.79999998212,,instruct_5,439135,,,,,,,,instruct,1,Next,,,,,,,,,,,,,,,,,,,,,,,
12572.699999988079,,instruct_6,451711,,,,,,,,instruct,1,Next,,,,,,,,,,,,,,,,,,,,,,,
29423.90000000596,,instruct_7,481138,,,,,,,,instruct,1,Next,,,,,,,,,,,,,,,,,,,,,,,
null,,prac_atten_color_black,481725,,,,,,,,black_plus_sign,,,null,,,,,,,,,,,,,,,,,,,,,,
740.5,,prac_atten_color,482558,,,,,,,,<p style='position:absolute;top: 50%;right: 50%;transform: translate(50%, -50%);font-size: 125px;color: blue;'>+</p>,,,49,,,,,,,,,,,,,,,,,,,,,,
null,,prac_atten_color_black,484571,,,,,,,,black_plus_sign,,,null,,,,,,,,,,,,,,,,,,,,,,
null,,prac_atten_color_black,485160,,,,,,,,black_plus_sign,,,null,,,,,,,,,,,,,,,,,,,,,,
529.9000000059605,,prac_atten_color,485886,,,,,,,,<p style='position:absolute;top: 50%;right: 50%;transform: translate(50%, -50%);font-size: 125px;color: green;'>+</p>,,,50,,,,,,,,,,,,,,,,,,,,,,
null,,prac_atten_color_black,487903,,,,,,,,black_plus_sign,,,null,,,,,,,,,,,,,,,,,,,,,,
null,,prac_atten_color_black,488599,,,,,,,,black_plus_sign,,,null,,,,,,,,,,,,,,,,,,,,,,
543.2999999821186,,prac_atten_color,489221,,,,,,,,<p style='position:absolute;top: 50%;right: 50%;transform: translate(50%, -50%);font-size: 125px;color: green;'>+</p>,,,50,,,,,,,,,,,,,,,,,,,,,,
null,,prac_atten_color_black,491237,,,,,,,,black_plus_sign,,,null,,,,,,,,,,,,,,,,,,,,,,
null,,prac_atten_color_black,492041,,,,,,,,black_plus_sign,,,null,,,,,,,,,,,,,,,,,,,,,,
null,,prac_atten_color,492513,,,,,,,,<p style='position:absolute;top: 50%;right: 50%;transform: translate(50%, -50%);font-size: 125px;color: blue;'>+</p>,,,null,,,,,,,,,,,,,,,,,,,,,,
186.5,,prac_atten_color_black,494523,,,,,,,,black_plus_sign,,,49,,,,,,,,,,,,,,,,,,,,,,
null,,prac_atten_color_black,495481,,,,,,,,black_plus_sign,,,null,,,,,,,,,,,,,,,,,,,,,,
564.7999999821186,,prac_atten_color,496291,,,,,,,,<p style='position:absolute;top: 50%;right: 50%;transform: translate(50%, -50%);font-size: 125px;color: green;'>+</p>,,,50,,,,,,,,,,,,,,,,,,,,,,
null,,prac_atten_color_black,498296,,,,,,,,black_plus_sign,,,null,,,,,,,,,,,,,,,,,,,,,,
null,,prac_atten_color_black,498908,,,,,,,,black_plus_sign,,,null,,,,,,,,,,,,,,,,,,,,,,
577.5,,prac_atten_color,499533,,,,,,,,<p style='position:absolute;top: 50%;right: 50%;transform: translate(50%, -50%);font-size: 125px;color: green;'>+</p>,,,50,,,,,,,,,,,,,,,,,,,,,,
null,,prac_atten_color_black,501540,,,,,,,,black_plus_sign,,,null,,,,,,,,,,,,,,,,,,,,,,
null,,prac_atten_color_black,502343,,,,,,,,black_plus_sign,,,null,,,,,,,,,,,,,,,,,,,,,,
null,,prac_atten_color,502905,,,,,,,,<p style='position:absolute;top: 50%;right: 50%;transform: translate(50%, -50%);font-size: 125px;color: blue;'>+</p>,,,null,,,,,,,,,,,,,,,,,,,,,,
111.19999998807907,,prac_atten_color_black,504909,,,,,,,,black_plus_sign,,,49,,,,,,,,,,,,,,,,,,,,,,
null,,prac_atten_color_black,505762,,,,,,,,black_plus_sign,,,null,,,,,,,,,,,,,,,,,,,,,,
567.3000000119209,,prac_atten_color,506375,,,,,,,,<p style='position:absolute;top: 50%;right: 50%;transform: translate(50%, -50%);font-size: 125px;color: green;'>+</p>,,,50,,,,,,,,,,,,,,,,,,,,,,
null,,prac_atten_color_black,508389,,,,,,,,black_plus_sign,,,null,,,,,,,,,,,,,,,,,,,,,,
null,,prac_atten_color_black,509195,,,,,,,,black_plus_sign,,,null,,,,,,,,,,,,,,,,,,,,,,
545.6999999880791,,prac_atten_color,509872,,,,,,,,<p style='position:absolute;top: 50%;right: 50%;transform: translate(50%, -50%);font-size: 125px;color: blue;'>+</p>,,,49,,,,,,,,,,,,,,,,,,,,,,
null,,prac_atten_color_black,511885,,,,,,,,black_plus_sign,,,null,,,,,,,,,,,,,,,,,,,,,,
null,,prac_atten_color_black,512631,,,,,,,,black_plus_sign,,,null,,,,,,,,,,,,,,,,,,,,,,
686.2000000178814,,prac_atten_color,513468,,,,,,,,<p style='position:absolute;top: 50%;right: 50%;transform: translate(50%, -50%);font-size: 125px;color: blue;'>+</p>,,,49,,,,,,,,,,,,,,,,,,,,,,
null,,prac_atten_color_black,515486,,,,,,,,black_plus_sign,,,null,,,,,,,,,,,,,,,,,,,,,,
5970.0999999940395,,attentioncheck_feedback,521460,,,,,,,,cross_check_feedback,0,,,,,,,,,,,,,,,,,,,,,,,,
40138.79999998212,,last_instruct,561601,,,,,,,,instruct,,,32,,,,,,,,,,,,,,,,,,,,,,
null,,prac_learn_phase(without_color),565109,,,,,,,,black_plus_sign,,,null,object_10c.png,object_13b.png,,,,,,,,,,,,,,,,,,,,
null,,prac_black_cross(without_color),565929,,,,,,,,green,,,null,object_10c.png,object_13b.png,,,,,,,,,,,,,,,,,,,,
null,,prac_rt_plussign_withcolor,566442,,,,,,,,green,,,null,object_10c.png,object_13b.png,,,,,,,,,,,,,,,,,,,,
1605.5,,prac_rt_thecrossant_black,567642,,,,,,,,black_plus_sign,,,50,,,1,1,,,,,,,,,,,,,,,,,,
null,,prac_color_black,567755,,,,,,,,black_plus_sign,,,null,,,,,,,,,,,,,,,,,,,,,,
null,,prac_learn_phase(without_color),571272,,,,,,,,black_plus_sign,,,null,object_07c.png,object_14c.png,,,,,,,,,,,,,,,,,,,,
null,,black_cross(without_color)1,572042,,,,,,,,green,,,null,object_10c.png,object_13b.png,,,,,,,,,,,,,,,,,,,,
null,,prac_rt_plussign_withcolor,572548,,,,,,,,green,,,null,object_07c.png,object_14c.png,,,,,,,,,,,,,,,,,,,,
1090.7999999821186,,prac_rt_thecrossant_black,573907,,,,,,,,black_plus_sign,,,50,,,1,1,,,,,,,,,,,,,,,,,,
null,,prac_color_black,574018,,,,,,,,black_plus_sign,,,null,,,,,,,,,,,,,,,,,,,,,,
null,,prac_learn_phase(without_color),577532,,,,,,,,black_plus_sign,,,null,object_15b.png,object_03b.png,,,,,,,,,,,,,,,,,,,,
null,,black_cross(without_color)1,578305,,,,,,,,green,,,null,object_10c.png,object_13b.png,,,,,,,,,,,,,,,,,,,,
433.40000000596046,,prac_rt_plussign_withcolor,578814,,,,,,,,blue,,,49,object_15b.png,object_03b.png,,,,,,,,,,,,,,,,,,,,
null,,prac_rt_thecrossant_black,580237,,,,,,,,black_plus_sign,,,null,,,1,1,,,,,,,,,,,,,,,,,,
null,,prac_color_black,580347,,,,,,,,black_plus_sign,,,null,,,,,,,,,,,,,,,,,,,,,,
null,,prac_learn_phase(without_color),583862,,,,,,,,black_plus_sign,,,null,object_05a.png,object_14b.png,,,,,,,,,,,,,,,,,,,,
null,,black_cross(without_color)1,584637,,,,,,,,green,,,null,object_10c.png,object_13b.png,,,,,,,,,,,,,,,,,,,,
null,,prac_rt_plussign_withcolor,585142,,,,,,,,green,,,null,object_05a.png,object_14b.png,,,,,,,,,,,,,,,,,,,,
1136,,prac_rt_thecrossant_black,586478,,,,,,,,black_plus_sign,,,50,,,1,1,,,,,,,,,,,,,,,,,,
null,,prac_color_black,586590,,,,,,,,black_plus_sign,,,null,,,,,,,,,,,,,,,,,,,,,,
66671.5,,instruct_dir_01,653265,,,,,,,,instruct,0,Next,,,,,,,,,,,,,,,,,,,,,,,
46969.29999998212,,instruct_dir_2,700236,,,,,,,,instruct,1,Next,,,,,,,,,,,,,,,,,,,,,,,
5968.200000017881,,instruct_dir_3,706206,,,,,,,,instruct,1,Next,,,,,,,,,,,,,,,,,,,,,,,
5463.399999976158,,instruct_dir_4,711672,,,,,,,,instruct,1,Start,,,,,,,,,,,,,,,,,,,,,,,
null,,thebreak,711783,,,,,,,,<p></p>,,,null,,,,,,,,,,,,,,,,,,,,,,
2457.9000000059605,,intro_0,714243,,,,,,,,instruct,,,32,,,,,,,,,,,,,,,,,,,,,,
2799.800000011921,,prac_directmemory_phase,717046,,,,,,,,practice/object_02b.png,,,50,,,1,,practice/object_03a.png,practice/object_02a.png,practice/object_04a.png,practice/object_02a.png,1,1,,,,,,,,,,,,
3248.5,,prac_directmemory_phase,720300,,,,,,,,practice/object_03b.png,,,50,,,1,,practice/object_02a.png,practice/object_03a.png,practice/object_04a.png,practice/object_03a.png,1,1,,,,,,,,,,,,
2863.5,,prac_directmemory_phase,723168,,,,,,,,practice/object_04b.png,,,51,,,1,,practice/object_02a.png,practice/object_03a.png,practice/object_04a.png,practice/object_04a.png,1,1,,,,,,,,,,,,
2058.5999999940395,,prac_directmemory_phase,725230,,,,,,,,practice/object_01b.png,,,49,,,1,,practice/object_01a.png,practice/object_04a.png,practice/object_03a.png,practice/object_01a.png,1,1,,,,,,,,,,,,
5951.9000000059605,,practice_feedback,731185,,,,,,,,practice_feedback,1,,,,,,,,,,,,,,,,,,,,,,,,
5923.9000000059605,,proceed_actualTask,737111,,,,,,,,proceed_actualTask,1,Continue,,,,,,,,,,,,,,,,,,,,,,,
177455,,last_inst,914569,,,,,,,,last_inst,,,32,,,,,,,,,,,,,,,,,,,,,,
null,,learn_phase(without_color)1,918079,,,,,,,,black_plus_sign,,,null,object_10c.png,object_13b.png,,,,,,,,,,,,,,,,,,,,
null,,black_cross(without_color)1,918866,,,,,,,,green,,,null,object_10c.png,object_13b.png,,,,,,,,,,,,,,,,,,,,
null,,rt_plussign_withcolor1,919380,,,,,,,,green,,,null,object_10c.png,object_13b.png,,,,,,,,,,,,,,,,,,,,
null,,rt_thecrossant_black1,920620,,,,,,,,black_plus_sign,,,null,,,,,,,,,,NaN,,,,,,,,,,,,
null,,color_black1,920736,,,,,,,,black_plus_sign,,,null,,,,,,,,,,,,,,,,,,,,,,
null,,learn_phase(without_color)1,924256,,,,,,,,black_plus_sign,,,null,object_07c.png,object_14c.png,,,,,,,,,,,,,,,,,,,,
null,,black_cross(without_color)1,924916,,,,,,,,blue,,,null,object_07c.png,object_14c.png,,,,,,,,,,,,,,,,,,,,
null,,rt_plussign_withcolor1,925423,,,,,,,,blue,,,null,object_07c.png,object_14c.png,,,,,,,,,,,,,,,,,,,,
1067.199999988079,,rt_thecrossant_black1,926776,,,,,,,,black_plus_sign,,,50,,,0,,,,,,,0,,,,,,,,,,,,
null,,warning_page,931795,,,,,,,,warning,,,null,,,,,,,,,,,,,,,,,,,,,,
null,,color_black1,931910,,,,,,,,black_plus_sign,,,null,,,,,,,,,,,,,,,,,,,,,,
null,,learn_phase(without_color)1,935418,,,,,,,,black_plus_sign,,,null,object_15b.png,object_03b.png,,,,,,,,,,,,,,,,,,,,
null,,black_cross(without_color)1,936248,,,,,,,,green,,,null,object_15b.png,object_03b.png,,,,,,,,,,,,,,,,,,,,
null,,rt_plussign_withcolor1,936761,,,,,,,,green,,,null,object_15b.png,object_03b.png,,,,,,,,,,,,,,,,,,,,
1259.199999988079,,rt_thecrossant_black1,937951,,,,,,,,black_plus_sign,,,50,,,1,,,,,,,0.5,,,,,,,,,,,,
null,,color_black1,938059,,,,,,,,black_plus_sign,,,null,,,,,,,,,,,,,,,,,,,,,,
null,,learn_phase(without_color)1,941575,,,,,,,,black_plus_sign,,,null,object_05a.png,object_14b.png,,,,,,,,,,,,,,,,,,,,
null,,black_cross(without_color)1,942282,,,,,,,,green,,,null,object_05a.png,object_14b.png,,,,,,,,,,,,,,,,,,,,
null,,rt_plussign_withcolor1,942785,,,,,,,,green,,,null,object_05a.png,object_14b.png,,,,,,,,,,,,,,,,,,,,
1007.0999999940395,,rt_thecrossant_black1,944104,,,,,,,,black_plus_sign,,,50,,,1,,,,,,,0.6666666666666666,,,,,,,,,,,,
null,,color_black1,944217,,,,,,,,black_plus_sign,,,null,,,,,,,,,,,,,,,,,,,,,,
null,,learn_phase(without_color)1,947734,,,,,,,,black_plus_sign,,,null,object_11c.png,object_14a.png,,,,,,,,,,,,,,,,,,,,
null,,black_cross(without_color)1,948835,,,,,,,,green,,,null,object_11c.png,object_14a.png,,,,,,,,,,,,,,,,,,,,
null,,rt_plussign_withcolor1,949339,,,,,,,,green,,,null,object_11c.png,object_14a.png,,,,,,,,,,,,,,,,,,,,
897.2000000178814,,rt_thecrossant_black1,950257,,,,,,,,black_plus_sign,,,50,,,1,,,,,,,0.75,,,,,,,,,,,,
null,,color_black1,950362,,,,,,,,black_plus_sign,,,null,,,,,,,,,,,,,,,,,,,,,,
null,,learn_phase(without_color)1,953874,,,,,,,,black_plus_sign,,,null,object_03c.png,object_04a.png,,,,,,,,,,,,,,,,,,,,
null,,black_cross(without_color)1,954598,,,,,,,,green,,,null,object_03c.png,object_04a.png,,,,,,,,,,,,,,,,,,,,
null,,rt_plussign_withcolor1,955102,,,,,,,,green,,,null,object_03c.png,object_04a.png,,,,,,,,,,,,,,,,,,,,
1321.300000011921,,rt_thecrossant_black1,956397,,,,,,,,black_plus_sign,,,50,,,1,,,,,,,0.8,,,,,,,,,,,,
null,,color_black1,956508,,,,,,,,black_plus_sign,,,null,,,,,,,,,,,,,,,,,,,,,,
null,,learn_phase(without_color)1,960017,,,,,,,,black_plus_sign,,,null,object_11a.png,object_08c.png,,,,,,,,,,,,,,,,,,,,
null,,black_cross(without_color)1,960795,,,,,,,,green,,,null,object_11a.png,object_08c.png,,,,,,,,,,,,,,,,,,,,
null,,rt_plussign_withcolor1,961306,,,,,,,,green,,,null,object_11a.png,object_08c.png,,,,,,,,,,,,,,,,,,,,
961.4000000059605,,rt_thecrossant_black1,962536,,,,,,,,black_plus_sign,,,50,,,1,,,,,,,0.8333333333333334,,,,,,,,,,,,
null,,color_black1,962651,,,,,,,,black_plus_sign,,,null,,,,,,,,,,,,,,,,,,,,,,
null,,learn_phase(without_color)1,966158,,,,,,,,black_plus_sign,,,null,object_04a.png,object_06c.png,,,,,,,,,,,,,,,,,,,,
null,,black_cross(without_color)1,967063,,,,,,,,blue,,,null,object_04a.png,object_06c.png,,,,,,,,,,,,,,,,,,,,
null,,rt_plussign_withcolor1,967567,,,,,,,,blue,,,null,object_04a.png,object_06c.png,,,,,,,,,,,,,,,,,,,,
1218.5999999940395,,rt_thecrossant_black1,968691,,,,,,,,black_plus_sign,,,49,,,1,,,,,,,0.8571428571428571,,,,,,,,,,,,
null,,color_black1,968800,,,,,,,,black_plus_sign,,,null,,,,,,,,,,,,,,,,,,,,,,
null,,learn_phase(without_color)1,972305,,,,,,,,black_plus_sign,,,null,object_01c.png,object_13a.png,,,,,,,,,,,,,,,,,,,,
null,,black_cross(without_color)1,973054,,,,,,,,green,,,null,object_01c.png,object_13a.png,,,,,,,,,,,,,,,,,,,,
null,,rt_plussign_withcolor1,973558,,,,,,,,green,,,null,object_01c.png,object_13a.png,,,,,,,,,,,,,,,,,,,,
1515.800000011921,,rt_thecrossant_black1,974841,,,,,,,,black_plus_sign,,,50,,,1,,,,,,,0.875,,,,,,,,,,,,
null,,color_black1,974954,,,,,,,,black_plus_sign,,,null,,,,,,,,,,,,,,,,,,,,,,
null,,learn_phase(without_color)1,978461,,,,,,,,black_plus_sign,,,null,object_04b.png,object_07c.png,,,,,,,,,,,,,,,,,,,,
null,,black_cross(without_color)1,979186,,,,,,,,green,,,null,object_04b.png,object_07c.png,,,,,,,,,,,,,,,,,,,,
null,,rt_plussign_withcolor1,979697,,,,,,,,green,,,null,object_04b.png,object_07c.png,,,,,,,,,,,,,,,,,,,,
1126.5,,rt_thecrossant_black1,980993,,,,,,,,black_plus_sign,,,50,,,1,,,,,,,0.8888888888888888,,,,,,,,,,,,
null,,color_black1,981107,,,,,,,,black_plus_sign,,,null,,,,,,,,,,,,,,,,,,,,,,
null,,learn_phase(without_color)1,984616,,,,,,,,black_plus_sign,,,null,object_10b.png,object_01a.png,,,,,,,,,,,,,,,,,,,,
null,,black_cross(without_color)1,985081,,,,,,,,green,,,null,object_10b.png,object_01a.png,,,,,,,,,,,,,,,,,,,,
null,,rt_plussign_withcolor1,985593,,,,,,,,green,,,null,object_10b.png,object_01a.png,,,,,,,,,,,,,,,,,,,,
939.8000000119209,,rt_thecrossant_black1,987149,,,,,,,,black_plus_sign,,,50,,,1,,,,,,,0.9,,,,,,,,,,,,
null,,color_black1,987263,,,,,,,,black_plus_sign,,,null,,,,,,,,,,,,,,,,,,,,,,
null,,learn_phase(without_color)1,990778,,,,,,,,black_plus_sign,,,null,object_03b.png,object_05b.png,,,,,,,,,,,,,,,,,,,,
null,,black_cross(without_color)1,991208,,,,,,,,green,,,null,object_03b.png,object_05b.png,,,,,,,,,,,,,,,,,,,,
null,,rt_plussign_withcolor1,991720,,,,,,,,green,,,null,object_03b.png,object_05b.png,,,,,,,,,,,,,,,,,,,,
748.2000000178814,,rt_thecrossant_black1,993305,,,,,,,,black_plus_sign,,,50,,,1,,,,,,,0.9090909090909091,,,,,,,,,,,,
null,,color_black1,993412,,,,,,,,black_plus_sign,,,null,,,,,,,,,,,,,,,,,,,,,,
null,,learn_phase(without_color)1,996921,,,,,,,,black_plus_sign,,,null,object_10a.png,object_07a.png,,,,,,,,,,,,,,,,,,,,
null,,black_cross(without_color)1,997671,,,,,,,,green,,,null,object_10a.png,object_07a.png,,,,,,,,,,,,,,,,,,,,
null,,rt_plussign_withcolor1,998177,,,,,,,,green,,,null,object_10a.png,object_07a.png,,,,,,,,,,,,,,,,,,,,
727.8000000119209,,rt_thecrossant_black1,999451,,,,,,,,black_plus_sign,,,50,,,1,,,,,,,0.9166666666666666,,,,,,,,,,,,
null,,color_black1,999555,,,,,,,,black_plus_sign,,,null,,,,,,,,,,,,,,,,,,,,,,
null,,learn_phase(without_color)1,1003069,,,,,,,,black_plus_sign,,,null,object_14b.png,object_08b.png,,,,,,,,,,,,,,,,,,,,
null,,black_cross(without_color)1,1003635,,,,,,,,blue,,,null,object_14b.png,object_08b.png,,,,,,,,,,,,,,,,,,,,
null,,rt_plussign_withcolor1,1004139,,,,,,,,blue,,,null,object_14b.png,object_08b.png,,,,,,,,,,,,,,,,,,,,
1092.5,,rt_thecrossant_black1,1005589,,,,,,,,black_plus_sign,,,49,,,1,,,,,,,0.9230769230769231,,,,,,,,,,,,
null,,color_black1,1005700,,,,,,,,black_plus_sign,,,null,,,,,,,,,,,,,,,,,,,,,,
null,,learn_phase(without_color)1,1009206,,,,,,,,black_plus_sign,,,null,object_13a.png,object_07b.png,,,,,,,,,,,,,,,,,,,,
null,,black_cross(without_color)1,1010009,,,,,,,,green,,,null,object_13a.png,object_07b.png,,,,,,,,,,,,,,,,,,,,
null,,rt_plussign_withcolor1,1010521,,,,,,,,green,,,null,object_13a.png,object_07b.png,,,,,,,,,,,,,,,,,,,,
844.5,,rt_thecrossant_black1,1011730,,,,,,,,black_plus_sign,,,50,,,1,,,,,,,0.9285714285714286,,,,,,,,,,,,
null,,color_black1,1011842,,,,,,,,black_plus_sign,,,null,,,,,,,,,,,,,,,,,,,,,,
null,,learn_phase(without_color)1,1015347,,,,,,,,black_plus_sign,,,null,object_08a.png,object_10b.png,,,,,,,,,,,,,,,,,,,,
null,,black_cross(without_color)1,1016213,,,,,,,,blue,,,null,object_08a.png,object_10b.png,,,,,,,,,,,,,,,,,,,,
null,,rt_plussign_withcolor1,1016729,,,,,,,,blue,,,null,object_08a.png,object_10b.png,,,,,,,,,,,,,,,,,,,,
1008.8999999761581,,rt_thecrossant_black1,1017888,,,,,,,,black_plus_sign,,,49,,,1,,,,,,,0.9333333333333333,,,,,,,,,,,,
null,,color_black1,1018001,,,,,,,,black_plus_sign,,,null,,,,,,,,,,,,,,,,,,,,,,
null,,learn_phase(without_color)1,1021506,,,,,,,,black_plus_sign,,,null,object_15a.png,object_05c.png,,,,,,,,,,,,,,,,,,,,
null,,black_cross(without_color)1,1022039,,,,,,,,green,,,null,object_15a.png,object_05c.png,,,,,,,,,,,,,,,,,,,,
null,,rt_plussign_withcolor1,1022557,,,,,,,,green,,,null,object_15a.png,object_05c.png,,,,,,,,,,,,,,,,,,,,
1557.5,,rt_thecrossant_black1,1024037,,,,,,,,black_plus_sign,,,50,,,1,,,,,,,0.9375,,,,,,,,,,,,
null,,color_black1,1024142,,,,,,,,black_plus_sign,,,null,,,,,,,,,,,,,,,,,,,,,,
null,,learn_phase(without_color)1,1027662,,,,,,,,black_plus_sign,,,null,object_03a.png,object_06b.png,,,,,,,,,,,,,,,,,,,,
null,,black_cross(without_color)1,1028654,,,,,,,,green,,,null,object_03a.png,object_06b.png,,,,,,,,,,,,,,,,,,,,
null,,rt_plussign_withcolor1,1029170,,,,,,,,green,,,null,object_03a.png,object_06b.png,,,,,,,,,,,,,,,,,,,,
774.3000000119209,,rt_thecrossant_black1,1030201,,,,,,,,black_plus_sign,,,50,,,1,,,,,,,0.9411764705882353,,,,,,,,,,,,
null,,color_black1,1030315,,,,,,,,black_plus_sign,,,null,,,,,,,,,,,,,,,,,,,,,,
null,,learn_phase(without_color)1,1033833,,,,,,,,black_plus_sign,,,null,object_04c.png,object_13c.png,,,,,,,,,,,,,,,,,,,,
null,,black_cross(without_color)1,1034789,,,,,,,,blue,,,null,object_04c.png,object_13c.png,,,,,,,,,,,,,,,,,,,,
488.90000000596046,,rt_plussign_withcolor1,1035297,,,,,,,,blue,,,49,object_04c.png,object_13c.png,,,,,,,,,,,,,,,,,,,,
null,,rt_thecrossant_black1,1036372,,,,,,,,black_plus_sign,,,null,,,1,,,,,,,0.9444444444444444,,,,,,,,,,,,
null,,color_black1,1036490,,,,,,,,black_plus_sign,,,null,,,,,,,,,,,,,,,,,,,,,,
null,,learn_phase(without_color)1,1040006,,,,,,,,black_plus_sign,,,null,object_06a.png,object_12b.png,,,,,,,,,,,,,,,,,,,,
null,,black_cross(without_color)1,1040880,,,,,,,,blue,,,null,object_06a.png,object_12b.png,,,,,,,,,,,,,,,,,,,,
null,,rt_plussign_withcolor1,1041396,,,,,,,,blue,,,null,object_06a.png,object_12b.png,,,,,,,,,,,,,,,,,,,,
1393,,rt_thecrossant_black1,1042556,,,,,,,,black_plus_sign,,,49,,,1,,,,,,,0.9473684210526315,,,,,,,,,,,,
null,,color_black1,1042673,,,,,,,,black_plus_sign,,,null,,,,,,,,,,,,,,,,,,,,,,
null,,learn_phase(without_color)1,1046192,,,,,,,,black_plus_sign,,,null,object_02c.png,object_06a.png,,,,,,,,,,,,,,,,,,,,
null,,black_cross(without_color)1,1046683,,,,,,,,green,,,null,object_02c.png,object_06a.png,,,,,,,,,,,,,,,,,,,,
null,,rt_plussign_withcolor1,1047197,,,,,,,,green,,,null,object_02c.png,object_06a.png,,,,,,,,,,,,,,,,,,,,
1498.699999988079,,rt_thecrossant_black1,1048736,,,,,,,,black_plus_sign,,,50,,,1,,,,,,,0.95,,,,,,,,,,,,
null,,color_black1,1048845,,,,,,,,black_plus_sign,,,null,,,,,,,,,,,,,,,,,,,,,,
null,,learn_phase(without_color)1,1052355,,,,,,,,black_plus_sign,,,null,object_15c.png,object_12c.png,,,,,,,,,,,,,,,,,,,,
null,,black_cross(without_color)1,1052965,,,,,,,,blue,,,null,object_15c.png,object_12c.png,,,,,,,,,,,,,,,,,,,,
null,,rt_plussign_withcolor1,1053470,,,,,,,,blue,,,null,object_15c.png,object_12c.png,,,,,,,,,,,,,,,,,,,,
970.8000000119209,,rt_thecrossant_black1,1054873,,,,,,,,black_plus_sign,,,49,,,1,,,,,,,0.9523809523809523,,,,,,,,,,,,
null,,color_black1,1054983,,,,,,,,black_plus_sign,,,null,,,,,,,,,,,,,,,,,,,,,,
null,,learn_phase(without_color)1,1058498,,,,,,,,black_plus_sign,,,null,object_12a.png,object_11c.png,,,,,,,,,,,,,,,,,,,,
null,,black_cross(without_color)1,1059170,,,,,,,,blue,,,null,object_12a.png,object_11c.png,,,,,,,,,,,,,,,,,,,,
null,,rt_plussign_withcolor1,1059679,,,,,,,,blue,,,null,object_12a.png,object_11c.png,,,,,,,,,,,,,,,,,,,,
987.7999999821186,,rt_thecrossant_black1,1061020,,,,,,,,black_plus_sign,,,49,,,1,,,,,,,0.9545454545454546,,,,,,,,,,,,
null,,color_black1,1061138,,,,,,,,black_plus_sign,,,null,,,,,,,,,,,,,,,,,,,,,,
null,,learn_phase(without_color)1,1064645,,,,,,,,black_plus_sign,,,null,object_07a.png,object_09a.png,,,,,,,,,,,,,,,,,,,,
null,,black_cross(without_color)1,1065685,,,,,,,,blue,,,null,object_07a.png,object_09a.png,,,,,,,,,,,,,,,,,,,,
null,,rt_plussign_withcolor1,1066199,,,,,,,,blue,,,null,object_07a.png,object_09a.png,,,,,,,,,,,,,,,,,,,,
1048.300000011921,,rt_thecrossant_black1,1067174,,,,,,,,black_plus_sign,,,49,,,1,,,,,,,0.9565217391304348,,,,,,,,,,,,
null,,color_black1,1067283,,,,,,,,black_plus_sign,,,null,,,,,,,,,,,,,,,,,,,,,,
null,,learn_phase(without_color)1,1070789,,,,,,,,black_plus_sign,,,null,object_13c.png,object_09b.png,,,,,,,,,,,,,,,,,,,,
null,,black_cross(without_color)1,1071592,,,,,,,,blue,,,null,object_13c.png,object_09b.png,,,,,,,,,,,,,,,,,,,,
null,,rt_plussign_withcolor1,1072102,,,,,,,,blue,,,null,object_13c.png,object_09b.png,,,,,,,,,,,,,,,,,,,,
1372.7000000178814,,rt_thecrossant_black1,1073331,,,,,,,,black_plus_sign,,,49,,,1,,,,,,,0.9583333333333334,,,,,,,,,,,,
null,,color_black1,1073445,,,,,,,,black_plus_sign,,,null,,,,,,,,,,,,,,,,,,,,,,
null,,learn_phase(without_color)1,1076954,,,,,,,,black_plus_sign,,,null,object_12c.png,object_09c.png,,,,,,,,,,,,,,,,,,,,
null,,black_cross(without_color)1,1077998,,,,,,,,green,,,null,object_12c.png,object_09c.png,,,,,,,,,,,,,,,,,,,,
null,,rt_plussign_withcolor1,1078513,,,,,,,,green,,,null,object_12c.png,object_09c.png,,,,,,,,,,,,,,,,,,,,
1363.300000011921,,rt_thecrossant_black1,1079505,,,,,,,,black_plus_sign,,,50,,,1,,,,,,,0.96,,,,,,,,,,,,
null,,color_black1,1079608,,,,,,,,black_plus_sign,,,null,,,,,,,,,,,,,,,,,,,,,,
null,,learn_phase(without_color)1,1083122,,,,,,,,black_plus_sign,,,null,object_02a.png,object_11a.png,,,,,,,,,,,,,,,,,,,,
null,,black_cross(without_color)1,1084108,,,,,,,,green,,,null,object_02a.png,object_11a.png,,,,,,,,,,,,,,,,,,,,
null,,rt_plussign_withcolor1,1084624,,,,,,,,green,,,null,object_02a.png,object_11a.png,,,,,,,,,,,,,,,,,,,,
1451,,rt_thecrossant_black1,1085665,,,,,,,,black_plus_sign,,,50,,,1,,,,,,,0.9615384615384616,,,,,,,,,,,,
null,,color_black1,1085784,,,,,,,,black_plus_sign,,,null,,,,,,,,,,,,,,,,,,,,,,
null,,learn_phase(without_color)1,1089289,,,,,,,,black_plus_sign,,,null,object_11b.png,object_10c.png,,,,,,,,,,,,,,,,,,,,
null,,black_cross(without_color)1,1089977,,,,,,,,green,,,null,object_11b.png,object_10c.png,,,,,,,,,,,,,,,,,,,,
null,,rt_plussign_withcolor1,1090486,,,,,,,,green,,,null,object_11b.png,object_10c.png,,,,,,,,,,,,,,,,,,,,
1203.5999999940395,,rt_thecrossant_black1,1091810,,,,,,,,black_plus_sign,,,50,,,1,,,,,,,0.9629629629629629,,,,,,,,,,,,
null,,color_black1,1091914,,,,,,,,black_plus_sign,,,null,,,,,,,,,,,,,,,,,,,,,,
null,,learn_phase(without_color)1,1095427,,,,,,,,black_plus_sign,,,null,object_06b.png,object_01b.png,,,,,,,,,,,,,,,,,,,,
null,,black_cross(without_color)1,1095945,,,,,,,,blue,,,null,object_06b.png,object_01b.png,,,,,,,,,,,,,,,,,,,,
null,,rt_plussign_withcolor1,1096461,,,,,,,,blue,,,null,object_06b.png,object_01b.png,,,,,,,,,,,,,,,,,,,,
1208.0999999940395,,rt_thecrossant_black1,1097958,,,,,,,,black_plus_sign,,,49,,,1,,,,,,,0.9642857142857143,,,,,,,,,,,,
null,,color_black1,1098071,,,,,,,,black_plus_sign,,,null,,,,,,,,,,,,,,,,,,,,,,
null,,learn_phase(without_color)1,1101592,,,,,,,,black_plus_sign,,,null,object_02b.png,object_15a.png,,,,,,,,,,,,,,,,,,,,
null,,black_cross(without_color)1,1102125,,,,,,,,green,,,null,object_02b.png,object_15a.png,,,,,,,,,,,,,,,,,,,,
null,,rt_plussign_withcolor1,1102629,,,,,,,,green,,,null,object_02b.png,object_15a.png,,,,,,,,,,,,,,,,,,,,
1218.9000000059605,,rt_thecrossant_black1,1104112,,,,,,,,black_plus_sign,,,50,,,1,,,,,,,0.9655172413793104,,,,,,,,,,,,
null,,color_black1,1104216,,,,,,,,black_plus_sign,,,null,,,,,,,,,,,,,,,,,,,,,,
null,,thebreak,1104335,,,,,,,,<p></p>,,,null,,,,,,,,,,,,,,,,,,,,,,
42737.59999999404,,intro_0,1147075,,,,,,,,instruct,,,32,,,,,,,,,,,,,,,,,,,,,,
5842.0999999940395,,directmemory_phase1,1152920,,,,,,,,object_09b.png,,,49,,,1,,object_13c.png,object_10c.png,object_11c.png,object_13c.png,,1,1,,,,,,,,,,,
3877.7000000178814,,directmemory_phase1,1156803,,,,,,,,object_09a.png,,,51,,,1,,object_15a.png,object_11a.png,object_07a.png,object_07a.png,,1,1,,,,,,,,,,,
4781.5,,directmemory_phase1,1161589,,,,,,,,object_07a.png,,,50,,,1,,object_03a.png,object_10a.png,object_11b.png,object_10a.png,,1,1,,,,,,,,,,,
9911.09999999404,,directmemory_phase1,1171505,,,,,,,,object_08c.png,,,51,,,1,,object_07c.png,object_11c.png,object_11a.png,object_11a.png,,1,1,,,,,,,,,,,
2347.7000000178814,,directmemory_phase1,1173856,,,,,,,,object_01b.png,,,50,,,1,,object_14b.png,object_06b.png,object_15a.png,object_06b.png,,1,1,,,,,,,,,,,
4343.200000017881,,directmemory_phase1,1178204,,,,,,,,object_11a.png,,,50,,,0,,object_02a.png,object_11b.png,object_02b.png,object_02a.png,,0.8333333333333334,0,,,,,,,,,,,
2556.399999976158,,directmemory_phase1,1180764,,,,,,,,object_11c.png,,,49,,,1,,object_12a.png,object_03a.png,object_10a.png,object_12a.png,,0.8571428571428571,1,,,,,,,,,,,
5075.0999999940395,,directmemory_phase1,1185844,,,,,,,,object_05c.png,,,49,,,1,,object_15a.png,object_06b.png,object_13a.png,object_15a.png,,0.875,1,,,,,,,,,,,
2386.9000000059605,,directmemory_phase1,1188235,,,,,,,,object_06c.png,,,49,,,0,,object_07c.png,object_06b.png,object_04a.png,object_04a.png,,0.7777777777777778,0,,,,,,,,,,,
7042.0999999940395,,directmemory_phase1,1195282,,,,,,,,object_14a.png,,,51,,,0,,object_11c.png,object_07c.png,object_04a.png,object_11c.png,,0.7,0,,,,,,,,,,,
null,,directmemory_phase1,1210292,,,,,,,,object_14b.png,,,null,,,0,,object_15c.png,object_05a.png,object_02c.png,object_05a.png,,0.6363636363636364,0,,,,,,,,,,,
null,,warning_page,1215297,,,,,,,,warning,,,null,,,,,,,,,,,,,,,,,,,,,,
4608.700000017881,,directmemory_phase1,1219909,,,,,,,,object_13a.png,,,50,,,0,,object_02a.png,object_02c.png,object_01c.png,object_01c.png,,0.5833333333333334,0,,,,,,,,,,,
6630.5999999940395,,directmemory_phase1,1226544,,,,,,,,object_10c.png,,,49,,,0,,object_05a.png,object_11b.png,object_03c.png,object_11b.png,,0.5384615384615384,0,,,,,,,,,,,
5338.9000000059605,,directmemory_phase1,1231887,,,,,,,,object_07b.png,,,49,,,1,,object_13a.png,object_14b.png,object_10b.png,object_13a.png,,0.5714285714285714,1,,,,,,,,,,,
3978.7999999821186,,directmemory_phase1,1235870,,,,,,,,object_06b.png,,,50,,,1,,object_15c.png,object_03a.png,object_02c.png,object_03a.png,,0.6,1,,,,,,,,,,,
2993.5999999940395,,directmemory_phase1,1238868,,,,,,,,object_10b.png,,,51,,,0,,object_08a.png,object_12a.png,object_04b.png,object_08a.png,,0.5625,0,,,,,,,,,,,
4442.0999999940395,,directmemory_phase1,1243314,,,,,,,,object_15a.png,,,51,,,0,,object_03c.png,object_02b.png,object_04b.png,object_02b.png,,0.5294117647058824,0,,,,,,,,,,,
4110.4000000059605,,directmemory_phase1,1247429,,,,,,,,object_08b.png,,,51,,,1,,object_12c.png,object_10c.png,object_14b.png,object_14b.png,,0.5555555555555556,1,,,,,,,,,,,
3598,,directmemory_phase1,1251031,,,,,,,,object_01a.png,,,50,,,0,,object_11c.png,object_07c.png,object_10b.png,object_10b.png,,0.5263157894736842,0,,,,,,,,,,,
3895.0999999940395,,directmemory_phase1,1254929,,,,,,,,object_14c.png,,,51,,,0,,object_06a.png,object_07c.png,object_04a.png,object_07c.png,,0.5,0,,,,,,,,,,,
5625.0999999940395,,directmemory_phase1,1260560,,,,,,,,object_09c.png,,,50,,,0,,object_15a.png,object_13c.png,object_12c.png,object_12c.png,,0.47619047619047616,0,,,,,,,,,,,
4025.399999976158,,directmemory_phase1,1264590,,,,,,,,object_12c.png,,,51,,,1,,object_11b.png,object_02a.png,object_15c.png,object_15c.png,,0.5,1,,,,,,,,,,,
2958,,directmemory_phase1,1267553,,,,,,,,object_13c.png,,,50,,,1,,object_03a.png,object_04c.png,object_02a.png,object_04c.png,,0.5217391304347826,1,,,,,,,,,,,
6601.300000011921,,directmemory_phase1,1274160,,,,,,,,object_04a.png,,,49,,,1,,object_03c.png,object_11b.png,object_05a.png,object_03c.png,,0.5416666666666666,1,,,,,,,,,,,
7210.699999988079,,directmemory_phase1,1281375,,,,,,,,object_05b.png,,,51,,,1,,object_04a.png,object_11c.png,object_03b.png,object_03b.png,,0.56,1,,,,,,,,,,,
8272.5,,directmemory_phase1,1289652,,,,,,,,object_03b.png,,,51,,,0,,object_12a.png,object_15b.png,object_08a.png,object_15b.png,,0.5384615384615384,0,,,,,,,,,,,
13085.800000011921,,directmemory_phase1,1302743,,,,,,,,object_07c.png,,,51,,,0,,object_03c.png,object_04b.png,object_05a.png,object_04b.png,,0.5185185185185185,0,,,,,,,,,,,
6681.4000000059605,,directmemory_phase1,1309427,,,,,,,,object_12b.png,,,49,,,0,,object_06b.png,object_06a.png,object_15a.png,object_06a.png,,0.5,0,,,,,,,,,,,
2002.699999988079,,directmemory_phase1,1311431,,,,,,,,object_06a.png,,,49,,,1,,object_02c.png,object_12a.png,object_03c.png,object_02c.png,,0.5172413793103449,1,,,,,,,,,,,
2239.5999999940395,,directmemory_phase1,1313674,,,,,,,,object_13b.png,,,51,,,1,,object_13a.png,object_15a.png,object_10c.png,object_10c.png,,0.5333333333333333,1,,,,,,,,,,,
null,,thebreak,1313782,,,,,,,,<p></p>,,,null,,,,,,,,,,,,,,,,,,,,,,
20176.40000000596,,intro_0,1333961,,,,,,,,instruct,,,32,,,,,,,,,,,,,,,,,,,,,,
null,,learn_phase(without_color)2,1337477,,,,,,,,black_plus_sign,,,null,object_13a.png,object_07b.png,,,,,,,,,,,,,,,,,,,,
null,,black_cross(without_color)2,1338191,,,,,,,,green,,,null,object_13a.png,object_07b.png,,,,,,,,,,,,,,,,,,,,
null,,rt_plussign_withcolor2,1338697,,,,,,,,green,,,null,object_13a.png,object_07b.png,,,,,,,,,,,,,,,,,,,,
null,,rt_thecrossant_black2,1340004,,,,,,,,black_plus_sign,,,null,,,,,,,,,,NaN,,,,,,,,,,,,
null,,color_black2,1340110,,,,,,,,black_plus_sign,,,null,,,,,,,,,,,,,,,,,,,,,,
null,,learn_phase(without_color)2,1343615,,,,,,,,black_plus_sign,,,null,object_02a.png,object_11a.png,,,,,,,,,,,,,,,,,,,,
null,,black_cross(without_color)2,1344385,,,,,,,,green,,,null,object_02a.png,object_11a.png,,,,,,,,,,,,,,,,,,,,
null,,rt_plussign_withcolor2,1344889,,,,,,,,green,,,null,object_02a.png,object_11a.png,,,,,,,,,,,,,,,,,,,,
1454.5,,rt_thecrossant_black2,1346136,,,,,,,,black_plus_sign,,,50,,,1,,,,,,,1,,,,,,,,,,,,
null,,color_black2,1346239,,,,,,,,black_plus_sign,,,null,,,,,,,,,,,,,,,,,,,,,,
null,,learn_phase(without_color)2,1349754,,,,,,,,black_plus_sign,,,null,object_15b.png,object_03b.png,,,,,,,,,,,,,,,,,,,,
null,,black_cross(without_color)2,1350573,,,,,,,,green,,,null,object_15b.png,object_03b.png,,,,,,,,,,,,,,,,,,,,
null,,rt_plussign_withcolor2,1351078,,,,,,,,green,,,null,object_15b.png,object_03b.png,,,,,,,,,,,,,,,,,,,,
995,,rt_thecrossant_black2,1352274,,,,,,,,black_plus_sign,,,50,,,1,,,,,,,1,,,,,,,,,,,,
null,,color_black2,1352383,,,,,,,,black_plus_sign,,,null,,,,,,,,,,,,,,,,,,,,,,
null,,learn_phase(without_color)2,1355899,,,,,,,,black_plus_sign,,,null,object_07c.png,object_14c.png,,,,,,,,,,,,,,,,,,,,
null,,black_cross(without_color)2,1356500,,,,,,,,blue,,,null,object_07c.png,object_14c.png,,,,,,,,,,,,,,,,,,,,
null,,rt_plussign_withcolor2,1357003,,,,,,,,blue,,,null,object_07c.png,object_14c.png,,,,,,,,,,,,,,,,,,,,
1339.5999999940395,,rt_thecrossant_black2,1358426,,,,,,,,black_plus_sign,,,49,,,1,,,,,,,1,,,,,,,,,,,,
null,,color_black2,1358529,,,,,,,,black_plus_sign,,,null,,,,,,,,,,,,,,,,,,,,,,
null,,learn_phase(without_color)2,1362046,,,,,,,,black_plus_sign,,,null,object_02b.png,object_15a.png,,,,,,,,,,,,,,,,,,,,
null,,black_cross(without_color)2,1362915,,,,,,,,blue,,,null,object_02b.png,object_15a.png,,,,,,,,,,,,,,,,,,,,
null,,rt_plussign_withcolor2,1363427,,,,,,,,blue,,,null,object_02b.png,object_15a.png,,,,,,,,,,,,,,,,,,,,
958,,rt_thecrossant_black2,1364580,,,,,,,,black_plus_sign,,,49,,,1,,,,,,,1,,,,,,,,,,,,
null,,color_black2,1364690,,,,,,,,black_plus_sign,,,null,,,,,,,,,,,,,,,,,,,,,,
null,,learn_phase(without_color)2,1368201,,,,,,,,black_plus_sign,,,null,object_04a.png,object_06c.png,,,,,,,,,,,,,,,,,,,,
null,,black_cross(without_color)2,1368878,,,,,,,,green,,,null,object_04a.png,object_06c.png,,,,,,,,,,,,,,,,,,,,
null,,rt_plussign_withcolor2,1369381,,,,,,,,green,,,null,object_04a.png,object_06c.png,,,,,,,,,,,,,,,,,,,,
1143.9000000059605,,rt_thecrossant_black2,1370723,,,,,,,,black_plus_sign,,,50,,,1,,,,,,,1,,,,,,,,,,,,
null,,color_black2,1370835,,,,,,,,black_plus_sign,,,null,,,,,,,,,,,,,,,,,,,,,,
null,,learn_phase(without_color)2,1374352,,,,,,,,black_plus_sign,,,null,object_02c.png,object_06a.png,,,,,,,,,,,,,,,,,,,,
null,,black_cross(without_color)2,1375286,,,,,,,,blue,,,null,object_02c.png,object_06a.png,,,,,,,,,,,,,,,,,,,,
null,,rt_plussign_withcolor2,1375798,,,,,,,,blue,,,null,object_02c.png,object_06a.png,,,,,,,,,,,,,,,,,,,,
880.1999999880791,,rt_thecrossant_black2,1376898,,,,,,,,black_plus_sign,,,49,,,1,,,,,,,1,,,,,,,,,,,,
null,,color_black2,1377014,,,,,,,,black_plus_sign,,,null,,,,,,,,,,,,,,,,,,,,,,
null,,learn_phase(without_color)2,1380523,,,,,,,,black_plus_sign,,,null,object_14b.png,object_08b.png,,,,,,,,,,,,,,,,,,,,
null,,black_cross(without_color)2,1380944,,,,,,,,green,,,null,object_14b.png,object_08b.png,,,,,,,,,,,,,,,,,,,,
null,,rt_plussign_withcolor2,1381448,,,,,,,,green,,,null,object_14b.png,object_08b.png,,,,,,,,,,,,,,,,,,,,
1976.6000000238419,,rt_thecrossant_black2,1383055,,,,,,,,black_plus_sign,,,50,,,1,,,,,,,1,,,,,,,,,,,,
null,,color_black2,1383160,,,,,,,,black_plus_sign,,,null,,,,,,,,,,,,,,,,,,,,,,
null,,learn_phase(without_color)2,1386671,,,,,,,,black_plus_sign,,,null,object_06a.png,object_12b.png,,,,,,,,,,,,,,,,,,,,
null,,black_cross(without_color)2,1387263,,,,,,,,blue,,,null,object_06a.png,object_12b.png,,,,,,,,,,,,,,,,,,,,
null,,rt_plussign_withcolor2,1387780,,,,,,,,blue,,,null,object_06a.png,object_12b.png,,,,,,,,,,,,,,,,,,,,
730.0999999940395,,rt_thecrossant_black2,1389205,,,,,,,,black_plus_sign,,,49,,,1,,,,,,,1,,,,,,,,,,,,
null,,color_black2,1389320,,,,,,,,black_plus_sign,,,null,,,,,,,,,,,,,,,,,,,,,,
null,,learn_phase(without_color)2,1392840,,,,,,,,black_plus_sign,,,null,object_06b.png,object_01b.png,,,,,,,,,,,,,,,,,,,,
null,,black_cross(without_color)2,1393535,,,,,,,,green,,,null,object_06b.png,object_01b.png,,,,,,,,,,,,,,,,,,,,
509,,rt_plussign_withcolor2,1394048,,,,,,,,green,,,50,object_06b.png,object_01b.png,,,,,,,,,,,,,,,,,,,,
null,,rt_thecrossant_black2,1395378,,,,,,,,black_plus_sign,,,null,,,1,,,,,,,1,,,,,,,,,,,,
null,,color_black2,1395483,,,,,,,,black_plus_sign,,,null,,,,,,,,,,,,,,,,,,,,,,
null,,learn_phase(without_color)2,1398995,,,,,,,,black_plus_sign,,,null,object_11a.png,object_08c.png,,,,,,,,,,,,,,,,,,,,
null,,black_cross(without_color)2,1399601,,,,,,,,blue,,,null,object_11a.png,object_08c.png,,,,,,,,,,,,,,,,,,,,
null,,rt_plussign_withcolor2,1400112,,,,,,,,blue,,,null,object_11a.png,object_08c.png,,,,,,,,,,,,,,,,,,,,
1396.6000000238419,,rt_thecrossant_black2,1401530,,,,,,,,black_plus_sign,,,49,,,1,,,,,,,1,,,,,,,,,,,,
null,,color_black2,1401642,,,,,,,,black_plus_sign,,,null,,,,,,,,,,,,,,,,,,,,,,
null,,learn_phase(without_color)2,1405160,,,,,,,,black_plus_sign,,,null,object_05a.png,object_14b.png,,,,,,,,,,,,,,,,,,,,
null,,black_cross(without_color)2,1405723,,,,,,,,blue,,,null,object_05a.png,object_14b.png,,,,,,,,,,,,,,,,,,,,
null,,rt_plussign_withcolor2,1406234,,,,,,,,blue,,,null,object_05a.png,object_14b.png,,,,,,,,,,,,,,,,,,,,
802.6000000238419,,rt_thecrossant_black2,1407685,,,,,,,,black_plus_sign,,,50,,,0,,,,,,,0.9090909090909091,,,,,,,,,,,,
null,,color_black2,1407788,,,,,,,,black_plus_sign,,,null,,,,,,,,,,,,,,,,,,,,,,
null,,learn_phase(without_color)2,1411296,,,,,,,,black_plus_sign,,,null,object_12c.png,object_09c.png,,,,,,,,,,,,,,,,,,,,
null,,black_cross(without_color)2,1412028,,,,,,,,blue,,,null,object_12c.png,object_09c.png,,,,,,,,,,,,,,,,,,,,
null,,rt_plussign_withcolor2,1412533,,,,,,,,blue,,,null,object_12c.png,object_09c.png,,,,,,,,,,,,,,,,,,,,
961.6999999880791,,rt_thecrossant_black2,1413815,,,,,,,,black_plus_sign,,,49,,,1,,,,,,,0.9166666666666666,,,,,,,,,,,,
null,,color_black2,1413932,,,,,,,,black_plus_sign,,,null,,,,,,,,,,,,,,,,,,,,,,
null,,learn_phase(without_color)2,1417448,,,,,,,,black_plus_sign,,,null,object_03c.png,object_04a.png,,,,,,,,,,,,,,,,,,,,
null,,black_cross(without_color)2,1418321,,,,,,,,green,,,null,object_03c.png,object_04a.png,,,,,,,,,,,,,,,,,,,,
null,,rt_plussign_withcolor2,1418823,,,,,,,,green,,,null,object_03c.png,object_04a.png,,,,,,,,,,,,,,,,,,,,
843.8999999761581,,rt_thecrossant_black2,1419969,,,,,,,,black_plus_sign,,,50,,,1,,,,,,,0.9230769230769231,,,,,,,,,,,,
null,,color_black2,1420078,,,,,,,,black_plus_sign,,,null,,,,,,,,,,,,,,,,,,,,,,
null,,learn_phase(without_color)2,1423594,,,,,,,,black_plus_sign,,,null,object_10a.png,object_07a.png,,,,,,,,,,,,,,,,,,,,
null,,black_cross(without_color)2,1424125,,,,,,,,green,,,null,object_10a.png,object_07a.png,,,,,,,,,,,,,,,,,,,,
null,,rt_plussign_withcolor2,1424627,,,,,,,,green,,,null,object_10a.png,object_07a.png,,,,,,,,,,,,,,,,,,,,
1017.2000000178814,,rt_thecrossant_black2,1426119,,,,,,,,black_plus_sign,,,50,,,1,,,,,,,0.9285714285714286,,,,,,,,,,,,
null,,color_black2,1426223,,,,,,,,black_plus_sign,,,null,,,,,,,,,,,,,,,,,,,,,,
null,,learn_phase(without_color)2,1429727,,,,,,,,black_plus_sign,,,null,object_11c.png,object_14a.png,,,,,,,,,,,,,,,,,,,,
null,,black_cross(without_color)2,1430482,,,,,,,,green,,,null,object_11c.png,object_14a.png,,,,,,,,,,,,,,,,,,,,
null,,rt_plussign_withcolor2,1430987,,,,,,,,green,,,null,object_11c.png,object_14a.png,,,,,,,,,,,,,,,,,,,,
774.0999999940395,,rt_thecrossant_black2,1432257,,,,,,,,black_plus_sign,,,50,,,1,,,,,,,0.9333333333333333,,,,,,,,,,,,
null,,color_black2,1432366,,,,,,,,black_plus_sign,,,null,,,,,,,,,,,,,,,,,,,,,,
null,,learn_phase(without_color)2,1435871,,,,,,,,black_plus_sign,,,null,object_11b.png,object_10c.png,,,,,,,,,,,,,,,,,,,,
null,,black_cross(without_color)2,1436943,,,,,,,,blue,,,null,object_11b.png,object_10c.png,,,,,,,,,,,,,,,,,,,,
501.80000001192093,,rt_plussign_withcolor2,1437449,,,,,,,,blue,,,49,object_11b.png,object_10c.png,,,,,,,,,,,,,,,,,,,,
null,,rt_thecrossant_black2,1438398,,,,,,,,black_plus_sign,,,null,,,1,,,,,,,0.9375,,,,,,,,,,,,
null,,color_black2,1438512,,,,,,,,black_plus_sign,,,null,,,,,,,,,,,,,,,,,,,,,,
null,,learn_phase(without_color)2,1442025,,,,,,,,black_plus_sign,,,null,object_03a.png,object_06b.png,,,,,,,,,,,,,,,,,,,,
null,,black_cross(without_color)2,1443077,,,,,,,,green,,,null,object_03a.png,object_06b.png,,,,,,,,,,,,,,,,,,,,
null,,rt_plussign_withcolor2,1443595,,,,,,,,green,,,null,object_03a.png,object_06b.png,,,,,,,,,,,,,,,,,,,,
1249.4000000059605,,rt_thecrossant_black2,1444567,,,,,,,,black_plus_sign,,,50,,,1,,,,,,,0.9411764705882353,,,,,,,,,,,,
null,,color_black2,1444673,,,,,,,,black_plus_sign,,,null,,,,,,,,,,,,,,,,,,,,,,
null,,learn_phase(without_color)2,1448185,,,,,,,,black_plus_sign,,,null,object_03b.png,object_05b.png,,,,,,,,,,,,,,,,,,,,
null,,black_cross(without_color)2,1449158,,,,,,,,green,,,null,object_03b.png,object_05b.png,,,,,,,,,,,,,,,,,,,,
null,,rt_plussign_withcolor2,1449665,,,,,,,,green,,,null,object_03b.png,object_05b.png,,,,,,,,,,,,,,,,,,,,
1515.5,,rt_thecrossant_black2,1450704,,,,,,,,black_plus_sign,,,50,,,1,,,,,,,0.9444444444444444,,,,,,,,,,,,
null,,color_black2,1450819,,,,,,,,black_plus_sign,,,null,,,,,,,,,,,,,,,,,,,,,,
null,,learn_phase(without_color)2,1454333,,,,,,,,black_plus_sign,,,null,object_15a.png,object_05c.png,,,,,,,,,,,,,,,,,,,,
null,,black_cross(without_color)2,1455170,,,,,,,,green,,,null,object_15a.png,object_05c.png,,,,,,,,,,,,,,,,,,,,
null,,rt_plussign_withcolor2,1455678,,,,,,,,green,,,null,object_15a.png,object_05c.png,,,,,,,,,,,,,,,,,,,,
1309.300000011921,,rt_thecrossant_black2,1456862,,,,,,,,black_plus_sign,,,50,,,1,,,,,,,0.9473684210526315,,,,,,,,,,,,
null,,color_black2,1456969,,,,,,,,black_plus_sign,,,null,,,,,,,,,,,,,,,,,,,,,,
null,,learn_phase(without_color)2,1460474,,,,,,,,black_plus_sign,,,null,object_08a.png,object_10b.png,,,,,,,,,,,,,,,,,,,,
null,,black_cross(without_color)2,1461044,,,,,,,,green,,,null,object_08a.png,object_10b.png,,,,,,,,,,,,,,,,,,,,
null,,rt_plussign_withcolor2,1461551,,,,,,,,green,,,null,object_08a.png,object_10b.png,,,,,,,,,,,,,,,,,,,,
1061.9000000059605,,rt_thecrossant_black2,1463012,,,,,,,,black_plus_sign,,,50,,,1,,,,,,,0.95,,,,,,,,,,,,
null,,color_black2,1463126,,,,,,,,black_plus_sign,,,null,,,,,,,,,,,,,,,,,,,,,,
null,,learn_phase(without_color)2,1466637,,,,,,,,black_plus_sign,,,null,object_15c.png,object_12c.png,,,,,,,,,,,,,,,,,,,,
null,,black_cross(without_color)2,1467402,,,,,,,,green,,,null,object_15c.png,object_12c.png,,,,,,,,,,,,,,,,,,,,
null,,rt_plussign_withcolor2,1467910,,,,,,,,green,,,null,object_15c.png,object_12c.png,,,,,,,,,,,,,,,,,,,,
711.2000000178814,,rt_thecrossant_black2,1469180,,,,,,,,black_plus_sign,,,50,,,1,,,,,,,0.9523809523809523,,,,,,,,,,,,
null,,color_black2,1469287,,,,,,,,black_plus_sign,,,null,,,,,,,,,,,,,,,,,,,,,,
null,,learn_phase(without_color)2,1472805,,,,,,,,black_plus_sign,,,null,object_04c.png,object_13c.png,,,,,,,,,,,,,,,,,,,,
null,,black_cross(without_color)2,1473705,,,,,,,,green,,,null,object_04c.png,object_13c.png,,,,,,,,,,,,,,,,,,,,
null,,rt_plussign_withcolor2,1474218,,,,,,,,green,,,null,object_04c.png,object_13c.png,,,,,,,,,,,,,,,,,,,,
968.5999999940395,,rt_thecrossant_black2,1475345,,,,,,,,black_plus_sign,,,50,,,1,,,,,,,0.9545454545454546,,,,,,,,,,,,
null,,color_black2,1475448,,,,,,,,black_plus_sign,,,null,,,,,,,,,,,,,,,,,,,,,,
null,,learn_phase(without_color)2,1478964,,,,,,,,black_plus_sign,,,null,object_07a.png,object_09a.png,,,,,,,,,,,,,,,,,,,,
null,,black_cross(without_color)2,1479378,,,,,,,,blue,,,null,object_07a.png,object_09a.png,,,,,,,,,,,,,,,,,,,,
null,,rt_plussign_withcolor2,1479882,,,,,,,,blue,,,null,object_07a.png,object_09a.png,,,,,,,,,,,,,,,,,,,,
1179.4000000059605,,rt_thecrossant_black2,1481493,,,,,,,,black_plus_sign,,,49,,,1,,,,,,,0.9565217391304348,,,,,,,,,,,,
null,,color_black2,1481612,,,,,,,,black_plus_sign,,,null,,,,,,,,,,,,,,,,,,,,,,
null,,learn_phase(without_color)2,1485117,,,,,,,,black_plus_sign,,,null,object_13c.png,object_09b.png,,,,,,,,,,,,,,,,,,,,
null,,black_cross(without_color)2,1485611,,,,,,,,blue,,,null,object_13c.png,object_09b.png,,,,,,,,,,,,,,,,,,,,
null,,rt_plussign_withcolor2,1486129,,,,,,,,blue,,,null,object_13c.png,object_09b.png,,,,,,,,,,,,,,,,,,,,
548.4000000059605,,rt_thecrossant_black2,1487647,,,,,,,,black_plus_sign,,,49,,,1,,,,,,,0.9583333333333334,,,,,,,,,,,,
null,,color_black2,1487754,,,,,,,,black_plus_sign,,,null,,,,,,,,,,,,,,,,,,,,,,
null,,learn_phase(without_color)2,1491264,,,,,,,,black_plus_sign,,,null,object_10c.png,object_13b.png,,,,,,,,,,,,,,,,,,,,
null,,black_cross(without_color)2,1492271,,,,,,,,blue,,,null,object_10c.png,object_13b.png,,,,,,,,,,,,,,,,,,,,
null,,rt_plussign_withcolor2,1492787,,,,,,,,blue,,,null,object_10c.png,object_13b.png,,,,,,,,,,,,,,,,,,,,
890.2000000178814,,rt_thecrossant_black2,1493803,,,,,,,,black_plus_sign,,,49,,,1,,,,,,,0.96,,,,,,,,,,,,
null,,color_black2,1493917,,,,,,,,black_plus_sign,,,null,,,,,,,,,,,,,,,,,,,,,,
null,,learn_phase(without_color)2,1497432,,,,,,,,black_plus_sign,,,null,object_01c.png,object_13a.png,,,,,,,,,,,,,,,,,,,,
null,,black_cross(without_color)2,1498393,,,,,,,,green,,,null,object_01c.png,object_13a.png,,,,,,,,,,,,,,,,,,,,
null,,rt_plussign_withcolor2,1498898,,,,,,,,green,,,null,object_01c.png,object_13a.png,,,,,,,,,,,,,,,,,,,,
1303.300000011921,,rt_thecrossant_black2,1499970,,,,,,,,black_plus_sign,,,50,,,1,,,,,,,0.9615384615384616,,,,,,,,,,,,
null,,color_black2,1500079,,,,,,,,black_plus_sign,,,null,,,,,,,,,,,,,,,,,,,,,,
null,,learn_phase(without_color)2,1503592,,,,,,,,black_plus_sign,,,null,object_04b.png,object_07c.png,,,,,,,,,,,,,,,,,,,,
null,,black_cross(without_color)2,1504567,,,,,,,,green,,,null,object_04b.png,object_07c.png,,,,,,,,,,,,,,,,,,,,
null,,rt_plussign_withcolor2,1505074,,,,,,,,green,,,null,object_04b.png,object_07c.png,,,,,,,,,,,,,,,,,,,,
1398.0999999940395,,rt_thecrossant_black2,1506120,,,,,,,,black_plus_sign,,,50,,,1,,,,,,,0.9629629629629629,,,,,,,,,,,,
null,,color_black2,1506238,,,,,,,,black_plus_sign,,,null,,,,,,,,,,,,,,,,,,,,,,
null,,learn_phase(without_color)2,1509744,,,,,,,,black_plus_sign,,,null,object_12a.png,object_11c.png,,,,,,,,,,,,,,,,,,,,
null,,black_cross(without_color)2,1510389,,,,,,,,blue,,,null,object_12a.png,object_11c.png,,,,,,,,,,,,,,,,,,,,
null,,rt_plussign_withcolor2,1510893,,,,,,,,blue,,,null,object_12a.png,object_11c.png,,,,,,,,,,,,,,,,,,,,
1220,,rt_thecrossant_black2,1512261,,,,,,,,black_plus_sign,,,49,,,1,,,,,,,0.9642857142857143,,,,,,,,,,,,
null,,color_black2,1512369,,,,,,,,black_plus_sign,,,null,,,,,,,,,,,,,,,,,,,,,,
null,,learn_phase(without_color)2,1515878,,,,,,,,black_plus_sign,,,null,object_10b.png,object_01a.png,,,,,,,,,,,,,,,,,,,,
null,,black_cross(without_color)2,1516871,,,,,,,,blue,,,null,object_10b.png,object_01a.png,,,,,,,,,,,,,,,,,,,,
null,,rt_plussign_withcolor2,1517382,,,,,,,,blue,,,null,object_10b.png,object_01a.png,,,,,,,,,,,,,,,,,,,,
786.5999999940395,,rt_thecrossant_black2,1518417,,,,,,,,black_plus_sign,,,49,,,1,,,,,,,0.9655172413793104,,,,,,,,,,,,
null,,color_black2,1518530,,,,,,,,black_plus_sign,,,null,,,,,,,,,,,,,,,,,,,,,,
null,,thebreak,1518646,,,,,,,,<p></p>,,,null,,,,,,,,,,,,,,,,,,,,,,
66950.40000000596,,intro_0,1585600,,,,,,,,instruct,,,32,,,,,,,,,,,,,,,,,,,,,,
3180.4000000059605,,directmemory_phase2,1588783,,,,,,,,object_13a.png,,,49,,,1,,object_01c.png,object_10a.png,object_15c.png,object_01c.png,,0.5483870967741935,1,,,,,,,,,,,
3221.9000000059605,,directmemory_phase2,1592008,,,,,,,,object_13c.png,,,49,,,1,,object_04c.png,object_08a.png,object_10a.png,object_04c.png,,0.5625,1,,,,,,,,,,,
3710.5,,directmemory_phase2,1595723,,,,,,,,object_12c.png,,,49,,,1,,object_15c.png,object_03c.png,object_02a.png,object_15c.png,,0.5757575757575758,1,,,,,,,,,,,
5042.9000000059605,,directmemory_phase2,1600769,,,,,,,,object_04a.png,,,51,,,0,,object_03c.png,object_08a.png,object_10a.png,object_03c.png,,0.5588235294117647,0,,,,,,,,,,,
3158.2000000178814,,directmemory_phase2,1603931,,,,,,,,object_01a.png,,,51,,,1,,object_15a.png,object_06a.png,object_10b.png,object_10b.png,,0.5714285714285714,1,,,,,,,,,,,
3816.300000011921,,directmemory_phase2,1607750,,,,,,,,object_09b.png,,,50,,,1,,object_04a.png,object_13c.png,object_13a.png,object_13c.png,,0.5833333333333334,1,,,,,,,,,,,
2079.4000000059605,,directmemory_phase2,1609832,,,,,,,,object_08b.png,,,50,,,1,,object_15a.png,object_14b.png,object_12c.png,object_14b.png,,0.5945945945945946,1,,,,,,,,,,,
3067.699999988079,,directmemory_phase2,1612903,,,,,,,,object_15a.png,,,49,,,1,,object_02b.png,object_01c.png,object_02a.png,object_02b.png,,0.6052631578947368,1,,,,,,,,,,,
7188.4000000059605,,directmemory_phase2,1620095,,,,,,,,object_07c.png,,,51,,,0,,object_04b.png,object_08a.png,object_05a.png,object_04b.png,,0.5897435897435898,0,,,,,,,,,,,
6067.5999999940395,,directmemory_phase2,1626167,,,,,,,,object_08c.png,,,49,,,1,,object_11a.png,object_07a.png,object_11c.png,object_11a.png,,0.6,1,,,,,,,,,,,
1625.4000000059605,,directmemory_phase2,1627795,,,,,,,,object_14a.png,,,50,,,1,,object_07c.png,object_11c.png,object_13a.png,object_11c.png,,0.6097560975609756,1,,,,,,,,,,,
3362.699999988079,,directmemory_phase2,1631160,,,,,,,,object_12b.png,,,49,,,1,,object_06a.png,object_06b.png,object_07c.png,object_06a.png,,0.6190476190476191,1,,,,,,,,,,,
4872.399999976158,,directmemory_phase2,1636037,,,,,,,,object_13b.png,,,49,,,1,,object_10c.png,object_11c.png,object_13c.png,object_10c.png,,0.627906976744186,1,,,,,,,,,,,
2813.199999988079,,directmemory_phase2,1638853,,,,,,,,object_09a.png,,,50,,,0,,object_07a.png,object_07c.png,object_11a.png,object_07a.png,,0.6136363636363636,0,,,,,,,,,,,
7143.5999999940395,,directmemory_phase2,1646000,,,,,,,,object_05c.png,,,50,,,0,,object_15a.png,object_10b.png,object_04a.png,object_15a.png,,0.6,0,,,,,,,,,,,
1485.5999999940395,,directmemory_phase2,1647489,,,,,,,,object_07b.png,,,50,,,1,,object_07c.png,object_13a.png,object_12c.png,object_13a.png,,0.6086956521739131,1,,,,,,,,,,,
1436.300000011921,,directmemory_phase2,1648931,,,,,,,,object_06a.png,,,50,,,1,,object_04b.png,object_02c.png,object_11b.png,object_02c.png,,0.6170212765957447,1,,,,,,,,,,,
1678.7999999821186,,directmemory_phase2,1650613,,,,,,,,object_01b.png,,,51,,,1,,object_10c.png,object_12c.png,object_06b.png,object_06b.png,,0.625,1,,,,,,,,,,,
3264,,directmemory_phase2,1653880,,,,,,,,object_07a.png,,,50,,,0,,object_04b.png,object_01c.png,object_10a.png,object_10a.png,,0.6122448979591837,0,,,,,,,,,,,
6252.899999976158,,directmemory_phase2,1660136,,,,,,,,object_05b.png,,,50,,,1,,object_11c.png,object_03b.png,object_06b.png,object_03b.png,,0.62,1,,,,,,,,,,,
10800.200000017881,,directmemory_phase2,1670939,,,,,,,,object_03b.png,,,49,,,0,,object_10a.png,object_15b.png,object_02a.png,object_15b.png,,0.6078431372549019,0,,,,,,,,,,,
5045.699999988079,,directmemory_phase2,1675990,,,,,,,,object_06b.png,,,51,,,1,,object_04c.png,object_11b.png,object_03a.png,object_03a.png,,0.6153846153846154,1,,,,,,,,,,,
2693.699999988079,,directmemory_phase2,1678687,,,,,,,,object_10b.png,,,51,,,1,,object_05a.png,object_10a.png,object_08a.png,object_08a.png,,0.6226415094339622,1,,,,,,,,,,,
2038.5999999940395,,directmemory_phase2,1680728,,,,,,,,object_06c.png,,,49,,,1,,object_04a.png,object_12c.png,object_07a.png,object_04a.png,,0.6296296296296297,1,,,,,,,,,,,
4222.0999999940395,,directmemory_phase2,1684954,,,,,,,,object_14b.png,,,50,,,0,,object_05a.png,object_01c.png,object_08a.png,object_05a.png,,0.6181818181818182,0,,,,,,,,,,,
11872.09999999404,,directmemory_phase2,1696830,,,,,,,,object_11a.png,,,49,,,0,,object_02b.png,object_02a.png,object_02c.png,object_02a.png,,0.6071428571428571,0,,,,,,,,,,,
1823.9000000059605,,directmemory_phase2,1698657,,,,,,,,object_10c.png,,,51,,,1,,object_10a.png,object_08a.png,object_11b.png,object_11b.png,,0.6140350877192983,1,,,,,,,,,,,
6397.0999999940395,,directmemory_phase2,1705057,,,,,,,,object_09c.png,,,51,,,0,,object_12c.png,object_07a.png,object_10c.png,object_12c.png,,0.603448275862069,0,,,,,,,,,,,
5595.299999982119,,directmemory_phase2,1710657,,,,,,,,object_14c.png,,,51,,,1,,object_07a.png,object_12c.png,object_07c.png,object_07c.png,,0.6101694915254238,1,,,,,,,,,,,
2212.7999999821186,,directmemory_phase2,1712872,,,,,,,,object_11c.png,,,51,,,1,,object_02b.png,object_03a.png,object_12a.png,object_12a.png,,0.6166666666666667,1,,,,,,,,,,,
null,,thebreak,1712988,,,,,,,,<p></p>,,,null,,,,,,,,,,,,,,,,,,,,,,
22310.20000001788,,intro_0,1735300,,,,,,,,instruct,,,32,,,,,,,,,,,,,,,,,,,,,,
null,,learn_phase(without_color)3,1738809,,,,,,,,black_plus_sign,,,null,object_04b.png,object_07c.png,,,,,,,,,,,,,,,,,,,,
null,,black_cross(without_color)3,1739430,,,,,,,,green,,,null,object_04b.png,object_07c.png,,,,,,,,,,,,,,,,,,,,
null,,rt_plussign_withcolor3,1739936,,,,,,,,green,,,null,object_04b.png,object_07c.png,,,,,,,,,,,,,,,,,,,,
1008.9000000059605,,rt_thecrossant_black3,1741343,,,,,,,,black_plus_sign,,,50,,,1,,,,,,,1,,,,,,,,,,,,
null,,color_black3,1741448,,,,,,,,black_plus_sign,,,null,,,,,,,,,,,,,,,,,,,,,,
null,,learn_phase(without_color)3,1744964,,,,,,,,black_plus_sign,,,null,object_11b.png,object_10c.png,,,,,,,,,,,,,,,,,,,,
null,,black_cross(without_color)3,1745608,,,,,,,,green,,,null,object_11b.png,object_10c.png,,,,,,,,,,,,,,,,,,,,
null,,rt_plussign_withcolor3,1746111,,,,,,,,green,,,null,object_11b.png,object_10c.png,,,,,,,,,,,,,,,,,,,,
814.7000000178814,,rt_thecrossant_black3,1747488,,,,,,,,black_plus_sign,,,50,,,1,,,,,,,1,,,,,,,,,,,,
null,,color_black3,1747594,,,,,,,,black_plus_sign,,,null,,,,,,,,,,,,,,,,,,,,,,
null,,learn_phase(without_color)3,1751114,,,,,,,,black_plus_sign,,,null,object_07c.png,object_14c.png,,,,,,,,,,,,,,,,,,,,
null,,black_cross(without_color)3,1752054,,,,,,,,blue,,,null,object_07c.png,object_14c.png,,,,,,,,,,,,,,,,,,,,
null,,rt_plussign_withcolor3,1752557,,,,,,,,blue,,,null,object_07c.png,object_14c.png,,,,,,,,,,,,,,,,,,,,
974.3000000119209,,rt_thecrossant_black3,1753637,,,,,,,,black_plus_sign,,,49,,,1,,,,,,,1,,,,,,,,,,,,
null,,color_black3,1753751,,,,,,,,black_plus_sign,,,null,,,,,,,,,,,,,,,,,,,,,,
null,,learn_phase(without_color)3,1757261,,,,,,,,black_plus_sign,,,null,object_11a.png,object_08c.png,,,,,,,,,,,,,,,,,,,,
null,,black_cross(without_color)3,1758334,,,,,,,,green,,,null,object_11a.png,object_08c.png,,,,,,,,,,,,,,,,,,,,
null,,rt_plussign_withcolor3,1758850,,,,,,,,green,,,null,object_11a.png,object_08c.png,,,,,,,,,,,,,,,,,,,,
1834.8999999761581,,rt_thecrossant_black3,1759809,,,,,,,,black_plus_sign,,,50,,,1,,,,,,,1,,,,,,,,,,,,
null,,color_black3,1759915,,,,,,,,black_plus_sign,,,null,,,,,,,,,,,,,,,,,,,,,,
null,,learn_phase(without_color)3,1763428,,,,,,,,black_plus_sign,,,null,object_07a.png,object_09a.png,,,,,,,,,,,,,,,,,,,,
null,,black_cross(without_color)3,1764302,,,,,,,,green,,,null,object_07a.png,object_09a.png,,,,,,,,,,,,,,,,,,,,
null,,rt_plussign_withcolor3,1764816,,,,,,,,green,,,null,object_07a.png,object_09a.png,,,,,,,,,,,,,,,,,,,,
1512.9000000059605,,rt_thecrossant_black3,1765978,,,,,,,,black_plus_sign,,,50,,,1,,,,,,,1,,,,,,,,,,,,
null,,color_black3,1766091,,,,,,,,black_plus_sign,,,null,,,,,,,,,,,,,,,,,,,,,,
null,,learn_phase(without_color)3,1769598,,,,,,,,black_plus_sign,,,null,object_03a.png,object_06b.png,,,,,,,,,,,,,,,,,,,,
null,,black_cross(without_color)3,1770475,,,,,,,,green,,,null,object_03a.png,object_06b.png,,,,,,,,,,,,,,,,,,,,
null,,rt_plussign_withcolor3,1770988,,,,,,,,green,,,null,object_03a.png,object_06b.png,,,,,,,,,,,,,,,,,,,,
986.3999999761581,,rt_thecrossant_black3,1772139,,,,,,,,black_plus_sign,,,50,,,1,,,,,,,1,,,,,,,,,,,,
null,,color_black3,1772254,,,,,,,,black_plus_sign,,,null,,,,,,,,,,,,,,,,,,,,,,
null,,learn_phase(without_color)3,1775768,,,,,,,,black_plus_sign,,,null,object_13c.png,object_09b.png,,,,,,,,,,,,,,,,,,,,
null,,black_cross(without_color)3,1776318,,,,,,,,blue,,,null,object_13c.png,object_09b.png,,,,,,,,,,,,,,,,,,,,
null,,rt_plussign_withcolor3,1776837,,,,,,,,blue,,,null,object_13c.png,object_09b.png,,,,,,,,,,,,,,,,,,,,
1079.800000011921,,rt_thecrossant_black3,1778308,,,,,,,,black_plus_sign,,,49,,,1,,,,,,,1,,,,,,,,,,,,
null,,color_black3,1778415,,,,,,,,black_plus_sign,,,null,,,,,,,,,,,,,,,,,,,,,,
null,,learn_phase(without_color)3,1781924,,,,,,,,black_plus_sign,,,null,object_10c.png,object_13b.png,,,,,,,,,,,,,,,,,,,,
null,,black_cross(without_color)3,1782764,,,,,,,,green,,,null,object_10c.png,object_13b.png,,,,,,,,,,,,,,,,,,,,
null,,rt_plussign_withcolor3,1783271,,,,,,,,green,,,null,object_10c.png,object_13b.png,,,,,,,,,,,,,,,,,,,,
1250.2999999821186,,rt_thecrossant_black3,1784444,,,,,,,,black_plus_sign,,,50,,,1,,,,,,,1,,,,,,,,,,,,
null,,color_black3,1784561,,,,,,,,black_plus_sign,,,null,,,,,,,,,,,,,,,,,,,,,,
null,,learn_phase(without_color)3,1788068,,,,,,,,black_plus_sign,,,null,object_03b.png,object_05b.png,,,,,,,,,,,,,,,,,,,,
null,,black_cross(without_color)3,1789126,,,,,,,,green,,,null,object_03b.png,object_05b.png,,,,,,,,,,,,,,,,,,,,
null,,rt_plussign_withcolor3,1789632,,,,,,,,green,,,null,object_03b.png,object_05b.png,,,,,,,,,,,,,,,,,,,,
1391.2000000178814,,rt_thecrossant_black3,1790597,,,,,,,,black_plus_sign,,,50,,,1,,,,,,,1,,,,,,,,,,,,
null,,color_black3,1790707,,,,,,,,black_plus_sign,,,null,,,,,,,,,,,,,,,,,,,,,,
null,,learn_phase(without_color)3,1794212,,,,,,,,black_plus_sign,,,null,object_05a.png,object_14b.png,,,,,,,,,,,,,,,,,,,,
null,,black_cross(without_color)3,1794996,,,,,,,,blue,,,null,object_05a.png,object_14b.png,,,,,,,,,,,,,,,,,,,,
null,,rt_plussign_withcolor3,1795510,,,,,,,,blue,,,null,object_05a.png,object_14b.png,,,,,,,,,,,,,,,,,,,,
1603.9000000059605,,rt_thecrossant_black3,1796745,,,,,,,,black_plus_sign,,,49,,,1,,,,,,,1,,,,,,,,,,,,
null,,color_black3,1796853,,,,,,,,black_plus_sign,,,null,,,,,,,,,,,,,,,,,,,,,,
null,,learn_phase(without_color)3,1800364,,,,,,,,black_plus_sign,,,null,object_03c.png,object_04a.png,,,,,,,,,,,,,,,,,,,,
null,,black_cross(without_color)3,1800916,,,,,,,,blue,,,null,object_03c.png,object_04a.png,,,,,,,,,,,,,,,,,,,,
null,,rt_plussign_withcolor3,1801434,,,,,,,,blue,,,null,object_03c.png,object_04a.png,,,,,,,,,,,,,,,,,,,,
1534.800000011921,,rt_thecrossant_black3,1802914,,,,,,,,black_plus_sign,,,50,,,0,,,,,,,0.9090909090909091,,,,,,,,,,,,
null,,color_black3,1803028,,,,,,,,black_plus_sign,,,null,,,,,,,,,,,,,,,,,,,,,,
null,,learn_phase(without_color)3,1806537,,,,,,,,black_plus_sign,,,null,object_12a.png,object_11c.png,,,,,,,,,,,,,,,,,,,,
null,,black_cross(without_color)3,1807104,,,,,,,,blue,,,null,object_12a.png,object_11c.png,,,,,,,,,,,,,,,,,,,,
null,,rt_plussign_withcolor3,1807611,,,,,,,,blue,,,null,object_12a.png,object_11c.png,,,,,,,,,,,,,,,,,,,,
1057.2999999821186,,rt_thecrossant_black3,1809056,,,,,,,,black_plus_sign,,,49,,,1,,,,,,,0.9166666666666666,,,,,,,,,,,,
null,,color_black3,1809176,,,,,,,,black_plus_sign,,,null,,,,,,,,,,,,,,,,,,,,,,
null,,learn_phase(without_color)3,1812683,,,,,,,,black_plus_sign,,,null,object_10b.png,object_01a.png,,,,,,,,,,,,,,,,,,,,
null,,black_cross(without_color)3,1813254,,,,,,,,green,,,null,object_10b.png,object_01a.png,,,,,,,,,,,,,,,,,,,,
null,,rt_plussign_withcolor3,1813756,,,,,,,,green,,,null,object_10b.png,object_01a.png,,,,,,,,,,,,,,,,,,,,
1090.7999999821186,,rt_thecrossant_black3,1815202,,,,,,,,black_plus_sign,,,50,,,1,,,,,,,0.9230769230769231,,,,,,,,,,,,
null,,color_black3,1815320,,,,,,,,black_plus_sign,,,null,,,,,,,,,,,,,,,,,,,,,,
null,,learn_phase(without_color)3,1818826,,,,,,,,black_plus_sign,,,null,object_08a.png,object_10b.png,,,,,,,,,,,,,,,,,,,,
null,,black_cross(without_color)3,1819507,,,,,,,,blue,,,null,object_08a.png,object_10b.png,,,,,,,,,,,,,,,,,,,,
null,,rt_plussign_withcolor3,1820012,,,,,,,,blue,,,null,object_08a.png,object_10b.png,,,,,,,,,,,,,,,,,,,,
1108.2999999821186,,rt_thecrossant_black3,1821366,,,,,,,,black_plus_sign,,,49,,,1,,,,,,,0.9285714285714286,,,,,,,,,,,,
null,,color_black3,1821480,,,,,,,,black_plus_sign,,,null,,,,,,,,,,,,,,,,,,,,,,
null,,learn_phase(without_color)3,1824991,,,,,,,,black_plus_sign,,,null,object_01c.png,object_13a.png,,,,,,,,,,,,,,,,,,,,
null,,black_cross(without_color)3,1825830,,,,,,,,green,,,null,object_01c.png,object_13a.png,,,,,,,,,,,,,,,,,,,,
null,,rt_plussign_withcolor3,1826340,,,,,,,,green,,,null,object_01c.png,object_13a.png,,,,,,,,,,,,,,,,,,,,
null,,rt_thecrossant_black3,1827519,,,,,,,,black_plus_sign,,,null,,,,,,,,,,0.9285714285714286,,,,,,,,,,,,
null,,color_black3,1827625,,,,,,,,black_plus_sign,,,null,,,,,,,,,,,,,,,,,,,,,,
null,,learn_phase(without_color)3,1831139,,,,,,,,black_plus_sign,,,null,object_04c.png,object_13c.png,,,,,,,,,,,,,,,,,,,,
null,,black_cross(without_color)3,1831867,,,,,,,,green,,,null,object_04c.png,object_13c.png,,,,,,,,,,,,,,,,,,,,
null,,rt_plussign_withcolor3,1832382,,,,,,,,green,,,null,object_04c.png,object_13c.png,,,,,,,,,,,,,,,,,,,,
1261.199999988079,,rt_thecrossant_black3,1833668,,,,,,,,black_plus_sign,,,50,,,1,,,,,,,0.9333333333333333,,,,,,,,,,,,
null,,color_black3,1833786,,,,,,,,black_plus_sign,,,null,,,,,,,,,,,,,,,,,,,,,,
null,,learn_phase(without_color)3,1837304,,,,,,,,black_plus_sign,,,null,object_13a.png,object_07b.png,,,,,,,,,,,,,,,,,,,,
null,,black_cross(without_color)3,1838334,,,,,,,,green,,,null,object_13a.png,object_07b.png,,,,,,,,,,,,,,,,,,,,
null,,rt_plussign_withcolor3,1838845,,,,,,,,green,,,null,object_13a.png,object_07b.png,,,,,,,,,,,,,,,,,,,,
1071.699999988079,,rt_thecrossant_black3,1839842,,,,,,,,black_plus_sign,,,50,,,1,,,,,,,0.9375,,,,,,,,,,,,
null,,color_black3,1839948,,,,,,,,black_plus_sign,,,null,,,,,,,,,,,,,,,,,,,,,,
null,,learn_phase(without_color)3,1843462,,,,,,,,black_plus_sign,,,null,object_14b.png,object_08b.png,,,,,,,,,,,,,,,,,,,,
null,,black_cross(without_color)3,1844559,,,,,,,,green,,,null,object_14b.png,object_08b.png,,,,,,,,,,,,,,,,,,,,
null,,rt_plussign_withcolor3,1845064,,,,,,,,green,,,null,object_14b.png,object_08b.png,,,,,,,,,,,,,,,,,,,,
1225.800000011921,,rt_thecrossant_black3,1846002,,,,,,,,black_plus_sign,,,50,,,1,,,,,,,0.9411764705882353,,,,,,,,,,,,
null,,color_black3,1846109,,,,,,,,black_plus_sign,,,null,,,,,,,,,,,,,,,,,,,,,,
null,,learn_phase(without_color)3,1849619,,,,,,,,black_plus_sign,,,null,object_15c.png,object_12c.png,,,,,,,,,,,,,,,,,,,,
null,,black_cross(without_color)3,1850368,,,,,,,,green,,,null,object_15c.png,object_12c.png,,,,,,,,,,,,,,,,,,,,
null,,rt_plussign_withcolor3,1850876,,,,,,,,green,,,null,object_15c.png,object_12c.png,,,,,,,,,,,,,,,,,,,,
1323.5999999940395,,rt_thecrossant_black3,1852139,,,,,,,,black_plus_sign,,,50,,,1,,,,,,,0.9444444444444444,,,,,,,,,,,,
null,,color_black3,1852255,,,,,,,,black_plus_sign,,,null,,,,,,,,,,,,,,,,,,,,,,
null,,learn_phase(without_color)3,1855764,,,,,,,,black_plus_sign,,,null,object_04a.png,object_06c.png,,,,,,,,,,,,,,,,,,,,
null,,black_cross(without_color)3,1856813,,,,,,,,green,,,null,object_04a.png,object_06c.png,,,,,,,,,,,,,,,,,,,,
479,,rt_plussign_withcolor3,1857315,,,,,,,,green,,,50,object_04a.png,object_06c.png,,,,,,,,,,,,,,,,,,,,
null,,rt_thecrossant_black3,1858296,,,,,,,,black_plus_sign,,,null,,,1,,,,,,,0.9473684210526315,,,,,,,,,,,,
null,,color_black3,1858400,,,,,,,,black_plus_sign,,,null,,,,,,,,,,,,,,,,,,,,,,
null,,learn_phase(without_color)3,1861918,,,,,,,,black_plus_sign,,,null,object_02c.png,object_06a.png,,,,,,,,,,,,,,,,,,,,
null,,black_cross(without_color)3,1863012,,,,,,,,blue,,,null,object_02c.png,object_06a.png,,,,,,,,,,,,,,,,,,,,
null,,rt_plussign_withcolor3,1863530,,,,,,,,blue,,,null,object_02c.png,object_06a.png,,,,,,,,,,,,,,,,,,,,
1565.9000000059605,,rt_thecrossant_black3,1864471,,,,,,,,black_plus_sign,,,49,,,1,,,,,,,0.95,,,,,,,,,,,,
null,,color_black3,1864580,,,,,,,,black_plus_sign,,,null,,,,,,,,,,,,,,,,,,,,,,
null,,learn_phase(without_color)3,1868091,,,,,,,,black_plus_sign,,,null,object_15a.png,object_05c.png,,,,,,,,,,,,,,,,,,,,
null,,black_cross(without_color)3,1868681,,,,,,,,green,,,null,object_15a.png,object_05c.png,,,,,,,,,,,,,,,,,,,,
null,,rt_plussign_withcolor3,1869198,,,,,,,,green,,,null,object_15a.png,object_05c.png,,,,,,,,,,,,,,,,,,,,
1727.699999988079,,rt_thecrossant_black3,1870624,,,,,,,,black_plus_sign,,,50,,,1,,,,,,,0.9523809523809523,,,,,,,,,,,,
null,,color_black3,1870738,,,,,,,,black_plus_sign,,,null,,,,,,,,,,,,,,,,,,,,,,
null,,learn_phase(without_color)3,1874256,,,,,,,,black_plus_sign,,,null,object_11c.png,object_14a.png,,,,,,,,,,,,,,,,,,,,
null,,black_cross(without_color)3,1875251,,,,,,,,blue,,,null,object_11c.png,object_14a.png,,,,,,,,,,,,,,,,,,,,
null,,rt_plussign_withcolor3,1875765,,,,,,,,blue,,,null,object_11c.png,object_14a.png,,,,,,,,,,,,,,,,,,,,
863.8999999761581,,rt_thecrossant_black3,1876786,,,,,,,,black_plus_sign,,,49,,,1,,,,,,,0.9545454545454546,,,,,,,,,,,,
null,,color_black3,1876900,,,,,,,,black_plus_sign,,,null,,,,,,,,,,,,,,,,,,,,,,
null,,learn_phase(without_color)3,1880411,,,,,,,,black_plus_sign,,,null,object_10a.png,object_07a.png,,,,,,,,,,,,,,,,,,,,
null,,black_cross(without_color)3,1881096,,,,,,,,blue,,,null,object_10a.png,object_07a.png,,,,,,,,,,,,,,,,,,,,
null,,rt_plussign_withcolor3,1881600,,,,,,,,blue,,,null,object_10a.png,object_07a.png,,,,,,,,,,,,,,,,,,,,
1427.7999999821186,,rt_thecrossant_black3,1882941,,,,,,,,black_plus_sign,,,49,,,1,,,,,,,0.9565217391304348,,,,,,,,,,,,
null,,color_black3,1883047,,,,,,,,black_plus_sign,,,null,,,,,,,,,,,,,,,,,,,,,,
null,,learn_phase(without_color)3,1886560,,,,,,,,black_plus_sign,,,null,object_12c.png,object_09c.png,,,,,,,,,,,,,,,,,,,,
null,,black_cross(without_color)3,1887254,,,,,,,,blue,,,null,object_12c.png,object_09c.png,,,,,,,,,,,,,,,,,,,,
null,,rt_plussign_withcolor3,1887767,,,,,,,,blue,,,null,object_12c.png,object_09c.png,,,,,,,,,,,,,,,,,,,,
1048.5,,rt_thecrossant_black3,1889090,,,,,,,,black_plus_sign,,,49,,,1,,,,,,,0.9583333333333334,,,,,,,,,,,,
null,,color_black3,1889208,,,,,,,,black_plus_sign,,,null,,,,,,,,,,,,,,,,,,,,,,
null,,learn_phase(without_color)3,1892721,,,,,,,,black_plus_sign,,,null,object_02b.png,object_15a.png,,,,,,,,,,,,,,,,,,,,
null,,black_cross(without_color)3,1893203,,,,,,,,blue,,,null,object_02b.png,object_15a.png,,,,,,,,,,,,,,,,,,,,
null,,rt_plussign_withcolor3,1893707,,,,,,,,blue,,,null,object_02b.png,object_15a.png,,,,,,,,,,,,,,,,,,,,
1094.4000000059605,,rt_thecrossant_black3,1895259,,,,,,,,black_plus_sign,,,49,,,1,,,,,,,0.96,,,,,,,,,,,,
null,,color_black3,1895368,,,,,,,,black_plus_sign,,,null,,,,,,,,,,,,,,,,,,,,,,
null,,learn_phase(without_color)3,1898881,,,,,,,,black_plus_sign,,,null,object_06b.png,object_01b.png,,,,,,,,,,,,,,,,,,,,
null,,black_cross(without_color)3,1899786,,,,,,,,blue,,,null,object_06b.png,object_01b.png,,,,,,,,,,,,,,,,,,,,
null,,rt_plussign_withcolor3,1900291,,,,,,,,blue,,,null,object_06b.png,object_01b.png,,,,,,,,,,,,,,,,,,,,
714.1999999880791,,rt_thecrossant_black3,1901399,,,,,,,,black_plus_sign,,,49,,,1,,,,,,,0.9615384615384616,,,,,,,,,,,,
null,,color_black3,1901515,,,,,,,,black_plus_sign,,,null,,,,,,,,,,,,,,,,,,,,,,
null,,learn_phase(without_color)3,1905032,,,,,,,,black_plus_sign,,,null,object_15b.png,object_03b.png,,,,,,,,,,,,,,,,,,,,
null,,black_cross(without_color)3,1905532,,,,,,,,blue,,,null,object_15b.png,object_03b.png,,,,,,,,,,,,,,,,,,,,
null,,rt_plussign_withcolor3,1906040,,,,,,,,blue,,,null,object_15b.png,object_03b.png,,,,,,,,,,,,,,,,,,,,
1240.5,,rt_thecrossant_black3,1907553,,,,,,,,black_plus_sign,,,49,,,1,,,,,,,0.9629629629629629,,,,,,,,,,,,
null,,color_black3,1907660,,,,,,,,black_plus_sign,,,null,,,,,,,,,,,,,,,,,,,,,,
null,,learn_phase(without_color)3,1911173,,,,,,,,black_plus_sign,,,null,object_02a.png,object_11a.png,,,,,,,,,,,,,,,,,,,,
null,,black_cross(without_color)3,1911918,,,,,,,,green,,,null,object_02a.png,object_11a.png,,,,,,,,,,,,,,,,,,,,
null,,rt_plussign_withcolor3,1912435,,,,,,,,green,,,null,object_02a.png,object_11a.png,,,,,,,,,,,,,,,,,,,,
901.8999999761581,,rt_thecrossant_black3,1913708,,,,,,,,black_plus_sign,,,50,,,1,,,,,,,0.9642857142857143,,,,,,,,,,,,
null,,color_black3,1913821,,,,,,,,black_plus_sign,,,null,,,,,,,,,,,,,,,,,,,,,,
null,,learn_phase(without_color)3,1917342,,,,,,,,black_plus_sign,,,null,object_06a.png,object_12b.png,,,,,,,,,,,,,,,,,,,,
null,,black_cross(without_color)3,1917985,,,,,,,,green,,,null,object_06a.png,object_12b.png,,,,,,,,,,,,,,,,,,,,
null,,rt_plussign_withcolor3,1918495,,,,,,,,green,,,null,object_06a.png,object_12b.png,,,,,,,,,,,,,,,,,,,,
1462.2999999821186,,rt_thecrossant_black3,1919867,,,,,,,,black_plus_sign,,,50,,,1,,,,,,,0.9655172413793104,,,,,,,,,,,,
null,,color_black3,1919981,,,,,,,,black_plus_sign,,,null,,,,,,,,,,,,,,,,,,,,,,
null,,thebreak,1920100,,,,,,,,<p></p>,,,null,,,,,,,,,,,,,,,,,,,,,,
36440.5,,intro_0,1956543,,,,,,,,instruct,,,32,,,,,,,,,,,,,,,,,,,,,,
2868.4000000059605,,directmemory_phase3,1959415,,,,,,,,object_06b.png,,,49,,,1,,object_03a.png,object_04c.png,object_02b.png,object_03a.png,,0.6229508196721312,1,,,,,,,,,,,
1693.199999988079,,directmemory_phase3,1961111,,,,,,,,object_01b.png,,,49,,,1,,object_06b.png,object_07a.png,object_07c.png,object_06b.png,,0.6290322580645161,1,,,,,,,,,,,
4631.9000000059605,,directmemory_phase3,1965745,,,,,,,,object_13c.png,,,50,,,1,,object_01c.png,object_04c.png,object_02b.png,object_04c.png,,0.6349206349206349,1,,,,,,,,,,,
2494.2999999821186,,directmemory_phase3,1968245,,,,,,,,object_06c.png,,,50,,,0,,object_04a.png,object_07c.png,object_06b.png,object_04a.png,,0.625,0,,,,,,,,,,,
5482.5,,directmemory_phase3,1973732,,,,,,,,object_03b.png,,,50,,,1,,object_11b.png,object_15b.png,object_01c.png,object_15b.png,,0.6307692307692307,1,,,,,,,,,,,
3633.9000000059605,,directmemory_phase3,1977368,,,,,,,,object_09a.png,,,51,,,0,,object_07a.png,object_04a.png,object_14b.png,object_07a.png,,0.6212121212121212,0,,,,,,,,,,,
3850.4000000059605,,directmemory_phase3,1981222,,,,,,,,object_09c.png,,,50,,,1,,object_04a.png,object_12c.png,object_14b.png,object_12c.png,,0.6268656716417911,1,,,,,,,,,,,
2182.5999999940395,,directmemory_phase3,1983408,,,,,,,,object_08c.png,,,49,,,1,,object_11a.png,object_15a.png,object_13a.png,object_11a.png,,0.6323529411764706,1,,,,,,,,,,,
1743.5999999940395,,directmemory_phase3,1985155,,,,,,,,object_14c.png,,,50,,,1,,object_10b.png,object_07c.png,object_14b.png,object_07c.png,,0.6376811594202898,1,,,,,,,,,,,
4552,,directmemory_phase3,1989711,,,,,,,,object_12c.png,,,49,,,1,,object_15c.png,object_05a.png,object_08a.png,object_15c.png,,0.6428571428571429,1,,,,,,,,,,,
6641.600000023842,,directmemory_phase3,1996357,,,,,,,,object_07c.png,,,51,,,1,,object_02b.png,object_11b.png,object_04b.png,object_04b.png,,0.647887323943662,1,,,,,,,,,,,
6700.300000011921,,directmemory_phase3,2003060,,,,,,,,object_13a.png,,,50,,,0,,object_10a.png,object_02b.png,object_01c.png,object_01c.png,,0.6388888888888888,0,,,,,,,,,,,
1396.7000000178814,,directmemory_phase3,2004461,,,,,,,,object_12b.png,,,49,,,1,,object_06a.png,object_07a.png,object_10c.png,object_06a.png,,0.6438356164383562,1,,,,,,,,,,,
2270.199999988079,,directmemory_phase3,2006736,,,,,,,,object_08b.png,,,51,,,1,,object_07a.png,object_06b.png,object_14b.png,object_14b.png,,0.6486486486486487,1,,,,,,,,,,,
3253.9000000059605,,directmemory_phase3,2009992,,,,,,,,object_15a.png,,,49,,,1,,object_02b.png,object_04b.png,object_02c.png,object_02b.png,,0.6533333333333333,1,,,,,,,,,,,
2067.9000000059605,,directmemory_phase3,2012064,,,,,,,,object_14b.png,,,51,,,1,,object_11b.png,object_12a.png,object_05a.png,object_05a.png,,0.6578947368421053,1,,,,,,,,,,,
2203.5999999940395,,directmemory_phase3,2014272,,,,,,,,object_11c.png,,,50,,,1,,object_10a.png,object_12a.png,object_08a.png,object_12a.png,,0.6623376623376623,1,,,,,,,,,,,
1329.5999999940395,,directmemory_phase3,2015605,,,,,,,,object_07b.png,,,49,,,1,,object_13a.png,object_11a.png,object_15a.png,object_13a.png,,0.6666666666666666,1,,,,,,,,,,,
6627.700000017881,,directmemory_phase3,2022238,,,,,,,,object_06a.png,,,49,,,0,,object_03c.png,object_15c.png,object_02c.png,object_02c.png,,0.6582278481012658,0,,,,,,,,,,,
4388,,directmemory_phase3,2026630,,,,,,,,object_09b.png,,,50,,,0,,object_13a.png,object_10b.png,object_13c.png,object_13c.png,,0.65,0,,,,,,,,,,,
5855.700000017881,,directmemory_phase3,2032489,,,,,,,,object_10b.png,,,51,,,1,,object_03a.png,object_02b.png,object_08a.png,object_08a.png,,0.654320987654321,1,,,,,,,,,,,
2607.800000011921,,directmemory_phase3,2035100,,,,,,,,object_11a.png,,,49,,,1,,object_02a.png,object_04b.png,object_02b.png,object_02a.png,,0.6585365853658537,1,,,,,,,,,,,
11726,,directmemory_phase3,2046830,,,,,,,,object_01a.png,,,49,,,1,,object_10b.png,object_04a.png,object_15a.png,object_10b.png,,0.6626506024096386,1,,,,,,,,,,,
1605.3999999761581,,directmemory_phase3,2048439,,,,,,,,object_07a.png,,,50,,,1,,object_02b.png,object_10a.png,object_01c.png,object_10a.png,,0.6666666666666666,1,,,,,,,,,,,
3038.399999976158,,directmemory_phase3,2051481,,,,,,,,object_10c.png,,,49,,,1,,object_11b.png,object_03c.png,object_08a.png,object_11b.png,,0.6705882352941176,1,,,,,,,,,,,
4752.300000011921,,directmemory_phase3,2056235,,,,,,,,object_13b.png,,,49,,,1,,object_10c.png,object_06b.png,object_13c.png,object_10c.png,,0.6744186046511628,1,,,,,,,,,,,
3778.199999988079,,directmemory_phase3,2060019,,,,,,,,object_05b.png,,,50,,,1,,object_13a.png,object_03b.png,object_04a.png,object_03b.png,,0.6781609195402298,1,,,,,,,,,,,
6117.200000017881,,directmemory_phase3,2066141,,,,,,,,object_04a.png,,,49,,,1,,object_03c.png,object_03a.png,object_02c.png,object_03c.png,,0.6818181818181818,1,,,,,,,,,,,
1909.7000000178814,,directmemory_phase3,2068056,,,,,,,,object_14a.png,,,49,,,1,,object_11c.png,object_15a.png,object_14b.png,object_11c.png,,0.6853932584269663,1,,,,,,,,,,,
2626.199999988079,,directmemory_phase3,2070684,,,,,,,,object_05c.png,,,49,,,1,,object_15a.png,object_06b.png,object_13a.png,object_15a.png,,0.6888888888888889,1,,,,,,,,,,,
null,,thebreak,2070791,,,,,,,,<p></p>,,,null,,,,,,,,,,,,,,,,,,,,,,
80514.29999998212,,intro_0,2151309,,,,,,,,instruct,,,32,,,,,,,,,,,,,,,,,,,,,,
null,,learn_phase(without_color)4,2154824,,,,,,,,black_plus_sign,,,null,object_04c.png,object_13c.png,,,,,,,,,,,,,,,,,,,,
null,,black_cross(without_color)4,2155341,,,,,,,,blue,,,null,object_04c.png,object_13c.png,,,,,,,,,,,,,,,,,,,,
null,,rt_plussign_withcolor4,2155852,,,,,,,,blue,,,null,object_04c.png,object_13c.png,,,,,,,,,,,,,,,,,,,,
968,,rt_thecrossant_black4,2157367,,,,,,,,black_plus_sign,,,49,,,1,,,,,,,1,,,,,,,,,,,,
null,,color_black4,2157471,,,,,,,,black_plus_sign,,,null,,,,,,,,,,,,,,,,,,,,,,
null,,learn_phase(without_color)4,2160987,,,,,,,,black_plus_sign,,,null,object_03b.png,object_05b.png,,,,,,,,,,,,,,,,,,,,
null,,black_cross(without_color)4,2161651,,,,,,,,blue,,,null,object_03b.png,object_05b.png,,,,,,,,,,,,,,,,,,,,
null,,rt_plussign_withcolor4,2162159,,,,,,,,blue,,,null,object_03b.png,object_05b.png,,,,,,,,,,,,,,,,,,,,
730.5999999940395,,rt_thecrossant_black4,2163523,,,,,,,,black_plus_sign,,,49,,,1,,,,,,,1,,,,,,,,,,,,
null,,color_black4,2163630,,,,,,,,black_plus_sign,,,null,,,,,,,,,,,,,,,,,,,,,,
null,,learn_phase(without_color)4,2167143,,,,,,,,black_plus_sign,,,null,object_10c.png,object_13b.png,,,,,,,,,,,,,,,,,,,,
null,,black_cross(without_color)4,2167718,,,,,,,,green,,,null,object_10c.png,object_13b.png,,,,,,,,,,,,,,,,,,,,
null,,rt_plussign_withcolor4,2168221,,,,,,,,green,,,null,object_10c.png,object_13b.png,,,,,,,,,,,,,,,,,,,,
1296.199999988079,,rt_thecrossant_black4,2169678,,,,,,,,black_plus_sign,,,50,,,1,,,,,,,1,,,,,,,,,,,,
null,,color_black4,2169791,,,,,,,,black_plus_sign,,,null,,,,,,,,,,,,,,,,,,,,,,
null,,learn_phase(without_color)4,2173306,,,,,,,,black_plus_sign,,,null,object_07c.png,object_14c.png,,,,,,,,,,,,,,,,,,,,
null,,black_cross(without_color)4,2173849,,,,,,,,blue,,,null,object_07c.png,object_14c.png,,,,,,,,,,,,,,,,,,,,
null,,rt_plussign_withcolor4,2174355,,,,,,,,blue,,,null,object_07c.png,object_14c.png,,,,,,,,,,,,,,,,,,,,
1573.1000000238419,,rt_thecrossant_black4,2175837,,,,,,,,black_plus_sign,,,49,,,1,,,,,,,1,,,,,,,,,,,,
null,,color_black4,2175956,,,,,,,,black_plus_sign,,,null,,,,,,,,,,,,,,,,,,,,,,
null,,learn_phase(without_color)4,2179475,,,,,,,,black_plus_sign,,,null,object_11a.png,object_08c.png,,,,,,,,,,,,,,,,,,,,
null,,black_cross(without_color)4,2180211,,,,,,,,green,,,null,object_11a.png,object_08c.png,,,,,,,,,,,,,,,,,,,,
null,,rt_plussign_withcolor4,2180723,,,,,,,,green,,,null,object_11a.png,object_08c.png,,,,,,,,,,,,,,,,,,,,
971.5,,rt_thecrossant_black4,2182004,,,,,,,,black_plus_sign,,,50,,,1,,,,,,,1,,,,,,,,,,,,
null,,color_black4,2182115,,,,,,,,black_plus_sign,,,null,,,,,,,,,,,,,,,,,,,,,,
null,,learn_phase(without_color)4,2185629,,,,,,,,black_plus_sign,,,null,object_03c.png,object_04a.png,,,,,,,,,,,,,,,,,,,,
null,,black_cross(without_color)4,2186155,,,,,,,,blue,,,null,object_03c.png,object_04a.png,,,,,,,,,,,,,,,,,,,,
null,,rt_plussign_withcolor4,2186659,,,,,,,,blue,,,null,object_03c.png,object_04a.png,,,,,,,,,,,,,,,,,,,,
922.0999999940395,,rt_thecrossant_black4,2188163,,,,,,,,black_plus_sign,,,49,,,1,,,,,,,1,,,,,,,,,,,,
null,,color_black4,2188277,,,,,,,,black_plus_sign,,,null,,,,,,,,,,,,,,,,,,,,,,
null,,learn_phase(without_color)4,2191787,,,,,,,,black_plus_sign,,,null,object_15a.png,object_05c.png,,,,,,,,,,,,,,,,,,,,
null,,black_cross(without_color)4,2192443,,,,,,,,blue,,,null,object_15a.png,object_05c.png,,,,,,,,,,,,,,,,,,,,
null,,rt_plussign_withcolor4,2192953,,,,,,,,blue,,,null,object_15a.png,object_05c.png,,,,,,,,,,,,,,,,,,,,
958.5,,rt_thecrossant_black4,2194325,,,,,,,,black_plus_sign,,,49,,,1,,,,,,,1,,,,,,,,,,,,
null,,color_black4,2194440,,,,,,,,black_plus_sign,,,null,,,,,,,,,,,,,,,,,,,,,,
null,,learn_phase(without_color)4,2197957,,,,,,,,black_plus_sign,,,null,object_15b.png,object_03b.png,,,,,,,,,,,,,,,,,,,,
null,,black_cross(without_color)4,2198888,,,,,,,,blue,,,null,object_15b.png,object_03b.png,,,,,,,,,,,,,,,,,,,,
null,,rt_plussign_withcolor4,2199396,,,,,,,,blue,,,null,object_15b.png,object_03b.png,,,,,,,,,,,,,,,,,,,,
952.9000000059605,,rt_thecrossant_black4,2200479,,,,,,,,black_plus_sign,,,49,,,1,,,,,,,1,,,,,,,,,,,,
null,,color_black4,2200584,,,,,,,,black_plus_sign,,,null,,,,,,,,,,,,,,,,,,,,,,
null,,learn_phase(without_color)4,2204098,,,,,,,,black_plus_sign,,,null,object_03a.png,object_06b.png,,,,,,,,,,,,,,,,,,,,
null,,black_cross(without_color)4,2205182,,,,,,,,blue,,,null,object_03a.png,object_06b.png,,,,,,,,,,,,,,,,,,,,
null,,rt_plussign_withcolor4,2205695,,,,,,,,blue,,,null,object_03a.png,object_06b.png,,,,,,,,,,,,,,,,,,,,
1406.7000000178814,,rt_thecrossant_black4,2206631,,,,,,,,black_plus_sign,,,49,,,1,,,,,,,1,,,,,,,,,,,,
null,,color_black4,2206746,,,,,,,,black_plus_sign,,,null,,,,,,,,,,,,,,,,,,,,,,
null,,learn_phase(without_color)4,2210262,,,,,,,,black_plus_sign,,,null,object_06a.png,object_12b.png,,,,,,,,,,,,,,,,,,,,
null,,black_cross(without_color)4,2211035,,,,,,,,green,,,null,object_06a.png,object_12b.png,,,,,,,,,,,,,,,,,,,,
null,,rt_plussign_withcolor4,2211540,,,,,,,,green,,,null,object_06a.png,object_12b.png,,,,,,,,,,,,,,,,,,,,
1408.8999999761581,,rt_thecrossant_black4,2212786,,,,,,,,black_plus_sign,,,50,,,1,,,,,,,1,,,,,,,,,,,,
null,,color_black4,2212890,,,,,,,,black_plus_sign,,,null,,,,,,,,,,,,,,,,,,,,,,
null,,learn_phase(without_color)4,2216401,,,,,,,,black_plus_sign,,,null,object_04b.png,object_07c.png,,,,,,,,,,,,,,,,,,,,
null,,black_cross(without_color)4,2216825,,,,,,,,blue,,,null,object_04b.png,object_07c.png,,,,,,,,,,,,,,,,,,,,
null,,rt_plussign_withcolor4,2217332,,,,,,,,blue,,,null,object_04b.png,object_07c.png,,,,,,,,,,,,,,,,,,,,
1193.2000000178814,,rt_thecrossant_black4,2218921,,,,,,,,black_plus_sign,,,49,,,1,,,,,,,1,,,,,,,,,,,,
null,,color_black4,2219035,,,,,,,,black_plus_sign,,,null,,,,,,,,,,,,,,,,,,,,,,
null,,learn_phase(without_color)4,2222551,,,,,,,,black_plus_sign,,,null,object_02b.png,object_15a.png,,,,,,,,,,,,,,,,,,,,
null,,black_cross(without_color)4,2223356,,,,,,,,blue,,,null,object_02b.png,object_15a.png,,,,,,,,,,,,,,,,,,,,
null,,rt_plussign_withcolor4,2223863,,,,,,,,blue,,,null,object_02b.png,object_15a.png,,,,,,,,,,,,,,,,,,,,
891.5,,rt_thecrossant_black4,2225074,,,,,,,,black_plus_sign,,,50,,,0,,,,,,,0.9166666666666666,,,,,,,,,,,,
null,,color_black4,2225181,,,,,,,,black_plus_sign,,,null,,,,,,,,,,,,,,,,,,,,,,
null,,learn_phase(without_color)4,2228696,,,,,,,,black_plus_sign,,,null,object_11b.png,object_10c.png,,,,,,,,,,,,,,,,,,,,
null,,black_cross(without_color)4,2229423,,,,,,,,green,,,null,object_11b.png,object_10c.png,,,,,,,,,,,,,,,,,,,,
null,,rt_plussign_withcolor4,2229932,,,,,,,,green,,,null,object_11b.png,object_10c.png,,,,,,,,,,,,,,,,,,,,
1264.699999988079,,rt_thecrossant_black4,2231223,,,,,,,,black_plus_sign,,,49,,,0,,,,,,,0.8461538461538461,,,,,,,,,,,,
null,,warning_page,2236239,,,,,,,,warning,,,null,,,,,,,,,,,,,,,,,,,,,,
null,,color_black4,2236354,,,,,,,,black_plus_sign,,,null,,,,,,,,,,,,,,,,,,,,,,
null,,learn_phase(without_color)4,2239870,,,,,,,,black_plus_sign,,,null,object_05a.png,object_14b.png,,,,,,,,,,,,,,,,,,,,
null,,black_cross(without_color)4,2240949,,,,,,,,blue,,,null,object_05a.png,object_14b.png,,,,,,,,,,,,,,,,,,,,
null,,rt_plussign_withcolor4,2241460,,,,,,,,blue,,,null,object_05a.png,object_14b.png,,,,,,,,,,,,,,,,,,,,
967.8000000119209,,rt_thecrossant_black4,2242407,,,,,,,,black_plus_sign,,,49,,,1,,,,,,,0.8571428571428571,,,,,,,,,,,,
null,,color_black4,2242517,,,,,,,,black_plus_sign,,,null,,,,,,,,,,,,,,,,,,,,,,
null,,learn_phase(without_color)4,2246029,,,,,,,,black_plus_sign,,,null,object_04a.png,object_06c.png,,,,,,,,,,,,,,,,,,,,
null,,black_cross(without_color)4,2246872,,,,,,,,green,,,null,object_04a.png,object_06c.png,,,,,,,,,,,,,,,,,,,,
null,,rt_plussign_withcolor4,2247375,,,,,,,,green,,,null,object_04a.png,object_06c.png,,,,,,,,,,,,,,,,,,,,
1802.2000000178814,,rt_thecrossant_black4,2248552,,,,,,,,black_plus_sign,,,50,,,1,,,,,,,0.8666666666666667,,,,,,,,,,,,
null,,color_black4,2248660,,,,,,,,black_plus_sign,,,null,,,,,,,,,,,,,,,,,,,,,,
null,,learn_phase(without_color)4,2252183,,,,,,,,black_plus_sign,,,null,object_10a.png,object_07a.png,,,,,,,,,,,,,,,,,,,,
null,,black_cross(without_color)4,2252680,,,,,,,,blue,,,null,object_10a.png,object_07a.png,,,,,,,,,,,,,,,,,,,,
null,,rt_plussign_withcolor4,2253198,,,,,,,,blue,,,null,object_10a.png,object_07a.png,,,,,,,,,,,,,,,,,,,,
1203.7000000178814,,rt_thecrossant_black4,2254715,,,,,,,,black_plus_sign,,,49,,,1,,,,,,,0.875,,,,,,,,,,,,
null,,color_black4,2254823,,,,,,,,black_plus_sign,,,null,,,,,,,,,,,,,,,,,,,,,,
null,,learn_phase(without_color)4,2258342,,,,,,,,black_plus_sign,,,null,object_11c.png,object_14a.png,,,,,,,,,,,,,,,,,,,,
null,,black_cross(without_color)4,2259275,,,,,,,,blue,,,null,object_11c.png,object_14a.png,,,,,,,,,,,,,,,,,,,,
null,,rt_plussign_withcolor4,2259779,,,,,,,,blue,,,null,object_11c.png,object_14a.png,,,,,,,,,,,,,,,,,,,,
1051,,rt_thecrossant_black4,2260866,,,,,,,,black_plus_sign,,,49,,,1,,,,,,,0.8823529411764706,,,,,,,,,,,,
null,,color_black4,2260984,,,,,,,,black_plus_sign,,,null,,,,,,,,,,,,,,,,,,,,,,
null,,learn_phase(without_color)4,2264490,,,,,,,,black_plus_sign,,,null,object_06b.png,object_01b.png,,,,,,,,,,,,,,,,,,,,
null,,black_cross(without_color)4,2265423,,,,,,,,green,,,null,object_06b.png,object_01b.png,,,,,,,,,,,,,,,,,,,,
null,,rt_plussign_withcolor4,2265935,,,,,,,,green,,,null,object_06b.png,object_01b.png,,,,,,,,,,,,,,,,,,,,
1892.0999999940395,,rt_thecrossant_black4,2267026,,,,,,,,black_plus_sign,,,50,,,1,,,,,,,0.8888888888888888,,,,,,,,,,,,
null,,color_black4,2267145,,,,,,,,black_plus_sign,,,null,,,,,,,,,,,,,,,,,,,,,,
null,,learn_phase(without_color)4,2270658,,,,,,,,black_plus_sign,,,null,object_07a.png,object_09a.png,,,,,,,,,,,,,,,,,,,,
null,,black_cross(without_color)4,2271583,,,,,,,,blue,,,null,object_07a.png,object_09a.png,,,,,,,,,,,,,,,,,,,,
null,,rt_plussign_withcolor4,2272096,,,,,,,,blue,,,null,object_07a.png,object_09a.png,,,,,,,,,,,,,,,,,,,,
1133.7000000178814,,rt_thecrossant_black4,2273181,,,,,,,,black_plus_sign,,,49,,,1,,,,,,,0.8947368421052632,,,,,,,,,,,,
null,,color_black4,2273292,,,,,,,,black_plus_sign,,,null,,,,,,,,,,,,,,,,,,,,,,
null,,learn_phase(without_color)4,2276800,,,,,,,,black_plus_sign,,,null,object_12a.png,object_11c.png,,,,,,,,,,,,,,,,,,,,
null,,black_cross(without_color)4,2277477,,,,,,,,blue,,,null,object_12a.png,object_11c.png,,,,,,,,,,,,,,,,,,,,
null,,rt_plussign_withcolor4,2277989,,,,,,,,blue,,,null,object_12a.png,object_11c.png,,,,,,,,,,,,,,,,,,,,
1164.4000000059605,,rt_thecrossant_black4,2279332,,,,,,,,black_plus_sign,,,49,,,1,,,,,,,0.9,,,,,,,,,,,,
null,,color_black4,2279437,,,,,,,,black_plus_sign,,,null,,,,,,,,,,,,,,,,,,,,,,
null,,learn_phase(without_color)4,2282952,,,,,,,,black_plus_sign,,,null,object_13c.png,object_09b.png,,,,,,,,,,,,,,,,,,,,
null,,black_cross(without_color)4,2283726,,,,,,,,green,,,null,object_13c.png,object_09b.png,,,,,,,,,,,,,,,,,,,,
null,,rt_plussign_withcolor4,2284240,,,,,,,,green,,,null,object_13c.png,object_09b.png,,,,,,,,,,,,,,,,,,,,
809.6999999880791,,rt_thecrossant_black4,2285491,,,,,,,,black_plus_sign,,,50,,,1,,,,,,,0.9047619047619048,,,,,,,,,,,,
null,,color_black4,2285596,,,,,,,,black_plus_sign,,,null,,,,,,,,,,,,,,,,,,,,,,
null,,learn_phase(without_color)4,2289109,,,,,,,,black_plus_sign,,,null,object_12c.png,object_09c.png,,,,,,,,,,,,,,,,,,,,
null,,black_cross(without_color)4,2289950,,,,,,,,blue,,,null,object_12c.png,object_09c.png,,,,,,,,,,,,,,,,,,,,
null,,rt_plussign_withcolor4,2290453,,,,,,,,blue,,,null,object_12c.png,object_09c.png,,,,,,,,,,,,,,,,,,,,
1341.2000000178814,,rt_thecrossant_black4,2291636,,,,,,,,black_plus_sign,,,49,,,1,,,,,,,0.9090909090909091,,,,,,,,,,,,
null,,color_black4,2291743,,,,,,,,black_plus_sign,,,null,,,,,,,,,,,,,,,,,,,,,,
null,,learn_phase(without_color)4,2295264,,,,,,,,black_plus_sign,,,null,object_13a.png,object_07b.png,,,,,,,,,,,,,,,,,,,,
null,,black_cross(without_color)4,2296065,,,,,,,,green,,,null,object_13a.png,object_07b.png,,,,,,,,,,,,,,,,,,,,
null,,rt_plussign_withcolor4,2296569,,,,,,,,green,,,null,object_13a.png,object_07b.png,,,,,,,,,,,,,,,,,,,,
1224,,rt_thecrossant_black4,2297793,,,,,,,,black_plus_sign,,,50,,,1,,,,,,,0.9130434782608695,,,,,,,,,,,,
null,,color_black4,2297902,,,,,,,,black_plus_sign,,,null,,,,,,,,,,,,,,,,,,,,,,
null,,learn_phase(without_color)4,2301414,,,,,,,,black_plus_sign,,,null,object_08a.png,object_10b.png,,,,,,,,,,,,,,,,,,,,
null,,black_cross(without_color)4,2302227,,,,,,,,blue,,,null,object_08a.png,object_10b.png,,,,,,,,,,,,,,,,,,,,
null,,rt_plussign_withcolor4,2302741,,,,,,,,blue,,,null,object_08a.png,object_10b.png,,,,,,,,,,,,,,,,,,,,
1236.2999999821186,,rt_thecrossant_black4,2303950,,,,,,,,black_plus_sign,,,50,,,0,,,,,,,0.875,,,,,,,,,,,,
null,,color_black4,2304066,,,,,,,,black_plus_sign,,,null,,,,,,,,,,,,,,,,,,,,,,
null,,learn_phase(without_color)4,2307583,,,,,,,,black_plus_sign,,,null,object_02c.png,object_06a.png,,,,,,,,,,,,,,,,,,,,
null,,black_cross(without_color)4,2308064,,,,,,,,green,,,null,object_02c.png,object_06a.png,,,,,,,,,,,,,,,,,,,,
null,,rt_plussign_withcolor4,2308572,,,,,,,,green,,,null,object_02c.png,object_06a.png,,,,,,,,,,,,,,,,,,,,
1150,,rt_thecrossant_black4,2310113,,,,,,,,black_plus_sign,,,50,,,1,,,,,,,0.88,,,,,,,,,,,,
null,,color_black4,2310228,,,,,,,,black_plus_sign,,,null,,,,,,,,,,,,,,,,,,,,,,
null,,learn_phase(without_color)4,2313746,,,,,,,,black_plus_sign,,,null,object_14b.png,object_08b.png,,,,,,,,,,,,,,,,,,,,
null,,black_cross(without_color)4,2314527,,,,,,,,green,,,null,object_14b.png,object_08b.png,,,,,,,,,,,,,,,,,,,,
null,,rt_plussign_withcolor4,2315042,,,,,,,,green,,,null,object_14b.png,object_08b.png,,,,,,,,,,,,,,,,,,,,
691.9000000059605,,rt_thecrossant_black4,2316297,,,,,,,,black_plus_sign,,,50,,,1,,,,,,,0.8846153846153846,,,,,,,,,,,,
null,,color_black4,2316404,,,,,,,,black_plus_sign,,,null,,,,,,,,,,,,,,,,,,,,,,
null,,learn_phase(without_color)4,2319909,,,,,,,,black_plus_sign,,,null,object_15c.png,object_12c.png,,,,,,,,,,,,,,,,,,,,
null,,black_cross(without_color)4,2320832,,,,,,,,green,,,null,object_15c.png,object_12c.png,,,,,,,,,,,,,,,,,,,,
null,,rt_plussign_withcolor4,2321344,,,,,,,,green,,,null,object_15c.png,object_12c.png,,,,,,,,,,,,,,,,,,,,
1030.199999988079,,rt_thecrossant_black4,2322441,,,,,,,,black_plus_sign,,,50,,,1,,,,,,,0.8888888888888888,,,,,,,,,,,,
null,,color_black4,2322550,,,,,,,,black_plus_sign,,,null,,,,,,,,,,,,,,,,,,,,,,
null,,learn_phase(without_color)4,2326068,,,,,,,,black_plus_sign,,,null,object_10b.png,object_01a.png,,,,,,,,,,,,,,,,,,,,
null,,black_cross(without_color)4,2326888,,,,,,,,blue,,,null,object_10b.png,object_01a.png,,,,,,,,,,,,,,,,,,,,
null,,rt_plussign_withcolor4,2327390,,,,,,,,blue,,,null,object_10b.png,object_01a.png,,,,,,,,,,,,,,,,,,,,
1277.4000000059605,,rt_thecrossant_black4,2328595,,,,,,,,black_plus_sign,,,49,,,1,,,,,,,0.8928571428571429,,,,,,,,,,,,
null,,color_black4,2328713,,,,,,,,black_plus_sign,,,null,,,,,,,,,,,,,,,,,,,,,,
null,,learn_phase(without_color)4,2332220,,,,,,,,black_plus_sign,,,null,object_01c.png,object_13a.png,,,,,,,,,,,,,,,,,,,,
null,,black_cross(without_color)4,2333328,,,,,,,,green,,,null,object_01c.png,object_13a.png,,,,,,,,,,,,,,,,,,,,
null,,rt_plussign_withcolor4,2333843,,,,,,,,green,,,null,object_01c.png,object_13a.png,,,,,,,,,,,,,,,,,,,,
1024.7999999821186,,rt_thecrossant_black4,2334766,,,,,,,,black_plus_sign,,,50,,,1,,,,,,,0.896551724137931,,,,,,,,,,,,
null,,color_black4,2334875,,,,,,,,black_plus_sign,,,null,,,,,,,,,,,,,,,,,,,,,,
null,,learn_phase(without_color)4,2338383,,,,,,,,black_plus_sign,,,null,object_02a.png,object_11a.png,,,,,,,,,,,,,,,,,,,,
null,,black_cross(without_color)4,2339150,,,,,,,,blue,,,null,object_02a.png,object_11a.png,,,,,,,,,,,,,,,,,,,,
null,,rt_plussign_withcolor4,2339656,,,,,,,,blue,,,null,object_02a.png,object_11a.png,,,,,,,,,,,,,,,,,,,,
1754.699999988079,,rt_thecrossant_black4,2340913,,,,,,,,black_plus_sign,,,49,,,1,,,,,,,0.9,,,,,,,,,,,,
null,,color_black4,2341017,,,,,,,,black_plus_sign,,,null,,,,,,,,,,,,,,,,,,,,,,
null,,thebreak,2341136,,,,,,,,<p></p>,,,null,,,,,,,,,,,,,,,,,,,,,,
3715.0999999940395,,intro_0,2344854,,,,,,,,instruct,,,32,,,,,,,,,,,,,,,,,,,,,,
5952.300000011921,,directmemory_phase4,2350809,,,,,,,,object_04a.png,,,51,,,0,,object_03a.png,object_03c.png,object_04b.png,object_03c.png,,0.6813186813186813,0,,,,,,,,,,,
2459.9000000059605,,directmemory_phase4,2353274,,,,,,,,object_14c.png,,,51,,,1,,object_14b.png,object_11c.png,object_07c.png,object_07c.png,,0.6847826086956522,1,,,,,,,,,,,
1512.5999999940395,,directmemory_phase4,2354791,,,,,,,,object_14a.png,,,49,,,1,,object_11c.png,object_12c.png,object_04a.png,object_11c.png,,0.6881720430107527,1,,,,,,,,,,,
1682.199999988079,,directmemory_phase4,2356476,,,,,,,,object_03b.png,,,50,,,1,,object_15c.png,object_15b.png,object_02c.png,object_15b.png,,0.6914893617021277,1,,,,,,,,,,,
2656.5999999940395,,directmemory_phase4,2359136,,,,,,,,object_07c.png,,,50,,,1,,object_02c.png,object_04b.png,object_11b.png,object_04b.png,,0.6947368421052632,1,,,,,,,,,,,
1664.5999999940395,,directmemory_phase4,2360804,,,,,,,,object_11c.png,,,51,,,1,,object_02a.png,object_15c.png,object_12a.png,object_12a.png,,0.6979166666666666,1,,,,,,,,,,,
1720.0999999940395,,directmemory_phase4,2362529,,,,,,,,object_05c.png,,,50,,,1,,object_04a.png,object_15a.png,object_10b.png,object_15a.png,,0.7010309278350515,1,,,,,,,,,,,
5951.0999999940395,,directmemory_phase4,2368484,,,,,,,,object_13a.png,,,50,,,1,,object_02a.png,object_01c.png,object_11b.png,object_01c.png,,0.7040816326530612,1,,,,,,,,,,,
2490.2999999821186,,directmemory_phase4,2370978,,,,,,,,object_10b.png,,,49,,,1,,object_08a.png,object_02c.png,object_12a.png,object_08a.png,,0.7070707070707071,1,,,,,,,,,,,
1388.9000000059605,,directmemory_phase4,2372371,,,,,,,,object_07a.png,,,50,,,1,,object_15c.png,object_10a.png,object_11b.png,object_10a.png,,0.71,1,,,,,,,,,,,
1711,,directmemory_phase4,2374085,,,,,,,,object_06c.png,,,51,,,1,,object_13a.png,object_14b.png,object_04a.png,object_04a.png,,0.7128712871287128,1,,,,,,,,,,,
7944.199999988079,,directmemory_phase4,2382032,,,,,,,,object_05b.png,,,51,,,1,,object_11a.png,object_07a.png,object_03b.png,object_03b.png,,0.7156862745098039,1,,,,,,,,,,,
1321.0999999940395,,directmemory_phase4,2383355,,,,,,,,object_01b.png,,,51,,,1,,object_07c.png,object_10b.png,object_06b.png,object_06b.png,,0.7184466019417476,1,,,,,,,,,,,
2325.4000000059605,,directmemory_phase4,2385683,,,,,,,,object_12c.png,,,50,,,1,,object_01c.png,object_15c.png,object_05a.png,object_15c.png,,0.7211538461538461,1,,,,,,,,,,,
1394.4000000059605,,directmemory_phase4,2387081,,,,,,,,object_13b.png,,,51,,,1,,object_11a.png,object_15a.png,object_10c.png,object_10c.png,,0.7238095238095238,1,,,,,,,,,,,
3587.4000000059605,,directmemory_phase4,2390671,,,,,,,,object_09b.png,,,51,,,1,,object_10b.png,object_06a.png,object_13c.png,object_13c.png,,0.7264150943396226,1,,,,,,,,,,,
6653.300000011921,,directmemory_phase4,2397329,,,,,,,,object_09a.png,,,51,,,1,,object_10c.png,object_11a.png,object_07a.png,object_07a.png,,0.7289719626168224,1,,,,,,,,,,,
2265.199999988079,,directmemory_phase4,2399598,,,,,,,,object_13c.png,,,50,,,1,,object_01c.png,object_04c.png,object_15c.png,object_04c.png,,0.7314814814814815,1,,,,,,,,,,,
3454,,directmemory_phase4,2403055,,,,,,,,object_01a.png,,,50,,,1,,object_06a.png,object_10b.png,object_13c.png,object_10b.png,,0.7339449541284404,1,,,,,,,,,,,
1759.2999999821186,,directmemory_phase4,2404818,,,,,,,,object_10c.png,,,49,,,1,,object_11b.png,object_02b.png,object_04b.png,object_11b.png,,0.7363636363636363,1,,,,,,,,,,,
2206.5999999940395,,directmemory_phase4,2407029,,,,,,,,object_14b.png,,,50,,,1,,object_02b.png,object_05a.png,object_01c.png,object_05a.png,,0.7387387387387387,1,,,,,,,,,,,
3434.5,,directmemory_phase4,2410467,,,,,,,,object_09c.png,,,50,,,1,,object_06a.png,object_12c.png,object_07c.png,object_12c.png,,0.7410714285714286,1,,,,,,,,,,,
2616.2999999821186,,directmemory_phase4,2413087,,,,,,,,object_07b.png,,,51,,,1,,object_12c.png,object_07c.png,object_13a.png,object_13a.png,,0.7433628318584071,1,,,,,,,,,,,
1895.300000011921,,directmemory_phase4,2414986,,,,,,,,object_06b.png,,,51,,,1,,object_05a.png,object_01c.png,object_03a.png,object_03a.png,,0.7456140350877193,1,,,,,,,,,,,
1338.699999988079,,directmemory_phase4,2416329,,,,,,,,object_12b.png,,,49,,,1,,object_06a.png,object_10b.png,object_13c.png,object_06a.png,,0.7478260869565218,1,,,,,,,,,,,
3529.7000000178814,,directmemory_phase4,2419861,,,,,,,,object_15a.png,,,51,,,1,,object_04b.png,object_10a.png,object_02b.png,object_02b.png,,0.75,1,,,,,,,,,,,
2004.5,,directmemory_phase4,2421868,,,,,,,,object_11a.png,,,51,,,1,,object_03a.png,object_04c.png,object_02a.png,object_02a.png,,0.7521367521367521,1,,,,,,,,,,,
3607.300000011921,,directmemory_phase4,2425479,,,,,,,,object_06a.png,,,49,,,1,,object_02c.png,object_10a.png,object_01c.png,object_02c.png,,0.7542372881355932,1,,,,,,,,,,,
2599.800000011921,,directmemory_phase4,2428084,,,,,,,,object_08b.png,,,51,,,1,,object_07a.png,object_06a.png,object_14b.png,object_14b.png,,0.7563025210084033,1,,,,,,,,,,,
2927.699999988079,,directmemory_phase4,2431016,,,,,,,,object_08c.png,,,50,,,1,,object_13a.png,object_11a.png,object_04a.png,object_11a.png,,0.7583333333333333,1,,,,,,,,,,,
null,,thebreak,2431128,,,,,,,,<p></p>,,,null,,,,,,,,,,,,,,,,,,,,,,
3122.5999999940395,,intro_0,2434255,,,,,,,,instruct,,,32,,,,,,,,,,,,,,,,,,,,,,
30971.79999998212,,intro_1,2465229,,,,,,,,instruct,,,32,,,,,,,,,,,,,,,,,,,,,,
5585.799999982119,,intro_2,2470818,,,,,,,,instruct,,,32,,,,,,,,,,,,,,,,,,,,,,
,,intro_3,2491711,,,,,,,,instruct,,,,,,,,,,,,,,,,,,,,,,,,,
5071.9000000059605,,intro_4,2496784,,,,,,,,instruct,,,32,,,,,,,,,,,,,,,,,,,,,,
5304.9000000059605,,inference_phase,2502092,,,,,,,,object_09b.png,,,50,object_04c.png,object_04b.png,0,,,,,object_04c.png,,0,,object_08a.png,,,,,,,,,,
5395.0999999940395,,inference_phase,2507491,,,,,,,,object_13b.png,,,49,object_11b.png,object_03a.png,1,,,,,object_11b.png,,0.5,,object_12a.png,,,,,,,,,,
3313.399999976158,,inference_phase,2510807,,,,,,,,object_12b.png,,,50,object_15c.png,object_04c.png,1,,,,,object_02c.png,,0.6666666666666666,,object_02c.png,,,,,,,,,,
4758,,inference_phase,2515569,,,,,,,,object_05c.png,,,50,object_02b.png,object_12a.png,0,,,,,object_02b.png,,0.5,,object_03a.png,,,,,,,,,,
5012.5999999940395,,inference_phase,2520584,,,,,,,,object_09c.png,,,51,object_02c.png,object_08a.png,0,,,,,object_15c.png,,0.4,,object_15c.png,,,,,,,,,,
3695.699999988079,,inference_phase,2524283,,,,,,,,object_01a.png,,,51,object_10a.png,object_08a.png,1,,,,,object_08a.png,,0.5,,object_05a.png,,,,,,,,,,
2981.199999988079,,inference_phase,2527268,,,,,,,,object_05b.png,,,50,object_02c.png,object_08a.png,1,,,,,object_15b.png,,0.5714285714285714,,object_15b.png,,,,,,,,,,
6327.9000000059605,,inference_phase,2533600,,,,,,,,object_06c.png,,,49,object_03c.png,object_02b.png,1,,,,,object_03c.png,,0.625,,object_10a.png,,,,,,,,,,
2892,,inference_phase,2536495,,,,,,,,object_14c.png,,,51,object_10a.png,object_04b.png,1,,,,,object_04b.png,,0.6666666666666666,,object_01c.png,,,,,,,,,,
4240.199999988079,,inference_phase,2540741,,,,,,,,object_08c.png,,,49,object_02a.png,object_12a.png,1,,,,,object_02a.png,,0.7,,object_03c.png,,,,,,,,,,
4620.699999988079,,inference_phase,2545366,,,,,,,,object_09a.png,,,51,object_11b.png,object_10a.png,1,,,,,object_10a.png,,0.7272727272727273,,object_02c.png,,,,,,,,,,
2137.2999999821186,,inference_phase,2547510,,,,,,,,object_14a.png,,,50,object_10a.png,object_15c.png,1,,,,,object_12a.png,,0.75,,object_12a.png,,,,,,,,,,
7533.800000011921,,inference_phase,2555047,,,,,,,,object_08b.png,,,51,object_05a.png,object_03a.png,0,,,,,object_05a.png,,0.6923076923076923,,object_02a.png,,,,,,,,,,
6935.5,,inference_phase,2561987,,,,,,,,object_01b.png,,,49,object_03a.png,object_01c.png,1,,,,,object_03a.png,,0.7142857142857143,,object_15c.png,,,,,,,,,,
4291.299999982119,,inference_phase,2566281,,,,,,,,object_07b.png,,,50,object_11b.png,object_01c.png,0,,,,,object_01c.png,,0.6666666666666666,,object_03a.png,,,,,,,,,,
,,survey,2947695,,,,,,,,survey-questions,,,,,,,,,,,,,,,,none,high,No i paid total attention to the experiment task and my attention wasn't divided at all,I used strategies like naming the objects e.g mop, mushroom, block, mouse trap, catapult etc. to remember the pairs ,Yes some trials were easier because some image pairs were matched with others repeatedly so it was easy to spot this out,No i have not,N/A,,,
31894.19999998808,,thank_you,2979627,,,,,,,,<p> Congratulations, you are all done!</p><p> <strong>Please click space on your keyboard to end the experiment!</strong> The secret code to enter at the beginning screen is: <strong>CIMBPENS</strong></p><p> Please make sure to submit the HIT and email uciccnl@gmail.com if you had any issues! </p><br><p>Please remember to submit this data by clicking space after copying the code. Failure of submission will lead to in-complete payment</p>,,,32,,,,,,,,,,,,,,,,,,,,5,3,C78LSMTN
