rt,responses,trial_type,time_elapsed,identifier_a,identifier_b,identifier_c,stimulus,button_pressed,response,key_press,stimulus_left,stimulus_right,practice_cumulative_accuracy,accuracy,stimulus_down_left,stimulus_down_mid,stimulus_down_right,stimulus_correct,prac_weighted_accuracy,cumulative_accuracy,failed_practice,weighted_accuracy,stimulus_middle,problems,smooth,distraction,strategies,easier,similar,comments,detectfocus,breakfocus,completion_code
8940.89999999851,{worker_id:6732ca9052a3b5780ec6068a},id_enter,8957,object_10c.png; object_02b.png; object_06a.png; object_02a.png; object_01c.png; object_04c.png; object_12a.png; object_14a.png; object_06c.png; object_15c.png; object_11b.png; object_09b.png; object_06b.png; object_04a.png; object_07c.png,object_09a.png; object_08b.png; object_03b.png; object_10b.png; object_14b.png; object_09c.png; object_12b.png; object_11c.png; object_03c.png; object_04b.png; object_08a.png; object_03a.png; object_05a.png; object_11a.png; object_01a.png,object_02c.png; object_07a.png; object_13c.png; object_12c.png; object_15b.png; object_15a.png; object_13a.png; object_05b.png; object_13b.png; object_05c.png; object_10a.png; object_08c.png; object_01b.png; object_07b.png; object_14c.png,,,,,,,,,,,,,,,,,,,,,,,,,,,
19413.699999999255,,make_fullscreen,28374,,,,fullscreen,0,,,,,,,,,,,,,,,,,,,,,,,,,
6991.699999999255,,instruct_1,35368,,,,instruct,0,Next,,,,,,,,,,,,,,,,,,,,,,,,
23283.699999999255,,instruct_2,58667,,,,instruct,1,Next,,,,,,,,,,,,,,,,,,,,,,,,
11112.5,,instruct_3,69781,,,,instruct,1,Next,,,,,,,,,,,,,,,,,,,,,,,,
23202.79999999702,,instruct_4,92984,,,,instruct,1,Next,,,,,,,,,,,,,,,,,,,,,,,,
10604.199999999255,,instruct_5,103590,,,,instruct,1,Next,,,,,,,,,,,,,,,,,,,,,,,,
4389.400000002235,,instruct_6,107980,,,,instruct,1,Next,,,,,,,,,,,,,,,,,,,,,,,,
26206.5,,instruct_7,134188,,,,instruct,1,Next,,,,,,,,,,,,,,,,,,,,,,,,
null,,prac_atten_color_black,135134,,,,black_plus_sign,,,null,,,,,,,,,,,,,,,,,,,,,,,
null,,prac_atten_color,135592,,,,<p style='position:absolute;top: 50%;right: 50%;transform: translate(50%, -50%);font-size: 125px;color: blue;'>+</p>,,,null,,,,,,,,,,,,,,,,,,,,,,,
416.29999999701977,,prac_atten_color_black,137593,,,,black_plus_sign,,,49,,,,,,,,,,,,,,,,,,,,,,,
null,,prac_atten_color_black,138540,,,,black_plus_sign,,,null,,,,,,,,,,,,,,,,,,,,,,,
null,,prac_atten_color,139041,,,,<p style='position:absolute;top: 50%;right: 50%;transform: translate(50%, -50%);font-size: 125px;color: green;'>+</p>,,,null,,,,,,,,,,,,,,,,,,,,,,,
270,,prac_atten_color_black,141043,,,,black_plus_sign,,,50,,,,,,,,,,,,,,,,,,,,,,,
null,,prac_atten_color_black,141946,,,,black_plus_sign,,,null,,,,,,,,,,,,,,,,,,,,,,,
533,,prac_atten_color,142759,,,,<p style='position:absolute;top: 50%;right: 50%;transform: translate(50%, -50%);font-size: 125px;color: green;'>+</p>,,,50,,,,,,,,,,,,,,,,,,,,,,,
null,,prac_atten_color_black,144760,,,,black_plus_sign,,,null,,,,,,,,,,,,,,,,,,,,,,,
null,,prac_atten_color_black,145352,,,,black_plus_sign,,,null,,,,,,,,,,,,,,,,,,,,,,,
null,,prac_atten_color,145892,,,,<p style='position:absolute;top: 50%;right: 50%;transform: translate(50%, -50%);font-size: 125px;color: blue;'>+</p>,,,null,,,,,,,,,,,,,,,,,,,,,,,
11.399999998509884,,prac_atten_color_black,147894,,,,black_plus_sign,,,49,,,,,,,,,,,,,,,,,,,,,,,
null,,prac_atten_color_black,148757,,,,black_plus_sign,,,null,,,,,,,,,,,,,,,,,,,,,,,
595.1000000014901,,prac_atten_color,149758,,,,<p style='position:absolute;top: 50%;right: 50%;transform: translate(50%, -50%);font-size: 125px;color: green;'>+</p>,,,50,,,,,,,,,,,,,,,,,,,,,,,
null,,prac_atten_color_black,151760,,,,black_plus_sign,,,null,,,,,,,,,,,,,,,,,,,,,,,
null,,prac_atten_color_black,152163,,,,black_plus_sign,,,null,,,,,,,,,,,,,,,,,,,,,,,
null,,prac_atten_color,152770,,,,<p style='position:absolute;top: 50%;right: 50%;transform: translate(50%, -50%);font-size: 125px;color: green;'>+</p>,,,null,,,,,,,,,,,,,,,,,,,,,,,
446.1000000014901,,prac_atten_color_black,154772,,,,black_plus_sign,,,50,,,,,,,,,,,,,,,,,,,,,,,
null,,prac_atten_color_black,155569,,,,black_plus_sign,,,null,,,,,,,,,,,,,,,,,,,,,,,
null,,prac_atten_color,156115,,,,<p style='position:absolute;top: 50%;right: 50%;transform: translate(50%, -50%);font-size: 125px;color: blue;'>+</p>,,,null,,,,,,,,,,,,,,,,,,,,,,,
156.19999999925494,,prac_atten_color_black,158118,,,,black_plus_sign,,,49,,,,,,,,,,,,,,,,,,,,,,,
null,,prac_atten_color_black,158976,,,,black_plus_sign,,,null,,,,,,,,,,,,,,,,,,,,,,,
null,,prac_atten_color,159580,,,,<p style='position:absolute;top: 50%;right: 50%;transform: translate(50%, -50%);font-size: 125px;color: green;'>+</p>,,,null,,,,,,,,,,,,,,,,,,,,,,,
27.199999999254942,,prac_atten_color_black,161582,,,,black_plus_sign,,,50,,,,,,,,,,,,,,,,,,,,,,,
null,,prac_atten_color_black,162382,,,,black_plus_sign,,,null,,,,,,,,,,,,,,,,,,,,,,,
449.3999999985099,,prac_atten_color,162961,,,,<p style='position:absolute;top: 50%;right: 50%;transform: translate(50%, -50%);font-size: 125px;color: blue;'>+</p>,,,49,,,,,,,,,,,,,,,,,,,,,,,
null,,prac_atten_color_black,164962,,,,black_plus_sign,,,null,,,,,,,,,,,,,,,,,,,,,,,
null,,prac_atten_color_black,165787,,,,black_plus_sign,,,null,,,,,,,,,,,,,,,,,,,,,,,
549.8000000007451,,prac_atten_color,166796,,,,<p style='position:absolute;top: 50%;right: 50%;transform: translate(50%, -50%);font-size: 125px;color: blue;'>+</p>,,,49,,,,,,,,,,,,,,,,,,,,,,,
null,,prac_atten_color_black,168797,,,,black_plus_sign,,,null,,,,,,,,,,,,,,,,,,,,,,,
20067.5,,attentioncheck_feedback,188866,,,,cross_check_feedback,0,,,,,,,,,,,,,,,,,,,,,,,,,
9660.699999999255,,last_instruct,198528,,,,instruct,,,32,,,,,,,,,,,,,,,,,,,,,,,
null,,prac_learn_phase(without_color),202030,,,,black_plus_sign,,,null,object_13b.png,object_03c.png,,,,,,,,,,,,,,,,,,,,,
null,,prac_black_cross(without_color),202904,,,,blue,,,null,object_13b.png,object_03c.png,,,,,,,,,,,,,,,,,,,,,
null,,prac_rt_plussign_withcolor,203405,,,,blue,,,null,object_13b.png,object_03c.png,,,,,,,,,,,,,,,,,,,,,
null,,prac_rt_thecrossant_black,204536,,,,black_plus_sign,,,null,,,NaN,,,,,,,,,,,,,,,,,,,,
null,,prac_color_black,204638,,,,black_plus_sign,,,null,,,,,,,,,,,,,,,,,,,,,,,
null,,prac_learn_phase(without_color),208139,,,,black_plus_sign,,,null,object_02c.png,object_09a.png,,,,,,,,,,,,,,,,,,,,,
null,,black_cross(without_color)1,209192,,,,blue,,,null,object_13b.png,object_03c.png,,,,,,,,,,,,,,,,,,,,,
null,,prac_rt_plussign_withcolor,209693,,,,green,,,null,object_02c.png,object_09a.png,,,,,,,,,,,,,,,,,,,,,
2084.5,,prac_rt_thecrossant_black,210812,,,,black_plus_sign,,,50,,,1,1,,,,,,,,,,,,,,,,,,,
null,,prac_color_black,210913,,,,black_plus_sign,,,null,,,,,,,,,,,,,,,,,,,,,,,
null,,prac_learn_phase(without_color),214415,,,,black_plus_sign,,,null,object_12c.png,object_10b.png,,,,,,,,,,,,,,,,,,,,,
null,,black_cross(without_color)1,215468,,,,blue,,,null,object_13b.png,object_03c.png,,,,,,,,,,,,,,,,,,,,,
null,,prac_rt_plussign_withcolor,215969,,,,green,,,null,object_12c.png,object_10b.png,,,,,,,,,,,,,,,,,,,,,
1448.300000000745,,prac_rt_thecrossant_black,216944,,,,black_plus_sign,,,50,,,1,1,,,,,,,,,,,,,,,,,,,
null,,prac_color_black,217046,,,,black_plus_sign,,,null,,,,,,,,,,,,,,,,,,,,,,,
null,,prac_learn_phase(without_color),220548,,,,black_plus_sign,,,null,object_14b.png,object_15b.png,,,,,,,,,,,,,,,,,,,,,
null,,black_cross(without_color)1,221602,,,,blue,,,null,object_13b.png,object_03c.png,,,,,,,,,,,,,,,,,,,,,
null,,prac_rt_plussign_withcolor,222103,,,,blue,,,null,object_14b.png,object_15b.png,,,,,,,,,,,,,,,,,,,,,
1408.5999999977648,,prac_rt_thecrossant_black,223261,,,,black_plus_sign,,,49,,,1,1,,,,,,,,,,,,,,,,,,,
null,,prac_color_black,223363,,,,black_plus_sign,,,null,,,,,,,,,,,,,,,,,,,,,,,
9799.20000000298,,instruct_dir_01,233163,,,,instruct,0,Next,,,,,,,,,,,,,,,,,,,,,,,,
9020.5,,instruct_dir_2,242184,,,,instruct,1,Next,,,,,,,,,,,,,,,,,,,,,,,,
9394.5,,instruct_dir_3,251580,,,,instruct,1,Next,,,,,,,,,,,,,,,,,,,,,,,,
5824.10000000149,,instruct_dir_4,257405,,,,instruct,1,Start,,,,,,,,,,,,,,,,,,,,,,,,
null,,thebreak,257507,,,,<p></p>,,,null,,,,,,,,,,,,,,,,,,,,,,,
1999.6000000014901,,intro_0,259507,,,,instruct,,,32,,,,,,,,,,,,,,,,,,,,,,,
2783.599999997765,,prac_directmemory_phase,262292,,,,practice/object_04a.png,,,50,,,,0,practice/object_03b.png,practice/object_03a.png,practice/object_04b.png,practice/object_04b.png,0,0,,,,,,,,,,,,,
2902.2999999970198,,prac_directmemory_phase,265196,,,,practice/object_03a.png,,,50,,,,0,practice/object_01b.png,practice/object_01a.png,practice/object_03b.png,practice/object_03b.png,0,0,,,,,,,,,,,,,
3655.300000000745,,prac_directmemory_phase,268852,,,,practice/object_02a.png,,,50,,,,0,practice/object_02b.png,practice/object_04b.png,practice/object_03a.png,practice/object_02b.png,0,0,,,,,,,,,,,,,
3158.5,,prac_directmemory_phase,272011,,,,practice/object_01a.png,,,50,,,,0,practice/object_04b.png,practice/object_04a.png,practice/object_01b.png,practice/object_01b.png,0,0,,,,,,,,,,,,,
6713.300000000745,,practice_feedback_force_restart,278725,,,,practice_feedback,0,,,,,,,,,,,,,1,,,,,,,,,,,,
3094.10000000149,,last_instruct,281820,,,,instruct,,,32,,,,,,,,,,,,,,,,,,,,,,,
null,,prac_learn_phase(without_color),285322,,,,black_plus_sign,,,null,object_13b.png,object_03c.png,,,,,,,,,,,,,,,,,,,,,
null,,prac_black_cross(without_color),286367,,,,blue,,,null,object_13b.png,object_03c.png,,,,,,,,,,,,,,,,,,,,,
null,,prac_rt_plussign_withcolor,286868,,,,blue,,,null,object_13b.png,object_03c.png,,,,,,,,,,,,,,,,,,,,,
1568.3999999985099,,prac_rt_thecrossant_black,287828,,,,black_plus_sign,,,49,,,1,1,,,,,,,,,,,,,,,,,,,
null,,prac_color_black,287939,,,,black_plus_sign,,,null,,,,,,,,,,,,,,,,,,,,,,,
null,,prac_learn_phase(without_color),291442,,,,black_plus_sign,,,null,object_02c.png,object_09a.png,,,,,,,,,,,,,,,,,,,,,
null,,black_cross(without_color)1,292495,,,,blue,,,null,object_13b.png,object_03c.png,,,,,,,,,,,,,,,,,,,,,
null,,prac_rt_plussign_withcolor,292996,,,,green,,,null,object_02c.png,object_09a.png,,,,,,,,,,,,,,,,,,,,,
1597.800000000745,,prac_rt_thecrossant_black,294405,,,,black_plus_sign,,,50,,,1,1,,,,,,,,,,,,,,,,,,,
null,,prac_color_black,294508,,,,black_plus_sign,,,null,,,,,,,,,,,,,,,,,,,,,,,
null,,prac_learn_phase(without_color),298011,,,,black_plus_sign,,,null,object_12c.png,object_10b.png,,,,,,,,,,,,,,,,,,,,,
null,,black_cross(without_color)1,299064,,,,blue,,,null,object_13b.png,object_03c.png,,,,,,,,,,,,,,,,,,,,,
null,,prac_rt_plussign_withcolor,299565,,,,green,,,null,object_12c.png,object_10b.png,,,,,,,,,,,,,,,,,,,,,
1276.199999999255,,prac_rt_thecrossant_black,300778,,,,black_plus_sign,,,50,,,1,1,,,,,,,,,,,,,,,,,,,
null,,prac_color_black,300880,,,,black_plus_sign,,,null,,,,,,,,,,,,,,,,,,,,,,,
null,,prac_learn_phase(without_color),304382,,,,black_plus_sign,,,null,object_14b.png,object_15b.png,,,,,,,,,,,,,,,,,,,,,
null,,black_cross(without_color)1,305435,,,,blue,,,null,object_13b.png,object_03c.png,,,,,,,,,,,,,,,,,,,,,
null,,prac_rt_plussign_withcolor,305936,,,,blue,,,null,object_14b.png,object_15b.png,,,,,,,,,,,,,,,,,,,,,
1420.1000000014901,,prac_rt_thecrossant_black,306907,,,,black_plus_sign,,,49,,,1,1,,,,,,,,,,,,,,,,,,,
null,,prac_color_black,307009,,,,black_plus_sign,,,null,,,,,,,,,,,,,,,,,,,,,,,
1909.300000000745,,instruct_dir_01,308919,,,,instruct,0,Next,,,,,,,,,,,,,,,,,,,,,,,,
3948.7000000029802,,instruct_dir_2,312868,,,,instruct,1,Next,,,,,,,,,,,,,,,,,,,,,,,,
3799.300000000745,,instruct_dir_3,316669,,,,instruct,1,Next,,,,,,,,,,,,,,,,,,,,,,,,
4016.300000000745,,instruct_dir_4,320686,,,,instruct,1,Start,,,,,,,,,,,,,,,,,,,,,,,,
null,,thebreak,320787,,,,<p></p>,,,null,,,,,,,,,,,,,,,,,,,,,,,
3273.89999999851,,intro_0,324062,,,,instruct,,,32,,,,,,,,,,,,,,,,,,,,,,,
3432.39999999851,,prac_directmemory_phase,327495,,,,practice/object_04a.png,,,51,,,,1,practice/object_03b.png,practice/object_03a.png,practice/object_04b.png,practice/object_04b.png,1,1,,,,,,,,,,,,,
3150.300000000745,,prac_directmemory_phase,330647,,,,practice/object_03a.png,,,51,,,,1,practice/object_01b.png,practice/object_01a.png,practice/object_03b.png,practice/object_03b.png,1,1,,,,,,,,,,,,,
2511,,prac_directmemory_phase,333159,,,,practice/object_02a.png,,,49,,,,1,practice/object_02b.png,practice/object_04b.png,practice/object_03a.png,practice/object_02b.png,1,1,,,,,,,,,,,,,
2166.300000000745,,prac_directmemory_phase,335326,,,,practice/object_01a.png,,,51,,,,1,practice/object_04b.png,practice/object_04a.png,practice/object_01b.png,practice/object_01b.png,1,1,,,,,,,,,,,,,
21335.10000000149,,practice_feedback,356662,,,,practice_feedback,1,,,,,,,,,,,,,,,,,,,,,,,,,
19.800000000745058,,proceed_actualTask,356683,,,,proceed_actualTask,1,Continue,,,,,,,,,,,,,,,,,,,,,,,,
23365.199999999255,,last_inst,380049,,,,last_inst,,,32,,,,,,,,,,,,,,,,,,,,,,,
null,,learn_phase(without_color)1,383550,,,,black_plus_sign,,,null,object_13b.png,object_03c.png,,,,,,,,,,,,,,,,,,,,,
null,,black_cross(without_color)1,384603,,,,blue,,,null,object_13b.png,object_03c.png,,,,,,,,,,,,,,,,,,,,,
null,,rt_plussign_withcolor1,385105,,,,blue,,,null,object_13b.png,object_03c.png,,,,,,,,,,,,,,,,,,,,,
1746.3999999985099,,rt_thecrossant_black1,386056,,,,black_plus_sign,,,49,,,,1,,,,,,1,,,,,,,,,,,,,
null,,color_black1,386160,,,,black_plus_sign,,,null,,,,,,,,,,,,,,,,,,,,,,,
null,,learn_phase(without_color)1,389662,,,,black_plus_sign,,,null,object_02c.png,object_09a.png,,,,,,,,,,,,,,,,,,,,,
null,,black_cross(without_color)1,390416,,,,green,,,null,object_02c.png,object_09a.png,,,,,,,,,,,,,,,,,,,,,
null,,rt_plussign_withcolor1,390918,,,,green,,,null,object_02c.png,object_09a.png,,,,,,,,,,,,,,,,,,,,,
1833.5,,rt_thecrossant_black1,392167,,,,black_plus_sign,,,50,,,,1,,,,,,1,,,,,,,,,,,,,
null,,color_black1,392268,,,,black_plus_sign,,,null,,,,,,,,,,,,,,,,,,,,,,,
null,,learn_phase(without_color)1,395771,,,,black_plus_sign,,,null,object_12c.png,object_10b.png,,,,,,,,,,,,,,,,,,,,,
null,,black_cross(without_color)1,396762,,,,green,,,null,object_12c.png,object_10b.png,,,,,,,,,,,,,,,,,,,,,
null,,rt_plussign_withcolor1,397264,,,,green,,,null,object_12c.png,object_10b.png,,,,,,,,,,,,,,,,,,,,,
null,,rt_thecrossant_black1,398277,,,,black_plus_sign,,,null,,,,,,,,,,1,,,,,,,,,,,,,
null,,color_black1,398379,,,,black_plus_sign,,,null,,,,,,,,,,,,,,,,,,,,,,,
null,,learn_phase(without_color)1,401881,,,,black_plus_sign,,,null,object_14b.png,object_15b.png,,,,,,,,,,,,,,,,,,,,,
null,,black_cross(without_color)1,402817,,,,blue,,,null,object_14b.png,object_15b.png,,,,,,,,,,,,,,,,,,,,,
null,,rt_plussign_withcolor1,403318,,,,blue,,,null,object_14b.png,object_15b.png,,,,,,,,,,,,,,,,,,,,,
1562.5,,rt_thecrossant_black1,404386,,,,black_plus_sign,,,49,,,,1,,,,,,1,,,,,,,,,,,,,
null,,color_black1,404488,,,,black_plus_sign,,,null,,,,,,,,,,,,,,,,,,,,,,,
null,,learn_phase(without_color)1,407992,,,,black_plus_sign,,,null,object_02b.png,object_08b.png,,,,,,,,,,,,,,,,,,,,,
null,,black_cross(without_color)1,408781,,,,blue,,,null,object_02b.png,object_08b.png,,,,,,,,,,,,,,,,,,,,,
null,,rt_plussign_withcolor1,409282,,,,blue,,,null,object_02b.png,object_08b.png,,,,,,,,,,,,,,,,,,,,,
1319.7000000029802,,rt_thecrossant_black1,410497,,,,black_plus_sign,,,49,,,,1,,,,,,1,,,,,,,,,,,,,
null,,color_black1,410599,,,,black_plus_sign,,,null,,,,,,,,,,,,,,,,,,,,,,,
null,,learn_phase(without_color)1,414101,,,,black_plus_sign,,,null,object_04a.png,object_11a.png,,,,,,,,,,,,,,,,,,,,,
null,,black_cross(without_color)1,414711,,,,green,,,null,object_04a.png,object_11a.png,,,,,,,,,,,,,,,,,,,,,
null,,rt_plussign_withcolor1,415212,,,,green,,,null,object_04a.png,object_11a.png,,,,,,,,,,,,,,,,,,,,,
1418.699999999255,,rt_thecrossant_black1,416606,,,,black_plus_sign,,,50,,,,1,,,,,,1,,,,,,,,,,,,,
null,,color_black1,416708,,,,black_plus_sign,,,null,,,,,,,,,,,,,,,,,,,,,,,
null,,learn_phase(without_color)1,420210,,,,black_plus_sign,,,null,object_11a.png,object_07b.png,,,,,,,,,,,,,,,,,,,,,
null,,black_cross(without_color)1,420946,,,,blue,,,null,object_11a.png,object_07b.png,,,,,,,,,,,,,,,,,,,,,
null,,rt_plussign_withcolor1,421447,,,,blue,,,null,object_11a.png,object_07b.png,,,,,,,,,,,,,,,,,,,,,
1076.199999999255,,rt_thecrossant_black1,422717,,,,black_plus_sign,,,49,,,,1,,,,,,1,,,,,,,,,,,,,
null,,color_black1,422818,,,,black_plus_sign,,,null,,,,,,,,,,,,,,,,,,,,,,,
null,,learn_phase(without_color)1,426322,,,,black_plus_sign,,,null,object_01a.png,object_14c.png,,,,,,,,,,,,,,,,,,,,,
null,,black_cross(without_color)1,427312,,,,green,,,null,object_01a.png,object_14c.png,,,,,,,,,,,,,,,,,,,,,
null,,rt_plussign_withcolor1,427814,,,,green,,,null,object_01a.png,object_14c.png,,,,,,,,,,,,,,,,,,,,,
1251.5999999977648,,rt_thecrossant_black1,428827,,,,black_plus_sign,,,50,,,,1,,,,,,1,,,,,,,,,,,,,
null,,color_black1,428929,,,,black_plus_sign,,,null,,,,,,,,,,,,,,,,,,,,,,,
null,,learn_phase(without_color)1,432431,,,,black_plus_sign,,,null,object_13c.png,object_03b.png,,,,,,,,,,,,,,,,,,,,,
null,,black_cross(without_color)1,432948,,,,green,,,null,object_13c.png,object_03b.png,,,,,,,,,,,,,,,,,,,,,
null,,rt_plussign_withcolor1,433450,,,,green,,,null,object_13c.png,object_03b.png,,,,,,,,,,,,,,,,,,,,,
1607.7000000029802,,rt_thecrossant_black1,434937,,,,black_plus_sign,,,50,,,,1,,,,,,1,,,,,,,,,,,,,
null,,color_black1,435039,,,,black_plus_sign,,,null,,,,,,,,,,,,,,,,,,,,,,,
null,,learn_phase(without_color)1,438542,,,,black_plus_sign,,,null,object_10c.png,object_09a.png,,,,,,,,,,,,,,,,,,,,,
null,,black_cross(without_color)1,439281,,,,blue,,,null,object_10c.png,object_09a.png,,,,,,,,,,,,,,,,,,,,,
null,,rt_plussign_withcolor1,439783,,,,blue,,,null,object_10c.png,object_09a.png,,,,,,,,,,,,,,,,,,,,,
904.7999999970198,,rt_thecrossant_black1,441055,,,,black_plus_sign,,,49,,,,1,,,,,,1,,,,,,,,,,,,,
null,,color_black1,441157,,,,black_plus_sign,,,null,,,,,,,,,,,,,,,,,,,,,,,
null,,learn_phase(without_color)1,444659,,,,black_plus_sign,,,null,object_08a.png,object_10a.png,,,,,,,,,,,,,,,,,,,,,
null,,black_cross(without_color)1,445079,,,,blue,,,null,object_08a.png,object_10a.png,,,,,,,,,,,,,,,,,,,,,
null,,rt_plussign_withcolor1,445581,,,,blue,,,null,object_08a.png,object_10a.png,,,,,,,,,,,,,,,,,,,,,
1298,,rt_thecrossant_black1,447165,,,,black_plus_sign,,,49,,,,1,,,,,,1,,,,,,,,,,,,,
null,,color_black1,447266,,,,black_plus_sign,,,null,,,,,,,,,,,,,,,,,,,,,,,
null,,learn_phase(without_color)1,450767,,,,black_plus_sign,,,null,object_14a.png,object_11c.png,,,,,,,,,,,,,,,,,,,,,
null,,black_cross(without_color)1,451275,,,,green,,,null,object_14a.png,object_11c.png,,,,,,,,,,,,,,,,,,,,,
null,,rt_plussign_withcolor1,451780,,,,green,,,null,object_14a.png,object_11c.png,,,,,,,,,,,,,,,,,,,,,
1083.1000000014901,,rt_thecrossant_black1,453276,,,,black_plus_sign,,,50,,,,1,,,,,,1,,,,,,,,,,,,,
null,,color_black1,453378,,,,black_plus_sign,,,null,,,,,,,,,,,,,,,,,,,,,,,
null,,learn_phase(without_color)1,456880,,,,black_plus_sign,,,null,object_01c.png,object_14b.png,,,,,,,,,,,,,,,,,,,,,
null,,black_cross(without_color)1,457429,,,,blue,,,null,object_01c.png,object_14b.png,,,,,,,,,,,,,,,,,,,,,
null,,rt_plussign_withcolor1,457931,,,,blue,,,null,object_01c.png,object_14b.png,,,,,,,,,,,,,,,,,,,,,
1036,,rt_thecrossant_black1,459386,,,,black_plus_sign,,,49,,,,1,,,,,,1,,,,,,,,,,,,,
null,,color_black1,459488,,,,black_plus_sign,,,null,,,,,,,,,,,,,,,,,,,,,,,
null,,learn_phase(without_color)1,462991,,,,black_plus_sign,,,null,object_03b.png,object_06a.png,,,,,,,,,,,,,,,,,,,,,
null,,black_cross(without_color)1,464052,,,,blue,,,null,object_03b.png,object_06a.png,,,,,,,,,,,,,,,,,,,,,
null,,rt_plussign_withcolor1,464554,,,,blue,,,null,object_03b.png,object_06a.png,,,,,,,,,,,,,,,,,,,,,
1143.5999999977648,,rt_thecrossant_black1,465510,,,,black_plus_sign,,,49,,,,1,,,,,,1,,,,,,,,,,,,,
null,,color_black1,465611,,,,black_plus_sign,,,null,,,,,,,,,,,,,,,,,,,,,,,
null,,learn_phase(without_color)1,469113,,,,black_plus_sign,,,null,object_03a.png,object_08c.png,,,,,,,,,,,,,,,,,,,,,
null,,black_cross(without_color)1,470026,,,,green,,,null,object_03a.png,object_08c.png,,,,,,,,,,,,,,,,,,,,,
null,,rt_plussign_withcolor1,470527,,,,green,,,null,object_03a.png,object_08c.png,,,,,,,,,,,,,,,,,,,,,
1825.800000000745,,rt_thecrossant_black1,471618,,,,black_plus_sign,,,50,,,,1,,,,,,1,,,,,,,,,,,,,
null,,color_black1,471720,,,,black_plus_sign,,,null,,,,,,,,,,,,,,,,,,,,,,,
null,,learn_phase(without_color)1,475222,,,,black_plus_sign,,,null,object_11b.png,object_08a.png,,,,,,,,,,,,,,,,,,,,,
null,,black_cross(without_color)1,476089,,,,green,,,null,object_11b.png,object_08a.png,,,,,,,,,,,,,,,,,,,,,
null,,rt_plussign_withcolor1,476590,,,,green,,,null,object_11b.png,object_08a.png,,,,,,,,,,,,,,,,,,,,,
null,,rt_thecrossant_black1,477725,,,,black_plus_sign,,,null,,,,,,,,,,1,,,,,,,,,,,,,
null,,color_black1,477828,,,,black_plus_sign,,,null,,,,,,,,,,,,,,,,,,,,,,,
null,,learn_phase(without_color)1,481330,,,,black_plus_sign,,,null,object_12b.png,object_13a.png,,,,,,,,,,,,,,,,,,,,,
null,,black_cross(without_color)1,481749,,,,green,,,null,object_12b.png,object_13a.png,,,,,,,,,,,,,,,,,,,,,
null,,rt_plussign_withcolor1,482250,,,,green,,,null,object_12b.png,object_13a.png,,,,,,,,,,,,,,,,,,,,,
1301.800000000745,,rt_thecrossant_black1,483834,,,,black_plus_sign,,,50,,,,1,,,,,,1,,,,,,,,,,,,,
null,,color_black1,483936,,,,black_plus_sign,,,null,,,,,,,,,,,,,,,,,,,,,,,
null,,learn_phase(without_color)1,487438,,,,black_plus_sign,,,null,object_05a.png,object_01b.png,,,,,,,,,,,,,,,,,,,,,
null,,black_cross(without_color)1,488285,,,,blue,,,null,object_05a.png,object_01b.png,,,,,,,,,,,,,,,,,,,,,
null,,rt_plussign_withcolor1,488786,,,,blue,,,null,object_05a.png,object_01b.png,,,,,,,,,,,,,,,,,,,,,
782.4000000022352,,rt_thecrossant_black1,489943,,,,black_plus_sign,,,49,,,,1,,,,,,1,,,,,,,,,,,,,
null,,color_black1,490045,,,,black_plus_sign,,,null,,,,,,,,,,,,,,,,,,,,,,,
null,,learn_phase(without_color)1,493546,,,,black_plus_sign,,,null,object_07a.png,object_08b.png,,,,,,,,,,,,,,,,,,,,,
null,,black_cross(without_color)1,493988,,,,blue,,,null,object_07a.png,object_08b.png,,,,,,,,,,,,,,,,,,,,,
null,,rt_plussign_withcolor1,494489,,,,blue,,,null,object_07a.png,object_08b.png,,,,,,,,,,,,,,,,,,,,,
1282.3999999985099,,rt_thecrossant_black1,496052,,,,black_plus_sign,,,49,,,,1,,,,,,1,,,,,,,,,,,,,
null,,color_black1,496153,,,,black_plus_sign,,,null,,,,,,,,,,,,,,,,,,,,,,,
null,,learn_phase(without_color)1,499655,,,,black_plus_sign,,,null,object_10b.png,object_02a.png,,,,,,,,,,,,,,,,,,,,,
null,,black_cross(without_color)1,500094,,,,blue,,,null,object_10b.png,object_02a.png,,,,,,,,,,,,,,,,,,,,,
null,,rt_plussign_withcolor1,500596,,,,blue,,,null,object_10b.png,object_02a.png,,,,,,,,,,,,,,,,,,,,,
946,,rt_thecrossant_black1,502161,,,,black_plus_sign,,,49,,,,1,,,,,,1,,,,,,,,,,,,,
null,,color_black1,502263,,,,black_plus_sign,,,null,,,,,,,,,,,,,,,,,,,,,,,
null,,learn_phase(without_color)1,505765,,,,black_plus_sign,,,null,object_05a.png,object_06b.png,,,,,,,,,,,,,,,,,,,,,
null,,black_cross(without_color)1,506756,,,,green,,,null,object_05a.png,object_06b.png,,,,,,,,,,,,,,,,,,,,,
null,,rt_plussign_withcolor1,507258,,,,green,,,null,object_05a.png,object_06b.png,,,,,,,,,,,,,,,,,,,,,
null,,rt_thecrossant_black1,508271,,,,black_plus_sign,,,null,,,,,,,,,,1,,,,,,,,,,,,,
null,,color_black1,508374,,,,black_plus_sign,,,null,,,,,,,,,,,,,,,,,,,,,,,
null,,learn_phase(without_color)1,511877,,,,black_plus_sign,,,null,object_06c.png,object_03c.png,,,,,,,,,,,,,,,,,,,,,
null,,black_cross(without_color)1,512500,,,,green,,,null,object_06c.png,object_03c.png,,,,,,,,,,,,,,,,,,,,,
null,,rt_plussign_withcolor1,513002,,,,green,,,null,object_06c.png,object_03c.png,,,,,,,,,,,,,,,,,,,,,
1426,,rt_thecrossant_black1,514382,,,,black_plus_sign,,,50,,,,1,,,,,,1,,,,,,,,,,,,,
null,,color_black1,514484,,,,black_plus_sign,,,null,,,,,,,,,,,,,,,,,,,,,,,
null,,learn_phase(without_color)1,517985,,,,black_plus_sign,,,null,object_12b.png,object_12a.png,,,,,,,,,,,,,,,,,,,,,
null,,black_cross(without_color)1,518836,,,,blue,,,null,object_12b.png,object_12a.png,,,,,,,,,,,,,,,,,,,,,
null,,rt_plussign_withcolor1,519337,,,,blue,,,null,object_12b.png,object_12a.png,,,,,,,,,,,,,,,,,,,,,
1252.5,,rt_thecrossant_black1,520490,,,,black_plus_sign,,,49,,,,1,,,,,,1,,,,,,,,,,,,,
null,,color_black1,520592,,,,black_plus_sign,,,null,,,,,,,,,,,,,,,,,,,,,,,
null,,learn_phase(without_color)1,524094,,,,black_plus_sign,,,null,object_04b.png,object_05c.png,,,,,,,,,,,,,,,,,,,,,
null,,black_cross(without_color)1,524651,,,,green,,,null,object_04b.png,object_05c.png,,,,,,,,,,,,,,,,,,,,,
null,,rt_plussign_withcolor1,525152,,,,green,,,null,object_04b.png,object_05c.png,,,,,,,,,,,,,,,,,,,,,
1298,,rt_thecrossant_black1,526598,,,,black_plus_sign,,,50,,,,1,,,,,,1,,,,,,,,,,,,,
null,,color_black1,526700,,,,black_plus_sign,,,null,,,,,,,,,,,,,,,,,,,,,,,
null,,learn_phase(without_color)1,530202,,,,black_plus_sign,,,null,object_11c.png,object_05b.png,,,,,,,,,,,,,,,,,,,,,
null,,black_cross(without_color)1,531232,,,,blue,,,null,object_11c.png,object_05b.png,,,,,,,,,,,,,,,,,,,,,
null,,rt_plussign_withcolor1,531734,,,,blue,,,null,object_11c.png,object_05b.png,,,,,,,,,,,,,,,,,,,,,
1108.5,,rt_thecrossant_black1,532708,,,,black_plus_sign,,,49,,,,1,,,,,,1,,,,,,,,,,,,,
null,,color_black1,532811,,,,black_plus_sign,,,null,,,,,,,,,,,,,,,,,,,,,,,
null,,learn_phase(without_color)1,536314,,,,black_plus_sign,,,null,object_03a.png,object_09b.png,,,,,,,,,,,,,,,,,,,,,
null,,black_cross(without_color)1,536961,,,,blue,,,null,object_03a.png,object_09b.png,,,,,,,,,,,,,,,,,,,,,
null,,rt_plussign_withcolor1,537463,,,,blue,,,null,object_03a.png,object_09b.png,,,,,,,,,,,,,,,,,,,,,
1396.1000000014901,,rt_thecrossant_black1,538820,,,,black_plus_sign,,,49,,,,1,,,,,,1,,,,,,,,,,,,,
null,,color_black1,538922,,,,black_plus_sign,,,null,,,,,,,,,,,,,,,,,,,,,,,
null,,learn_phase(without_color)1,542424,,,,black_plus_sign,,,null,object_15c.png,object_04b.png,,,,,,,,,,,,,,,,,,,,,
null,,black_cross(without_color)1,543102,,,,blue,,,null,object_15c.png,object_04b.png,,,,,,,,,,,,,,,,,,,,,
null,,rt_plussign_withcolor1,543603,,,,blue,,,null,object_15c.png,object_04b.png,,,,,,,,,,,,,,,,,,,,,
1314.1000000014901,,rt_thecrossant_black1,544929,,,,black_plus_sign,,,49,,,,1,,,,,,1,,,,,,,,,,,,,
null,,color_black1,545031,,,,black_plus_sign,,,null,,,,,,,,,,,,,,,,,,,,,,,
null,,learn_phase(without_color)1,548533,,,,black_plus_sign,,,null,object_07c.png,object_01a.png,,,,,,,,,,,,,,,,,,,,,
null,,black_cross(without_color)1,549124,,,,green,,,null,object_07c.png,object_01a.png,,,,,,,,,,,,,,,,,,,,,
null,,rt_plussign_withcolor1,549625,,,,green,,,null,object_07c.png,object_01a.png,,,,,,,,,,,,,,,,,,,,,
986.5999999977648,,rt_thecrossant_black1,551037,,,,black_plus_sign,,,50,,,,1,,,,,,1,,,,,,,,,,,,,
null,,color_black1,551139,,,,black_plus_sign,,,null,,,,,,,,,,,,,,,,,,,,,,,
null,,learn_phase(without_color)1,554642,,,,black_plus_sign,,,null,object_04c.png,object_09c.png,,,,,,,,,,,,,,,,,,,,,
null,,black_cross(without_color)1,555350,,,,green,,,null,object_04c.png,object_09c.png,,,,,,,,,,,,,,,,,,,,,
null,,rt_plussign_withcolor1,555852,,,,green,,,null,object_04c.png,object_09c.png,,,,,,,,,,,,,,,,,,,,,
1016.2999999970198,,rt_thecrossant_black1,557148,,,,black_plus_sign,,,50,,,,1,,,,,,1,,,,,,,,,,,,,
null,,color_black1,557252,,,,black_plus_sign,,,null,,,,,,,,,,,,,,,,,,,,,,,
null,,learn_phase(without_color)1,560754,,,,black_plus_sign,,,null,object_15a.png,object_09c.png,,,,,,,,,,,,,,,,,,,,,
null,,black_cross(without_color)1,561380,,,,green,,,null,object_15a.png,object_09c.png,,,,,,,,,,,,,,,,,,,,,
null,,rt_plussign_withcolor1,561882,,,,green,,,null,object_15a.png,object_09c.png,,,,,,,,,,,,,,,,,,,,,
873.1999999992549,,rt_thecrossant_black1,563260,,,,black_plus_sign,,,50,,,,1,,,,,,1,,,,,,,,,,,,,
null,,color_black1,563362,,,,black_plus_sign,,,null,,,,,,,,,,,,,,,,,,,,,,,
null,,thebreak,563465,,,,<p></p>,,,null,,,,,,,,,,,,,,,,,,,,,,,
1908,,intro_0,565373,,,,instruct,,,32,,,,,,,,,,,,,,,,,,,,,,,
6584.89999999851,,directmemory_phase1,571959,,,,object_15c.png,,,51,,,,1,object_11c.png,object_04c.png,object_04b.png,object_04b.png,,1,,1,,,,,,,,,,,
5173.5,,directmemory_phase1,577134,,,,object_14c.png,,,51,,,,0,object_07b.png,object_01a.png,object_05a.png,object_01a.png,,0.5,,0,,,,,,,,,,,
2911.300000000745,,directmemory_phase1,580046,,,,object_02b.png,,,50,,,,0,object_08b.png,object_09c.png,object_15c.png,object_08b.png,,0.3333333333333333,,0,,,,,,,,,,,
4087.5,,directmemory_phase1,584135,,,,object_04b.png,,,50,,,,1,object_03c.png,object_05c.png,object_13a.png,object_05c.png,,0.5,,1,,,,,,,,,,,
3742.199999999255,,directmemory_phase1,587878,,,,object_09b.png,,,51,,,,1,object_12b.png,object_01c.png,object_03a.png,object_03a.png,,0.6,,1,,,,,,,,,,,
4255,,directmemory_phase1,592134,,,,object_15a.png,,,49,,,,0,object_10b.png,object_10a.png,object_09c.png,object_09c.png,,0.5,,0,,,,,,,,,,,
2719.89999999851,,directmemory_phase1,594855,,,,object_11b.png,,,49,,,,1,object_08a.png,object_14b.png,object_04c.png,object_08a.png,,0.5714285714285714,,1,,,,,,,,,,,
4599,,directmemory_phase1,599455,,,,object_03c.png,,,50,,,,0,object_13a.png,object_08b.png,object_13b.png,object_13b.png,,0.5,,0,,,,,,,,,,,
5110.70000000298,,directmemory_phase1,604567,,,,object_06b.png,,,49,,,,1,object_05a.png,object_12b.png,object_01c.png,object_05a.png,,0.5555555555555556,,1,,,,,,,,,,,
2607.300000000745,,directmemory_phase1,607175,,,,object_14a.png,,,49,,,,1,object_11c.png,object_11a.png,object_02b.png,object_11c.png,,0.6,,1,,,,,,,,,,,
4303.10000000149,,directmemory_phase1,611479,,,,object_04a.png,,,51,,,,0,object_06b.png,object_11a.png,object_10b.png,object_11a.png,,0.5454545454545454,,0,,,,,,,,,,,
5598.300000000745,,directmemory_phase1,617079,,,,object_01b.png,,,50,,,,0,object_05a.png,object_10b.png,object_13b.png,object_05a.png,,0.5,,0,,,,,,,,,,,
4472.199999999255,,directmemory_phase1,621552,,,,object_01c.png,,,51,,,,1,object_11c.png,object_04c.png,object_14b.png,object_14b.png,,0.5384615384615384,,1,,,,,,,,,,,
4558.800000000745,,directmemory_phase1,626112,,,,object_14b.png,,,51,,,,0,object_15b.png,object_13b.png,object_03b.png,object_15b.png,,0.5,,0,,,,,,,,,,,
3791.199999999255,,directmemory_phase1,629904,,,,object_13a.png,,,51,,,,0,object_05c.png,object_12b.png,object_04b.png,object_12b.png,,0.4666666666666667,,0,,,,,,,,,,,
4839.5,,directmemory_phase1,634744,,,,object_02a.png,,,51,,,,1,object_11c.png,object_11b.png,object_10b.png,object_10b.png,,0.5,,1,,,,,,,,,,,
4438.300000000745,,directmemory_phase1,639184,,,,object_06c.png,,,51,,,,1,object_12b.png,object_15c.png,object_03c.png,object_03c.png,,0.5294117647058824,,1,,,,,,,,,,,
2935.5,,directmemory_phase1,642121,,,,object_11a.png,,,50,,,,0,object_07b.png,object_10a.png,object_14b.png,object_07b.png,,0.5,,0,,,,,,,,,,,
4758.599999997765,,directmemory_phase1,646880,,,,object_10b.png,,,50,,,,0,object_12c.png,object_13b.png,object_14b.png,object_12c.png,,0.47368421052631576,,0,,,,,,,,,,,
4022.89999999851,,directmemory_phase1,650904,,,,object_03a.png,,,51,,,,0,object_08c.png,object_10a.png,object_09c.png,object_08c.png,,0.45,,0,,,,,,,,,,,
3343.300000000745,,directmemory_phase1,654248,,,,object_07c.png,,,51,,,,1,object_10b.png,object_02a.png,object_01a.png,object_01a.png,,0.47619047619047616,,1,,,,,,,,,,,
3151,,directmemory_phase1,657401,,,,object_10c.png,,,51,,,,1,object_12b.png,object_02b.png,object_09a.png,object_09a.png,,0.5,,1,,,,,,,,,,,
2119.699999999255,,directmemory_phase1,659521,,,,object_10a.png,,,50,,,,1,object_05c.png,object_08a.png,object_11a.png,object_08a.png,,0.5217391304347826,,1,,,,,,,,,,,
4358.39999999851,,directmemory_phase1,663881,,,,object_09a.png,,,50,,,,0,object_02c.png,object_13a.png,object_11c.png,object_02c.png,,0.5,,0,,,,,,,,,,,
4919.89999999851,,directmemory_phase1,668802,,,,object_13c.png,,,49,,,,0,object_07a.png,object_03b.png,object_08a.png,object_03b.png,,0.48,,0,,,,,,,,,,,
4557.10000000149,,directmemory_phase1,673360,,,,object_11c.png,,,49,,,,0,object_08a.png,object_05b.png,object_12c.png,object_05b.png,,0.46153846153846156,,0,,,,,,,,,,,
5215.5,,directmemory_phase1,678577,,,,object_04c.png,,,50,,,,0,object_14b.png,object_02b.png,object_09c.png,object_09c.png,,0.4444444444444444,,0,,,,,,,,,,,
3158.5,,directmemory_phase1,681737,,,,object_06a.png,,,51,,,,1,object_04b.png,object_04a.png,object_03b.png,object_03b.png,,0.4642857142857143,,1,,,,,,,,,,,
3783.5,,directmemory_phase1,685521,,,,object_12a.png,,,50,,,,1,object_14a.png,object_12b.png,object_09a.png,object_12b.png,,0.4827586206896552,,1,,,,,,,,,,,
5023.300000000745,,directmemory_phase1,690546,,,,object_07a.png,,,50,,,,0,object_11c.png,object_01b.png,object_08b.png,object_08b.png,,0.4666666666666667,,0,,,,,,,,,,,
null,,thebreak,690648,,,,<p></p>,,,null,,,,,,,,,,,,,,,,,,,,,,,
2272.89999999851,,intro_0,692922,,,,instruct,,,32,,,,,,,,,,,,,,,,,,,,,,,
null,,learn_phase(without_color)2,696424,,,,black_plus_sign,,,null,object_08b.png,object_02b.png,,,,,,,,,,,,,,,,,,,,,
null,,black_cross(without_color)2,697424,,,,green,,,null,object_08b.png,object_02b.png,,,,,,,,,,,,,,,,,,,,,
null,,rt_plussign_withcolor2,697926,,,,green,,,null,object_08b.png,object_02b.png,,,,,,,,,,,,,,,,,,,,,
1510.1000000014901,,rt_thecrossant_black2,698929,,,,black_plus_sign,,,50,,,,1,,,,,,1,,,,,,,,,,,,,
null,,color_black2,699031,,,,black_plus_sign,,,null,,,,,,,,,,,,,,,,,,,,,,,
null,,learn_phase(without_color)2,702533,,,,black_plus_sign,,,null,object_05a.png,object_06b.png,,,,,,,,,,,,,,,,,,,,,
null,,black_cross(without_color)2,703505,,,,blue,,,null,object_05a.png,object_06b.png,,,,,,,,,,,,,,,,,,,,,
null,,rt_plussign_withcolor2,704008,,,,blue,,,null,object_05a.png,object_06b.png,,,,,,,,,,,,,,,,,,,,,
1420.1000000014901,,rt_thecrossant_black2,705049,,,,black_plus_sign,,,49,,,,1,,,,,,1,,,,,,,,,,,,,
null,,color_black2,705150,,,,black_plus_sign,,,null,,,,,,,,,,,,,,,,,,,,,,,
null,,learn_phase(without_color)2,708653,,,,black_plus_sign,,,null,object_07a.png,object_08b.png,,,,,,,,,,,,,,,,,,,,,
null,,black_cross(without_color)2,709526,,,,green,,,null,object_07a.png,object_08b.png,,,,,,,,,,,,,,,,,,,,,
null,,rt_plussign_withcolor2,710027,,,,green,,,null,object_07a.png,object_08b.png,,,,,,,,,,,,,,,,,,,,,
1653,,rt_thecrossant_black2,711158,,,,black_plus_sign,,,50,,,,1,,,,,,1,,,,,,,,,,,,,
null,,color_black2,711261,,,,black_plus_sign,,,null,,,,,,,,,,,,,,,,,,,,,,,
null,,learn_phase(without_color)2,714763,,,,black_plus_sign,,,null,object_10b.png,object_12c.png,,,,,,,,,,,,,,,,,,,,,
null,,black_cross(without_color)2,715529,,,,blue,,,null,object_10b.png,object_12c.png,,,,,,,,,,,,,,,,,,,,,
null,,rt_plussign_withcolor2,716031,,,,blue,,,null,object_10b.png,object_12c.png,,,,,,,,,,,,,,,,,,,,,
1237.699999999255,,rt_thecrossant_black2,717276,,,,black_plus_sign,,,49,,,,1,,,,,,1,,,,,,,,,,,,,
null,,color_black2,717377,,,,black_plus_sign,,,null,,,,,,,,,,,,,,,,,,,,,,,
null,,learn_phase(without_color)2,720879,,,,black_plus_sign,,,null,object_11a.png,object_04a.png,,,,,,,,,,,,,,,,,,,,,
null,,black_cross(without_color)2,721614,,,,blue,,,null,object_11a.png,object_04a.png,,,,,,,,,,,,,,,,,,,,,
null,,rt_plussign_withcolor2,722116,,,,blue,,,null,object_11a.png,object_04a.png,,,,,,,,,,,,,,,,,,,,,
1197.8999999985099,,rt_thecrossant_black2,723386,,,,black_plus_sign,,,49,,,,1,,,,,,1,,,,,,,,,,,,,
null,,color_black2,723488,,,,black_plus_sign,,,null,,,,,,,,,,,,,,,,,,,,,,,
null,,learn_phase(without_color)2,726991,,,,black_plus_sign,,,null,object_11b.png,object_08a.png,,,,,,,,,,,,,,,,,,,,,
null,,black_cross(without_color)2,728043,,,,green,,,null,object_11b.png,object_08a.png,,,,,,,,,,,,,,,,,,,,,
null,,rt_plussign_withcolor2,728545,,,,green,,,null,object_11b.png,object_08a.png,,,,,,,,,,,,,,,,,,,,,
1306.300000000745,,rt_thecrossant_black2,729498,,,,black_plus_sign,,,50,,,,1,,,,,,1,,,,,,,,,,,,,
null,,color_black2,729600,,,,black_plus_sign,,,null,,,,,,,,,,,,,,,,,,,,,,,
null,,learn_phase(without_color)2,733102,,,,black_plus_sign,,,null,object_15b.png,object_14b.png,,,,,,,,,,,,,,,,,,,,,
null,,black_cross(without_color)2,733770,,,,blue,,,null,object_15b.png,object_14b.png,,,,,,,,,,,,,,,,,,,,,
null,,rt_plussign_withcolor2,734272,,,,blue,,,null,object_15b.png,object_14b.png,,,,,,,,,,,,,,,,,,,,,
1816.0999999977648,,rt_thecrossant_black2,735608,,,,black_plus_sign,,,49,,,,1,,,,,,1,,,,,,,,,,,,,
null,,color_black2,735711,,,,black_plus_sign,,,null,,,,,,,,,,,,,,,,,,,,,,,
null,,learn_phase(without_color)2,739213,,,,black_plus_sign,,,null,object_11a.png,object_07b.png,,,,,,,,,,,,,,,,,,,,,
null,,black_cross(without_color)2,739818,,,,blue,,,null,object_11a.png,object_07b.png,,,,,,,,,,,,,,,,,,,,,
null,,rt_plussign_withcolor2,740319,,,,blue,,,null,object_11a.png,object_07b.png,,,,,,,,,,,,,,,,,,,,,
1088.9000000022352,,rt_thecrossant_black2,741719,,,,black_plus_sign,,,49,,,,1,,,,,,1,,,,,,,,,,,,,
null,,color_black2,741821,,,,black_plus_sign,,,null,,,,,,,,,,,,,,,,,,,,,,,
null,,learn_phase(without_color)2,745323,,,,black_plus_sign,,,null,object_05b.png,object_11c.png,,,,,,,,,,,,,,,,,,,,,
null,,black_cross(without_color)2,746204,,,,green,,,null,object_05b.png,object_11c.png,,,,,,,,,,,,,,,,,,,,,
null,,rt_plussign_withcolor2,746706,,,,green,,,null,object_05b.png,object_11c.png,,,,,,,,,,,,,,,,,,,,,
992,,rt_thecrossant_black2,747829,,,,black_plus_sign,,,50,,,,1,,,,,,1,,,,,,,,,,,,,
null,,color_black2,747931,,,,black_plus_sign,,,null,,,,,,,,,,,,,,,,,,,,,,,
null,,learn_phase(without_color)2,751433,,,,black_plus_sign,,,null,object_10a.png,object_08a.png,,,,,,,,,,,,,,,,,,,,,
null,,black_cross(without_color)2,752214,,,,green,,,null,object_10a.png,object_08a.png,,,,,,,,,,,,,,,,,,,,,
null,,rt_plussign_withcolor2,752716,,,,green,,,null,object_10a.png,object_08a.png,,,,,,,,,,,,,,,,,,,,,
1298.300000000745,,rt_thecrossant_black2,753940,,,,black_plus_sign,,,50,,,,1,,,,,,1,,,,,,,,,,,,,
null,,color_black2,754042,,,,black_plus_sign,,,null,,,,,,,,,,,,,,,,,,,,,,,
null,,learn_phase(without_color)2,757544,,,,black_plus_sign,,,null,object_08c.png,object_03a.png,,,,,,,,,,,,,,,,,,,,,
null,,black_cross(without_color)2,758583,,,,blue,,,null,object_08c.png,object_03a.png,,,,,,,,,,,,,,,,,,,,,
null,,rt_plussign_withcolor2,759085,,,,blue,,,null,object_08c.png,object_03a.png,,,,,,,,,,,,,,,,,,,,,
1492.8999999985099,,rt_thecrossant_black2,760049,,,,black_plus_sign,,,49,,,,1,,,,,,1,,,,,,,,,,,,,
null,,color_black2,760150,,,,black_plus_sign,,,null,,,,,,,,,,,,,,,,,,,,,,,
null,,learn_phase(without_color)2,763653,,,,black_plus_sign,,,null,object_09c.png,object_15a.png,,,,,,,,,,,,,,,,,,,,,
null,,black_cross(without_color)2,764549,,,,blue,,,null,object_09c.png,object_15a.png,,,,,,,,,,,,,,,,,,,,,
null,,rt_plussign_withcolor2,765050,,,,blue,,,null,object_09c.png,object_15a.png,,,,,,,,,,,,,,,,,,,,,
1466.4000000022352,,rt_thecrossant_black2,766158,,,,black_plus_sign,,,49,,,,1,,,,,,1,,,,,,,,,,,,,
null,,color_black2,766260,,,,black_plus_sign,,,null,,,,,,,,,,,,,,,,,,,,,,,
null,,learn_phase(without_color)2,769762,,,,black_plus_sign,,,null,object_03a.png,object_09b.png,,,,,,,,,,,,,,,,,,,,,
null,,black_cross(without_color)2,770186,,,,blue,,,null,object_03a.png,object_09b.png,,,,,,,,,,,,,,,,,,,,,
null,,rt_plussign_withcolor2,770688,,,,blue,,,null,object_03a.png,object_09b.png,,,,,,,,,,,,,,,,,,,,,
1086.5,,rt_thecrossant_black2,772267,,,,black_plus_sign,,,49,,,,1,,,,,,1,,,,,,,,,,,,,
null,,color_black2,772370,,,,black_plus_sign,,,null,,,,,,,,,,,,,,,,,,,,,,,
null,,learn_phase(without_color)2,775872,,,,black_plus_sign,,,null,object_03c.png,object_13b.png,,,,,,,,,,,,,,,,,,,,,
null,,black_cross(without_color)2,776591,,,,green,,,null,object_03c.png,object_13b.png,,,,,,,,,,,,,,,,,,,,,
null,,rt_plussign_withcolor2,777093,,,,green,,,null,object_03c.png,object_13b.png,,,,,,,,,,,,,,,,,,,,,
1040.8999999985099,,rt_thecrossant_black2,778379,,,,black_plus_sign,,,50,,,,1,,,,,,1,,,,,,,,,,,,,
null,,color_black2,778481,,,,black_plus_sign,,,null,,,,,,,,,,,,,,,,,,,,,,,
null,,learn_phase(without_color)2,781983,,,,black_plus_sign,,,null,object_12a.png,object_12b.png,,,,,,,,,,,,,,,,,,,,,
null,,black_cross(without_color)2,782624,,,,green,,,null,object_12a.png,object_12b.png,,,,,,,,,,,,,,,,,,,,,
null,,rt_plussign_withcolor2,783126,,,,green,,,null,object_12a.png,object_12b.png,,,,,,,,,,,,,,,,,,,,,
975,,rt_thecrossant_black2,784489,,,,black_plus_sign,,,50,,,,1,,,,,,1,,,,,,,,,,,,,
null,,color_black2,784592,,,,black_plus_sign,,,null,,,,,,,,,,,,,,,,,,,,,,,
null,,learn_phase(without_color)2,788094,,,,black_plus_sign,,,null,object_14c.png,object_01a.png,,,,,,,,,,,,,,,,,,,,,
null,,black_cross(without_color)2,789101,,,,blue,,,null,object_14c.png,object_01a.png,,,,,,,,,,,,,,,,,,,,,
null,,rt_plussign_withcolor2,789602,,,,blue,,,null,object_14c.png,object_01a.png,,,,,,,,,,,,,,,,,,,,,
1235.2999999970198,,rt_thecrossant_black2,790599,,,,black_plus_sign,,,49,,,,1,,,,,,1,,,,,,,,,,,,,
null,,color_black2,790701,,,,black_plus_sign,,,null,,,,,,,,,,,,,,,,,,,,,,,
null,,learn_phase(without_color)2,794203,,,,black_plus_sign,,,null,object_02a.png,object_10b.png,,,,,,,,,,,,,,,,,,,,,
null,,black_cross(without_color)2,794706,,,,green,,,null,object_02a.png,object_10b.png,,,,,,,,,,,,,,,,,,,,,
null,,rt_plussign_withcolor2,795208,,,,green,,,null,object_02a.png,object_10b.png,,,,,,,,,,,,,,,,,,,,,
1388.8999999985099,,rt_thecrossant_black2,796709,,,,black_plus_sign,,,50,,,,1,,,,,,1,,,,,,,,,,,,,
null,,color_black2,796813,,,,black_plus_sign,,,null,,,,,,,,,,,,,,,,,,,,,,,
null,,learn_phase(without_color)2,800315,,,,black_plus_sign,,,null,object_06c.png,object_03c.png,,,,,,,,,,,,,,,,,,,,,
null,,black_cross(without_color)2,801123,,,,green,,,null,object_06c.png,object_03c.png,,,,,,,,,,,,,,,,,,,,,
null,,rt_plussign_withcolor2,801625,,,,green,,,null,object_06c.png,object_03c.png,,,,,,,,,,,,,,,,,,,,,
972.0999999977648,,rt_thecrossant_black2,802821,,,,black_plus_sign,,,50,,,,1,,,,,,1,,,,,,,,,,,,,
null,,color_black2,802923,,,,black_plus_sign,,,null,,,,,,,,,,,,,,,,,,,,,,,
null,,learn_phase(without_color)2,806426,,,,black_plus_sign,,,null,object_09c.png,object_04c.png,,,,,,,,,,,,,,,,,,,,,
null,,black_cross(without_color)2,807404,,,,blue,,,null,object_09c.png,object_04c.png,,,,,,,,,,,,,,,,,,,,,
null,,rt_plussign_withcolor2,807907,,,,blue,,,null,object_09c.png,object_04c.png,,,,,,,,,,,,,,,,,,,,,
1084.5999999977648,,rt_thecrossant_black2,808931,,,,black_plus_sign,,,49,,,,1,,,,,,1,,,,,,,,,,,,,
null,,color_black2,809033,,,,black_plus_sign,,,null,,,,,,,,,,,,,,,,,,,,,,,
null,,learn_phase(without_color)2,812535,,,,black_plus_sign,,,null,object_04b.png,object_05c.png,,,,,,,,,,,,,,,,,,,,,
null,,black_cross(without_color)2,813364,,,,blue,,,null,object_04b.png,object_05c.png,,,,,,,,,,,,,,,,,,,,,
null,,rt_plussign_withcolor2,813866,,,,blue,,,null,object_04b.png,object_05c.png,,,,,,,,,,,,,,,,,,,,,
1559.199999999255,,rt_thecrossant_black2,815042,,,,black_plus_sign,,,49,,,,1,,,,,,1,,,,,,,,,,,,,
null,,color_black2,815144,,,,black_plus_sign,,,null,,,,,,,,,,,,,,,,,,,,,,,
null,,learn_phase(without_color)2,818646,,,,black_plus_sign,,,null,object_10c.png,object_09a.png,,,,,,,,,,,,,,,,,,,,,
null,,black_cross(without_color)2,819146,,,,blue,,,null,object_10c.png,object_09a.png,,,,,,,,,,,,,,,,,,,,,
null,,rt_plussign_withcolor2,819647,,,,blue,,,null,object_10c.png,object_09a.png,,,,,,,,,,,,,,,,,,,,,
1100.0999999977648,,rt_thecrossant_black2,821151,,,,black_plus_sign,,,49,,,,1,,,,,,1,,,,,,,,,,,,,
null,,color_black2,821254,,,,black_plus_sign,,,null,,,,,,,,,,,,,,,,,,,,,,,
null,,learn_phase(without_color)2,824756,,,,black_plus_sign,,,null,object_01a.png,object_07c.png,,,,,,,,,,,,,,,,,,,,,
null,,black_cross(without_color)2,825193,,,,green,,,null,object_01a.png,object_07c.png,,,,,,,,,,,,,,,,,,,,,
null,,rt_plussign_withcolor2,825695,,,,green,,,null,object_01a.png,object_07c.png,,,,,,,,,,,,,,,,,,,,,
868.3999999985099,,rt_thecrossant_black2,827261,,,,black_plus_sign,,,50,,,,1,,,,,,1,,,,,,,,,,,,,
null,,color_black2,827363,,,,black_plus_sign,,,null,,,,,,,,,,,,,,,,,,,,,,,
null,,learn_phase(without_color)2,830865,,,,black_plus_sign,,,null,object_15c.png,object_04b.png,,,,,,,,,,,,,,,,,,,,,
null,,black_cross(without_color)2,831418,,,,blue,,,null,object_15c.png,object_04b.png,,,,,,,,,,,,,,,,,,,,,
null,,rt_plussign_withcolor2,831931,,,,blue,,,null,object_15c.png,object_04b.png,,,,,,,,,,,,,,,,,,,,,
609.3999999985099,,rt_thecrossant_black2,833382,,,,black_plus_sign,,,49,,,,1,,,,,,1,,,,,,,,,,,,,
null,,color_black2,833484,,,,black_plus_sign,,,null,,,,,,,,,,,,,,,,,,,,,,,
null,,learn_phase(without_color)2,836987,,,,black_plus_sign,,,null,object_01b.png,object_05a.png,,,,,,,,,,,,,,,,,,,,,
null,,black_cross(without_color)2,838032,,,,blue,,,null,object_01b.png,object_05a.png,,,,,,,,,,,,,,,,,,,,,
null,,rt_plussign_withcolor2,838533,,,,blue,,,null,object_01b.png,object_05a.png,,,,,,,,,,,,,,,,,,,,,
842.6999999992549,,rt_thecrossant_black2,839497,,,,black_plus_sign,,,49,,,,1,,,,,,1,,,,,,,,,,,,,
null,,color_black2,839600,,,,black_plus_sign,,,null,,,,,,,,,,,,,,,,,,,,,,,
null,,learn_phase(without_color)2,843102,,,,black_plus_sign,,,null,object_14a.png,object_11c.png,,,,,,,,,,,,,,,,,,,,,
null,,black_cross(without_color)2,844093,,,,green,,,null,object_14a.png,object_11c.png,,,,,,,,,,,,,,,,,,,,,
null,,rt_plussign_withcolor2,844595,,,,green,,,null,object_14a.png,object_11c.png,,,,,,,,,,,,,,,,,,,,,
1340.800000000745,,rt_thecrossant_black2,845607,,,,black_plus_sign,,,50,,,,1,,,,,,1,,,,,,,,,,,,,
null,,color_black2,845708,,,,black_plus_sign,,,null,,,,,,,,,,,,,,,,,,,,,,,
null,,learn_phase(without_color)2,849210,,,,black_plus_sign,,,null,object_03b.png,object_06a.png,,,,,,,,,,,,,,,,,,,,,
null,,black_cross(without_color)2,849858,,,,blue,,,null,object_03b.png,object_06a.png,,,,,,,,,,,,,,,,,,,,,
null,,rt_plussign_withcolor2,850360,,,,blue,,,null,object_03b.png,object_06a.png,,,,,,,,,,,,,,,,,,,,,
null,,rt_thecrossant_black2,851716,,,,black_plus_sign,,,null,,,,,,,,,,1,,,,,,,,,,,,,
null,,color_black2,851818,,,,black_plus_sign,,,null,,,,,,,,,,,,,,,,,,,,,,,
null,,learn_phase(without_color)2,855321,,,,black_plus_sign,,,null,object_01c.png,object_14b.png,,,,,,,,,,,,,,,,,,,,,
null,,black_cross(without_color)2,856248,,,,blue,,,null,object_01c.png,object_14b.png,,,,,,,,,,,,,,,,,,,,,
null,,rt_plussign_withcolor2,856750,,,,blue,,,null,object_01c.png,object_14b.png,,,,,,,,,,,,,,,,,,,,,
802.5,,rt_thecrossant_black2,857826,,,,black_plus_sign,,,49,,,,1,,,,,,1,,,,,,,,,,,,,
null,,color_black2,857928,,,,black_plus_sign,,,null,,,,,,,,,,,,,,,,,,,,,,,
null,,learn_phase(without_color)2,861432,,,,black_plus_sign,,,null,object_09a.png,object_02c.png,,,,,,,,,,,,,,,,,,,,,
null,,black_cross(without_color)2,862082,,,,green,,,null,object_09a.png,object_02c.png,,,,,,,,,,,,,,,,,,,,,
null,,rt_plussign_withcolor2,862583,,,,green,,,null,object_09a.png,object_02c.png,,,,,,,,,,,,,,,,,,,,,
1352.8999999985099,,rt_thecrossant_black2,863938,,,,black_plus_sign,,,50,,,,1,,,,,,1,,,,,,,,,,,,,
null,,color_black2,864039,,,,black_plus_sign,,,null,,,,,,,,,,,,,,,,,,,,,,,
null,,learn_phase(without_color)2,867542,,,,black_plus_sign,,,null,object_13a.png,object_12b.png,,,,,,,,,,,,,,,,,,,,,
null,,black_cross(without_color)2,868294,,,,blue,,,null,object_13a.png,object_12b.png,,,,,,,,,,,,,,,,,,,,,
null,,rt_plussign_withcolor2,868795,,,,blue,,,null,object_13a.png,object_12b.png,,,,,,,,,,,,,,,,,,,,,
758.5,,rt_thecrossant_black2,870047,,,,black_plus_sign,,,49,,,,1,,,,,,1,,,,,,,,,,,,,
null,,color_black2,870150,,,,black_plus_sign,,,null,,,,,,,,,,,,,,,,,,,,,,,
null,,learn_phase(without_color)2,873652,,,,black_plus_sign,,,null,object_03b.png,object_13c.png,,,,,,,,,,,,,,,,,,,,,
null,,black_cross(without_color)2,874111,,,,blue,,,null,object_03b.png,object_13c.png,,,,,,,,,,,,,,,,,,,,,
null,,rt_plussign_withcolor2,874612,,,,blue,,,null,object_03b.png,object_13c.png,,,,,,,,,,,,,,,,,,,,,
1204.5,,rt_thecrossant_black2,876157,,,,black_plus_sign,,,49,,,,1,,,,,,1,,,,,,,,,,,,,
null,,color_black2,876260,,,,black_plus_sign,,,null,,,,,,,,,,,,,,,,,,,,,,,
null,,thebreak,876362,,,,<p></p>,,,null,,,,,,,,,,,,,,,,,,,,,,,
1468.2999999970198,,intro_0,877831,,,,instruct,,,32,,,,,,,,,,,,,,,,,,,,,,,
3368.099999997765,,directmemory_phase2,881200,,,,object_06b.png,,,49,,,,1,object_05a.png,object_09a.png,object_04c.png,object_05a.png,,0.4838709677419355,,1,,,,,,,,,,,
3519,,directmemory_phase2,884720,,,,object_07a.png,,,51,,,,1,object_05a.png,object_01b.png,object_08b.png,object_08b.png,,0.5,,1,,,,,,,,,,,
2054.5,,directmemory_phase2,886776,,,,object_12b.png,,,50,,,,0,object_13c.png,object_08a.png,object_13a.png,object_13a.png,,0.48484848484848486,,0,,,,,,,,,,,
4550.599999997765,,directmemory_phase2,891328,,,,object_02b.png,,,50,,,,0,object_03b.png,object_04c.png,object_08b.png,object_08b.png,,0.47058823529411764,,0,,,,,,,,,,,
4182.800000000745,,directmemory_phase2,895512,,,,object_05c.png,,,49,,,,0,object_09c.png,object_13c.png,object_04b.png,object_04b.png,,0.45714285714285713,,0,,,,,,,,,,,
6022.800000000745,,directmemory_phase2,901536,,,,object_02a.png,,,50,,,,1,object_12a.png,object_10b.png,object_11c.png,object_10b.png,,0.4722222222222222,,1,,,,,,,,,,,
7767.5,,directmemory_phase2,909305,,,,object_14b.png,,,51,,,,0,object_15b.png,object_08c.png,object_11c.png,object_15b.png,,0.4594594594594595,,0,,,,,,,,,,,
5502.400000002235,,directmemory_phase2,914808,,,,object_15a.png,,,51,,,,1,object_04b.png,object_15b.png,object_09c.png,object_09c.png,,0.47368421052631576,,1,,,,,,,,,,,
1519.4000000022352,,directmemory_phase2,916329,,,,object_07c.png,,,49,,,,1,object_01a.png,object_03c.png,object_04a.png,object_01a.png,,0.48717948717948717,,1,,,,,,,,,,,
3727.60000000149,,directmemory_phase2,920057,,,,object_01b.png,,,51,,,,1,object_09c.png,object_07a.png,object_05a.png,object_05a.png,,0.5,,1,,,,,,,,,,,
2126.5,,directmemory_phase2,922185,,,,object_02c.png,,,50,,,,1,object_07a.png,object_09a.png,object_03a.png,object_09a.png,,0.5121951219512195,,1,,,,,,,,,,,
2687,,directmemory_phase2,924873,,,,object_06a.png,,,51,,,,1,object_08a.png,object_04a.png,object_03b.png,object_03b.png,,0.5238095238095238,,1,,,,,,,,,,,
2815.2999999970198,,directmemory_phase2,927690,,,,object_08a.png,,,50,,,,1,object_11c.png,object_10a.png,object_15a.png,object_10a.png,,0.5348837209302325,,1,,,,,,,,,,,
5078.699999999255,,directmemory_phase2,932770,,,,object_13b.png,,,49,,,,1,object_03c.png,object_10b.png,object_02c.png,object_03c.png,,0.5454545454545454,,1,,,,,,,,,,,
4455,,directmemory_phase2,937226,,,,object_08c.png,,,49,,,,1,object_03a.png,object_11c.png,object_15b.png,object_03a.png,,0.5555555555555556,,1,,,,,,,,,,,
3823,,directmemory_phase2,941050,,,,object_01a.png,,,51,,,,0,object_09c.png,object_14c.png,object_15a.png,object_14c.png,,0.5434782608695652,,0,,,,,,,,,,,
2046.8999999985099,,directmemory_phase2,943098,,,,object_12a.png,,,49,,,,1,object_12b.png,object_11a.png,object_11b.png,object_12b.png,,0.5531914893617021,,1,,,,,,,,,,,
3855,,directmemory_phase2,946954,,,,object_04a.png,,,51,,,,0,object_11a.png,object_03a.png,object_02a.png,object_11a.png,,0.5416666666666666,,0,,,,,,,,,,,
4678.300000000745,,directmemory_phase2,951634,,,,object_06c.png,,,50,,,,1,object_04a.png,object_03c.png,object_03a.png,object_03c.png,,0.5510204081632653,,1,,,,,,,,,,,
3838.89999999851,,directmemory_phase2,955474,,,,object_13c.png,,,51,,,,1,object_03c.png,object_08c.png,object_03b.png,object_03b.png,,0.56,,1,,,,,,,,,,,
3695.099999997765,,directmemory_phase2,959170,,,,object_01c.png,,,51,,,,0,object_12a.png,object_14b.png,object_03a.png,object_14b.png,,0.5490196078431373,,0,,,,,,,,,,,
3967.7000000029802,,directmemory_phase2,963139,,,,object_04c.png,,,50,,,,1,object_11b.png,object_09c.png,object_08b.png,object_09c.png,,0.5576923076923077,,1,,,,,,,,,,,
4406.199999999255,,directmemory_phase2,967546,,,,object_11b.png,,,49,,,,0,object_03a.png,object_04a.png,object_08a.png,object_08a.png,,0.5471698113207547,,0,,,,,,,,,,,
3950.60000000149,,directmemory_phase2,971498,,,,object_09b.png,,,49,,,,0,object_08b.png,object_14a.png,object_03a.png,object_03a.png,,0.5370370370370371,,0,,,,,,,,,,,
4000.300000000745,,directmemory_phase2,975500,,,,object_15c.png,,,51,,,,0,object_04b.png,object_09c.png,object_01c.png,object_04b.png,,0.5272727272727272,,0,,,,,,,,,,,
2998,,directmemory_phase2,978499,,,,object_07b.png,,,49,,,,1,object_11a.png,object_14b.png,object_07a.png,object_11a.png,,0.5357142857142857,,1,,,,,,,,,,,
4791.199999999255,,directmemory_phase2,983291,,,,object_10b.png,,,50,,,,0,object_13a.png,object_04b.png,object_12c.png,object_12c.png,,0.5263157894736842,,0,,,,,,,,,,,
2550.39999999851,,directmemory_phase2,985843,,,,object_14a.png,,,49,,,,1,object_11c.png,object_08b.png,object_02b.png,object_11c.png,,0.5344827586206896,,1,,,,,,,,,,,
3038.2999999970198,,directmemory_phase2,988883,,,,object_10c.png,,,51,,,,1,object_08a.png,object_15c.png,object_09a.png,object_09a.png,,0.5423728813559322,,1,,,,,,,,,,,
2703.199999999255,,directmemory_phase2,991587,,,,object_05b.png,,,49,,,,1,object_11c.png,object_03a.png,object_12c.png,object_11c.png,,0.55,,1,,,,,,,,,,,
null,,thebreak,991689,,,,<p></p>,,,null,,,,,,,,,,,,,,,,,,,,,,,
2385.300000000745,,intro_0,994076,,,,instruct,,,32,,,,,,,,,,,,,,,,,,,,,,,
null,,learn_phase(without_color)3,997577,,,,black_plus_sign,,,null,object_10b.png,object_02a.png,,,,,,,,,,,,,,,,,,,,,
null,,black_cross(without_color)3,998654,,,,green,,,null,object_10b.png,object_02a.png,,,,,,,,,,,,,,,,,,,,,
null,,rt_plussign_withcolor3,999156,,,,green,,,null,object_10b.png,object_02a.png,,,,,,,,,,,,,,,,,,,,,
null,,rt_thecrossant_black3,1000083,,,,black_plus_sign,,,null,,,,,,,,,,NaN,,,,,,,,,,,,,
null,,color_black3,1000185,,,,black_plus_sign,,,null,,,,,,,,,,,,,,,,,,,,,,,
null,,learn_phase(without_color)3,1003688,,,,black_plus_sign,,,null,object_03b.png,object_06a.png,,,,,,,,,,,,,,,,,,,,,
null,,black_cross(without_color)3,1004691,,,,green,,,null,object_03b.png,object_06a.png,,,,,,,,,,,,,,,,,,,,,
null,,rt_plussign_withcolor3,1005193,,,,green,,,null,object_03b.png,object_06a.png,,,,,,,,,,,,,,,,,,,,,
1488.800000000745,,rt_thecrossant_black3,1006194,,,,black_plus_sign,,,50,,,,1,,,,,,1,,,,,,,,,,,,,
null,,color_black3,1006296,,,,black_plus_sign,,,null,,,,,,,,,,,,,,,,,,,,,,,
null,,learn_phase(without_color)3,1009800,,,,black_plus_sign,,,null,object_09a.png,object_02c.png,,,,,,,,,,,,,,,,,,,,,
null,,black_cross(without_color)3,1010555,,,,blue,,,null,object_09a.png,object_02c.png,,,,,,,,,,,,,,,,,,,,,
472.69999999925494,,rt_plussign_withcolor3,1011057,,,,blue,,,49,object_09a.png,object_02c.png,,,,,,,,,,,,,,,,,,,,,
null,,rt_thecrossant_black3,1012307,,,,black_plus_sign,,,null,,,,1,,,,,,1,,,,,,,,,,,,,
null,,color_black3,1012409,,,,black_plus_sign,,,null,,,,,,,,,,,,,,,,,,,,,,,
null,,learn_phase(without_color)3,1015912,,,,black_plus_sign,,,null,object_09c.png,object_15a.png,,,,,,,,,,,,,,,,,,,,,
null,,black_cross(without_color)3,1016339,,,,green,,,null,object_09c.png,object_15a.png,,,,,,,,,,,,,,,,,,,,,
null,,rt_plussign_withcolor3,1016840,,,,green,,,null,object_09c.png,object_15a.png,,,,,,,,,,,,,,,,,,,,,
855.6000000014901,,rt_thecrossant_black3,1018417,,,,black_plus_sign,,,50,,,,1,,,,,,1,,,,,,,,,,,,,
null,,color_black3,1018519,,,,black_plus_sign,,,null,,,,,,,,,,,,,,,,,,,,,,,
null,,learn_phase(without_color)3,1022022,,,,black_plus_sign,,,null,object_03c.png,object_13b.png,,,,,,,,,,,,,,,,,,,,,
null,,black_cross(without_color)3,1022572,,,,blue,,,null,object_03c.png,object_13b.png,,,,,,,,,,,,,,,,,,,,,
null,,rt_plussign_withcolor3,1023074,,,,blue,,,null,object_03c.png,object_13b.png,,,,,,,,,,,,,,,,,,,,,
621.8000000007451,,rt_thecrossant_black3,1024528,,,,black_plus_sign,,,49,,,,1,,,,,,1,,,,,,,,,,,,,
null,,color_black3,1024639,,,,black_plus_sign,,,null,,,,,,,,,,,,,,,,,,,,,,,
null,,learn_phase(without_color)3,1028141,,,,black_plus_sign,,,null,object_12c.png,object_10b.png,,,,,,,,,,,,,,,,,,,,,
null,,black_cross(without_color)3,1029115,,,,green,,,null,object_12c.png,object_10b.png,,,,,,,,,,,,,,,,,,,,,
null,,rt_plussign_withcolor3,1029617,,,,green,,,null,object_12c.png,object_10b.png,,,,,,,,,,,,,,,,,,,,,
914.5,,rt_thecrossant_black3,1030648,,,,black_plus_sign,,,50,,,,1,,,,,,1,,,,,,,,,,,,,
null,,color_black3,1030749,,,,black_plus_sign,,,null,,,,,,,,,,,,,,,,,,,,,,,
null,,learn_phase(without_color)3,1034251,,,,black_plus_sign,,,null,object_04b.png,object_15c.png,,,,,,,,,,,,,,,,,,,,,
null,,black_cross(without_color)3,1035066,,,,blue,,,null,object_04b.png,object_15c.png,,,,,,,,,,,,,,,,,,,,,
null,,rt_plussign_withcolor3,1035567,,,,blue,,,null,object_04b.png,object_15c.png,,,,,,,,,,,,,,,,,,,,,
1179.6000000014901,,rt_thecrossant_black3,1036758,,,,black_plus_sign,,,49,,,,1,,,,,,1,,,,,,,,,,,,,
null,,color_black3,1036860,,,,black_plus_sign,,,null,,,,,,,,,,,,,,,,,,,,,,,
null,,learn_phase(without_color)3,1040363,,,,black_plus_sign,,,null,object_03a.png,object_09b.png,,,,,,,,,,,,,,,,,,,,,
null,,black_cross(without_color)3,1040774,,,,blue,,,null,object_03a.png,object_09b.png,,,,,,,,,,,,,,,,,,,,,
null,,rt_plussign_withcolor3,1041282,,,,blue,,,null,object_03a.png,object_09b.png,,,,,,,,,,,,,,,,,,,,,
1138.8999999985099,,rt_thecrossant_black3,1042876,,,,black_plus_sign,,,49,,,,1,,,,,,1,,,,,,,,,,,,,
null,,color_black3,1042978,,,,black_plus_sign,,,null,,,,,,,,,,,,,,,,,,,,,,,
null,,learn_phase(without_color)3,1046481,,,,black_plus_sign,,,null,object_07b.png,object_11a.png,,,,,,,,,,,,,,,,,,,,,
null,,black_cross(without_color)3,1046923,,,,blue,,,null,object_07b.png,object_11a.png,,,,,,,,,,,,,,,,,,,,,
null,,rt_plussign_withcolor3,1047441,,,,blue,,,null,object_07b.png,object_11a.png,,,,,,,,,,,,,,,,,,,,,
655.5,,rt_thecrossant_black3,1049001,,,,black_plus_sign,,,49,,,,1,,,,,,1,,,,,,,,,,,,,
null,,color_black3,1049104,,,,black_plus_sign,,,null,,,,,,,,,,,,,,,,,,,,,,,
null,,learn_phase(without_color)3,1052606,,,,black_plus_sign,,,null,object_01b.png,object_05a.png,,,,,,,,,,,,,,,,,,,,,
null,,black_cross(without_color)3,1053307,,,,green,,,null,object_01b.png,object_05a.png,,,,,,,,,,,,,,,,,,,,,
null,,rt_plussign_withcolor3,1053810,,,,green,,,null,object_01b.png,object_05a.png,,,,,,,,,,,,,,,,,,,,,
719.3000000007451,,rt_thecrossant_black3,1055113,,,,black_plus_sign,,,50,,,,1,,,,,,1,,,,,,,,,,,,,
null,,color_black3,1055215,,,,black_plus_sign,,,null,,,,,,,,,,,,,,,,,,,,,,,
null,,learn_phase(without_color)3,1058722,,,,black_plus_sign,,,null,object_03a.png,object_08c.png,,,,,,,,,,,,,,,,,,,,,
null,,black_cross(without_color)3,1059276,,,,green,,,null,object_03a.png,object_08c.png,,,,,,,,,,,,,,,,,,,,,
null,,rt_plussign_withcolor3,1059778,,,,green,,,null,object_03a.png,object_08c.png,,,,,,,,,,,,,,,,,,,,,
1042.2000000029802,,rt_thecrossant_black3,1061236,,,,black_plus_sign,,,50,,,,1,,,,,,1,,,,,,,,,,,,,
null,,color_black3,1061338,,,,black_plus_sign,,,null,,,,,,,,,,,,,,,,,,,,,,,
null,,learn_phase(without_color)3,1064841,,,,black_plus_sign,,,null,object_04a.png,object_11a.png,,,,,,,,,,,,,,,,,,,,,
null,,black_cross(without_color)3,1065469,,,,blue,,,null,object_04a.png,object_11a.png,,,,,,,,,,,,,,,,,,,,,
null,,rt_plussign_withcolor3,1065970,,,,blue,,,null,object_04a.png,object_11a.png,,,,,,,,,,,,,,,,,,,,,
950.1999999992549,,rt_thecrossant_black3,1067347,,,,black_plus_sign,,,49,,,,1,,,,,,1,,,,,,,,,,,,,
null,,color_black3,1067448,,,,black_plus_sign,,,null,,,,,,,,,,,,,,,,,,,,,,,
null,,learn_phase(without_color)3,1070951,,,,black_plus_sign,,,null,object_12a.png,object_12b.png,,,,,,,,,,,,,,,,,,,,,
null,,black_cross(without_color)3,1071902,,,,green,,,null,object_12a.png,object_12b.png,,,,,,,,,,,,,,,,,,,,,
495.6000000014901,,rt_plussign_withcolor3,1072403,,,,green,,,50,object_12a.png,object_12b.png,,,,,,,,,,,,,,,,,,,,,
null,,rt_thecrossant_black3,1073455,,,,black_plus_sign,,,null,,,,1,,,,,,1,,,,,,,,,,,,,
null,,color_black3,1073557,,,,black_plus_sign,,,null,,,,,,,,,,,,,,,,,,,,,,,
null,,learn_phase(without_color)3,1077061,,,,black_plus_sign,,,null,object_11b.png,object_08a.png,,,,,,,,,,,,,,,,,,,,,
null,,black_cross(without_color)3,1077662,,,,blue,,,null,object_11b.png,object_08a.png,,,,,,,,,,,,,,,,,,,,,
null,,rt_plussign_withcolor3,1078164,,,,blue,,,null,object_11b.png,object_08a.png,,,,,,,,,,,,,,,,,,,,,
1171.6000000014901,,rt_thecrossant_black3,1079566,,,,black_plus_sign,,,50,,,,0,,,,,,0.9230769230769231,,,,,,,,,,,,,
null,,color_black3,1079669,,,,black_plus_sign,,,null,,,,,,,,,,,,,,,,,,,,,,,
null,,learn_phase(without_color)3,1083172,,,,black_plus_sign,,,null,object_07a.png,object_08b.png,,,,,,,,,,,,,,,,,,,,,
null,,black_cross(without_color)3,1083909,,,,blue,,,null,object_07a.png,object_08b.png,,,,,,,,,,,,,,,,,,,,,
null,,rt_plussign_withcolor3,1084411,,,,blue,,,null,object_07a.png,object_08b.png,,,,,,,,,,,,,,,,,,,,,
1021.8000000007451,,rt_thecrossant_black3,1085690,,,,black_plus_sign,,,49,,,,1,,,,,,0.9285714285714286,,,,,,,,,,,,,
null,,color_black3,1085792,,,,black_plus_sign,,,null,,,,,,,,,,,,,,,,,,,,,,,
null,,learn_phase(without_color)3,1089294,,,,black_plus_sign,,,null,object_14c.png,object_01a.png,,,,,,,,,,,,,,,,,,,,,
null,,black_cross(without_color)3,1090288,,,,blue,,,null,object_14c.png,object_01a.png,,,,,,,,,,,,,,,,,,,,,
null,,rt_plussign_withcolor3,1090789,,,,blue,,,null,object_14c.png,object_01a.png,,,,,,,,,,,,,,,,,,,,,
1007.6000000014901,,rt_thecrossant_black3,1091800,,,,black_plus_sign,,,49,,,,1,,,,,,0.9333333333333333,,,,,,,,,,,,,
null,,color_black3,1091902,,,,black_plus_sign,,,null,,,,,,,,,,,,,,,,,,,,,,,
null,,learn_phase(without_color)3,1095405,,,,black_plus_sign,,,null,object_13c.png,object_03b.png,,,,,,,,,,,,,,,,,,,,,
null,,black_cross(without_color)3,1096285,,,,green,,,null,object_13c.png,object_03b.png,,,,,,,,,,,,,,,,,,,,,
null,,rt_plussign_withcolor3,1096787,,,,green,,,null,object_13c.png,object_03b.png,,,,,,,,,,,,,,,,,,,,,
1485.6000000014901,,rt_thecrossant_black3,1097910,,,,black_plus_sign,,,50,,,,1,,,,,,0.9375,,,,,,,,,,,,,
null,,color_black3,1098012,,,,black_plus_sign,,,null,,,,,,,,,,,,,,,,,,,,,,,
null,,learn_phase(without_color)3,1101514,,,,black_plus_sign,,,null,object_12b.png,object_13a.png,,,,,,,,,,,,,,,,,,,,,
null,,black_cross(without_color)3,1102364,,,,green,,,null,object_12b.png,object_13a.png,,,,,,,,,,,,,,,,,,,,,
null,,rt_plussign_withcolor3,1102866,,,,green,,,null,object_12b.png,object_13a.png,,,,,,,,,,,,,,,,,,,,,
1583.7000000029802,,rt_thecrossant_black3,1104021,,,,black_plus_sign,,,50,,,,1,,,,,,0.9411764705882353,,,,,,,,,,,,,
null,,color_black3,1104123,,,,black_plus_sign,,,null,,,,,,,,,,,,,,,,,,,,,,,
null,,learn_phase(without_color)3,1107625,,,,black_plus_sign,,,null,object_02b.png,object_08b.png,,,,,,,,,,,,,,,,,,,,,
null,,black_cross(without_color)3,1108099,,,,blue,,,null,object_02b.png,object_08b.png,,,,,,,,,,,,,,,,,,,,,
null,,rt_plussign_withcolor3,1108600,,,,blue,,,null,object_02b.png,object_08b.png,,,,,,,,,,,,,,,,,,,,,
null,,rt_thecrossant_black3,1110131,,,,black_plus_sign,,,null,,,,,,,,,,0.9411764705882353,,,,,,,,,,,,,
null,,color_black3,1110232,,,,black_plus_sign,,,null,,,,,,,,,,,,,,,,,,,,,,,
null,,learn_phase(without_color)3,1113735,,,,black_plus_sign,,,null,object_06c.png,object_03c.png,,,,,,,,,,,,,,,,,,,,,
null,,black_cross(without_color)3,1114774,,,,blue,,,null,object_06c.png,object_03c.png,,,,,,,,,,,,,,,,,,,,,
null,,rt_plussign_withcolor3,1115288,,,,blue,,,null,object_06c.png,object_03c.png,,,,,,,,,,,,,,,,,,,,,
593.9000000022352,,rt_thecrossant_black3,1116253,,,,black_plus_sign,,,49,,,,1,,,,,,0.9444444444444444,,,,,,,,,,,,,
null,,color_black3,1116355,,,,black_plus_sign,,,null,,,,,,,,,,,,,,,,,,,,,,,
null,,learn_phase(without_color)3,1119858,,,,black_plus_sign,,,null,object_11c.png,object_14a.png,,,,,,,,,,,,,,,,,,,,,
null,,black_cross(without_color)3,1120654,,,,green,,,null,object_11c.png,object_14a.png,,,,,,,,,,,,,,,,,,,,,
null,,rt_plussign_withcolor3,1121156,,,,green,,,null,object_11c.png,object_14a.png,,,,,,,,,,,,,,,,,,,,,
1458.8999999985099,,rt_thecrossant_black3,1122364,,,,black_plus_sign,,,50,,,,1,,,,,,0.9473684210526315,,,,,,,,,,,,,
null,,color_black3,1122466,,,,black_plus_sign,,,null,,,,,,,,,,,,,,,,,,,,,,,
null,,learn_phase(without_color)3,1125970,,,,black_plus_sign,,,null,object_05c.png,object_04b.png,,,,,,,,,,,,,,,,,,,,,
null,,black_cross(without_color)3,1126645,,,,blue,,,null,object_05c.png,object_04b.png,,,,,,,,,,,,,,,,,,,,,
null,,rt_plussign_withcolor3,1127146,,,,blue,,,null,object_05c.png,object_04b.png,,,,,,,,,,,,,,,,,,,,,
923.8000000007451,,rt_thecrossant_black3,1128476,,,,black_plus_sign,,,49,,,,1,,,,,,0.95,,,,,,,,,,,,,
null,,color_black3,1128578,,,,black_plus_sign,,,null,,,,,,,,,,,,,,,,,,,,,,,
null,,learn_phase(without_color)3,1132080,,,,black_plus_sign,,,null,object_07c.png,object_01a.png,,,,,,,,,,,,,,,,,,,,,
null,,black_cross(without_color)3,1132581,,,,green,,,null,object_07c.png,object_01a.png,,,,,,,,,,,,,,,,,,,,,
null,,rt_plussign_withcolor3,1133083,,,,green,,,null,object_07c.png,object_01a.png,,,,,,,,,,,,,,,,,,,,,
936.1000000014901,,rt_thecrossant_black3,1134587,,,,black_plus_sign,,,50,,,,1,,,,,,0.9523809523809523,,,,,,,,,,,,,
null,,color_black3,1134702,,,,black_plus_sign,,,null,,,,,,,,,,,,,,,,,,,,,,,
null,,learn_phase(without_color)3,1138204,,,,black_plus_sign,,,null,object_08a.png,object_10a.png,,,,,,,,,,,,,,,,,,,,,
null,,black_cross(without_color)3,1138945,,,,blue,,,null,object_08a.png,object_10a.png,,,,,,,,,,,,,,,,,,,,,
null,,rt_plussign_withcolor3,1139446,,,,blue,,,null,object_08a.png,object_10a.png,,,,,,,,,,,,,,,,,,,,,
895,,rt_thecrossant_black3,1140710,,,,black_plus_sign,,,49,,,,1,,,,,,0.9545454545454546,,,,,,,,,,,,,
null,,color_black3,1140812,,,,black_plus_sign,,,null,,,,,,,,,,,,,,,,,,,,,,,
null,,learn_phase(without_color)3,1144314,,,,black_plus_sign,,,null,object_01c.png,object_14b.png,,,,,,,,,,,,,,,,,,,,,
null,,black_cross(without_color)3,1145393,,,,green,,,null,object_01c.png,object_14b.png,,,,,,,,,,,,,,,,,,,,,
null,,rt_plussign_withcolor3,1145895,,,,green,,,null,object_01c.png,object_14b.png,,,,,,,,,,,,,,,,,,,,,
1270.800000000745,,rt_thecrossant_black3,1146821,,,,black_plus_sign,,,50,,,,1,,,,,,0.9565217391304348,,,,,,,,,,,,,
null,,color_black3,1146923,,,,black_plus_sign,,,null,,,,,,,,,,,,,,,,,,,,,,,
null,,learn_phase(without_color)3,1150426,,,,black_plus_sign,,,null,object_04c.png,object_09c.png,,,,,,,,,,,,,,,,,,,,,
null,,black_cross(without_color)3,1151484,,,,blue,,,null,object_04c.png,object_09c.png,,,,,,,,,,,,,,,,,,,,,
459.8999999985099,,rt_plussign_withcolor3,1151986,,,,blue,,,49,object_04c.png,object_09c.png,,,,,,,,,,,,,,,,,,,,,
null,,rt_thecrossant_black3,1152932,,,,black_plus_sign,,,null,,,,1,,,,,,0.9583333333333334,,,,,,,,,,,,,
null,,color_black3,1153035,,,,black_plus_sign,,,null,,,,,,,,,,,,,,,,,,,,,,,
null,,learn_phase(without_color)3,1156538,,,,black_plus_sign,,,null,object_15b.png,object_14b.png,,,,,,,,,,,,,,,,,,,,,
null,,black_cross(without_color)3,1157512,,,,green,,,null,object_15b.png,object_14b.png,,,,,,,,,,,,,,,,,,,,,
null,,rt_plussign_withcolor3,1158014,,,,green,,,null,object_15b.png,object_14b.png,,,,,,,,,,,,,,,,,,,,,
1405.300000000745,,rt_thecrossant_black3,1159045,,,,black_plus_sign,,,50,,,,1,,,,,,0.96,,,,,,,,,,,,,
null,,color_black3,1159147,,,,black_plus_sign,,,null,,,,,,,,,,,,,,,,,,,,,,,
null,,learn_phase(without_color)3,1162651,,,,black_plus_sign,,,null,object_09a.png,object_10c.png,,,,,,,,,,,,,,,,,,,,,
null,,black_cross(without_color)3,1163217,,,,blue,,,null,object_09a.png,object_10c.png,,,,,,,,,,,,,,,,,,,,,
487.19999999925494,,rt_plussign_withcolor3,1163718,,,,blue,,,49,object_09a.png,object_10c.png,,,,,,,,,,,,,,,,,,,,,
null,,rt_thecrossant_black3,1165157,,,,black_plus_sign,,,null,,,,1,,,,,,0.9615384615384616,,,,,,,,,,,,,
null,,color_black3,1165259,,,,black_plus_sign,,,null,,,,,,,,,,,,,,,,,,,,,,,
null,,learn_phase(without_color)3,1168761,,,,black_plus_sign,,,null,object_05b.png,object_11c.png,,,,,,,,,,,,,,,,,,,,,
null,,black_cross(without_color)3,1169221,,,,blue,,,null,object_05b.png,object_11c.png,,,,,,,,,,,,,,,,,,,,,
null,,rt_plussign_withcolor3,1169722,,,,blue,,,null,object_05b.png,object_11c.png,,,,,,,,,,,,,,,,,,,,,
1101.699999999255,,rt_thecrossant_black3,1171267,,,,black_plus_sign,,,49,,,,1,,,,,,0.9629629629629629,,,,,,,,,,,,,
null,,color_black3,1171369,,,,black_plus_sign,,,null,,,,,,,,,,,,,,,,,,,,,,,
null,,learn_phase(without_color)3,1174872,,,,black_plus_sign,,,null,object_06b.png,object_05a.png,,,,,,,,,,,,,,,,,,,,,
null,,black_cross(without_color)3,1175472,,,,blue,,,null,object_06b.png,object_05a.png,,,,,,,,,,,,,,,,,,,,,
null,,rt_plussign_withcolor3,1175973,,,,blue,,,null,object_06b.png,object_05a.png,,,,,,,,,,,,,,,,,,,,,
1032.5,,rt_thecrossant_black3,1177377,,,,black_plus_sign,,,49,,,,1,,,,,,0.9642857142857143,,,,,,,,,,,,,
null,,color_black3,1177486,,,,black_plus_sign,,,null,,,,,,,,,,,,,,,,,,,,,,,
null,,thebreak,1177588,,,,<p></p>,,,null,,,,,,,,,,,,,,,,,,,,,,,
1595.6000000014901,,intro_0,1179185,,,,instruct,,,32,,,,,,,,,,,,,,,,,,,,,,,
5423.199999999255,,directmemory_phase3,1184609,,,,object_01a.png,,,51,,,,1,object_13c.png,object_10b.png,object_14c.png,object_14c.png,,0.5573770491803278,,1,,,,,,,,,,,
3895.5,,directmemory_phase3,1188506,,,,object_13a.png,,,51,,,,1,object_03a.png,object_01b.png,object_12b.png,object_12b.png,,0.5645161290322581,,1,,,,,,,,,,,
3238.800000000745,,directmemory_phase3,1191746,,,,object_01c.png,,,50,,,,1,object_14a.png,object_14b.png,object_10b.png,object_14b.png,,0.5714285714285714,,1,,,,,,,,,,,
3927,,directmemory_phase3,1195674,,,,object_04c.png,,,50,,,,1,object_15c.png,object_09c.png,object_05a.png,object_09c.png,,0.578125,,1,,,,,,,,,,,
4687.199999999255,,directmemory_phase3,1200362,,,,object_13c.png,,,50,,,,0,object_03b.png,object_03c.png,object_05b.png,object_03b.png,,0.5692307692307692,,0,,,,,,,,,,,
1702.800000000745,,directmemory_phase3,1202066,,,,object_10c.png,,,51,,,,1,object_11a.png,object_04a.png,object_09a.png,object_09a.png,,0.5757575757575758,,1,,,,,,,,,,,
4702.5,,directmemory_phase3,1206770,,,,object_15a.png,,,51,,,,1,object_11a.png,object_15b.png,object_09c.png,object_09c.png,,0.582089552238806,,1,,,,,,,,,,,
1696.1000000014901,,directmemory_phase3,1208467,,,,object_07c.png,,,51,,,,1,object_08b.png,object_01c.png,object_01a.png,object_01a.png,,0.5882352941176471,,1,,,,,,,,,,,
1813.5999999977648,,directmemory_phase3,1210282,,,,object_09a.png,,,51,,,,1,object_10a.png,object_09c.png,object_02c.png,object_02c.png,,0.5942028985507246,,1,,,,,,,,,,,
2342.5,,directmemory_phase3,1212626,,,,object_08b.png,,,49,,,,1,object_07a.png,object_01b.png,object_09c.png,object_07a.png,,0.6,,1,,,,,,,,,,,
4439,,directmemory_phase3,1217066,,,,object_09b.png,,,50,,,,0,object_10b.png,object_04a.png,object_03a.png,object_03a.png,,0.5915492957746479,,0,,,,,,,,,,,
3839.099999997765,,directmemory_phase3,1220907,,,,object_12c.png,,,50,,,,1,object_13c.png,object_10b.png,object_14b.png,object_10b.png,,0.5972222222222222,,1,,,,,,,,,,,
1798.800000000745,,directmemory_phase3,1222707,,,,object_12a.png,,,51,,,,1,object_03a.png,object_06a.png,object_12b.png,object_12b.png,,0.6027397260273972,,1,,,,,,,,,,,
1934.800000000745,,directmemory_phase3,1224643,,,,object_11b.png,,,49,,,,1,object_08a.png,object_09a.png,object_01c.png,object_08a.png,,0.6081081081081081,,1,,,,,,,,,,,
5150,,directmemory_phase3,1229795,,,,object_08c.png,,,50,,,,1,object_13c.png,object_03a.png,object_09a.png,object_03a.png,,0.6133333333333333,,1,,,,,,,,,,,
2295.5,,directmemory_phase3,1232091,,,,object_06c.png,,,49,,,,1,object_03c.png,object_09c.png,object_15c.png,object_03c.png,,0.618421052631579,,1,,,,,,,,,,,
3942.60000000149,,directmemory_phase3,1236035,,,,object_15c.png,,,49,,,,1,object_04b.png,object_03c.png,object_11b.png,object_04b.png,,0.6233766233766234,,1,,,,,,,,,,,
3542.199999999255,,directmemory_phase3,1239578,,,,object_07b.png,,,50,,,,1,object_12c.png,object_11a.png,object_08a.png,object_11a.png,,0.6282051282051282,,1,,,,,,,,,,,
2295.300000000745,,directmemory_phase3,1241875,,,,object_01b.png,,,49,,,,1,object_05a.png,object_08b.png,object_12c.png,object_05a.png,,0.6329113924050633,,1,,,,,,,,,,,
3655,,directmemory_phase3,1245531,,,,object_05c.png,,,49,,,,1,object_04b.png,object_10b.png,object_12c.png,object_04b.png,,0.6375,,1,,,,,,,,,,,
2271,,directmemory_phase3,1247803,,,,object_06b.png,,,49,,,,0,object_14a.png,object_05a.png,object_08b.png,object_05a.png,,0.6296296296296297,,0,,,,,,,,,,,
5351.099999997765,,directmemory_phase3,1253156,,,,object_15b.png,,,50,,,,1,object_01b.png,object_14b.png,object_03a.png,object_14b.png,,0.6341463414634146,,1,,,,,,,,,,,
2246,,directmemory_phase3,1255403,,,,object_04a.png,,,49,,,,0,object_09b.png,object_11a.png,object_03c.png,object_11a.png,,0.6265060240963856,,0,,,,,,,,,,,
2551.300000000745,,directmemory_phase3,1257956,,,,object_02a.png,,,49,,,,1,object_10b.png,object_14b.png,object_15c.png,object_10b.png,,0.6309523809523809,,1,,,,,,,,,,,
2085.599999997765,,directmemory_phase3,1260043,,,,object_08a.png,,,49,,,,1,object_10a.png,object_13a.png,object_03c.png,object_10a.png,,0.6352941176470588,,1,,,,,,,,,,,
2919.10000000149,,directmemory_phase3,1262964,,,,object_14a.png,,,50,,,,1,object_06b.png,object_11c.png,object_03b.png,object_11c.png,,0.6395348837209303,,1,,,,,,,,,,,
4815.29999999702,,directmemory_phase3,1267780,,,,object_06a.png,,,51,,,,0,object_06b.png,object_03b.png,object_05a.png,object_03b.png,,0.632183908045977,,0,,,,,,,,,,,
3496,,directmemory_phase3,1271278,,,,object_02b.png,,,50,,,,1,object_06b.png,object_08b.png,object_11a.png,object_08b.png,,0.6363636363636364,,1,,,,,,,,,,,
2861.5,,directmemory_phase3,1274140,,,,object_03c.png,,,50,,,,1,object_05a.png,object_13b.png,object_05c.png,object_13b.png,,0.6404494382022472,,1,,,,,,,,,,,
2935.300000000745,,directmemory_phase3,1277077,,,,object_05b.png,,,49,,,,0,object_03a.png,object_13b.png,object_11c.png,object_11c.png,,0.6333333333333333,,0,,,,,,,,,,,
null,,thebreak,1277182,,,,<p></p>,,,null,,,,,,,,,,,,,,,,,,,,,,,
2348.5,,intro_0,1279532,,,,instruct,,,32,,,,,,,,,,,,,,,,,,,,,,,
null,,learn_phase(without_color)4,1283033,,,,black_plus_sign,,,null,object_07a.png,object_08b.png,,,,,,,,,,,,,,,,,,,,,
null,,black_cross(without_color)4,1284040,,,,blue,,,null,object_07a.png,object_08b.png,,,,,,,,,,,,,,,,,,,,,
null,,rt_plussign_withcolor4,1284543,,,,blue,,,null,object_07a.png,object_08b.png,,,,,,,,,,,,,,,,,,,,,
1565.6000000014901,,rt_thecrossant_black4,1285540,,,,black_plus_sign,,,49,,,,1,,,,,,1,,,,,,,,,,,,,
null,,color_black4,1285643,,,,black_plus_sign,,,null,,,,,,,,,,,,,,,,,,,,,,,
null,,learn_phase(without_color)4,1289145,,,,black_plus_sign,,,null,object_03b.png,object_06a.png,,,,,,,,,,,,,,,,,,,,,
null,,black_cross(without_color)4,1289694,,,,green,,,null,object_03b.png,object_06a.png,,,,,,,,,,,,,,,,,,,,,
null,,rt_plussign_withcolor4,1290196,,,,green,,,null,object_03b.png,object_06a.png,,,,,,,,,,,,,,,,,,,,,
1208.1000000014901,,rt_thecrossant_black4,1291651,,,,black_plus_sign,,,50,,,,1,,,,,,1,,,,,,,,,,,,,
null,,color_black4,1291752,,,,black_plus_sign,,,null,,,,,,,,,,,,,,,,,,,,,,,
null,,learn_phase(without_color)4,1295255,,,,black_plus_sign,,,null,object_12b.png,object_12a.png,,,,,,,,,,,,,,,,,,,,,
null,,black_cross(without_color)4,1295850,,,,blue,,,null,object_12b.png,object_12a.png,,,,,,,,,,,,,,,,,,,,,
null,,rt_plussign_withcolor4,1296351,,,,blue,,,null,object_12b.png,object_12a.png,,,,,,,,,,,,,,,,,,,,,
798.3000000007451,,rt_thecrossant_black4,1297761,,,,black_plus_sign,,,49,,,,1,,,,,,1,,,,,,,,,,,,,
null,,color_black4,1297863,,,,black_plus_sign,,,null,,,,,,,,,,,,,,,,,,,,,,,
null,,learn_phase(without_color)4,1301365,,,,black_plus_sign,,,null,object_11c.png,object_05b.png,,,,,,,,,,,,,,,,,,,,,
null,,black_cross(without_color)4,1301883,,,,green,,,null,object_11c.png,object_05b.png,,,,,,,,,,,,,,,,,,,,,
null,,rt_plussign_withcolor4,1302385,,,,green,,,null,object_11c.png,object_05b.png,,,,,,,,,,,,,,,,,,,,,
918.6999999992549,,rt_thecrossant_black4,1303873,,,,black_plus_sign,,,50,,,,1,,,,,,1,,,,,,,,,,,,,
null,,color_black4,1303975,,,,black_plus_sign,,,null,,,,,,,,,,,,,,,,,,,,,,,
null,,learn_phase(without_color)4,1307479,,,,black_plus_sign,,,null,object_04b.png,object_15c.png,,,,,,,,,,,,,,,,,,,,,
null,,black_cross(without_color)4,1307932,,,,green,,,null,object_04b.png,object_15c.png,,,,,,,,,,,,,,,,,,,,,
null,,rt_plussign_withcolor4,1308434,,,,green,,,null,object_04b.png,object_15c.png,,,,,,,,,,,,,,,,,,,,,
800.6999999992549,,rt_thecrossant_black4,1309986,,,,black_plus_sign,,,50,,,,1,,,,,,1,,,,,,,,,,,,,
null,,color_black4,1310089,,,,black_plus_sign,,,null,,,,,,,,,,,,,,,,,,,,,,,
null,,learn_phase(without_color)4,1313592,,,,black_plus_sign,,,null,object_08b.png,object_02b.png,,,,,,,,,,,,,,,,,,,,,
null,,black_cross(without_color)4,1314457,,,,green,,,null,object_08b.png,object_02b.png,,,,,,,,,,,,,,,,,,,,,
null,,rt_plussign_withcolor4,1314959,,,,green,,,null,object_08b.png,object_02b.png,,,,,,,,,,,,,,,,,,,,,
779.6999999992549,,rt_thecrossant_black4,1316098,,,,black_plus_sign,,,50,,,,1,,,,,,1,,,,,,,,,,,,,
null,,color_black4,1316200,,,,black_plus_sign,,,null,,,,,,,,,,,,,,,,,,,,,,,
null,,learn_phase(without_color)4,1319702,,,,black_plus_sign,,,null,object_09a.png,object_10c.png,,,,,,,,,,,,,,,,,,,,,
null,,black_cross(without_color)4,1320477,,,,green,,,null,object_09a.png,object_10c.png,,,,,,,,,,,,,,,,,,,,,
null,,rt_plussign_withcolor4,1320979,,,,green,,,null,object_09a.png,object_10c.png,,,,,,,,,,,,,,,,,,,,,
1101.8999999985099,,rt_thecrossant_black4,1322210,,,,black_plus_sign,,,50,,,,1,,,,,,1,,,,,,,,,,,,,
null,,color_black4,1322312,,,,black_plus_sign,,,null,,,,,,,,,,,,,,,,,,,,,,,
null,,learn_phase(without_color)4,1325815,,,,black_plus_sign,,,null,object_03a.png,object_08c.png,,,,,,,,,,,,,,,,,,,,,
null,,black_cross(without_color)4,1326845,,,,green,,,null,object_03a.png,object_08c.png,,,,,,,,,,,,,,,,,,,,,
null,,rt_plussign_withcolor4,1327346,,,,green,,,null,object_03a.png,object_08c.png,,,,,,,,,,,,,,,,,,,,,
1251,,rt_thecrossant_black4,1328322,,,,black_plus_sign,,,50,,,,1,,,,,,1,,,,,,,,,,,,,
null,,color_black4,1328424,,,,black_plus_sign,,,null,,,,,,,,,,,,,,,,,,,,,,,
null,,learn_phase(without_color)4,1331927,,,,black_plus_sign,,,null,object_01c.png,object_14b.png,,,,,,,,,,,,,,,,,,,,,
null,,black_cross(without_color)4,1332831,,,,blue,,,null,object_01c.png,object_14b.png,,,,,,,,,,,,,,,,,,,,,
null,,rt_plussign_withcolor4,1333332,,,,blue,,,null,object_01c.png,object_14b.png,,,,,,,,,,,,,,,,,,,,,
1425.199999999255,,rt_thecrossant_black4,1334437,,,,black_plus_sign,,,49,,,,1,,,,,,1,,,,,,,,,,,,,
null,,color_black4,1334540,,,,black_plus_sign,,,null,,,,,,,,,,,,,,,,,,,,,,,
null,,learn_phase(without_color)4,1338043,,,,black_plus_sign,,,null,object_10b.png,object_02a.png,,,,,,,,,,,,,,,,,,,,,
null,,black_cross(without_color)4,1338656,,,,green,,,null,object_10b.png,object_02a.png,,,,,,,,,,,,,,,,,,,,,
454.1000000014901,,rt_plussign_withcolor4,1339158,,,,green,,,50,object_10b.png,object_02a.png,,,,,,,,,,,,,,,,,,,,,
null,,rt_thecrossant_black4,1340549,,,,black_plus_sign,,,null,,,,1,,,,,,1,,,,,,,,,,,,,
null,,color_black4,1340651,,,,black_plus_sign,,,null,,,,,,,,,,,,,,,,,,,,,,,
null,,learn_phase(without_color)4,1344154,,,,black_plus_sign,,,null,object_04c.png,object_09c.png,,,,,,,,,,,,,,,,,,,,,
null,,black_cross(without_color)4,1345060,,,,blue,,,null,object_04c.png,object_09c.png,,,,,,,,,,,,,,,,,,,,,
null,,rt_plussign_withcolor4,1345561,,,,blue,,,null,object_04c.png,object_09c.png,,,,,,,,,,,,,,,,,,,,,
963,,rt_thecrossant_black4,1346660,,,,black_plus_sign,,,49,,,,1,,,,,,1,,,,,,,,,,,,,
null,,color_black4,1346762,,,,black_plus_sign,,,null,,,,,,,,,,,,,,,,,,,,,,,
null,,learn_phase(without_color)4,1350264,,,,black_plus_sign,,,null,object_01a.png,object_14c.png,,,,,,,,,,,,,,,,,,,,,
null,,black_cross(without_color)4,1350962,,,,blue,,,null,object_01a.png,object_14c.png,,,,,,,,,,,,,,,,,,,,,
null,,rt_plussign_withcolor4,1351464,,,,blue,,,null,object_01a.png,object_14c.png,,,,,,,,,,,,,,,,,,,,,
1017.9000000022352,,rt_thecrossant_black4,1352769,,,,black_plus_sign,,,49,,,,1,,,,,,1,,,,,,,,,,,,,
null,,color_black4,1352872,,,,black_plus_sign,,,null,,,,,,,,,,,,,,,,,,,,,,,
null,,learn_phase(without_color)4,1356374,,,,black_plus_sign,,,null,object_14a.png,object_11c.png,,,,,,,,,,,,,,,,,,,,,
null,,black_cross(without_color)4,1357410,,,,blue,,,null,object_14a.png,object_11c.png,,,,,,,,,,,,,,,,,,,,,
null,,rt_plussign_withcolor4,1357912,,,,blue,,,null,object_14a.png,object_11c.png,,,,,,,,,,,,,,,,,,,,,
938.9000000022352,,rt_thecrossant_black4,1358880,,,,black_plus_sign,,,49,,,,1,,,,,,1,,,,,,,,,,,,,
null,,color_black4,1358983,,,,black_plus_sign,,,null,,,,,,,,,,,,,,,,,,,,,,,
null,,learn_phase(without_color)4,1362485,,,,black_plus_sign,,,null,object_05c.png,object_04b.png,,,,,,,,,,,,,,,,,,,,,
null,,black_cross(without_color)4,1362937,,,,green,,,null,object_05c.png,object_04b.png,,,,,,,,,,,,,,,,,,,,,
null,,rt_plussign_withcolor4,1363439,,,,green,,,null,object_05c.png,object_04b.png,,,,,,,,,,,,,,,,,,,,,
1373.300000000745,,rt_thecrossant_black4,1365001,,,,black_plus_sign,,,50,,,,1,,,,,,1,,,,,,,,,,,,,
null,,color_black4,1365103,,,,black_plus_sign,,,null,,,,,,,,,,,,,,,,,,,,,,,
null,,learn_phase(without_color)4,1368606,,,,black_plus_sign,,,null,object_10b.png,object_12c.png,,,,,,,,,,,,,,,,,,,,,
null,,black_cross(without_color)4,1369282,,,,green,,,null,object_10b.png,object_12c.png,,,,,,,,,,,,,,,,,,,,,
null,,rt_plussign_withcolor4,1369783,,,,green,,,null,object_10b.png,object_12c.png,,,,,,,,,,,,,,,,,,,,,
907.9000000022352,,rt_thecrossant_black4,1371112,,,,black_plus_sign,,,50,,,,1,,,,,,1,,,,,,,,,,,,,
null,,color_black4,1371214,,,,black_plus_sign,,,null,,,,,,,,,,,,,,,,,,,,,,,
null,,learn_phase(without_color)4,1374717,,,,black_plus_sign,,,null,object_06c.png,object_03c.png,,,,,,,,,,,,,,,,,,,,,
null,,black_cross(without_color)4,1375371,,,,green,,,null,object_06c.png,object_03c.png,,,,,,,,,,,,,,,,,,,,,
null,,rt_plussign_withcolor4,1375873,,,,green,,,null,object_06c.png,object_03c.png,,,,,,,,,,,,,,,,,,,,,
955.5,,rt_thecrossant_black4,1377223,,,,black_plus_sign,,,50,,,,1,,,,,,1,,,,,,,,,,,,,
null,,color_black4,1377325,,,,black_plus_sign,,,null,,,,,,,,,,,,,,,,,,,,,,,
null,,learn_phase(without_color)4,1380827,,,,black_plus_sign,,,null,object_06b.png,object_05a.png,,,,,,,,,,,,,,,,,,,,,
null,,black_cross(without_color)4,1381846,,,,green,,,null,object_06b.png,object_05a.png,,,,,,,,,,,,,,,,,,,,,
null,,rt_plussign_withcolor4,1382348,,,,green,,,null,object_06b.png,object_05a.png,,,,,,,,,,,,,,,,,,,,,
890.6999999992549,,rt_thecrossant_black4,1383333,,,,black_plus_sign,,,50,,,,1,,,,,,1,,,,,,,,,,,,,
null,,color_black4,1383435,,,,black_plus_sign,,,null,,,,,,,,,,,,,,,,,,,,,,,
null,,learn_phase(without_color)4,1386938,,,,black_plus_sign,,,null,object_14b.png,object_15b.png,,,,,,,,,,,,,,,,,,,,,
null,,black_cross(without_color)4,1387400,,,,green,,,null,object_14b.png,object_15b.png,,,,,,,,,,,,,,,,,,,,,
null,,rt_plussign_withcolor4,1387902,,,,green,,,null,object_14b.png,object_15b.png,,,,,,,,,,,,,,,,,,,,,
1140.4000000022352,,rt_thecrossant_black4,1389444,,,,black_plus_sign,,,50,,,,1,,,,,,1,,,,,,,,,,,,,
null,,color_black4,1389546,,,,black_plus_sign,,,null,,,,,,,,,,,,,,,,,,,,,,,
null,,learn_phase(without_color)4,1393048,,,,black_plus_sign,,,null,object_09b.png,object_03a.png,,,,,,,,,,,,,,,,,,,,,
null,,black_cross(without_color)4,1393616,,,,green,,,null,object_09b.png,object_03a.png,,,,,,,,,,,,,,,,,,,,,
null,,rt_plussign_withcolor4,1394118,,,,green,,,null,object_09b.png,object_03a.png,,,,,,,,,,,,,,,,,,,,,
600.6999999992549,,rt_thecrossant_black4,1395554,,,,black_plus_sign,,,50,,,,1,,,,,,1,,,,,,,,,,,,,
null,,color_black4,1395657,,,,black_plus_sign,,,null,,,,,,,,,,,,,,,,,,,,,,,
null,,learn_phase(without_color)4,1399170,,,,black_plus_sign,,,null,object_12b.png,object_13a.png,,,,,,,,,,,,,,,,,,,,,
null,,black_cross(without_color)4,1399698,,,,blue,,,null,object_12b.png,object_13a.png,,,,,,,,,,,,,,,,,,,,,
null,,rt_plussign_withcolor4,1400200,,,,blue,,,null,object_12b.png,object_13a.png,,,,,,,,,,,,,,,,,,,,,
817.1999999992549,,rt_thecrossant_black4,1401677,,,,black_plus_sign,,,49,,,,1,,,,,,1,,,,,,,,,,,,,
null,,color_black4,1401781,,,,black_plus_sign,,,null,,,,,,,,,,,,,,,,,,,,,,,
null,,learn_phase(without_color)4,1405283,,,,black_plus_sign,,,null,object_11a.png,object_04a.png,,,,,,,,,,,,,,,,,,,,,
null,,black_cross(without_color)4,1405980,,,,blue,,,null,object_11a.png,object_04a.png,,,,,,,,,,,,,,,,,,,,,
null,,rt_plussign_withcolor4,1406482,,,,blue,,,null,object_11a.png,object_04a.png,,,,,,,,,,,,,,,,,,,,,
783.6000000014901,,rt_thecrossant_black4,1407789,,,,black_plus_sign,,,49,,,,1,,,,,,1,,,,,,,,,,,,,
null,,color_black4,1407891,,,,black_plus_sign,,,null,,,,,,,,,,,,,,,,,,,,,,,
null,,learn_phase(without_color)4,1411395,,,,black_plus_sign,,,null,object_15a.png,object_09c.png,,,,,,,,,,,,,,,,,,,,,
null,,black_cross(without_color)4,1412345,,,,blue,,,null,object_15a.png,object_09c.png,,,,,,,,,,,,,,,,,,,,,
null,,rt_plussign_withcolor4,1412847,,,,blue,,,null,object_15a.png,object_09c.png,,,,,,,,,,,,,,,,,,,,,
947.1999999992549,,rt_thecrossant_black4,1413901,,,,black_plus_sign,,,49,,,,1,,,,,,1,,,,,,,,,,,,,
null,,color_black4,1414003,,,,black_plus_sign,,,null,,,,,,,,,,,,,,,,,,,,,,,
null,,learn_phase(without_color)4,1417506,,,,black_plus_sign,,,null,object_08a.png,object_10a.png,,,,,,,,,,,,,,,,,,,,,
null,,black_cross(without_color)4,1418347,,,,green,,,null,object_08a.png,object_10a.png,,,,,,,,,,,,,,,,,,,,,
null,,rt_plussign_withcolor4,1418849,,,,green,,,null,object_08a.png,object_10a.png,,,,,,,,,,,,,,,,,,,,,
1240.3999999985099,,rt_thecrossant_black4,1420011,,,,black_plus_sign,,,50,,,,1,,,,,,1,,,,,,,,,,,,,
null,,color_black4,1420113,,,,black_plus_sign,,,null,,,,,,,,,,,,,,,,,,,,,,,
null,,learn_phase(without_color)4,1423615,,,,black_plus_sign,,,null,object_01b.png,object_05a.png,,,,,,,,,,,,,,,,,,,,,
null,,black_cross(without_color)4,1424474,,,,green,,,null,object_01b.png,object_05a.png,,,,,,,,,,,,,,,,,,,,,
null,,rt_plussign_withcolor4,1424986,,,,green,,,null,object_01b.png,object_05a.png,,,,,,,,,,,,,,,,,,,,,
994.3000000007451,,rt_thecrossant_black4,1426132,,,,black_plus_sign,,,50,,,,1,,,,,,1,,,,,,,,,,,,,
null,,color_black4,1426234,,,,black_plus_sign,,,null,,,,,,,,,,,,,,,,,,,,,,,
null,,learn_phase(without_color)4,1429736,,,,black_plus_sign,,,null,object_02c.png,object_09a.png,,,,,,,,,,,,,,,,,,,,,
null,,black_cross(without_color)4,1430753,,,,green,,,null,object_02c.png,object_09a.png,,,,,,,,,,,,,,,,,,,,,
null,,rt_plussign_withcolor4,1431255,,,,green,,,null,object_02c.png,object_09a.png,,,,,,,,,,,,,,,,,,,,,
1279,,rt_thecrossant_black4,1432243,,,,black_plus_sign,,,50,,,,1,,,,,,1,,,,,,,,,,,,,
null,,color_black4,1432345,,,,black_plus_sign,,,null,,,,,,,,,,,,,,,,,,,,,,,
null,,learn_phase(without_color)4,1435848,,,,black_plus_sign,,,null,object_11a.png,object_07b.png,,,,,,,,,,,,,,,,,,,,,
null,,black_cross(without_color)4,1436615,,,,blue,,,null,object_11a.png,object_07b.png,,,,,,,,,,,,,,,,,,,,,
null,,rt_plussign_withcolor4,1437116,,,,blue,,,null,object_11a.png,object_07b.png,,,,,,,,,,,,,,,,,,,,,
1181.6000000014901,,rt_thecrossant_black4,1438353,,,,black_plus_sign,,,49,,,,1,,,,,,1,,,,,,,,,,,,,
null,,color_black4,1438456,,,,black_plus_sign,,,null,,,,,,,,,,,,,,,,,,,,,,,
null,,learn_phase(without_color)4,1441958,,,,black_plus_sign,,,null,object_03c.png,object_13b.png,,,,,,,,,,,,,,,,,,,,,
null,,black_cross(without_color)4,1442624,,,,blue,,,null,object_03c.png,object_13b.png,,,,,,,,,,,,,,,,,,,,,
null,,rt_plussign_withcolor4,1443126,,,,blue,,,null,object_03c.png,object_13b.png,,,,,,,,,,,,,,,,,,,,,
1299.800000000745,,rt_thecrossant_black4,1444464,,,,black_plus_sign,,,49,,,,1,,,,,,1,,,,,,,,,,,,,
null,,color_black4,1444566,,,,black_plus_sign,,,null,,,,,,,,,,,,,,,,,,,,,,,
null,,learn_phase(without_color)4,1448069,,,,black_plus_sign,,,null,object_08a.png,object_11b.png,,,,,,,,,,,,,,,,,,,,,
null,,black_cross(without_color)4,1448848,,,,blue,,,null,object_08a.png,object_11b.png,,,,,,,,,,,,,,,,,,,,,
null,,rt_plussign_withcolor4,1449350,,,,blue,,,null,object_08a.png,object_11b.png,,,,,,,,,,,,,,,,,,,,,
1030.6000000014901,,rt_thecrossant_black4,1450575,,,,black_plus_sign,,,49,,,,1,,,,,,1,,,,,,,,,,,,,
null,,color_black4,1450676,,,,black_plus_sign,,,null,,,,,,,,,,,,,,,,,,,,,,,
null,,learn_phase(without_color)4,1454194,,,,black_plus_sign,,,null,object_03b.png,object_13c.png,,,,,,,,,,,,,,,,,,,,,
null,,black_cross(without_color)4,1454613,,,,green,,,null,object_03b.png,object_13c.png,,,,,,,,,,,,,,,,,,,,,
null,,rt_plussign_withcolor4,1455114,,,,green,,,null,object_03b.png,object_13c.png,,,,,,,,,,,,,,,,,,,,,
1740.699999999255,,rt_thecrossant_black4,1456700,,,,black_plus_sign,,,50,,,,1,,,,,,1,,,,,,,,,,,,,
null,,color_black4,1456802,,,,black_plus_sign,,,null,,,,,,,,,,,,,,,,,,,,,,,
null,,learn_phase(without_color)4,1460306,,,,black_plus_sign,,,null,object_07c.png,object_01a.png,,,,,,,,,,,,,,,,,,,,,
null,,black_cross(without_color)4,1460805,,,,green,,,null,object_07c.png,object_01a.png,,,,,,,,,,,,,,,,,,,,,
null,,rt_plussign_withcolor4,1461306,,,,green,,,null,object_07c.png,object_01a.png,,,,,,,,,,,,,,,,,,,,,
730.8999999985099,,rt_thecrossant_black4,1462811,,,,black_plus_sign,,,50,,,,1,,,,,,1,,,,,,,,,,,,,
null,,color_black4,1462913,,,,black_plus_sign,,,null,,,,,,,,,,,,,,,,,,,,,,,
null,,thebreak,1463017,,,,<p></p>,,,null,,,,,,,,,,,,,,,,,,,,,,,
1521.2999999970198,,intro_0,1464539,,,,instruct,,,32,,,,,,,,,,,,,,,,,,,,,,,
6663.20000000298,,directmemory_phase4,1471203,,,,object_10b.png,,,50,,,,1,object_11a.png,object_12c.png,object_01b.png,object_12c.png,,0.6373626373626373,,1,,,,,,,,,,,
2262.800000000745,,directmemory_phase4,1473467,,,,object_04a.png,,,50,,,,0,object_09c.png,object_09b.png,object_11a.png,object_11a.png,,0.6304347826086957,,0,,,,,,,,,,,
5518.300000000745,,directmemory_phase4,1478987,,,,object_05a.png,,,51,,,,0,object_04b.png,object_01b.png,object_05b.png,object_01b.png,,0.6236559139784946,,0,,,,,,,,,,,
5398.89999999851,,directmemory_phase4,1484387,,,,object_09c.png,,,50,,,,1,object_09a.png,object_15a.png,object_02c.png,object_15a.png,,0.6276595744680851,,1,,,,,,,,,,,
4798.800000000745,,directmemory_phase4,1489187,,,,object_08b.png,,,49,,,,0,object_12c.png,object_10b.png,object_07a.png,object_07a.png,,0.6210526315789474,,0,,,,,,,,,,,
4950.800000000745,,directmemory_phase4,1494139,,,,object_15c.png,,,50,,,,0,object_04b.png,object_05a.png,object_02a.png,object_04b.png,,0.6145833333333334,,0,,,,,,,,,,,
4974.89999999851,,directmemory_phase4,1499116,,,,object_15b.png,,,50,,,,0,object_03b.png,object_05c.png,object_14b.png,object_14b.png,,0.6082474226804123,,0,,,,,,,,,,,
4934.5,,directmemory_phase4,1504051,,,,object_04c.png,,,50,,,,1,object_15c.png,object_09c.png,object_11a.png,object_09c.png,,0.6122448979591837,,1,,,,,,,,,,,
5223.199999999255,,directmemory_phase4,1509276,,,,object_12b.png,,,49,,,,0,object_14b.png,object_13a.png,object_05c.png,object_13a.png,,0.6060606060606061,,0,,,,,,,,,,,
2006.5,,directmemory_phase4,1511284,,,,object_03c.png,,,49,,,,1,object_13b.png,object_01b.png,object_14b.png,object_13b.png,,0.61,,1,,,,,,,,,,,
7095.199999999255,,directmemory_phase4,1518380,,,,object_13c.png,,,51,,,,0,object_03b.png,object_08a.png,object_05c.png,object_03b.png,,0.6039603960396039,,0,,,,,,,,,,,
4462.79999999702,,directmemory_phase4,1522844,,,,object_03a.png,,,49,,,,0,object_15a.png,object_12b.png,object_08c.png,object_08c.png,,0.5980392156862745,,0,,,,,,,,,,,
1678.5999999977648,,directmemory_phase4,1524524,,,,object_10c.png,,,51,,,,1,object_03a.png,object_06a.png,object_09a.png,object_09a.png,,0.6019417475728155,,1,,,,,,,,,,,
1837.5999999977648,,directmemory_phase4,1526364,,,,object_11b.png,,,50,,,,1,object_06a.png,object_08a.png,object_09c.png,object_08a.png,,0.6057692307692307,,1,,,,,,,,,,,
6311.89999999851,,directmemory_phase4,1532677,,,,object_01a.png,,,51,,,,0,object_14c.png,object_10a.png,object_10b.png,object_14c.png,,0.6,,0,,,,,,,,,,,
1557.8999999985099,,directmemory_phase4,1534237,,,,object_07c.png,,,49,,,,1,object_01a.png,object_11c.png,object_12a.png,object_01a.png,,0.6037735849056604,,1,,,,,,,,,,,
2926.099999997765,,directmemory_phase4,1537165,,,,object_04b.png,,,51,,,,1,object_13c.png,object_09c.png,object_05c.png,object_05c.png,,0.6074766355140186,,1,,,,,,,,,,,
3222.39999999851,,directmemory_phase4,1540389,,,,object_06c.png,,,50,,,,1,object_04c.png,object_03c.png,object_11a.png,object_03c.png,,0.6111111111111112,,1,,,,,,,,,,,
4119.39999999851,,directmemory_phase4,1544510,,,,object_05b.png,,,49,,,,1,object_11c.png,object_11a.png,object_10a.png,object_11c.png,,0.6146788990825688,,1,,,,,,,,,,,
2325.199999999255,,directmemory_phase4,1546836,,,,object_11a.png,,,50,,,,1,object_11c.png,object_07b.png,object_13a.png,object_07b.png,,0.6181818181818182,,1,,,,,,,,,,,
2343.099999997765,,directmemory_phase4,1549181,,,,object_02a.png,,,50,,,,1,object_10c.png,object_10b.png,object_12b.png,object_10b.png,,0.6216216216216216,,1,,,,,,,,,,,
1999.1000000014901,,directmemory_phase4,1551182,,,,object_12a.png,,,51,,,,1,object_08a.png,object_02a.png,object_12b.png,object_12b.png,,0.625,,1,,,,,,,,,,,
4046.300000000745,,directmemory_phase4,1555229,,,,object_01c.png,,,49,,,,1,object_14b.png,object_04b.png,object_14a.png,object_14b.png,,0.6283185840707964,,1,,,,,,,,,,,
3295.2999999970198,,directmemory_phase4,1558526,,,,object_14a.png,,,50,,,,1,object_09b.png,object_11c.png,object_08b.png,object_11c.png,,0.631578947368421,,1,,,,,,,,,,,
2078.699999999255,,directmemory_phase4,1560606,,,,object_09a.png,,,49,,,,1,object_02c.png,object_05c.png,object_03c.png,object_02c.png,,0.6347826086956522,,1,,,,,,,,,,,
4581.60000000149,,directmemory_phase4,1565189,,,,object_10a.png,,,49,,,,1,object_08a.png,object_09a.png,object_02c.png,object_08a.png,,0.6379310344827587,,1,,,,,,,,,,,
4879.400000002235,,directmemory_phase4,1570070,,,,object_06b.png,,,50,,,,0,object_08a.png,object_02a.png,object_05a.png,object_05a.png,,0.6324786324786325,,0,,,,,,,,,,,
3150,,directmemory_phase4,1573222,,,,object_06a.png,,,50,,,,1,object_04c.png,object_03b.png,object_14b.png,object_03b.png,,0.635593220338983,,1,,,,,,,,,,,
3511.099999997765,,directmemory_phase4,1576734,,,,object_02b.png,,,49,,,,1,object_08b.png,object_04b.png,object_01c.png,object_08b.png,,0.6386554621848739,,1,,,,,,,,,,,
2045.8999999985099,,directmemory_phase4,1578782,,,,object_09b.png,,,50,,,,1,object_11b.png,object_03a.png,object_05a.png,object_03a.png,,0.6416666666666667,,1,,,,,,,,,,,
null,,thebreak,1578884,,,,<p></p>,,,null,,,,,,,,,,,,,,,,,,,,,,,
4002.60000000149,,intro_0,1582887,,,,instruct,,,32,,,,,,,,,,,,,,,,,,,,,,,
21879,,intro_1,1604767,,,,instruct,,,32,,,,,,,,,,,,,,,,,,,,,,,
5631.60000000149,,intro_2,1610400,,,,instruct,,,32,,,,,,,,,,,,,,,,,,,,,,,
,,intro_3,1625984,,,,instruct,,,,,,,,,,,,,,,,,,,,,,,,,,
7527.60000000149,,intro_4,1633512,,,,instruct,,,32,,,,,,,,,,,,,,,,,,,,,,,
9935,,inference_phase,1643448,,,,object_14a.png,,,49,object_05b.png,object_13a.png,,1,,,,object_05b.png,,1,,,object_12b.png,,,,,,,,,,
9455.300000000745,,inference_phase,1652905,,,,object_01c.png,,,51,object_03c.png,object_15b.png,,1,,,,object_15b.png,,1,,,object_01b.png,,,,,,,,,,
5173.800000000745,,inference_phase,1658080,,,,object_12a.png,,,51,object_08b.png,object_13a.png,,1,,,,object_13a.png,,1,,,object_13b.png,,,,,,,,,,
6560,,inference_phase,1664642,,,,object_02a.png,,,49,object_03a.png,object_07a.png,,0,,,,object_12c.png,,0.75,,,object_12c.png,,,,,,,,,,
6973.70000000298,,inference_phase,1671617,,,,object_04c.png,,,49,object_14b.png,object_15b.png,,0,,,,object_15a.png,,0.6,,,object_15a.png,,,,,,,,,,
6000,,inference_phase,1677618,,,,object_11b.png,,,50,object_12b.png,object_13a.png,,1,,,,object_10a.png,,0.6666666666666666,,,object_10a.png,,,,,,,,,,
7246.300000000745,,inference_phase,1684866,,,,object_08c.png,,,49,object_15c.png,object_09b.png,,0,,,,object_09b.png,,0.5714285714285714,,,object_10b.png,,,,,,,,,,
5358.5,,inference_phase,1690225,,,,object_06b.png,,,50,object_01b.png,object_10a.png,,0,,,,object_01b.png,,0.5,,,object_03a.png,,,,,,,,,,
8382.5,,inference_phase,1698609,,,,object_14c.png,,,50,object_09b.png,object_08a.png,,1,,,,object_07c.png,,0.5555555555555556,,,object_07c.png,,,,,,,,,,
4135.20000000298,,inference_phase,1702746,,,,object_02c.png,,,50,object_04a.png,object_03c.png,,1,,,,object_10c.png,,0.6,,,object_10c.png,,,,,,,,,,
9910.800000000745,,inference_phase,1712658,,,,object_04a.png,,,51,object_03c.png,object_15b.png,,0,,,,object_07b.png,,0.5454545454545454,,,object_07b.png,,,,,,,,,,
6655.300000000745,,inference_phase,1719315,,,,object_13b.png,,,50,object_06a.png,object_11a.png,,1,,,,object_06c.png,,0.5833333333333334,,,object_06c.png,,,,,,,,,,
6726.199999999255,,inference_phase,1726042,,,,object_13c.png,,,49,object_06a.png,object_11b.png,,1,,,,object_06a.png,,0.6153846153846154,,,object_04b.png,,,,,,,,,,
4735.800000000745,,inference_phase,1730779,,,,object_07a.png,,,51,object_06c.png,object_02b.png,,1,,,,object_02b.png,,0.6428571428571429,,,object_09a.png,,,,,,,,,,
5134.5,,inference_phase,1735915,,,,object_05c.png,,,50,object_06a.png,object_15c.png,,0,,,,object_15c.png,,0.6,,,object_09c.png,,,,,,,,,,
,,survey,2039418,,,,survey-questions,,,,,,,,,,,,,,,,,none,high,I was not doing anything other than concentrating intensely.,Note colors that complement or are opposite. Note whether the objects might fit together. Note whether there are similar shapes in the two objects. Note whether two similar sounding words could be used to describe the two objects such as rope and ridges.,The trials seemed to become easier because it appeared some of the pairings were the same from trial to trial. ,No.,The task was not too difficult but was challenging, particularly the remembering.  ,,,
59764.70000000298,,thank_you,2099199,,,,<p> Congratulations, you are all done!</p><p> <strong>Please click space on your keyboard to end the experiment!</strong> The secret code to enter at the beginning screen is: <strong>CIMBPENS</strong></p><p> Please make sure to submit the HIT and email uciccnl@gmail.com if you had any issues! </p><br><p>Please remember to submit this data by clicking space after copying the code. Failure of submission will lead to in-complete payment</p>,,,32,,,,,,,,,,,,,,,,,,,,,2,0,C78LSMTN
