rt,responses,trial_type,time_elapsed,identifier_a,identifier_b,identifier_c,stimulus,button_pressed,response,key_press,stimulus_left,stimulus_right,accuracy,practice_cumulative_accuracy,stimulus_down_left,stimulus_down_mid,stimulus_down_right,stimulus_correct,prac_weighted_accuracy,cumulative_accuracy,weighted_accuracy,stimulus_middle,problems,smooth,distraction,strategies,easier,similar,comments
32289.5,{worker_id:678e6eb7170e3a5da7c4ab91},id_enter,32294,object_04c.png; object_08c.png; object_07b.png; object_15a.png; object_07c.png; object_05b.png; object_01b.png; object_02c.png; object_06b.png; object_13a.png; object_06c.png; object_01a.png; object_12c.png; object_10b.png; object_01c.png,object_02b.png; object_14b.png; object_15b.png; object_09a.png; object_06a.png; object_14c.png; object_08a.png; object_03a.png; object_11a.png; object_10c.png; object_09b.png; object_13c.png; object_04a.png; object_11c.png; object_05a.png,object_12b.png; object_05c.png; object_12a.png; object_14a.png; object_10a.png; object_15c.png; object_03c.png; object_03b.png; object_04b.png; object_02a.png; object_08b.png; object_09c.png; object_13b.png; object_07a.png; object_11b.png,,,,,,,,,,,,,,,,,,,,,,,
16320.899999976158,,make_fullscreen,48623,,,,fullscreen,0,,,,,,,,,,,,,,,,,,,,,
8311,,instruct_1,56937,,,,instruct,0,Next,,,,,,,,,,,,,,,,,,,,
45921.89999997616,,instruct_2,102861,,,,instruct,1,Next,,,,,,,,,,,,,,,,,,,,
8830.799999952316,,instruct_3,111695,,,,instruct,1,Next,,,,,,,,,,,,,,,,,,,,
29898.799999952316,,instruct_4,141596,,,,instruct,1,Next,,,,,,,,,,,,,,,,,,,,
15010.700000047684,,instruct_5,156610,,,,instruct,1,Next,,,,,,,,,,,,,,,,,,,,
5576.300000071526,,instruct_6,162188,,,,instruct,1,Next,,,,,,,,,,,,,,,,,,,,
32667.800000071526,,instruct_7,194858,,,,instruct,1,Next,,,,,,,,,,,,,,,,,,,,
null,,prac_atten_color_black,195230,,,,black_plus_sign,,,null,,,,,,,,,,,,,,,,,,,
null,,prac_atten_color,196267,,,,<p style='position:absolute;top: 50%;right: 50%;transform: translate(50%, -50%);font-size: 125px;color: blue;'>+</p>,,,null,,,,,,,,,,,,,,,,,,,
412,,prac_atten_color_black,198270,,,,black_plus_sign,,,49,,,,,,,,,,,,,,,,,,,
null,,prac_atten_color_black,198641,,,,black_plus_sign,,,null,,,,,,,,,,,,,,,,,,,
652.7000000476837,,prac_atten_color,199656,,,,<p style='position:absolute;top: 50%;right: 50%;transform: translate(50%, -50%);font-size: 125px;color: green;'>+</p>,,,50,,,,,,,,,,,,,,,,,,,
null,,prac_atten_color_black,201658,,,,black_plus_sign,,,null,,,,,,,,,,,,,,,,,,,
null,,prac_atten_color_black,202050,,,,black_plus_sign,,,null,,,,,,,,,,,,,,,,,,,
null,,prac_atten_color,202661,,,,<p style='position:absolute;top: 50%;right: 50%;transform: translate(50%, -50%);font-size: 125px;color: green;'>+</p>,,,null,,,,,,,,,,,,,,,,,,,
140,,prac_atten_color_black,204663,,,,black_plus_sign,,,50,,,,,,,,,,,,,,,,,,,
null,,prac_atten_color_black,205458,,,,black_plus_sign,,,null,,,,,,,,,,,,,,,,,,,
499.5,,prac_atten_color,206529,,,,<p style='position:absolute;top: 50%;right: 50%;transform: translate(50%, -50%);font-size: 125px;color: blue;'>+</p>,,,49,,,,,,,,,,,,,,,,,,,
null,,prac_atten_color_black,208531,,,,black_plus_sign,,,null,,,,,,,,,,,,,,,,,,,
null,,prac_atten_color_black,208866,,,,black_plus_sign,,,null,,,,,,,,,,,,,,,,,,,
572.1000000238419,,prac_atten_color,209522,,,,<p style='position:absolute;top: 50%;right: 50%;transform: translate(50%, -50%);font-size: 125px;color: green;'>+</p>,,,50,,,,,,,,,,,,,,,,,,,
null,,prac_atten_color_black,211526,,,,black_plus_sign,,,null,,,,,,,,,,,,,,,,,,,
null,,prac_atten_color_black,212275,,,,black_plus_sign,,,null,,,,,,,,,,,,,,,,,,,
587,,prac_atten_color,213091,,,,<p style='position:absolute;top: 50%;right: 50%;transform: translate(50%, -50%);font-size: 125px;color: green;'>+</p>,,,50,,,,,,,,,,,,,,,,,,,
null,,prac_atten_color_black,215093,,,,black_plus_sign,,,null,,,,,,,,,,,,,,,,,,,
null,,prac_atten_color_black,215682,,,,black_plus_sign,,,null,,,,,,,,,,,,,,,,,,,
474.3000000715256,,prac_atten_color,216284,,,,<p style='position:absolute;top: 50%;right: 50%;transform: translate(50%, -50%);font-size: 125px;color: blue;'>+</p>,,,49,,,,,,,,,,,,,,,,,,,
null,,prac_atten_color_black,218286,,,,black_plus_sign,,,null,,,,,,,,,,,,,,,,,,,
null,,prac_atten_color_black,219092,,,,black_plus_sign,,,null,,,,,,,,,,,,,,,,,,,
null,,prac_atten_color,219621,,,,<p style='position:absolute;top: 50%;right: 50%;transform: translate(50%, -50%);font-size: 125px;color: green;'>+</p>,,,null,,,,,,,,,,,,,,,,,,,
7.300000071525574,,prac_atten_color_black,221624,,,,black_plus_sign,,,50,,,,,,,,,,,,,,,,,,,
null,,prac_atten_color_black,222501,,,,black_plus_sign,,,null,,,,,,,,,,,,,,,,,,,
466.90000009536743,,prac_atten_color,223370,,,,<p style='position:absolute;top: 50%;right: 50%;transform: translate(50%, -50%);font-size: 125px;color: blue;'>+</p>,,,49,,,,,,,,,,,,,,,,,,,
null,,prac_atten_color_black,225373,,,,black_plus_sign,,,null,,,,,,,,,,,,,,,,,,,
null,,prac_atten_color_black,225909,,,,black_plus_sign,,,null,,,,,,,,,,,,,,,,,,,
776,,prac_atten_color,226715,,,,<p style='position:absolute;top: 50%;right: 50%;transform: translate(50%, -50%);font-size: 125px;color: blue;'>+</p>,,,49,,,,,,,,,,,,,,,,,,,
null,,prac_atten_color_black,228717,,,,black_plus_sign,,,null,,,,,,,,,,,,,,,,,,,
7017.100000023842,,attentioncheck_feedback,235738,,,,cross_check_feedback,0,,,,,,,,,,,,,,,,,,,,,
27611.899999976158,,last_instruct,263351,,,,instruct,,,32,,,,,,,,,,,,,,,,,,,
null,,prac_learn_phase(without_color),266854,,,,black_plus_sign,,,null,object_05a.png,object_01c.png,,,,,,,,,,,,,,,,,
null,,prac_black_cross(without_color),267350,,,,green,,,null,object_05a.png,object_01c.png,,,,,,,,,,,,,,,,,
null,,prac_rt_plussign_withcolor,267852,,,,green,,,null,object_05a.png,object_01c.png,,,,,,,,,,,,,,,,,
1640.5,,prac_rt_thecrossant_black,269362,,,,black_plus_sign,,,50,,,1,1,,,,,,,,,,,,,,,
null,,prac_color_black,269465,,,,black_plus_sign,,,null,,,,,,,,,,,,,,,,,,,
null,,prac_learn_phase(without_color),272968,,,,black_plus_sign,,,null,object_11c.png,object_10b.png,,,,,,,,,,,,,,,,,
null,,black_cross(without_color)1,273591,,,,green,,,null,object_05a.png,object_01c.png,,,,,,,,,,,,,,,,,
null,,prac_rt_plussign_withcolor,274096,,,,blue,,,null,object_11c.png,object_10b.png,,,,,,,,,,,,,,,,,
1821.2999999523163,,prac_rt_thecrossant_black,275613,,,,black_plus_sign,,,49,,,1,1,,,,,,,,,,,,,,,
null,,prac_color_black,275716,,,,black_plus_sign,,,null,,,,,,,,,,,,,,,,,,,
null,,prac_learn_phase(without_color),279220,,,,black_plus_sign,,,null,object_15a.png,object_09a.png,,,,,,,,,,,,,,,,,
null,,black_cross(without_color)1,279843,,,,green,,,null,object_05a.png,object_01c.png,,,,,,,,,,,,,,,,,
null,,prac_rt_plussign_withcolor,280346,,,,blue,,,null,object_15a.png,object_09a.png,,,,,,,,,,,,,,,,,
761.7000000476837,,prac_rt_thecrossant_black,281466,,,,black_plus_sign,,,49,,,1,1,,,,,,,,,,,,,,,
null,,prac_color_black,281568,,,,black_plus_sign,,,null,,,,,,,,,,,,,,,,,,,
null,,prac_learn_phase(without_color),285070,,,,black_plus_sign,,,null,object_04a.png,object_13b.png,,,,,,,,,,,,,,,,,
null,,black_cross(without_color)1,285693,,,,green,,,null,object_05a.png,object_01c.png,,,,,,,,,,,,,,,,,
null,,prac_rt_plussign_withcolor,286195,,,,green,,,null,object_04a.png,object_13b.png,,,,,,,,,,,,,,,,,
1227.2000000476837,,prac_rt_thecrossant_black,287366,,,,black_plus_sign,,,50,,,1,1,,,,,,,,,,,,,,,
null,,prac_color_black,287469,,,,black_plus_sign,,,null,,,,,,,,,,,,,,,,,,,
12903.899999976158,,instruct_dir_01,300376,,,,instruct,0,Next,,,,,,,,,,,,,,,,,,,,
14301.299999952316,,instruct_dir_2,314679,,,,instruct,1,Next,,,,,,,,,,,,,,,,,,,,
6664.199999928474,,instruct_dir_3,321346,,,,instruct,1,Next,,,,,,,,,,,,,,,,,,,,
10696.100000023842,,instruct_dir_4,332045,,,,instruct,1,Start,,,,,,,,,,,,,,,,,,,,
null,,thebreak,332148,,,,<p></p>,,,null,,,,,,,,,,,,,,,,,,,
8161.899999976158,,intro_0,340312,,,,instruct,,,32,,,,,,,,,,,,,,,,,,,
11369.5,,prac_directmemory_phase,351684,,,,practice/object_04a.png,,,50,,,1,,practice/object_02a.png,practice/object_04b.png,practice/object_02b.png,practice/object_04b.png,1,1,,,,,,,,,
null,,prac_directmemory_phase,366690,,,,practice/object_03a.png,,,null,,,0,,practice/object_02b.png,practice/object_01a.png,practice/object_03b.png,practice/object_03b.png,0,0.5,,,,,,,,,
null,,warning_page,371693,,,,warning,,,null,,,,,,,,,,,,,,,,,,,
5531.800000071526,,prac_directmemory_phase,377234,,,,practice/object_01a.png,,,51,,,1,,practice/object_03b.png,practice/object_03a.png,practice/object_01b.png,practice/object_01b.png,1,0.6666666666666666,,,,,,,,,
4400.699999928474,,prac_directmemory_phase,381638,,,,practice/object_02a.png,,,49,,,1,,practice/object_02b.png,practice/object_03b.png,practice/object_04a.png,practice/object_02b.png,1,0.75,,,,,,,,,
9431.100000023842,,practice_feedback,391071,,,,practice_feedback,1,,,,,,,,,,,,,,,,,,,,,
15945.800000071526,,proceed_actualTask,407020,,,,proceed_actualTask,1,Continue,,,,,,,,,,,,,,,,,,,,
13884.299999952316,,last_inst,420906,,,,last_inst,,,32,,,,,,,,,,,,,,,,,,,
null,,learn_phase(without_color)1,424408,,,,black_plus_sign,,,null,object_05a.png,object_01c.png,,,,,,,,,,,,,,,,,
null,,black_cross(without_color)1,425032,,,,green,,,null,object_05a.png,object_01c.png,,,,,,,,,,,,,,,,,
null,,rt_plussign_withcolor1,425534,,,,green,,,null,object_05a.png,object_01c.png,,,,,,,,,,,,,,,,,
1537.1999999284744,,rt_thecrossant_black1,426918,,,,black_plus_sign,,,50,,,1,,,,,,,1,,,,,,,,,
null,,color_black1,427021,,,,black_plus_sign,,,null,,,,,,,,,,,,,,,,,,,
null,,learn_phase(without_color)1,430525,,,,black_plus_sign,,,null,object_11c.png,object_10b.png,,,,,,,,,,,,,,,,,
null,,black_cross(without_color)1,430934,,,,blue,,,null,object_11c.png,object_10b.png,,,,,,,,,,,,,,,,,
null,,rt_plussign_withcolor1,431436,,,,blue,,,null,object_11c.png,object_10b.png,,,,,,,,,,,,,,,,,
1122.6000000238419,,rt_thecrossant_black1,433035,,,,black_plus_sign,,,49,,,1,,,,,,,1,,,,,,,,,
null,,color_black1,433138,,,,black_plus_sign,,,null,,,,,,,,,,,,,,,,,,,
null,,learn_phase(without_color)1,436642,,,,black_plus_sign,,,null,object_15a.png,object_09a.png,,,,,,,,,,,,,,,,,
null,,black_cross(without_color)1,437577,,,,blue,,,null,object_15a.png,object_09a.png,,,,,,,,,,,,,,,,,
null,,rt_plussign_withcolor1,438080,,,,blue,,,null,object_15a.png,object_09a.png,,,,,,,,,,,,,,,,,
932.8999999761581,,rt_thecrossant_black1,439149,,,,black_plus_sign,,,49,,,1,,,,,,,1,,,,,,,,,
null,,color_black1,439253,,,,black_plus_sign,,,null,,,,,,,,,,,,,,,,,,,
null,,learn_phase(without_color)1,442756,,,,black_plus_sign,,,null,object_04a.png,object_13b.png,,,,,,,,,,,,,,,,,
null,,black_cross(without_color)1,443392,,,,green,,,null,object_04a.png,object_13b.png,,,,,,,,,,,,,,,,,
null,,rt_plussign_withcolor1,443895,,,,green,,,null,object_04a.png,object_13b.png,,,,,,,,,,,,,,,,,
1529.2999999523163,,rt_thecrossant_black1,445263,,,,black_plus_sign,,,50,,,1,,,,,,,1,,,,,,,,,
null,,color_black1,445366,,,,black_plus_sign,,,null,,,,,,,,,,,,,,,,,,,
null,,learn_phase(without_color)1,448871,,,,black_plus_sign,,,null,object_09a.png,object_14a.png,,,,,,,,,,,,,,,,,
null,,black_cross(without_color)1,449419,,,,green,,,null,object_09a.png,object_14a.png,,,,,,,,,,,,,,,,,
null,,rt_plussign_withcolor1,449922,,,,green,,,null,object_09a.png,object_14a.png,,,,,,,,,,,,,,,,,
null,,rt_thecrossant_black1,451382,,,,black_plus_sign,,,null,,,,,,,,,,1,,,,,,,,,
null,,color_black1,451485,,,,black_plus_sign,,,null,,,,,,,,,,,,,,,,,,,
null,,learn_phase(without_color)1,454989,,,,black_plus_sign,,,null,object_04c.png,object_02b.png,,,,,,,,,,,,,,,,,
null,,black_cross(without_color)1,456020,,,,green,,,null,object_04c.png,object_02b.png,,,,,,,,,,,,,,,,,
null,,rt_plussign_withcolor1,456535,,,,green,,,null,object_04c.png,object_02b.png,,,,,,,,,,,,,,,,,
null,,rt_thecrossant_black1,457510,,,,black_plus_sign,,,null,,,,,,,,,,1,,,,,,,,,
null,,warning_page,462513,,,,warning,,,null,,,,,,,,,,,,,,,,,,,
null,,color_black1,462621,,,,black_plus_sign,,,null,,,,,,,,,,,,,,,,,,,
null,,learn_phase(without_color)1,466124,,,,black_plus_sign,,,null,object_02b.png,object_12b.png,,,,,,,,,,,,,,,,,
null,,black_cross(without_color)1,466593,,,,green,,,null,object_02b.png,object_12b.png,,,,,,,,,,,,,,,,,
null,,rt_plussign_withcolor1,467095,,,,green,,,null,object_02b.png,object_12b.png,,,,,,,,,,,,,,,,,
1570,,rt_thecrossant_black1,468633,,,,black_plus_sign,,,50,,,1,,,,,,,1,,,,,,,,,
null,,color_black1,468736,,,,black_plus_sign,,,null,,,,,,,,,,,,,,,,,,,
null,,learn_phase(without_color)1,472240,,,,black_plus_sign,,,null,object_10a.png,object_06a.png,,,,,,,,,,,,,,,,,
null,,black_cross(without_color)1,473232,,,,green,,,null,object_10a.png,object_06a.png,,,,,,,,,,,,,,,,,
null,,rt_plussign_withcolor1,473734,,,,green,,,null,object_10a.png,object_06a.png,,,,,,,,,,,,,,,,,
709.8000000715256,,rt_thecrossant_black1,474749,,,,black_plus_sign,,,50,,,1,,,,,,,1,,,,,,,,,
null,,color_black1,474851,,,,black_plus_sign,,,null,,,,,,,,,,,,,,,,,,,
null,,learn_phase(without_color)1,478354,,,,black_plus_sign,,,null,object_12c.png,object_04a.png,,,,,,,,,,,,,,,,,
null,,black_cross(without_color)1,478857,,,,blue,,,null,object_12c.png,object_04a.png,,,,,,,,,,,,,,,,,
null,,rt_plussign_withcolor1,479359,,,,blue,,,null,object_12c.png,object_04a.png,,,,,,,,,,,,,,,,,
1351.5,,rt_thecrossant_black1,480863,,,,black_plus_sign,,,49,,,1,,,,,,,1,,,,,,,,,
null,,color_black1,480967,,,,black_plus_sign,,,null,,,,,,,,,,,,,,,,,,,
null,,learn_phase(without_color)1,484471,,,,black_plus_sign,,,null,object_03a.png,object_02c.png,,,,,,,,,,,,,,,,,
null,,black_cross(without_color)1,484901,,,,green,,,null,object_03a.png,object_02c.png,,,,,,,,,,,,,,,,,
null,,rt_plussign_withcolor1,485403,,,,green,,,null,object_03a.png,object_02c.png,,,,,,,,,,,,,,,,,
989.1000000238419,,rt_thecrossant_black1,486986,,,,black_plus_sign,,,50,,,1,,,,,,,1,,,,,,,,,
null,,color_black1,487089,,,,black_plus_sign,,,null,,,,,,,,,,,,,,,,,,,
null,,learn_phase(without_color)1,490593,,,,black_plus_sign,,,null,object_09b.png,object_08b.png,,,,,,,,,,,,,,,,,
null,,black_cross(without_color)1,491116,,,,green,,,null,object_09b.png,object_08b.png,,,,,,,,,,,,,,,,,
null,,rt_plussign_withcolor1,491618,,,,green,,,null,object_09b.png,object_08b.png,,,,,,,,,,,,,,,,,
820.5999999046326,,rt_thecrossant_black1,493101,,,,black_plus_sign,,,50,,,1,,,,,,,1,,,,,,,,,
null,,color_black1,493204,,,,black_plus_sign,,,null,,,,,,,,,,,,,,,,,,,
null,,learn_phase(without_color)1,496708,,,,black_plus_sign,,,null,object_01b.png,object_08a.png,,,,,,,,,,,,,,,,,
null,,black_cross(without_color)1,497726,,,,green,,,null,object_01b.png,object_08a.png,,,,,,,,,,,,,,,,,
null,,rt_plussign_withcolor1,498228,,,,green,,,null,object_01b.png,object_08a.png,,,,,,,,,,,,,,,,,
745.3999999761581,,rt_thecrossant_black1,499216,,,,black_plus_sign,,,50,,,1,,,,,,,1,,,,,,,,,
null,,color_black1,499320,,,,black_plus_sign,,,null,,,,,,,,,,,,,,,,,,,
null,,learn_phase(without_color)1,502823,,,,black_plus_sign,,,null,object_11c.png,object_07a.png,,,,,,,,,,,,,,,,,
null,,black_cross(without_color)1,503241,,,,blue,,,null,object_11c.png,object_07a.png,,,,,,,,,,,,,,,,,
null,,rt_plussign_withcolor1,503743,,,,blue,,,null,object_11c.png,object_07a.png,,,,,,,,,,,,,,,,,
1344.6000000238419,,rt_thecrossant_black1,505333,,,,black_plus_sign,,,49,,,1,,,,,,,1,,,,,,,,,
null,,color_black1,505436,,,,black_plus_sign,,,null,,,,,,,,,,,,,,,,,,,
null,,learn_phase(without_color)1,508940,,,,black_plus_sign,,,null,object_05a.png,object_11b.png,,,,,,,,,,,,,,,,,
null,,black_cross(without_color)1,509750,,,,blue,,,null,object_05a.png,object_11b.png,,,,,,,,,,,,,,,,,
null,,rt_plussign_withcolor1,510252,,,,blue,,,null,object_05a.png,object_11b.png,,,,,,,,,,,,,,,,,
713.4000000953674,,rt_thecrossant_black1,511449,,,,black_plus_sign,,,49,,,1,,,,,,,1,,,,,,,,,
null,,color_black1,511552,,,,black_plus_sign,,,null,,,,,,,,,,,,,,,,,,,
null,,learn_phase(without_color)1,515056,,,,black_plus_sign,,,null,object_04b.png,object_11a.png,,,,,,,,,,,,,,,,,
null,,black_cross(without_color)1,516127,,,,blue,,,null,object_04b.png,object_11a.png,,,,,,,,,,,,,,,,,
null,,rt_plussign_withcolor1,516630,,,,blue,,,null,object_04b.png,object_11a.png,,,,,,,,,,,,,,,,,
1146.3999999761581,,rt_thecrossant_black1,517564,,,,black_plus_sign,,,49,,,1,,,,,,,1,,,,,,,,,
null,,color_black1,517668,,,,black_plus_sign,,,null,,,,,,,,,,,,,,,,,,,
null,,learn_phase(without_color)1,521171,,,,black_plus_sign,,,null,object_15b.png,object_12a.png,,,,,,,,,,,,,,,,,
null,,black_cross(without_color)1,522026,,,,green,,,null,object_15b.png,object_12a.png,,,,,,,,,,,,,,,,,
null,,rt_plussign_withcolor1,522528,,,,green,,,null,object_15b.png,object_12a.png,,,,,,,,,,,,,,,,,
1517.8999999761581,,rt_thecrossant_black1,523681,,,,black_plus_sign,,,50,,,1,,,,,,,1,,,,,,,,,
null,,color_black1,523784,,,,black_plus_sign,,,null,,,,,,,,,,,,,,,,,,,
null,,learn_phase(without_color)1,527287,,,,black_plus_sign,,,null,object_05c.png,object_14b.png,,,,,,,,,,,,,,,,,
null,,black_cross(without_color)1,528379,,,,blue,,,null,object_05c.png,object_14b.png,,,,,,,,,,,,,,,,,
null,,rt_plussign_withcolor1,528881,,,,blue,,,null,object_05c.png,object_14b.png,,,,,,,,,,,,,,,,,
1167.6000000238419,,rt_thecrossant_black1,529795,,,,black_plus_sign,,,49,,,1,,,,,,,1,,,,,,,,,
null,,color_black1,529898,,,,black_plus_sign,,,null,,,,,,,,,,,,,,,,,,,
null,,learn_phase(without_color)1,533402,,,,black_plus_sign,,,null,object_03b.png,object_03a.png,,,,,,,,,,,,,,,,,
null,,black_cross(without_color)1,533898,,,,blue,,,null,object_03b.png,object_03a.png,,,,,,,,,,,,,,,,,
null,,rt_plussign_withcolor1,534401,,,,blue,,,null,object_03b.png,object_03a.png,,,,,,,,,,,,,,,,,
1347,,rt_thecrossant_black1,535909,,,,black_plus_sign,,,49,,,1,,,,,,,1,,,,,,,,,
null,,color_black1,536013,,,,black_plus_sign,,,null,,,,,,,,,,,,,,,,,,,
null,,learn_phase(without_color)1,539516,,,,black_plus_sign,,,null,object_08c.png,object_14b.png,,,,,,,,,,,,,,,,,
null,,black_cross(without_color)1,540096,,,,green,,,null,object_08c.png,object_14b.png,,,,,,,,,,,,,,,,,
null,,rt_plussign_withcolor1,540597,,,,green,,,null,object_08c.png,object_14b.png,,,,,,,,,,,,,,,,,
1039.6999999284744,,rt_thecrossant_black1,542022,,,,black_plus_sign,,,50,,,1,,,,,,,1,,,,,,,,,
null,,color_black1,542126,,,,black_plus_sign,,,null,,,,,,,,,,,,,,,,,,,
null,,learn_phase(without_color)1,545628,,,,black_plus_sign,,,null,object_09c.png,object_13c.png,,,,,,,,,,,,,,,,,
null,,black_cross(without_color)1,546678,,,,green,,,null,object_09c.png,object_13c.png,,,,,,,,,,,,,,,,,
null,,rt_plussign_withcolor1,547180,,,,green,,,null,object_09c.png,object_13c.png,,,,,,,,,,,,,,,,,
796.2999999523163,,rt_thecrossant_black1,548138,,,,black_plus_sign,,,50,,,1,,,,,,,1,,,,,,,,,
null,,color_black1,548242,,,,black_plus_sign,,,null,,,,,,,,,,,,,,,,,,,
null,,learn_phase(without_color)1,551757,,,,black_plus_sign,,,null,object_07c.png,object_06a.png,,,,,,,,,,,,,,,,,
null,,black_cross(without_color)1,552176,,,,green,,,null,object_07c.png,object_06a.png,,,,,,,,,,,,,,,,,
null,,rt_plussign_withcolor1,552678,,,,green,,,null,object_07c.png,object_06a.png,,,,,,,,,,,,,,,,,
1442.6999999284744,,rt_thecrossant_black1,554266,,,,black_plus_sign,,,50,,,1,,,,,,,1,,,,,,,,,
null,,color_black1,554369,,,,black_plus_sign,,,null,,,,,,,,,,,,,,,,,,,
null,,learn_phase(without_color)1,557873,,,,black_plus_sign,,,null,object_13c.png,object_01a.png,,,,,,,,,,,,,,,,,
null,,black_cross(without_color)1,558378,,,,green,,,null,object_13c.png,object_01a.png,,,,,,,,,,,,,,,,,
null,,rt_plussign_withcolor1,558879,,,,green,,,null,object_13c.png,object_01a.png,,,,,,,,,,,,,,,,,
581.7999999523163,,rt_thecrossant_black1,560390,,,,black_plus_sign,,,50,,,1,,,,,,,1,,,,,,,,,
null,,color_black1,560493,,,,black_plus_sign,,,null,,,,,,,,,,,,,,,,,,,
null,,learn_phase(without_color)1,563996,,,,black_plus_sign,,,null,object_07b.png,object_15b.png,,,,,,,,,,,,,,,,,
null,,black_cross(without_color)1,564408,,,,blue,,,null,object_07b.png,object_15b.png,,,,,,,,,,,,,,,,,
null,,rt_plussign_withcolor1,564911,,,,blue,,,null,object_07b.png,object_15b.png,,,,,,,,,,,,,,,,,
819.2000000476837,,rt_thecrossant_black1,566504,,,,black_plus_sign,,,49,,,1,,,,,,,1,,,,,,,,,
null,,color_black1,566608,,,,black_plus_sign,,,null,,,,,,,,,,,,,,,,,,,
null,,learn_phase(without_color)1,570112,,,,black_plus_sign,,,null,object_02a.png,object_10c.png,,,,,,,,,,,,,,,,,
null,,black_cross(without_color)1,571104,,,,green,,,null,object_02a.png,object_10c.png,,,,,,,,,,,,,,,,,
null,,rt_plussign_withcolor1,571606,,,,green,,,null,object_02a.png,object_10c.png,,,,,,,,,,,,,,,,,
935.3999999761581,,rt_thecrossant_black1,572619,,,,black_plus_sign,,,50,,,1,,,,,,,1,,,,,,,,,
null,,color_black1,572724,,,,black_plus_sign,,,null,,,,,,,,,,,,,,,,,,,
null,,learn_phase(without_color)1,576227,,,,black_plus_sign,,,null,object_15c.png,object_14c.png,,,,,,,,,,,,,,,,,
null,,black_cross(without_color)1,577209,,,,green,,,null,object_15c.png,object_14c.png,,,,,,,,,,,,,,,,,
null,,rt_plussign_withcolor1,577712,,,,green,,,null,object_15c.png,object_14c.png,,,,,,,,,,,,,,,,,
1231.8999999761581,,rt_thecrossant_black1,578736,,,,black_plus_sign,,,50,,,1,,,,,,,1,,,,,,,,,
null,,color_black1,578839,,,,black_plus_sign,,,null,,,,,,,,,,,,,,,,,,,
null,,learn_phase(without_color)1,582342,,,,black_plus_sign,,,null,object_06b.png,object_11a.png,,,,,,,,,,,,,,,,,
null,,black_cross(without_color)1,583414,,,,blue,,,null,object_06b.png,object_11a.png,,,,,,,,,,,,,,,,,
null,,rt_plussign_withcolor1,583916,,,,blue,,,null,object_06b.png,object_11a.png,,,,,,,,,,,,,,,,,
1308.6000000238419,,rt_thecrossant_black1,584851,,,,black_plus_sign,,,49,,,1,,,,,,,1,,,,,,,,,
null,,color_black1,584955,,,,black_plus_sign,,,null,,,,,,,,,,,,,,,,,,,
null,,learn_phase(without_color)1,588459,,,,black_plus_sign,,,null,object_14c.png,object_05b.png,,,,,,,,,,,,,,,,,
null,,black_cross(without_color)1,589452,,,,green,,,null,object_14c.png,object_05b.png,,,,,,,,,,,,,,,,,
null,,rt_plussign_withcolor1,589954,,,,green,,,null,object_14c.png,object_05b.png,,,,,,,,,,,,,,,,,
1297.5,,rt_thecrossant_black1,590968,,,,black_plus_sign,,,50,,,1,,,,,,,1,,,,,,,,,
null,,color_black1,591071,,,,black_plus_sign,,,null,,,,,,,,,,,,,,,,,,,
null,,learn_phase(without_color)1,594574,,,,black_plus_sign,,,null,object_08a.png,object_03c.png,,,,,,,,,,,,,,,,,
null,,black_cross(without_color)1,595328,,,,green,,,null,object_08a.png,object_03c.png,,,,,,,,,,,,,,,,,
null,,rt_plussign_withcolor1,595830,,,,green,,,null,object_08a.png,object_03c.png,,,,,,,,,,,,,,,,,
1250.8999999761581,,rt_thecrossant_black1,597083,,,,black_plus_sign,,,50,,,1,,,,,,,1,,,,,,,,,
null,,color_black1,597185,,,,black_plus_sign,,,null,,,,,,,,,,,,,,,,,,,
null,,learn_phase(without_color)1,600689,,,,black_plus_sign,,,null,object_13a.png,object_10c.png,,,,,,,,,,,,,,,,,
null,,black_cross(without_color)1,601765,,,,green,,,null,object_13a.png,object_10c.png,,,,,,,,,,,,,,,,,
492.39999997615814,,rt_plussign_withcolor1,602268,,,,green,,,50,object_13a.png,object_10c.png,,,,,,,,,,,,,,,,,
null,,rt_thecrossant_black1,603199,,,,black_plus_sign,,,null,,,1,,,,,,,1,,,,,,,,,
null,,color_black1,603302,,,,black_plus_sign,,,null,,,,,,,,,,,,,,,,,,,
null,,learn_phase(without_color)1,606805,,,,black_plus_sign,,,null,object_06c.png,object_09b.png,,,,,,,,,,,,,,,,,
null,,black_cross(without_color)1,607746,,,,green,,,null,object_06c.png,object_09b.png,,,,,,,,,,,,,,,,,
null,,rt_plussign_withcolor1,608249,,,,green,,,null,object_06c.png,object_09b.png,,,,,,,,,,,,,,,,,
1258.5,,rt_thecrossant_black1,609313,,,,black_plus_sign,,,50,,,1,,,,,,,1,,,,,,,,,
null,,color_black1,609416,,,,black_plus_sign,,,null,,,,,,,,,,,,,,,,,,,
null,,thebreak,609520,,,,<p></p>,,,null,,,,,,,,,,,,,,,,,,,
14914.699999928474,,intro_0,624437,,,,instruct,,,32,,,,,,,,,,,,,,,,,,,
3898.1999999284744,,directmemory_phase1,628338,,,,object_04a.png,,,50,,,0,,object_13b.png,object_09c.png,object_02b.png,object_13b.png,,0,0,,,,,,,,
4038.3000000715256,,directmemory_phase1,632381,,,,object_14a.png,,,50,,,0,,object_09a.png,object_14b.png,object_12b.png,object_09a.png,,0,0,,,,,,,,
4364,,directmemory_phase1,636749,,,,object_12c.png,,,49,,,1,,object_04a.png,object_13c.png,object_01a.png,object_04a.png,,0.3333333333333333,1,,,,,,,,
5754.899999976158,,directmemory_phase1,642507,,,,object_06b.png,,,51,,,1,,object_15b.png,object_05b.png,object_11a.png,object_11a.png,,0.5,1,,,,,,,,
3363.5,,directmemory_phase1,645874,,,,object_15a.png,,,49,,,1,,object_09a.png,object_04a.png,object_01b.png,object_09a.png,,0.6,1,,,,,,,,
5927.5,,directmemory_phase1,651805,,,,object_04c.png,,,50,,,0,,object_13c.png,object_05b.png,object_02b.png,object_02b.png,,0.5,0,,,,,,,,
4275.299999952316,,directmemory_phase1,656083,,,,object_06c.png,,,49,,,0,,object_08a.png,object_01b.png,object_09b.png,object_09b.png,,0.42857142857142855,0,,,,,,,,
5484.100000023842,,directmemory_phase1,661571,,,,object_12a.png,,,51,,,1,,object_09a.png,object_08b.png,object_15b.png,object_15b.png,,0.5,1,,,,,,,,
4541.100000023842,,directmemory_phase1,666115,,,,object_04b.png,,,51,,,0,,object_11a.png,object_09a.png,object_03c.png,object_11a.png,,0.4444444444444444,0,,,,,,,,
4009,,directmemory_phase1,670127,,,,object_14b.png,,,49,,,0,,object_11a.png,object_05c.png,object_03b.png,object_05c.png,,0.4,0,,,,,,,,
6961.399999976158,,directmemory_phase1,677091,,,,object_08c.png,,,50,,,1,,object_12c.png,object_14b.png,object_08a.png,object_14b.png,,0.45454545454545453,1,,,,,,,,
6742.900000095367,,directmemory_phase1,683836,,,,object_09b.png,,,50,,,0,,object_08b.png,object_02a.png,object_04a.png,object_08b.png,,0.4166666666666667,0,,,,,,,,
49.200000047683716,,directmemory_phase1,683889,,,,object_01a.png,,,51,,,1,,object_06a.png,object_08c.png,object_13c.png,object_13c.png,,0.46153846153846156,1,,,,,,,,
6512.5,,directmemory_phase1,690404,,,,object_11b.png,,,50,,,0,,object_05a.png,object_11c.png,object_12a.png,object_05a.png,,0.42857142857142855,0,,,,,,,,
6075.199999928474,,directmemory_phase1,696482,,,,object_03b.png,,,51,,,1,,object_02b.png,object_05c.png,object_03a.png,object_03a.png,,0.4666666666666667,1,,,,,,,,
5781.899999976158,,directmemory_phase1,702267,,,,object_13a.png,,,49,,,1,,object_10c.png,object_04a.png,object_02c.png,object_10c.png,,0.5,1,,,,,,,,
6874,,directmemory_phase1,709143,,,,object_01b.png,,,50,,,1,,object_12c.png,object_08a.png,object_14b.png,object_08a.png,,0.5294117647058824,1,,,,,,,,
4484.200000047684,,directmemory_phase1,713629,,,,object_07c.png,,,51,,,1,,object_14c.png,object_13a.png,object_06a.png,object_06a.png,,0.5555555555555556,1,,,,,,,,
2991.0999999046326,,directmemory_phase1,716623,,,,object_07b.png,,,51,,,1,,object_06a.png,object_10b.png,object_15b.png,object_15b.png,,0.5789473684210527,1,,,,,,,,
4095.100000023842,,directmemory_phase1,720720,,,,object_02c.png,,,51,,,1,,object_06a.png,object_12c.png,object_03a.png,object_03a.png,,0.6,1,,,,,,,,
4057.100000023842,,directmemory_phase1,724780,,,,object_14c.png,,,51,,,1,,object_14a.png,object_03a.png,object_15c.png,object_15c.png,,0.6190476190476191,1,,,,,,,,
6177.800000071526,,directmemory_phase1,730960,,,,object_10b.png,,,50,,,1,,object_04c.png,object_11c.png,object_09a.png,object_11c.png,,0.6363636363636364,1,,,,,,,,
7248,,directmemory_phase1,738212,,,,object_10a.png,,,49,,,1,,object_06a.png,object_13c.png,object_12a.png,object_06a.png,,0.6521739130434783,1,,,,,,,,
7279.899999976158,,directmemory_phase1,745493,,,,object_02a.png,,,49,,,1,,object_10c.png,object_03a.png,object_10a.png,object_10c.png,,0.6666666666666666,1,,,,,,,,
3507.5,,directmemory_phase1,749003,,,,object_07a.png,,,49,,,1,,object_11c.png,object_09b.png,object_12b.png,object_11c.png,,0.68,1,,,,,,,,
6745.699999928474,,directmemory_phase1,755752,,,,object_08a.png,,,51,,,0,,object_11c.png,object_03c.png,object_04b.png,object_03c.png,,0.6538461538461539,0,,,,,,,,
6974.800000071526,,directmemory_phase1,762729,,,,object_01c.png,,,49,,,1,,object_05a.png,object_09b.png,object_08c.png,object_05a.png,,0.6666666666666666,1,,,,,,,,
4075.899999976158,,directmemory_phase1,766808,,,,object_02b.png,,,49,,,1,,object_12b.png,object_09c.png,object_03a.png,object_12b.png,,0.6785714285714286,1,,,,,,,,
6461.700000047684,,directmemory_phase1,773272,,,,object_13c.png,,,51,,,0,,object_10c.png,object_09c.png,object_07a.png,object_09c.png,,0.6551724137931034,0,,,,,,,,
4531.600000023842,,directmemory_phase1,777806,,,,object_05b.png,,,51,,,1,,object_09b.png,object_13a.png,object_14c.png,object_14c.png,,0.6666666666666666,1,,,,,,,,
null,,thebreak,777911,,,,<p></p>,,,null,,,,,,,,,,,,,,,,,,,
10551.899999976158,,intro_0,788464,,,,instruct,,,32,,,,,,,,,,,,,,,,,,,
null,,learn_phase(without_color)2,791966,,,,black_plus_sign,,,null,object_03a.png,object_03b.png,,,,,,,,,,,,,,,,,
null,,black_cross(without_color)2,792623,,,,green,,,null,object_03a.png,object_03b.png,,,,,,,,,,,,,,,,,
null,,rt_plussign_withcolor2,793125,,,,green,,,null,object_03a.png,object_03b.png,,,,,,,,,,,,,,,,,
1063.8000000715256,,rt_thecrossant_black2,794472,,,,black_plus_sign,,,50,,,1,,,,,,,1,,,,,,,,,
null,,color_black2,794575,,,,black_plus_sign,,,null,,,,,,,,,,,,,,,,,,,
null,,learn_phase(without_color)2,798078,,,,black_plus_sign,,,null,object_07a.png,object_11c.png,,,,,,,,,,,,,,,,,
null,,black_cross(without_color)2,798651,,,,green,,,null,object_07a.png,object_11c.png,,,,,,,,,,,,,,,,,
null,,rt_plussign_withcolor2,799152,,,,green,,,null,object_07a.png,object_11c.png,,,,,,,,,,,,,,,,,
876.2999999523163,,rt_thecrossant_black2,800585,,,,black_plus_sign,,,50,,,1,,,,,,,1,,,,,,,,,
null,,color_black2,800688,,,,black_plus_sign,,,null,,,,,,,,,,,,,,,,,,,
null,,learn_phase(without_color)2,804191,,,,black_plus_sign,,,null,object_15b.png,object_12a.png,,,,,,,,,,,,,,,,,
null,,black_cross(without_color)2,805176,,,,green,,,null,object_15b.png,object_12a.png,,,,,,,,,,,,,,,,,
null,,rt_plussign_withcolor2,805679,,,,green,,,null,object_15b.png,object_12a.png,,,,,,,,,,,,,,,,,
950.4000000953674,,rt_thecrossant_black2,806698,,,,black_plus_sign,,,50,,,1,,,,,,,1,,,,,,,,,
null,,color_black2,806800,,,,black_plus_sign,,,null,,,,,,,,,,,,,,,,,,,
null,,learn_phase(without_color)2,810303,,,,black_plus_sign,,,null,object_07c.png,object_06a.png,,,,,,,,,,,,,,,,,
null,,black_cross(without_color)2,810958,,,,green,,,null,object_07c.png,object_06a.png,,,,,,,,,,,,,,,,,
null,,rt_plussign_withcolor2,811460,,,,green,,,null,object_07c.png,object_06a.png,,,,,,,,,,,,,,,,,
1350.8999999761581,,rt_thecrossant_black2,812811,,,,black_plus_sign,,,50,,,1,,,,,,,1,,,,,,,,,
null,,color_black2,812915,,,,black_plus_sign,,,null,,,,,,,,,,,,,,,,,,,
null,,learn_phase(without_color)2,816418,,,,black_plus_sign,,,null,object_04c.png,object_02b.png,,,,,,,,,,,,,,,,,
null,,black_cross(without_color)2,816860,,,,green,,,null,object_04c.png,object_02b.png,,,,,,,,,,,,,,,,,
null,,rt_plussign_withcolor2,817363,,,,green,,,null,object_04c.png,object_02b.png,,,,,,,,,,,,,,,,,
899.7999999523163,,rt_thecrossant_black2,818927,,,,black_plus_sign,,,50,,,1,,,,,,,1,,,,,,,,,
null,,color_black2,819029,,,,black_plus_sign,,,null,,,,,,,,,,,,,,,,,,,
null,,learn_phase(without_color)2,822533,,,,black_plus_sign,,,null,object_01c.png,object_05a.png,,,,,,,,,,,,,,,,,
null,,black_cross(without_color)2,823050,,,,green,,,null,object_01c.png,object_05a.png,,,,,,,,,,,,,,,,,
null,,rt_plussign_withcolor2,823552,,,,green,,,null,object_01c.png,object_05a.png,,,,,,,,,,,,,,,,,
956.1000000238419,,rt_thecrossant_black2,825042,,,,black_plus_sign,,,50,,,1,,,,,,,1,,,,,,,,,
null,,color_black2,825146,,,,black_plus_sign,,,null,,,,,,,,,,,,,,,,,,,
null,,learn_phase(without_color)2,828650,,,,black_plus_sign,,,null,object_01b.png,object_08a.png,,,,,,,,,,,,,,,,,
null,,black_cross(without_color)2,829132,,,,green,,,null,object_01b.png,object_08a.png,,,,,,,,,,,,,,,,,
null,,rt_plussign_withcolor2,829635,,,,green,,,null,object_01b.png,object_08a.png,,,,,,,,,,,,,,,,,
1364.1000000238419,,rt_thecrossant_black2,831159,,,,black_plus_sign,,,50,,,1,,,,,,,1,,,,,,,,,
null,,color_black2,831263,,,,black_plus_sign,,,null,,,,,,,,,,,,,,,,,,,
null,,learn_phase(without_color)2,834766,,,,black_plus_sign,,,null,object_03c.png,object_08a.png,,,,,,,,,,,,,,,,,
null,,black_cross(without_color)2,835821,,,,green,,,null,object_03c.png,object_08a.png,,,,,,,,,,,,,,,,,
null,,rt_plussign_withcolor2,836324,,,,green,,,null,object_03c.png,object_08a.png,,,,,,,,,,,,,,,,,
933.3000000715256,,rt_thecrossant_black2,837276,,,,black_plus_sign,,,50,,,1,,,,,,,1,,,,,,,,,
null,,color_black2,837380,,,,black_plus_sign,,,null,,,,,,,,,,,,,,,,,,,
null,,learn_phase(without_color)2,840885,,,,black_plus_sign,,,null,object_14a.png,object_09a.png,,,,,,,,,,,,,,,,,
null,,black_cross(without_color)2,841626,,,,green,,,null,object_14a.png,object_09a.png,,,,,,,,,,,,,,,,,
null,,rt_plussign_withcolor2,842128,,,,green,,,null,object_14a.png,object_09a.png,,,,,,,,,,,,,,,,,
1459.1000000238419,,rt_thecrossant_black2,843394,,,,black_plus_sign,,,50,,,1,,,,,,,1,,,,,,,,,
null,,color_black2,843496,,,,black_plus_sign,,,null,,,,,,,,,,,,,,,,,,,
null,,learn_phase(without_color)2,847000,,,,black_plus_sign,,,null,object_06a.png,object_10a.png,,,,,,,,,,,,,,,,,
null,,black_cross(without_color)2,847774,,,,blue,,,null,object_06a.png,object_10a.png,,,,,,,,,,,,,,,,,
null,,rt_plussign_withcolor2,848277,,,,blue,,,null,object_06a.png,object_10a.png,,,,,,,,,,,,,,,,,
1232.1000000238419,,rt_thecrossant_black2,849509,,,,black_plus_sign,,,49,,,1,,,,,,,1,,,,,,,,,
null,,color_black2,849612,,,,black_plus_sign,,,null,,,,,,,,,,,,,,,,,,,
null,,learn_phase(without_color)2,853130,,,,black_plus_sign,,,null,object_05a.png,object_11b.png,,,,,,,,,,,,,,,,,
null,,black_cross(without_color)2,853727,,,,blue,,,null,object_05a.png,object_11b.png,,,,,,,,,,,,,,,,,
null,,rt_plussign_withcolor2,854229,,,,blue,,,null,object_05a.png,object_11b.png,,,,,,,,,,,,,,,,,
1174.1000000238419,,rt_thecrossant_black2,855639,,,,black_plus_sign,,,49,,,1,,,,,,,1,,,,,,,,,
null,,color_black2,855741,,,,black_plus_sign,,,null,,,,,,,,,,,,,,,,,,,
null,,learn_phase(without_color)2,859245,,,,black_plus_sign,,,null,object_14b.png,object_05c.png,,,,,,,,,,,,,,,,,
null,,black_cross(without_color)2,860327,,,,blue,,,null,object_14b.png,object_05c.png,,,,,,,,,,,,,,,,,
null,,rt_plussign_withcolor2,860828,,,,blue,,,null,object_14b.png,object_05c.png,,,,,,,,,,,,,,,,,
1069,,rt_thecrossant_black2,861753,,,,black_plus_sign,,,49,,,1,,,,,,,1,,,,,,,,,
null,,color_black2,861856,,,,black_plus_sign,,,null,,,,,,,,,,,,,,,,,,,
null,,learn_phase(without_color)2,865361,,,,black_plus_sign,,,null,object_05b.png,object_14c.png,,,,,,,,,,,,,,,,,
null,,black_cross(without_color)2,865986,,,,blue,,,null,object_05b.png,object_14c.png,,,,,,,,,,,,,,,,,
null,,rt_plussign_withcolor2,866488,,,,blue,,,null,object_05b.png,object_14c.png,,,,,,,,,,,,,,,,,
1484.1000000238419,,rt_thecrossant_black2,867874,,,,black_plus_sign,,,49,,,1,,,,,,,1,,,,,,,,,
null,,color_black2,867977,,,,black_plus_sign,,,null,,,,,,,,,,,,,,,,,,,
null,,learn_phase(without_color)2,871481,,,,black_plus_sign,,,null,object_08c.png,object_14b.png,,,,,,,,,,,,,,,,,
null,,black_cross(without_color)2,871975,,,,blue,,,null,object_08c.png,object_14b.png,,,,,,,,,,,,,,,,,
null,,rt_plussign_withcolor2,872478,,,,blue,,,null,object_08c.png,object_14b.png,,,,,,,,,,,,,,,,,
1112,,rt_thecrossant_black2,873990,,,,black_plus_sign,,,49,,,1,,,,,,,1,,,,,,,,,
null,,color_black2,874094,,,,black_plus_sign,,,null,,,,,,,,,,,,,,,,,,,
null,,learn_phase(without_color)2,877597,,,,black_plus_sign,,,null,object_04a.png,object_13b.png,,,,,,,,,,,,,,,,,
null,,black_cross(without_color)2,878325,,,,green,,,null,object_04a.png,object_13b.png,,,,,,,,,,,,,,,,,
null,,rt_plussign_withcolor2,878827,,,,green,,,null,object_04a.png,object_13b.png,,,,,,,,,,,,,,,,,
956.1000000238419,,rt_thecrossant_black2,880122,,,,black_plus_sign,,,50,,,1,,,,,,,1,,,,,,,,,
null,,color_black2,880226,,,,black_plus_sign,,,null,,,,,,,,,,,,,,,,,,,
null,,learn_phase(without_color)2,883730,,,,black_plus_sign,,,null,object_11c.png,object_10b.png,,,,,,,,,,,,,,,,,
null,,black_cross(without_color)2,884552,,,,green,,,null,object_11c.png,object_10b.png,,,,,,,,,,,,,,,,,
null,,rt_plussign_withcolor2,885053,,,,green,,,null,object_11c.png,object_10b.png,,,,,,,,,,,,,,,,,
1120.4000000953674,,rt_thecrossant_black2,886239,,,,black_plus_sign,,,50,,,1,,,,,,,1,,,,,,,,,
null,,color_black2,886341,,,,black_plus_sign,,,null,,,,,,,,,,,,,,,,,,,
null,,learn_phase(without_color)2,889845,,,,black_plus_sign,,,null,object_12c.png,object_04a.png,,,,,,,,,,,,,,,,,
null,,black_cross(without_color)2,890322,,,,green,,,null,object_12c.png,object_04a.png,,,,,,,,,,,,,,,,,
null,,rt_plussign_withcolor2,890824,,,,green,,,null,object_12c.png,object_04a.png,,,,,,,,,,,,,,,,,
1200.1000000238419,,rt_thecrossant_black2,892355,,,,black_plus_sign,,,50,,,1,,,,,,,1,,,,,,,,,
null,,color_black2,892459,,,,black_plus_sign,,,null,,,,,,,,,,,,,,,,,,,
null,,learn_phase(without_color)2,895962,,,,black_plus_sign,,,null,object_02a.png,object_10c.png,,,,,,,,,,,,,,,,,
null,,black_cross(without_color)2,896714,,,,green,,,null,object_02a.png,object_10c.png,,,,,,,,,,,,,,,,,
null,,rt_plussign_withcolor2,897217,,,,green,,,null,object_02a.png,object_10c.png,,,,,,,,,,,,,,,,,
843.5,,rt_thecrossant_black2,898470,,,,black_plus_sign,,,50,,,1,,,,,,,1,,,,,,,,,
null,,color_black2,898573,,,,black_plus_sign,,,null,,,,,,,,,,,,,,,,,,,
null,,learn_phase(without_color)2,902076,,,,black_plus_sign,,,null,object_06c.png,object_09b.png,,,,,,,,,,,,,,,,,
null,,black_cross(without_color)2,902592,,,,green,,,null,object_06c.png,object_09b.png,,,,,,,,,,,,,,,,,
null,,rt_plussign_withcolor2,903094,,,,green,,,null,object_06c.png,object_09b.png,,,,,,,,,,,,,,,,,
1179.7000000476837,,rt_thecrossant_black2,904585,,,,black_plus_sign,,,50,,,1,,,,,,,1,,,,,,,,,
null,,color_black2,904689,,,,black_plus_sign,,,null,,,,,,,,,,,,,,,,,,,
null,,learn_phase(without_color)2,908192,,,,black_plus_sign,,,null,object_09c.png,object_13c.png,,,,,,,,,,,,,,,,,
null,,black_cross(without_color)2,908893,,,,blue,,,null,object_09c.png,object_13c.png,,,,,,,,,,,,,,,,,
null,,rt_plussign_withcolor2,909396,,,,blue,,,null,object_09c.png,object_13c.png,,,,,,,,,,,,,,,,,
1005.3999999761581,,rt_thecrossant_black2,910701,,,,black_plus_sign,,,49,,,1,,,,,,,1,,,,,,,,,
null,,color_black2,910805,,,,black_plus_sign,,,null,,,,,,,,,,,,,,,,,,,
null,,learn_phase(without_color)2,914309,,,,black_plus_sign,,,null,object_10c.png,object_13a.png,,,,,,,,,,,,,,,,,
null,,black_cross(without_color)2,914743,,,,green,,,null,object_10c.png,object_13a.png,,,,,,,,,,,,,,,,,
null,,rt_plussign_withcolor2,915245,,,,green,,,null,object_10c.png,object_13a.png,,,,,,,,,,,,,,,,,
1329.6000000238419,,rt_thecrossant_black2,916817,,,,black_plus_sign,,,50,,,1,,,,,,,1,,,,,,,,,
null,,color_black2,916921,,,,black_plus_sign,,,null,,,,,,,,,,,,,,,,,,,
null,,learn_phase(without_color)2,920425,,,,black_plus_sign,,,null,object_11a.png,object_04b.png,,,,,,,,,,,,,,,,,
null,,black_cross(without_color)2,921440,,,,green,,,null,object_11a.png,object_04b.png,,,,,,,,,,,,,,,,,
null,,rt_plussign_withcolor2,921942,,,,green,,,null,object_11a.png,object_04b.png,,,,,,,,,,,,,,,,,
995.6000000238419,,rt_thecrossant_black2,922934,,,,black_plus_sign,,,50,,,1,,,,,,,1,,,,,,,,,
null,,color_black2,923037,,,,black_plus_sign,,,null,,,,,,,,,,,,,,,,,,,
null,,learn_phase(without_color)2,926540,,,,black_plus_sign,,,null,object_15a.png,object_09a.png,,,,,,,,,,,,,,,,,
null,,black_cross(without_color)2,927605,,,,blue,,,null,object_15a.png,object_09a.png,,,,,,,,,,,,,,,,,
null,,rt_plussign_withcolor2,928107,,,,blue,,,null,object_15a.png,object_09a.png,,,,,,,,,,,,,,,,,
1532.8999999761581,,rt_thecrossant_black2,929048,,,,black_plus_sign,,,49,,,1,,,,,,,1,,,,,,,,,
null,,color_black2,929153,,,,black_plus_sign,,,null,,,,,,,,,,,,,,,,,,,
null,,learn_phase(without_color)2,932656,,,,black_plus_sign,,,null,object_15b.png,object_07b.png,,,,,,,,,,,,,,,,,
null,,black_cross(without_color)2,933638,,,,green,,,null,object_15b.png,object_07b.png,,,,,,,,,,,,,,,,,
null,,rt_plussign_withcolor2,934141,,,,green,,,null,object_15b.png,object_07b.png,,,,,,,,,,,,,,,,,
1562.4000000953674,,rt_thecrossant_black2,935164,,,,black_plus_sign,,,50,,,1,,,,,,,1,,,,,,,,,
null,,color_black2,935267,,,,black_plus_sign,,,null,,,,,,,,,,,,,,,,,,,
null,,learn_phase(without_color)2,938771,,,,black_plus_sign,,,null,object_15c.png,object_14c.png,,,,,,,,,,,,,,,,,
null,,black_cross(without_color)2,939402,,,,blue,,,null,object_15c.png,object_14c.png,,,,,,,,,,,,,,,,,
null,,rt_plussign_withcolor2,939905,,,,blue,,,null,object_15c.png,object_14c.png,,,,,,,,,,,,,,,,,
1374.3999999761581,,rt_thecrossant_black2,941281,,,,black_plus_sign,,,49,,,1,,,,,,,1,,,,,,,,,
null,,color_black2,941384,,,,black_plus_sign,,,null,,,,,,,,,,,,,,,,,,,
null,,learn_phase(without_color)2,944887,,,,black_plus_sign,,,null,object_12b.png,object_02b.png,,,,,,,,,,,,,,,,,
null,,black_cross(without_color)2,945328,,,,green,,,null,object_12b.png,object_02b.png,,,,,,,,,,,,,,,,,
null,,rt_plussign_withcolor2,945830,,,,green,,,null,object_12b.png,object_02b.png,,,,,,,,,,,,,,,,,
1242.9000000953674,,rt_thecrossant_black2,947394,,,,black_plus_sign,,,50,,,1,,,,,,,1,,,,,,,,,
null,,color_black2,947497,,,,black_plus_sign,,,null,,,,,,,,,,,,,,,,,,,
null,,learn_phase(without_color)2,951000,,,,black_plus_sign,,,null,object_03a.png,object_02c.png,,,,,,,,,,,,,,,,,
null,,black_cross(without_color)2,951633,,,,green,,,null,object_03a.png,object_02c.png,,,,,,,,,,,,,,,,,
null,,rt_plussign_withcolor2,952136,,,,green,,,null,object_03a.png,object_02c.png,,,,,,,,,,,,,,,,,
788.1000000238419,,rt_thecrossant_black2,953509,,,,black_plus_sign,,,50,,,1,,,,,,,1,,,,,,,,,
null,,color_black2,953612,,,,black_plus_sign,,,null,,,,,,,,,,,,,,,,,,,
null,,learn_phase(without_color)2,957115,,,,black_plus_sign,,,null,object_08b.png,object_09b.png,,,,,,,,,,,,,,,,,
null,,black_cross(without_color)2,958156,,,,green,,,null,object_08b.png,object_09b.png,,,,,,,,,,,,,,,,,
null,,rt_plussign_withcolor2,958658,,,,green,,,null,object_08b.png,object_09b.png,,,,,,,,,,,,,,,,,
1135.8999999761581,,rt_thecrossant_black2,959623,,,,black_plus_sign,,,50,,,1,,,,,,,1,,,,,,,,,
null,,color_black2,959726,,,,black_plus_sign,,,null,,,,,,,,,,,,,,,,,,,
null,,learn_phase(without_color)2,963229,,,,black_plus_sign,,,null,object_06b.png,object_11a.png,,,,,,,,,,,,,,,,,
null,,black_cross(without_color)2,963842,,,,green,,,null,object_06b.png,object_11a.png,,,,,,,,,,,,,,,,,
null,,rt_plussign_withcolor2,964344,,,,green,,,null,object_06b.png,object_11a.png,,,,,,,,,,,,,,,,,
1510,,rt_thecrossant_black2,965746,,,,black_plus_sign,,,50,,,1,,,,,,,1,,,,,,,,,
null,,color_black2,965850,,,,black_plus_sign,,,null,,,,,,,,,,,,,,,,,,,
null,,learn_phase(without_color)2,969354,,,,black_plus_sign,,,null,object_01a.png,object_13c.png,,,,,,,,,,,,,,,,,
null,,black_cross(without_color)2,969821,,,,green,,,null,object_01a.png,object_13c.png,,,,,,,,,,,,,,,,,
null,,rt_plussign_withcolor2,970324,,,,green,,,null,object_01a.png,object_13c.png,,,,,,,,,,,,,,,,,
821.2999999523163,,rt_thecrossant_black2,971863,,,,black_plus_sign,,,50,,,1,,,,,,,1,,,,,,,,,
null,,color_black2,971965,,,,black_plus_sign,,,null,,,,,,,,,,,,,,,,,,,
null,,thebreak,972069,,,,<p></p>,,,null,,,,,,,,,,,,,,,,,,,
17109.300000071526,,intro_0,989180,,,,instruct,,,32,,,,,,,,,,,,,,,,,,,
6131.099999904633,,directmemory_phase2,995314,,,,object_15c.png,,,50,,,1,,object_09c.png,object_14c.png,object_15b.png,object_14c.png,,0.6774193548387096,1,,,,,,,,
3294.5,,directmemory_phase2,998611,,,,object_15b.png,,,51,,,1,,object_15c.png,object_14c.png,object_12a.png,object_12a.png,,0.6875,1,,,,,,,,
4136.5,,directmemory_phase2,1002751,,,,object_13a.png,,,50,,,1,,object_01b.png,object_10c.png,object_14b.png,object_10c.png,,0.696969696969697,1,,,,,,,,
6850.600000023842,,directmemory_phase2,1009605,,,,object_02b.png,,,50,,,0,,object_12a.png,object_09a.png,object_12b.png,object_12b.png,,0.6764705882352942,0,,,,,,,,
7363.600000023842,,directmemory_phase2,1016972,,,,object_04c.png,,,50,,,1,,object_07b.png,object_02b.png,object_13c.png,object_02b.png,,0.6857142857142857,1,,,,,,,,
3314.899999976158,,directmemory_phase2,1020290,,,,object_05b.png,,,50,,,1,,object_08c.png,object_14c.png,object_10c.png,object_14c.png,,0.6944444444444444,1,,,,,,,,
6649.600000023842,,directmemory_phase2,1026943,,,,object_10b.png,,,51,,,1,,object_14c.png,object_05b.png,object_11c.png,object_11c.png,,0.7027027027027027,1,,,,,,,,
6327.899999976158,,directmemory_phase2,1033275,,,,object_09a.png,,,49,,,0,,object_04b.png,object_08a.png,object_14a.png,object_14a.png,,0.6842105263157895,0,,,,,,,,
7370.799999952316,,directmemory_phase2,1040650,,,,object_06c.png,,,51,,,1,,object_02b.png,object_01b.png,object_09b.png,object_09b.png,,0.6923076923076923,1,,,,,,,,
2899.0999999046326,,directmemory_phase2,1043553,,,,object_06a.png,,,50,,,1,,object_15b.png,object_10a.png,object_13b.png,object_10a.png,,0.7,1,,,,,,,,
6168.600000023842,,directmemory_phase2,1049725,,,,object_08c.png,,,51,,,1,,object_15b.png,object_02c.png,object_14b.png,object_14b.png,,0.7073170731707317,1,,,,,,,,
4511.100000023842,,directmemory_phase2,1054239,,,,object_03c.png,,,49,,,1,,object_08a.png,object_10c.png,object_03b.png,object_08a.png,,0.7142857142857143,1,,,,,,,,
4332.899999976158,,directmemory_phase2,1058575,,,,object_05c.png,,,50,,,1,,object_13b.png,object_14b.png,object_15b.png,object_14b.png,,0.7209302325581395,1,,,,,,,,
4925.5,,directmemory_phase2,1063503,,,,object_06b.png,,,51,,,1,,object_03a.png,object_06c.png,object_11a.png,object_11a.png,,0.7272727272727273,1,,,,,,,,
4927.800000071526,,directmemory_phase2,1068433,,,,object_01b.png,,,49,,,1,,object_08a.png,object_11c.png,object_13a.png,object_08a.png,,0.7333333333333333,1,,,,,,,,
4912.200000047684,,directmemory_phase2,1073348,,,,object_07b.png,,,51,,,1,,object_04a.png,object_02c.png,object_15b.png,object_15b.png,,0.7391304347826086,1,,,,,,,,
3270.399999976158,,directmemory_phase2,1076621,,,,object_02a.png,,,51,,,1,,object_02b.png,object_04b.png,object_10c.png,object_10c.png,,0.7446808510638298,1,,,,,,,,
7937.199999928474,,directmemory_phase2,1084562,,,,object_13b.png,,,51,,,1,,object_11c.png,object_07a.png,object_04a.png,object_04a.png,,0.75,1,,,,,,,,
3513.1999999284744,,directmemory_phase2,1088079,,,,object_07c.png,,,51,,,1,,object_10c.png,object_10b.png,object_06a.png,object_06a.png,,0.7551020408163265,1,,,,,,,,
6624.899999976158,,directmemory_phase2,1094707,,,,object_01c.png,,,50,,,1,,object_13a.png,object_05a.png,object_09a.png,object_05a.png,,0.76,1,,,,,,,,
4525.899999976158,,directmemory_phase2,1099236,,,,object_08b.png,,,50,,,1,,object_10a.png,object_09b.png,object_14c.png,object_09b.png,,0.7647058823529411,1,,,,,,,,
7913.100000023842,,directmemory_phase2,1107152,,,,object_15a.png,,,50,,,0,,object_09a.png,object_08a.png,object_12c.png,object_09a.png,,0.75,0,,,,,,,,
5648.100000023842,,directmemory_phase2,1112804,,,,object_11b.png,,,51,,,1,,object_04a.png,object_14a.png,object_05a.png,object_05a.png,,0.7547169811320755,1,,,,,,,,
8664,,directmemory_phase2,1121472,,,,object_03b.png,,,51,,,0,,object_12b.png,object_03a.png,object_09b.png,object_03a.png,,0.7407407407407407,0,,,,,,,,
4363.700000047684,,directmemory_phase2,1125839,,,,object_02c.png,,,51,,,1,,object_15b.png,object_01b.png,object_03a.png,object_03a.png,,0.7454545454545455,1,,,,,,,,
3879.5,,directmemory_phase2,1129722,,,,object_12c.png,,,49,,,1,,object_04a.png,object_14c.png,object_05b.png,object_04a.png,,0.75,1,,,,,,,,
5357.899999976158,,directmemory_phase2,1135083,,,,object_01a.png,,,50,,,1,,object_06c.png,object_13c.png,object_09b.png,object_13c.png,,0.7543859649122807,1,,,,,,,,
5176,,directmemory_phase2,1140261,,,,object_04b.png,,,49,,,1,,object_11a.png,object_14c.png,object_09c.png,object_11a.png,,0.7586206896551724,1,,,,,,,,
5728.600000023842,,directmemory_phase2,1145992,,,,object_07a.png,,,49,,,0,,object_15b.png,object_12a.png,object_11c.png,object_11c.png,,0.7457627118644068,0,,,,,,,,
2524.5999999046326,,directmemory_phase2,1148520,,,,object_09c.png,,,50,,,1,,object_08b.png,object_13c.png,object_15b.png,object_13c.png,,0.75,1,,,,,,,,
null,,thebreak,1148624,,,,<p></p>,,,null,,,,,,,,,,,,,,,,,,,
23410.799999952316,,intro_0,1172037,,,,instruct,,,32,,,,,,,,,,,,,,,,,,,
null,,learn_phase(without_color)3,1175540,,,,black_plus_sign,,,null,object_09a.png,object_15a.png,,,,,,,,,,,,,,,,,
null,,black_cross(without_color)3,1176393,,,,blue,,,null,object_09a.png,object_15a.png,,,,,,,,,,,,,,,,,
null,,rt_plussign_withcolor3,1176896,,,,blue,,,null,object_09a.png,object_15a.png,,,,,,,,,,,,,,,,,
1314.8999999761581,,rt_thecrossant_black3,1178049,,,,black_plus_sign,,,49,,,1,,,,,,,1,,,,,,,,,
null,,color_black3,1178152,,,,black_plus_sign,,,null,,,,,,,,,,,,,,,,,,,
null,,learn_phase(without_color)3,1181656,,,,black_plus_sign,,,null,object_07c.png,object_06a.png,,,,,,,,,,,,,,,,,
null,,black_cross(without_color)3,1182286,,,,blue,,,null,object_07c.png,object_06a.png,,,,,,,,,,,,,,,,,
null,,rt_plussign_withcolor3,1182789,,,,blue,,,null,object_07c.png,object_06a.png,,,,,,,,,,,,,,,,,
1213.3999999761581,,rt_thecrossant_black3,1184165,,,,black_plus_sign,,,49,,,1,,,,,,,1,,,,,,,,,
null,,color_black3,1184268,,,,black_plus_sign,,,null,,,,,,,,,,,,,,,,,,,
null,,learn_phase(without_color)3,1187771,,,,black_plus_sign,,,null,object_15c.png,object_14c.png,,,,,,,,,,,,,,,,,
null,,black_cross(without_color)3,1188689,,,,green,,,null,object_15c.png,object_14c.png,,,,,,,,,,,,,,,,,
null,,rt_plussign_withcolor3,1189192,,,,green,,,null,object_15c.png,object_14c.png,,,,,,,,,,,,,,,,,
873.8000000715256,,rt_thecrossant_black3,1190280,,,,black_plus_sign,,,50,,,1,,,,,,,1,,,,,,,,,
null,,color_black3,1190383,,,,black_plus_sign,,,null,,,,,,,,,,,,,,,,,,,
null,,learn_phase(without_color)3,1193887,,,,black_plus_sign,,,null,object_05a.png,object_11b.png,,,,,,,,,,,,,,,,,
null,,black_cross(without_color)3,1194407,,,,blue,,,null,object_05a.png,object_11b.png,,,,,,,,,,,,,,,,,
null,,rt_plussign_withcolor3,1194910,,,,blue,,,null,object_05a.png,object_11b.png,,,,,,,,,,,,,,,,,
1214.2999999523163,,rt_thecrossant_black3,1196399,,,,black_plus_sign,,,49,,,1,,,,,,,1,,,,,,,,,
null,,color_black3,1196503,,,,black_plus_sign,,,null,,,,,,,,,,,,,,,,,,,
null,,learn_phase(without_color)3,1200008,,,,black_plus_sign,,,null,object_02b.png,object_12b.png,,,,,,,,,,,,,,,,,
null,,black_cross(without_color)3,1200633,,,,blue,,,null,object_02b.png,object_12b.png,,,,,,,,,,,,,,,,,
null,,rt_plussign_withcolor3,1201135,,,,blue,,,null,object_02b.png,object_12b.png,,,,,,,,,,,,,,,,,
695.6999999284744,,rt_thecrossant_black3,1202516,,,,black_plus_sign,,,49,,,1,,,,,,,1,,,,,,,,,
null,,color_black3,1202620,,,,black_plus_sign,,,null,,,,,,,,,,,,,,,,,,,
null,,learn_phase(without_color)3,1206124,,,,black_plus_sign,,,null,object_01b.png,object_08a.png,,,,,,,,,,,,,,,,,
null,,black_cross(without_color)3,1207193,,,,green,,,null,object_01b.png,object_08a.png,,,,,,,,,,,,,,,,,
null,,rt_plussign_withcolor3,1207696,,,,green,,,null,object_01b.png,object_08a.png,,,,,,,,,,,,,,,,,
1013.4000000953674,,rt_thecrossant_black3,1208632,,,,black_plus_sign,,,50,,,1,,,,,,,1,,,,,,,,,
null,,color_black3,1208735,,,,black_plus_sign,,,null,,,,,,,,,,,,,,,,,,,
null,,learn_phase(without_color)3,1212239,,,,black_plus_sign,,,null,object_06a.png,object_10a.png,,,,,,,,,,,,,,,,,
null,,black_cross(without_color)3,1212684,,,,green,,,null,object_06a.png,object_10a.png,,,,,,,,,,,,,,,,,
null,,rt_plussign_withcolor3,1213186,,,,green,,,null,object_06a.png,object_10a.png,,,,,,,,,,,,,,,,,
1443.5999999046326,,rt_thecrossant_black3,1214746,,,,black_plus_sign,,,50,,,1,,,,,,,1,,,,,,,,,
null,,color_black3,1214849,,,,black_plus_sign,,,null,,,,,,,,,,,,,,,,,,,
null,,learn_phase(without_color)3,1218353,,,,black_plus_sign,,,null,object_06b.png,object_11a.png,,,,,,,,,,,,,,,,,
null,,black_cross(without_color)3,1218992,,,,green,,,null,object_06b.png,object_11a.png,,,,,,,,,,,,,,,,,
null,,rt_plussign_withcolor3,1219495,,,,green,,,null,object_06b.png,object_11a.png,,,,,,,,,,,,,,,,,
838.0999999046326,,rt_thecrossant_black3,1220864,,,,black_plus_sign,,,50,,,1,,,,,,,1,,,,,,,,,
null,,color_black3,1220968,,,,black_plus_sign,,,null,,,,,,,,,,,,,,,,,,,
null,,learn_phase(without_color)3,1224472,,,,black_plus_sign,,,null,object_09c.png,object_13c.png,,,,,,,,,,,,,,,,,
null,,black_cross(without_color)3,1225092,,,,green,,,null,object_09c.png,object_13c.png,,,,,,,,,,,,,,,,,
null,,rt_plussign_withcolor3,1225594,,,,green,,,null,object_09c.png,object_13c.png,,,,,,,,,,,,,,,,,
1122.3999999761581,,rt_thecrossant_black3,1226980,,,,black_plus_sign,,,50,,,1,,,,,,,1,,,,,,,,,
null,,color_black3,1227082,,,,black_plus_sign,,,null,,,,,,,,,,,,,,,,,,,
null,,learn_phase(without_color)3,1230585,,,,black_plus_sign,,,null,object_04c.png,object_02b.png,,,,,,,,,,,,,,,,,
null,,black_cross(without_color)3,1230996,,,,blue,,,null,object_04c.png,object_02b.png,,,,,,,,,,,,,,,,,
null,,rt_plussign_withcolor3,1231498,,,,blue,,,null,object_04c.png,object_02b.png,,,,,,,,,,,,,,,,,
828.8000000715256,,rt_thecrossant_black3,1233094,,,,black_plus_sign,,,49,,,1,,,,,,,1,,,,,,,,,
null,,color_black3,1233197,,,,black_plus_sign,,,null,,,,,,,,,,,,,,,,,,,
null,,learn_phase(without_color)3,1236700,,,,black_plus_sign,,,null,object_14b.png,object_05c.png,,,,,,,,,,,,,,,,,
null,,black_cross(without_color)3,1237694,,,,green,,,null,object_14b.png,object_05c.png,,,,,,,,,,,,,,,,,
null,,rt_plussign_withcolor3,1238197,,,,green,,,null,object_14b.png,object_05c.png,,,,,,,,,,,,,,,,,
974,,rt_thecrossant_black3,1239210,,,,black_plus_sign,,,50,,,1,,,,,,,1,,,,,,,,,
null,,color_black3,1239314,,,,black_plus_sign,,,null,,,,,,,,,,,,,,,,,,,
null,,learn_phase(without_color)3,1242819,,,,black_plus_sign,,,null,object_10b.png,object_11c.png,,,,,,,,,,,,,,,,,
null,,black_cross(without_color)3,1243885,,,,green,,,null,object_10b.png,object_11c.png,,,,,,,,,,,,,,,,,
null,,rt_plussign_withcolor3,1244387,,,,green,,,null,object_10b.png,object_11c.png,,,,,,,,,,,,,,,,,
1135.5,,rt_thecrossant_black3,1245327,,,,black_plus_sign,,,50,,,1,,,,,,,1,,,,,,,,,
null,,color_black3,1245430,,,,black_plus_sign,,,null,,,,,,,,,,,,,,,,,,,
null,,learn_phase(without_color)3,1248934,,,,black_plus_sign,,,null,object_10c.png,object_13a.png,,,,,,,,,,,,,,,,,
null,,black_cross(without_color)3,1249474,,,,blue,,,null,object_10c.png,object_13a.png,,,,,,,,,,,,,,,,,
null,,rt_plussign_withcolor3,1249976,,,,blue,,,null,object_10c.png,object_13a.png,,,,,,,,,,,,,,,,,
1523.5,,rt_thecrossant_black3,1251447,,,,black_plus_sign,,,49,,,1,,,,,,,1,,,,,,,,,
null,,color_black3,1251552,,,,black_plus_sign,,,null,,,,,,,,,,,,,,,,,,,
null,,learn_phase(without_color)3,1255055,,,,black_plus_sign,,,null,object_06c.png,object_09b.png,,,,,,,,,,,,,,,,,
null,,black_cross(without_color)3,1255627,,,,blue,,,null,object_06c.png,object_09b.png,,,,,,,,,,,,,,,,,
null,,rt_plussign_withcolor3,1256130,,,,blue,,,null,object_06c.png,object_09b.png,,,,,,,,,,,,,,,,,
693.6000000238419,,rt_thecrossant_black3,1257563,,,,black_plus_sign,,,49,,,1,,,,,,,1,,,,,,,,,
null,,color_black3,1257665,,,,black_plus_sign,,,null,,,,,,,,,,,,,,,,,,,
null,,learn_phase(without_color)3,1261170,,,,black_plus_sign,,,null,object_04b.png,object_11a.png,,,,,,,,,,,,,,,,,
null,,black_cross(without_color)3,1261863,,,,blue,,,null,object_04b.png,object_11a.png,,,,,,,,,,,,,,,,,
null,,rt_plussign_withcolor3,1262364,,,,blue,,,null,object_04b.png,object_11a.png,,,,,,,,,,,,,,,,,
712,,rt_thecrossant_black3,1263678,,,,black_plus_sign,,,49,,,1,,,,,,,1,,,,,,,,,
null,,color_black3,1263781,,,,black_plus_sign,,,null,,,,,,,,,,,,,,,,,,,
null,,learn_phase(without_color)3,1267284,,,,black_plus_sign,,,null,object_09a.png,object_14a.png,,,,,,,,,,,,,,,,,
null,,black_cross(without_color)3,1268179,,,,blue,,,null,object_09a.png,object_14a.png,,,,,,,,,,,,,,,,,
482.60000002384186,,rt_plussign_withcolor3,1268680,,,,blue,,,49,object_09a.png,object_14a.png,,,,,,,,,,,,,,,,,
null,,rt_thecrossant_black3,1269791,,,,black_plus_sign,,,null,,,1,,,,,,,1,,,,,,,,,
null,,color_black3,1269895,,,,black_plus_sign,,,null,,,,,,,,,,,,,,,,,,,
null,,learn_phase(without_color)3,1273398,,,,black_plus_sign,,,null,object_03a.png,object_03b.png,,,,,,,,,,,,,,,,,
null,,black_cross(without_color)3,1274329,,,,blue,,,null,object_03a.png,object_03b.png,,,,,,,,,,,,,,,,,
null,,rt_plussign_withcolor3,1274832,,,,blue,,,null,object_03a.png,object_03b.png,,,,,,,,,,,,,,,,,
1949.2000000476837,,rt_thecrossant_black3,1275909,,,,black_plus_sign,,,50,,,0,,,,,,,0.9411764705882353,,,,,,,,,
null,,color_black3,1276012,,,,black_plus_sign,,,null,,,,,,,,,,,,,,,,,,,
null,,learn_phase(without_color)3,1279515,,,,black_plus_sign,,,null,object_13c.png,object_01a.png,,,,,,,,,,,,,,,,,
null,,black_cross(without_color)3,1280033,,,,green,,,null,object_13c.png,object_01a.png,,,,,,,,,,,,,,,,,
null,,rt_plussign_withcolor3,1280535,,,,green,,,null,object_13c.png,object_01a.png,,,,,,,,,,,,,,,,,
1610.3000000715256,,rt_thecrossant_black3,1282023,,,,black_plus_sign,,,50,,,1,,,,,,,0.9444444444444444,,,,,,,,,
null,,color_black3,1282127,,,,black_plus_sign,,,null,,,,,,,,,,,,,,,,,,,
null,,learn_phase(without_color)3,1285630,,,,black_plus_sign,,,null,object_02c.png,object_03a.png,,,,,,,,,,,,,,,,,
null,,black_cross(without_color)3,1286553,,,,blue,,,null,object_02c.png,object_03a.png,,,,,,,,,,,,,,,,,
null,,rt_plussign_withcolor3,1287055,,,,blue,,,null,object_02c.png,object_03a.png,,,,,,,,,,,,,,,,,
679,,rt_thecrossant_black3,1288140,,,,black_plus_sign,,,49,,,1,,,,,,,0.9473684210526315,,,,,,,,,
null,,color_black3,1288243,,,,black_plus_sign,,,null,,,,,,,,,,,,,,,,,,,
null,,learn_phase(without_color)3,1291746,,,,black_plus_sign,,,null,object_04a.png,object_13b.png,,,,,,,,,,,,,,,,,
null,,black_cross(without_color)3,1292700,,,,blue,,,null,object_04a.png,object_13b.png,,,,,,,,,,,,,,,,,
null,,rt_plussign_withcolor3,1293203,,,,blue,,,null,object_04a.png,object_13b.png,,,,,,,,,,,,,,,,,
1071.5,,rt_thecrossant_black3,1294262,,,,black_plus_sign,,,49,,,1,,,,,,,0.95,,,,,,,,,
null,,color_black3,1294365,,,,black_plus_sign,,,null,,,,,,,,,,,,,,,,,,,
null,,learn_phase(without_color)3,1297868,,,,black_plus_sign,,,null,object_08b.png,object_09b.png,,,,,,,,,,,,,,,,,
null,,black_cross(without_color)3,1298347,,,,blue,,,null,object_08b.png,object_09b.png,,,,,,,,,,,,,,,,,
null,,rt_plussign_withcolor3,1298848,,,,blue,,,null,object_08b.png,object_09b.png,,,,,,,,,,,,,,,,,
1368.6000000238419,,rt_thecrossant_black3,1300376,,,,black_plus_sign,,,49,,,1,,,,,,,0.9523809523809523,,,,,,,,,
null,,color_black3,1300479,,,,black_plus_sign,,,null,,,,,,,,,,,,,,,,,,,
null,,learn_phase(without_color)3,1303984,,,,black_plus_sign,,,null,object_03c.png,object_08a.png,,,,,,,,,,,,,,,,,
null,,black_cross(without_color)3,1304593,,,,blue,,,null,object_03c.png,object_08a.png,,,,,,,,,,,,,,,,,
null,,rt_plussign_withcolor3,1305095,,,,blue,,,null,object_03c.png,object_08a.png,,,,,,,,,,,,,,,,,
603.2999999523163,,rt_thecrossant_black3,1306493,,,,black_plus_sign,,,49,,,1,,,,,,,0.9545454545454546,,,,,,,,,
null,,color_black3,1306597,,,,black_plus_sign,,,null,,,,,,,,,,,,,,,,,,,
null,,learn_phase(without_color)3,1310101,,,,black_plus_sign,,,null,object_08c.png,object_14b.png,,,,,,,,,,,,,,,,,
null,,black_cross(without_color)3,1310941,,,,blue,,,null,object_08c.png,object_14b.png,,,,,,,,,,,,,,,,,
null,,rt_plussign_withcolor3,1311453,,,,blue,,,null,object_08c.png,object_14b.png,,,,,,,,,,,,,,,,,
1177,,rt_thecrossant_black3,1312620,,,,black_plus_sign,,,49,,,1,,,,,,,0.9565217391304348,,,,,,,,,
null,,color_black3,1312723,,,,black_plus_sign,,,null,,,,,,,,,,,,,,,,,,,
null,,learn_phase(without_color)3,1316226,,,,black_plus_sign,,,null,object_05b.png,object_14c.png,,,,,,,,,,,,,,,,,
null,,black_cross(without_color)3,1316982,,,,green,,,null,object_05b.png,object_14c.png,,,,,,,,,,,,,,,,,
450.6999999284744,,rt_plussign_withcolor3,1317484,,,,green,,,50,object_05b.png,object_14c.png,,,,,,,,,,,,,,,,,
null,,rt_thecrossant_black3,1318736,,,,black_plus_sign,,,null,,,1,,,,,,,0.9583333333333334,,,,,,,,,
null,,color_black3,1318841,,,,black_plus_sign,,,null,,,,,,,,,,,,,,,,,,,
null,,learn_phase(without_color)3,1322343,,,,black_plus_sign,,,null,object_07a.png,object_11c.png,,,,,,,,,,,,,,,,,
null,,black_cross(without_color)3,1323191,,,,green,,,null,object_07a.png,object_11c.png,,,,,,,,,,,,,,,,,
null,,rt_plussign_withcolor3,1323693,,,,green,,,null,object_07a.png,object_11c.png,,,,,,,,,,,,,,,,,
1655.7000000476837,,rt_thecrossant_black3,1324852,,,,black_plus_sign,,,49,,,0,,,,,,,0.92,,,,,,,,,
null,,color_black3,1324955,,,,black_plus_sign,,,null,,,,,,,,,,,,,,,,,,,
null,,learn_phase(without_color)3,1328459,,,,black_plus_sign,,,null,object_02a.png,object_10c.png,,,,,,,,,,,,,,,,,
null,,black_cross(without_color)3,1329148,,,,blue,,,null,object_02a.png,object_10c.png,,,,,,,,,,,,,,,,,
null,,rt_plussign_withcolor3,1329650,,,,blue,,,null,object_02a.png,object_10c.png,,,,,,,,,,,,,,,,,
1289.6000000238419,,rt_thecrossant_black3,1330968,,,,black_plus_sign,,,49,,,1,,,,,,,0.9230769230769231,,,,,,,,,
null,,color_black3,1331071,,,,black_plus_sign,,,null,,,,,,,,,,,,,,,,,,,
null,,learn_phase(without_color)3,1334575,,,,black_plus_sign,,,null,object_04a.png,object_12c.png,,,,,,,,,,,,,,,,,
null,,black_cross(without_color)3,1335039,,,,green,,,null,object_04a.png,object_12c.png,,,,,,,,,,,,,,,,,
null,,rt_plussign_withcolor3,1335540,,,,green,,,null,object_04a.png,object_12c.png,,,,,,,,,,,,,,,,,
1008.7000000476837,,rt_thecrossant_black3,1337083,,,,black_plus_sign,,,50,,,1,,,,,,,0.9259259259259259,,,,,,,,,
null,,color_black3,1337186,,,,black_plus_sign,,,null,,,,,,,,,,,,,,,,,,,
null,,learn_phase(without_color)3,1340689,,,,black_plus_sign,,,null,object_01c.png,object_05a.png,,,,,,,,,,,,,,,,,
null,,black_cross(without_color)3,1341703,,,,blue,,,null,object_01c.png,object_05a.png,,,,,,,,,,,,,,,,,
null,,rt_plussign_withcolor3,1342206,,,,blue,,,null,object_01c.png,object_05a.png,,,,,,,,,,,,,,,,,
823,,rt_thecrossant_black3,1343199,,,,black_plus_sign,,,49,,,1,,,,,,,0.9285714285714286,,,,,,,,,
null,,color_black3,1343302,,,,black_plus_sign,,,null,,,,,,,,,,,,,,,,,,,
null,,learn_phase(without_color)3,1346805,,,,black_plus_sign,,,null,object_15b.png,object_07b.png,,,,,,,,,,,,,,,,,
null,,black_cross(without_color)3,1347683,,,,blue,,,null,object_15b.png,object_07b.png,,,,,,,,,,,,,,,,,
null,,rt_plussign_withcolor3,1348185,,,,blue,,,null,object_15b.png,object_07b.png,,,,,,,,,,,,,,,,,
1255.3999999761581,,rt_thecrossant_black3,1349314,,,,black_plus_sign,,,49,,,1,,,,,,,0.9310344827586207,,,,,,,,,
null,,color_black3,1349418,,,,black_plus_sign,,,null,,,,,,,,,,,,,,,,,,,
null,,learn_phase(without_color)3,1352922,,,,black_plus_sign,,,null,object_12a.png,object_15b.png,,,,,,,,,,,,,,,,,
null,,black_cross(without_color)3,1354013,,,,green,,,null,object_12a.png,object_15b.png,,,,,,,,,,,,,,,,,
null,,rt_plussign_withcolor3,1354515,,,,green,,,null,object_12a.png,object_15b.png,,,,,,,,,,,,,,,,,
1387,,rt_thecrossant_black3,1355431,,,,black_plus_sign,,,50,,,1,,,,,,,0.9333333333333333,,,,,,,,,
null,,color_black3,1355534,,,,black_plus_sign,,,null,,,,,,,,,,,,,,,,,,,
null,,thebreak,1355638,,,,<p></p>,,,null,,,,,,,,,,,,,,,,,,,
1502.1000000238419,,intro_0,1357143,,,,instruct,,,32,,,,,,,,,,,,,,,,,,,
2966.7000000476837,,directmemory_phase3,1360112,,,,object_01b.png,,,50,,,0,,object_08a.png,object_04a.png,object_01a.png,object_08a.png,,0.7377049180327869,0,,,,,,,,
4852.600000023842,,directmemory_phase3,1364969,,,,object_03a.png,,,51,,,1,,object_05c.png,object_09a.png,object_03b.png,object_03b.png,,0.7419354838709677,1,,,,,,,,
3890.399999976158,,directmemory_phase3,1368863,,,,object_06b.png,,,49,,,0,,object_14c.png,object_02c.png,object_11a.png,object_11a.png,,0.7301587301587301,0,,,,,,,,
5280.899999976158,,directmemory_phase3,1374148,,,,object_13a.png,,,50,,,1,,object_06c.png,object_10c.png,object_09a.png,object_10c.png,,0.734375,1,,,,,,,,
3288.899999976158,,directmemory_phase3,1377441,,,,object_12c.png,,,51,,,0,,object_04c.png,object_04a.png,object_06a.png,object_04a.png,,0.7230769230769231,0,,,,,,,,
4313.299999952316,,directmemory_phase3,1381758,,,,object_12b.png,,,49,,,0,,object_09a.png,object_12a.png,object_02b.png,object_02b.png,,0.7121212121212122,0,,,,,,,,
2325.5,,directmemory_phase3,1384086,,,,object_05b.png,,,49,,,1,,object_14c.png,object_14b.png,object_01b.png,object_14c.png,,0.7164179104477612,1,,,,,,,,
6236.5,,directmemory_phase3,1390328,,,,object_11c.png,,,51,,,0,,object_14b.png,object_07a.png,object_09c.png,object_07a.png,,0.7058823529411765,0,,,,,,,,
3177.7000000476837,,directmemory_phase3,1393509,,,,object_07c.png,,,51,,,1,,object_10c.png,object_01b.png,object_06a.png,object_06a.png,,0.7101449275362319,1,,,,,,,,
4503.899999976158,,directmemory_phase3,1398016,,,,object_12a.png,,,49,,,0,,object_14b.png,object_12b.png,object_15b.png,object_15b.png,,0.7,0,,,,,,,,
5042.799999952316,,directmemory_phase3,1403063,,,,object_14a.png,,,50,,,1,,object_04b.png,object_09a.png,object_11c.png,object_09a.png,,0.704225352112676,1,,,,,,,,
7922.600000023842,,directmemory_phase3,1410989,,,,object_01a.png,,,51,,,0,,object_10b.png,object_13c.png,object_09a.png,object_13c.png,,0.6944444444444444,0,,,,,,,,
6887,,directmemory_phase3,1417880,,,,object_02a.png,,,51,,,1,,object_02b.png,object_07a.png,object_10c.png,object_10c.png,,0.6986301369863014,1,,,,,,,,
6792.700000047684,,directmemory_phase3,1424675,,,,object_01c.png,,,50,,,1,,object_12c.png,object_05a.png,object_03a.png,object_05a.png,,0.7027027027027027,1,,,,,,,,
3761.600000023842,,directmemory_phase3,1428441,,,,object_02c.png,,,49,,,0,,object_04c.png,object_03a.png,object_09b.png,object_03a.png,,0.6933333333333334,0,,,,,,,,
3235.2000000476837,,directmemory_phase3,1431681,,,,object_07b.png,,,51,,,0,,object_07c.png,object_15b.png,object_14c.png,object_15b.png,,0.6842105263157895,0,,,,,,,,
10586.100000023842,,directmemory_phase3,1442270,,,,object_13b.png,,,49,,,0,,object_05c.png,object_04a.png,object_09b.png,object_04a.png,,0.6753246753246753,0,,,,,,,,
7615.200000047684,,directmemory_phase3,1449888,,,,object_08b.png,,,49,,,0,,object_13b.png,object_09b.png,object_15b.png,object_09b.png,,0.6666666666666666,0,,,,,,,,
4810.200000047684,,directmemory_phase3,1454703,,,,object_05c.png,,,49,,,1,,object_14b.png,object_06a.png,object_10a.png,object_14b.png,,0.6708860759493671,1,,,,,,,,
6824.900000095367,,directmemory_phase3,1461531,,,,object_11a.png,,,51,,,1,,object_03c.png,object_10c.png,object_04b.png,object_04b.png,,0.675,1,,,,,,,,
7529.100000023842,,directmemory_phase3,1469064,,,,object_08c.png,,,51,,,0,,object_14b.png,object_04a.png,object_12c.png,object_14b.png,,0.6666666666666666,0,,,,,,,,
9431.700000047684,,directmemory_phase3,1478499,,,,object_10a.png,,,49,,,0,,object_13b.png,object_06a.png,object_11c.png,object_06a.png,,0.6585365853658537,0,,,,,,,,
3802.399999976158,,directmemory_phase3,1482305,,,,object_13c.png,,,49,,,1,,object_09c.png,object_03b.png,object_09b.png,object_09c.png,,0.6626506024096386,1,,,,,,,,
2143,,directmemory_phase3,1484451,,,,object_04c.png,,,50,,,1,,object_07c.png,object_02b.png,object_09b.png,object_02b.png,,0.6666666666666666,1,,,,,,,,
9603.5,,directmemory_phase3,1494059,,,,object_08a.png,,,51,,,0,,object_15b.png,object_03c.png,object_12a.png,object_03c.png,,0.6588235294117647,0,,,,,,,,
6914.199999928474,,directmemory_phase3,1500976,,,,object_15a.png,,,49,,,0,,object_08a.png,object_13a.png,object_09a.png,object_09a.png,,0.6511627906976745,0,,,,,,,,
4215.600000023842,,directmemory_phase3,1505196,,,,object_10b.png,,,49,,,1,,object_11c.png,object_09b.png,object_04c.png,object_11c.png,,0.6551724137931034,1,,,,,,,,
7478.800000071526,,directmemory_phase3,1512678,,,,object_05a.png,,,49,,,1,,object_11b.png,object_03c.png,object_14b.png,object_11b.png,,0.6590909090909091,1,,,,,,,,
5806,,directmemory_phase3,1518488,,,,object_15c.png,,,50,,,1,,object_13b.png,object_14c.png,object_14b.png,object_14c.png,,0.6629213483146067,1,,,,,,,,
6836.600000023842,,directmemory_phase3,1525328,,,,object_06c.png,,,50,,,0,,object_10c.png,object_01a.png,object_09b.png,object_09b.png,,0.6555555555555556,0,,,,,,,,
null,,thebreak,1525432,,,,<p></p>,,,null,,,,,,,,,,,,,,,,,,,
2081.399999976158,,intro_0,1527518,,,,instruct,,,32,,,,,,,,,,,,,,,,,,,
null,,learn_phase(without_color)4,1531021,,,,black_plus_sign,,,null,object_10b.png,object_11c.png,,,,,,,,,,,,,,,,,
null,,black_cross(without_color)4,1531764,,,,blue,,,null,object_10b.png,object_11c.png,,,,,,,,,,,,,,,,,
null,,rt_plussign_withcolor4,1532267,,,,blue,,,null,object_10b.png,object_11c.png,,,,,,,,,,,,,,,,,
1195.7000000476837,,rt_thecrossant_black4,1533531,,,,black_plus_sign,,,49,,,1,,,,,,,1,,,,,,,,,
null,,color_black4,1533634,,,,black_plus_sign,,,null,,,,,,,,,,,,,,,,,,,
null,,learn_phase(without_color)4,1537137,,,,black_plus_sign,,,null,object_07c.png,object_06a.png,,,,,,,,,,,,,,,,,
null,,black_cross(without_color)4,1537646,,,,blue,,,null,object_07c.png,object_06a.png,,,,,,,,,,,,,,,,,
null,,rt_plussign_withcolor4,1538148,,,,blue,,,null,object_07c.png,object_06a.png,,,,,,,,,,,,,,,,,
961.2000000476837,,rt_thecrossant_black4,1539645,,,,black_plus_sign,,,49,,,1,,,,,,,1,,,,,,,,,
null,,color_black4,1539748,,,,black_plus_sign,,,null,,,,,,,,,,,,,,,,,,,
null,,learn_phase(without_color)4,1543251,,,,black_plus_sign,,,null,object_11a.png,object_06b.png,,,,,,,,,,,,,,,,,
null,,black_cross(without_color)4,1543774,,,,blue,,,null,object_11a.png,object_06b.png,,,,,,,,,,,,,,,,,
null,,rt_plussign_withcolor4,1544277,,,,blue,,,null,object_11a.png,object_06b.png,,,,,,,,,,,,,,,,,
645.6000000238419,,rt_thecrossant_black4,1545761,,,,black_plus_sign,,,49,,,1,,,,,,,1,,,,,,,,,
null,,color_black4,1545864,,,,black_plus_sign,,,null,,,,,,,,,,,,,,,,,,,
null,,learn_phase(without_color)4,1549367,,,,black_plus_sign,,,null,object_11c.png,object_07a.png,,,,,,,,,,,,,,,,,
null,,black_cross(without_color)4,1549889,,,,blue,,,null,object_11c.png,object_07a.png,,,,,,,,,,,,,,,,,
null,,rt_plussign_withcolor4,1550391,,,,blue,,,null,object_11c.png,object_07a.png,,,,,,,,,,,,,,,,,
653.3999999761581,,rt_thecrossant_black4,1551876,,,,black_plus_sign,,,49,,,1,,,,,,,1,,,,,,,,,
null,,color_black4,1551979,,,,black_plus_sign,,,null,,,,,,,,,,,,,,,,,,,
null,,learn_phase(without_color)4,1555483,,,,black_plus_sign,,,null,object_04c.png,object_02b.png,,,,,,,,,,,,,,,,,
null,,black_cross(without_color)4,1555889,,,,blue,,,null,object_04c.png,object_02b.png,,,,,,,,,,,,,,,,,
null,,rt_plussign_withcolor4,1556392,,,,blue,,,null,object_04c.png,object_02b.png,,,,,,,,,,,,,,,,,
957.8000000715256,,rt_thecrossant_black4,1557992,,,,black_plus_sign,,,49,,,1,,,,,,,1,,,,,,,,,
null,,color_black4,1558096,,,,black_plus_sign,,,null,,,,,,,,,,,,,,,,,,,
null,,learn_phase(without_color)4,1561601,,,,black_plus_sign,,,null,object_03a.png,object_03b.png,,,,,,,,,,,,,,,,,
null,,black_cross(without_color)4,1562108,,,,blue,,,null,object_03a.png,object_03b.png,,,,,,,,,,,,,,,,,
null,,rt_plussign_withcolor4,1562610,,,,blue,,,null,object_03a.png,object_03b.png,,,,,,,,,,,,,,,,,
555.2999999523163,,rt_thecrossant_black4,1564110,,,,black_plus_sign,,,49,,,1,,,,,,,1,,,,,,,,,
null,,color_black4,1564215,,,,black_plus_sign,,,null,,,,,,,,,,,,,,,,,,,
null,,learn_phase(without_color)4,1567718,,,,black_plus_sign,,,null,object_08a.png,object_03c.png,,,,,,,,,,,,,,,,,
null,,black_cross(without_color)4,1568511,,,,green,,,null,object_08a.png,object_03c.png,,,,,,,,,,,,,,,,,
null,,rt_plussign_withcolor4,1569014,,,,green,,,null,object_08a.png,object_03c.png,,,,,,,,,,,,,,,,,
795.5,,rt_thecrossant_black4,1570229,,,,black_plus_sign,,,50,,,1,,,,,,,1,,,,,,,,,
null,,color_black4,1570332,,,,black_plus_sign,,,null,,,,,,,,,,,,,,,,,,,
null,,learn_phase(without_color)4,1573836,,,,black_plus_sign,,,null,object_11a.png,object_04b.png,,,,,,,,,,,,,,,,,
null,,black_cross(without_color)4,1574730,,,,green,,,null,object_11a.png,object_04b.png,,,,,,,,,,,,,,,,,
null,,rt_plussign_withcolor4,1575232,,,,green,,,null,object_11a.png,object_04b.png,,,,,,,,,,,,,,,,,
1003.1000000238419,,rt_thecrossant_black4,1576346,,,,black_plus_sign,,,50,,,1,,,,,,,1,,,,,,,,,
null,,color_black4,1576450,,,,black_plus_sign,,,null,,,,,,,,,,,,,,,,,,,
null,,learn_phase(without_color)4,1579953,,,,black_plus_sign,,,null,object_13c.png,object_09c.png,,,,,,,,,,,,,,,,,
null,,black_cross(without_color)4,1580971,,,,green,,,null,object_13c.png,object_09c.png,,,,,,,,,,,,,,,,,
null,,rt_plussign_withcolor4,1581474,,,,green,,,null,object_13c.png,object_09c.png,,,,,,,,,,,,,,,,,
1419.1000000238419,,rt_thecrossant_black4,1582462,,,,black_plus_sign,,,50,,,1,,,,,,,1,,,,,,,,,
null,,color_black4,1582566,,,,black_plus_sign,,,null,,,,,,,,,,,,,,,,,,,
null,,learn_phase(without_color)4,1586069,,,,black_plus_sign,,,null,object_06c.png,object_09b.png,,,,,,,,,,,,,,,,,
null,,black_cross(without_color)4,1587071,,,,blue,,,null,object_06c.png,object_09b.png,,,,,,,,,,,,,,,,,
325.5,,rt_plussign_withcolor4,1587573,,,,blue,,,49,object_06c.png,object_09b.png,,,,,,,,,,,,,,,,,
null,,rt_thecrossant_black4,1588577,,,,black_plus_sign,,,null,,,1,,,,,,,1,,,,,,,,,
null,,color_black4,1588681,,,,black_plus_sign,,,null,,,,,,,,,,,,,,,,,,,
null,,learn_phase(without_color)4,1592185,,,,black_plus_sign,,,null,object_12c.png,object_04a.png,,,,,,,,,,,,,,,,,
null,,black_cross(without_color)4,1592731,,,,green,,,null,object_12c.png,object_04a.png,,,,,,,,,,,,,,,,,
null,,rt_plussign_withcolor4,1593233,,,,green,,,null,object_12c.png,object_04a.png,,,,,,,,,,,,,,,,,
1334.5,,rt_thecrossant_black4,1594695,,,,black_plus_sign,,,50,,,1,,,,,,,1,,,,,,,,,
null,,color_black4,1594798,,,,black_plus_sign,,,null,,,,,,,,,,,,,,,,,,,
null,,learn_phase(without_color)4,1598302,,,,black_plus_sign,,,null,object_09b.png,object_08b.png,,,,,,,,,,,,,,,,,
null,,black_cross(without_color)4,1599033,,,,blue,,,null,object_09b.png,object_08b.png,,,,,,,,,,,,,,,,,
null,,rt_plussign_withcolor4,1599535,,,,blue,,,null,object_09b.png,object_08b.png,,,,,,,,,,,,,,,,,
1022.2999999523163,,rt_thecrossant_black4,1600812,,,,black_plus_sign,,,49,,,1,,,,,,,1,,,,,,,,,
null,,color_black4,1600915,,,,black_plus_sign,,,null,,,,,,,,,,,,,,,,,,,
null,,learn_phase(without_color)4,1604419,,,,black_plus_sign,,,null,object_10a.png,object_06a.png,,,,,,,,,,,,,,,,,
null,,black_cross(without_color)4,1605278,,,,green,,,null,object_10a.png,object_06a.png,,,,,,,,,,,,,,,,,
489.59999990463257,,rt_plussign_withcolor4,1605780,,,,green,,,50,object_10a.png,object_06a.png,,,,,,,,,,,,,,,,,
null,,rt_thecrossant_black4,1606928,,,,black_plus_sign,,,null,,,1,,,,,,,1,,,,,,,,,
null,,color_black4,1607032,,,,black_plus_sign,,,null,,,,,,,,,,,,,,,,,,,
null,,learn_phase(without_color)4,1610535,,,,black_plus_sign,,,null,object_05a.png,object_01c.png,,,,,,,,,,,,,,,,,
null,,black_cross(without_color)4,1611278,,,,green,,,null,object_05a.png,object_01c.png,,,,,,,,,,,,,,,,,
null,,rt_plussign_withcolor4,1611780,,,,green,,,null,object_05a.png,object_01c.png,,,,,,,,,,,,,,,,,
996.2000000476837,,rt_thecrossant_black4,1613043,,,,black_plus_sign,,,49,,,0,,,,,,,0.9285714285714286,,,,,,,,,
null,,color_black4,1613147,,,,black_plus_sign,,,null,,,,,,,,,,,,,,,,,,,
null,,learn_phase(without_color)4,1616651,,,,black_plus_sign,,,null,object_05b.png,object_14c.png,,,,,,,,,,,,,,,,,
null,,black_cross(without_color)4,1617227,,,,blue,,,null,object_05b.png,object_14c.png,,,,,,,,,,,,,,,,,
null,,rt_plussign_withcolor4,1617730,,,,blue,,,null,object_05b.png,object_14c.png,,,,,,,,,,,,,,,,,
921.2000000476837,,rt_thecrossant_black4,1619160,,,,black_plus_sign,,,49,,,1,,,,,,,0.9333333333333333,,,,,,,,,
null,,color_black4,1619264,,,,black_plus_sign,,,null,,,,,,,,,,,,,,,,,,,
null,,learn_phase(without_color)4,1622767,,,,black_plus_sign,,,null,object_07b.png,object_15b.png,,,,,,,,,,,,,,,,,
null,,black_cross(without_color)4,1623236,,,,green,,,null,object_07b.png,object_15b.png,,,,,,,,,,,,,,,,,
null,,rt_plussign_withcolor4,1623739,,,,green,,,null,object_07b.png,object_15b.png,,,,,,,,,,,,,,,,,
979.0999999046326,,rt_thecrossant_black4,1625275,,,,black_plus_sign,,,50,,,1,,,,,,,0.9375,,,,,,,,,
null,,color_black4,1625378,,,,black_plus_sign,,,null,,,,,,,,,,,,,,,,,,,
null,,learn_phase(without_color)4,1628881,,,,black_plus_sign,,,null,object_05c.png,object_14b.png,,,,,,,,,,,,,,,,,
null,,black_cross(without_color)4,1629493,,,,blue,,,null,object_05c.png,object_14b.png,,,,,,,,,,,,,,,,,
462.89999997615814,,rt_plussign_withcolor4,1629996,,,,blue,,,49,object_05c.png,object_14b.png,,,,,,,,,,,,,,,,,
null,,rt_thecrossant_black4,1631399,,,,black_plus_sign,,,null,,,1,,,,,,,0.9411764705882353,,,,,,,,,
null,,color_black4,1631503,,,,black_plus_sign,,,null,,,,,,,,,,,,,,,,,,,
null,,learn_phase(without_color)4,1635007,,,,black_plus_sign,,,null,object_02b.png,object_12b.png,,,,,,,,,,,,,,,,,
null,,black_cross(without_color)4,1635631,,,,green,,,null,object_02b.png,object_12b.png,,,,,,,,,,,,,,,,,
null,,rt_plussign_withcolor4,1636133,,,,green,,,null,object_02b.png,object_12b.png,,,,,,,,,,,,,,,,,
776.3999999761581,,rt_thecrossant_black4,1637517,,,,black_plus_sign,,,50,,,1,,,,,,,0.9444444444444444,,,,,,,,,
null,,color_black4,1637620,,,,black_plus_sign,,,null,,,,,,,,,,,,,,,,,,,
null,,learn_phase(without_color)4,1641123,,,,black_plus_sign,,,null,object_15c.png,object_14c.png,,,,,,,,,,,,,,,,,
null,,black_cross(without_color)4,1641607,,,,blue,,,null,object_15c.png,object_14c.png,,,,,,,,,,,,,,,,,
null,,rt_plussign_withcolor4,1642109,,,,blue,,,null,object_15c.png,object_14c.png,,,,,,,,,,,,,,,,,
785.8999999761581,,rt_thecrossant_black4,1643632,,,,black_plus_sign,,,49,,,1,,,,,,,0.9473684210526315,,,,,,,,,
null,,color_black4,1643736,,,,black_plus_sign,,,null,,,,,,,,,,,,,,,,,,,
null,,learn_phase(without_color)4,1647240,,,,black_plus_sign,,,null,object_02c.png,object_03a.png,,,,,,,,,,,,,,,,,
null,,black_cross(without_color)4,1648228,,,,blue,,,null,object_02c.png,object_03a.png,,,,,,,,,,,,,,,,,
null,,rt_plussign_withcolor4,1648731,,,,blue,,,null,object_02c.png,object_03a.png,,,,,,,,,,,,,,,,,
1000.2000000476837,,rt_thecrossant_black4,1649750,,,,black_plus_sign,,,49,,,1,,,,,,,0.95,,,,,,,,,
null,,color_black4,1649853,,,,black_plus_sign,,,null,,,,,,,,,,,,,,,,,,,
null,,learn_phase(without_color)4,1653357,,,,black_plus_sign,,,null,object_02a.png,object_10c.png,,,,,,,,,,,,,,,,,
null,,black_cross(without_color)4,1654196,,,,green,,,null,object_02a.png,object_10c.png,,,,,,,,,,,,,,,,,
null,,rt_plussign_withcolor4,1654699,,,,green,,,null,object_02a.png,object_10c.png,,,,,,,,,,,,,,,,,
1158.6999999284744,,rt_thecrossant_black4,1655866,,,,black_plus_sign,,,50,,,1,,,,,,,0.9523809523809523,,,,,,,,,
null,,color_black4,1655970,,,,black_plus_sign,,,null,,,,,,,,,,,,,,,,,,,
null,,learn_phase(without_color)4,1659473,,,,black_plus_sign,,,null,object_08a.png,object_01b.png,,,,,,,,,,,,,,,,,
null,,black_cross(without_color)4,1660227,,,,green,,,null,object_08a.png,object_01b.png,,,,,,,,,,,,,,,,,
null,,rt_plussign_withcolor4,1660730,,,,green,,,null,object_08a.png,object_01b.png,,,,,,,,,,,,,,,,,
1086.6000000238419,,rt_thecrossant_black4,1661984,,,,black_plus_sign,,,50,,,1,,,,,,,0.9545454545454546,,,,,,,,,
null,,color_black4,1662087,,,,black_plus_sign,,,null,,,,,,,,,,,,,,,,,,,
null,,learn_phase(without_color)4,1665591,,,,black_plus_sign,,,null,object_11b.png,object_05a.png,,,,,,,,,,,,,,,,,
null,,black_cross(without_color)4,1666681,,,,blue,,,null,object_11b.png,object_05a.png,,,,,,,,,,,,,,,,,
null,,rt_plussign_withcolor4,1667183,,,,blue,,,null,object_11b.png,object_05a.png,,,,,,,,,,,,,,,,,
919.7000000476837,,rt_thecrossant_black4,1668100,,,,black_plus_sign,,,49,,,1,,,,,,,0.9565217391304348,,,,,,,,,
null,,color_black4,1668203,,,,black_plus_sign,,,null,,,,,,,,,,,,,,,,,,,
null,,learn_phase(without_color)4,1671707,,,,black_plus_sign,,,null,object_13b.png,object_04a.png,,,,,,,,,,,,,,,,,
null,,black_cross(without_color)4,1672199,,,,green,,,null,object_13b.png,object_04a.png,,,,,,,,,,,,,,,,,
null,,rt_plussign_withcolor4,1672701,,,,green,,,null,object_13b.png,object_04a.png,,,,,,,,,,,,,,,,,
1563.6999999284744,,rt_thecrossant_black4,1674217,,,,black_plus_sign,,,50,,,1,,,,,,,0.9583333333333334,,,,,,,,,
null,,color_black4,1674320,,,,black_plus_sign,,,null,,,,,,,,,,,,,,,,,,,
null,,learn_phase(without_color)4,1677834,,,,black_plus_sign,,,null,object_13c.png,object_01a.png,,,,,,,,,,,,,,,,,
null,,black_cross(without_color)4,1678784,,,,blue,,,null,object_13c.png,object_01a.png,,,,,,,,,,,,,,,,,
null,,rt_plussign_withcolor4,1679287,,,,blue,,,null,object_13c.png,object_01a.png,,,,,,,,,,,,,,,,,
702,,rt_thecrossant_black4,1680345,,,,black_plus_sign,,,49,,,1,,,,,,,0.96,,,,,,,,,
null,,color_black4,1680449,,,,black_plus_sign,,,null,,,,,,,,,,,,,,,,,,,
null,,learn_phase(without_color)4,1683953,,,,black_plus_sign,,,null,object_09a.png,object_15a.png,,,,,,,,,,,,,,,,,
null,,black_cross(without_color)4,1684776,,,,blue,,,null,object_09a.png,object_15a.png,,,,,,,,,,,,,,,,,
null,,rt_plussign_withcolor4,1685279,,,,blue,,,null,object_09a.png,object_15a.png,,,,,,,,,,,,,,,,,
1820.1000000238419,,rt_thecrossant_black4,1686461,,,,black_plus_sign,,,49,,,1,,,,,,,0.9615384615384616,,,,,,,,,
null,,color_black4,1686564,,,,black_plus_sign,,,null,,,,,,,,,,,,,,,,,,,
null,,learn_phase(without_color)4,1690068,,,,black_plus_sign,,,null,object_15b.png,object_12a.png,,,,,,,,,,,,,,,,,
null,,black_cross(without_color)4,1690567,,,,green,,,null,object_15b.png,object_12a.png,,,,,,,,,,,,,,,,,
null,,rt_plussign_withcolor4,1691071,,,,green,,,null,object_15b.png,object_12a.png,,,,,,,,,,,,,,,,,
null,,rt_thecrossant_black4,1692578,,,,black_plus_sign,,,null,,,,,,,,,,0.9615384615384616,,,,,,,,,
null,,color_black4,1692681,,,,black_plus_sign,,,null,,,,,,,,,,,,,,,,,,,
null,,learn_phase(without_color)4,1696194,,,,black_plus_sign,,,null,object_14a.png,object_09a.png,,,,,,,,,,,,,,,,,
null,,black_cross(without_color)4,1696982,,,,green,,,null,object_14a.png,object_09a.png,,,,,,,,,,,,,,,,,
null,,rt_plussign_withcolor4,1697484,,,,green,,,null,object_14a.png,object_09a.png,,,,,,,,,,,,,,,,,
783,,rt_thecrossant_black4,1698705,,,,black_plus_sign,,,50,,,1,,,,,,,0.9629629629629629,,,,,,,,,
null,,color_black4,1698808,,,,black_plus_sign,,,null,,,,,,,,,,,,,,,,,,,
null,,learn_phase(without_color)4,1702313,,,,black_plus_sign,,,null,object_14b.png,object_08c.png,,,,,,,,,,,,,,,,,
null,,black_cross(without_color)4,1703404,,,,blue,,,null,object_14b.png,object_08c.png,,,,,,,,,,,,,,,,,
null,,rt_plussign_withcolor4,1703906,,,,blue,,,null,object_14b.png,object_08c.png,,,,,,,,,,,,,,,,,
1023.6000000238419,,rt_thecrossant_black4,1704822,,,,black_plus_sign,,,49,,,1,,,,,,,0.9642857142857143,,,,,,,,,
null,,color_black4,1704926,,,,black_plus_sign,,,null,,,,,,,,,,,,,,,,,,,
null,,learn_phase(without_color)4,1708430,,,,black_plus_sign,,,null,object_10c.png,object_13a.png,,,,,,,,,,,,,,,,,
null,,black_cross(without_color)4,1709071,,,,blue,,,null,object_10c.png,object_13a.png,,,,,,,,,,,,,,,,,
null,,rt_plussign_withcolor4,1709575,,,,blue,,,null,object_10c.png,object_13a.png,,,,,,,,,,,,,,,,,
2524.4000000953674,,rt_thecrossant_black4,1710941,,,,black_plus_sign,,,49,,,1,,,,,,,0.9655172413793104,,,,,,,,,
null,,color_black4,1711044,,,,black_plus_sign,,,null,,,,,,,,,,,,,,,,,,,
null,,thebreak,1711148,,,,<p></p>,,,null,,,,,,,,,,,,,,,,,,,
1480,,intro_0,1712631,,,,instruct,,,32,,,,,,,,,,,,,,,,,,,
3046,,directmemory_phase4,1715680,,,,object_03b.png,,,51,,,1,,object_11a.png,object_04b.png,object_03a.png,object_03a.png,,0.6593406593406593,1,,,,,,,,
4558.300000071526,,directmemory_phase4,1720241,,,,object_10c.png,,,50,,,1,,object_11c.png,object_02a.png,object_08b.png,object_02a.png,,0.6630434782608695,1,,,,,,,,
2276.100000023842,,directmemory_phase4,1722521,,,,object_14c.png,,,50,,,0,,object_15c.png,object_12b.png,object_09a.png,object_15c.png,,0.6559139784946236,0,,,,,,,,
3224.7999999523163,,directmemory_phase4,1725748,,,,object_07c.png,,,51,,,0,,object_01a.png,object_06a.png,object_11a.png,object_06a.png,,0.648936170212766,0,,,,,,,,
2213.399999976158,,directmemory_phase4,1727966,,,,object_10b.png,,,49,,,1,,object_11c.png,object_08a.png,object_12c.png,object_11c.png,,0.6526315789473685,1,,,,,,,,
3232.7000000476837,,directmemory_phase4,1731203,,,,object_15b.png,,,50,,,1,,object_08a.png,object_12a.png,object_15c.png,object_12a.png,,0.65625,1,,,,,,,,
2498.3000000715256,,directmemory_phase4,1733707,,,,object_06b.png,,,49,,,0,,object_06c.png,object_11a.png,object_15b.png,object_11a.png,,0.6494845360824743,0,,,,,,,,
4105.300000071526,,directmemory_phase4,1737815,,,,object_05a.png,,,50,,,0,,object_09c.png,object_02b.png,object_11b.png,object_11b.png,,0.6428571428571429,0,,,,,,,,
2581,,directmemory_phase4,1740400,,,,object_15a.png,,,50,,,1,,object_01a.png,object_09a.png,object_11c.png,object_09a.png,,0.6464646464646465,1,,,,,,,,
5182.599999904633,,directmemory_phase4,1745586,,,,object_07b.png,,,50,,,0,,object_02b.png,object_01a.png,object_15b.png,object_15b.png,,0.64,0,,,,,,,,
2076.7999999523163,,directmemory_phase4,1747667,,,,object_04c.png,,,50,,,0,,object_08a.png,object_05b.png,object_02b.png,object_02b.png,,0.6336633663366337,0,,,,,,,,
2577.7999999523163,,directmemory_phase4,1750249,,,,object_08c.png,,,50,,,0,,object_14b.png,object_09b.png,object_05b.png,object_14b.png,,0.6274509803921569,0,,,,,,,,
3831.9000000953674,,directmemory_phase4,1754084,,,,object_04b.png,,,51,,,1,,object_09a.png,object_10a.png,object_11a.png,object_11a.png,,0.6310679611650486,1,,,,,,,,
3404.5,,directmemory_phase4,1757492,,,,object_13b.png,,,50,,,0,,object_04a.png,object_10c.png,object_12a.png,object_04a.png,,0.625,0,,,,,,,,
3040.600000023842,,directmemory_phase4,1760537,,,,object_14a.png,,,50,,,0,,object_09a.png,object_06a.png,object_05c.png,object_09a.png,,0.6190476190476191,0,,,,,,,,
2160.7999999523163,,directmemory_phase4,1762702,,,,object_13a.png,,,51,,,0,,object_10c.png,object_02b.png,object_12c.png,object_10c.png,,0.6132075471698113,0,,,,,,,,
1990.3000000715256,,directmemory_phase4,1764695,,,,object_02c.png,,,51,,,1,,object_11a.png,object_15a.png,object_03a.png,object_03a.png,,0.616822429906542,1,,,,,,,,
2882.2999999523163,,directmemory_phase4,1767581,,,,object_05b.png,,,50,,,1,,object_15a.png,object_14c.png,object_13c.png,object_14c.png,,0.6203703703703703,1,,,,,,,,
2777.3000000715256,,directmemory_phase4,1770362,,,,object_01c.png,,,49,,,1,,object_05a.png,object_15b.png,object_08c.png,object_05a.png,,0.6238532110091743,1,,,,,,,,
1965.8999999761581,,directmemory_phase4,1772332,,,,object_06a.png,,,51,,,1,,object_03c.png,object_11a.png,object_10a.png,object_10a.png,,0.6272727272727273,1,,,,,,,,
6239.899999976158,,directmemory_phase4,1778576,,,,object_06c.png,,,50,,,0,,object_09b.png,object_10c.png,object_04c.png,object_09b.png,,0.6216216216216216,0,,,,,,,,
3295.899999976158,,directmemory_phase4,1781875,,,,object_02b.png,,,51,,,0,,object_09b.png,object_12b.png,object_13b.png,object_12b.png,,0.6160714285714286,0,,,,,,,,
7291.299999952316,,directmemory_phase4,1789170,,,,object_09b.png,,,49,,,0,,object_10c.png,object_08b.png,object_13b.png,object_08b.png,,0.6106194690265486,0,,,,,,,,
5047.899999976158,,directmemory_phase4,1794223,,,,object_01a.png,,,49,,,0,,object_12c.png,object_13c.png,object_09a.png,object_13c.png,,0.6052631578947368,0,,,,,,,,
4218.199999928474,,directmemory_phase4,1798445,,,,object_03c.png,,,51,,,1,,object_10c.png,object_12a.png,object_08a.png,object_08a.png,,0.6086956521739131,1,,,,,,,,
3560.100000023842,,directmemory_phase4,1802009,,,,object_01b.png,,,51,,,1,,object_11a.png,object_05b.png,object_08a.png,object_08a.png,,0.6120689655172413,1,,,,,,,,
4816,,directmemory_phase4,1806830,,,,object_05c.png,,,49,,,0,,object_03a.png,object_12b.png,object_14b.png,object_14b.png,,0.6068376068376068,0,,,,,,,,
4556.399999976158,,directmemory_phase4,1811391,,,,object_13c.png,,,51,,,1,,object_15c.png,object_11a.png,object_09c.png,object_09c.png,,0.6101694915254238,1,,,,,,,,
2624.2000000476837,,directmemory_phase4,1814019,,,,object_12c.png,,,50,,,0,,object_14b.png,object_13a.png,object_04a.png,object_04a.png,,0.6050420168067226,0,,,,,,,,
4215,,directmemory_phase4,1818239,,,,object_07a.png,,,51,,,0,,object_10a.png,object_11c.png,object_06a.png,object_11c.png,,0.6,0,,,,,,,,
null,,thebreak,1818344,,,,<p></p>,,,null,,,,,,,,,,,,,,,,,,,
5402.600000023842,,intro_0,1823749,,,,instruct,,,32,,,,,,,,,,,,,,,,,,,
20141,,intro_1,1843892,,,,instruct,,,32,,,,,,,,,,,,,,,,,,,
6900.399999976158,,intro_2,1850794,,,,instruct,,,32,,,,,,,,,,,,,,,,,,,
,,intro_3,1892017,,,,instruct,,,,,,,,,,,,,,,,,,,,,,
2904.2999999523163,,intro_4,1894924,,,,instruct,,,32,,,,,,,,,,,,,,,,,,,
null,,thebreak,1895026,,,,<p></p>,,,null,,,,,,,,,,,,,,,,,,,
1709.8999999761581,,intro_0,1896739,,,,instruct,,,32,,,,,,,,,,,,,,,,,,,
10072.200000047684,,intro_1,1906813,,,,instruct,,,32,,,,,,,,,,,,,,,,,,,
1344.8999999761581,,intro_2,1908159,,,,instruct,,,32,,,,,,,,,,,,,,,,,,,
,,intro_3,1915494,,,,instruct,,,,,,,,,,,,,,,,,,,,,,
3051.9000000953674,,intro_4,1918548,,,,instruct,,,32,,,,,,,,,,,,,,,,,,,
12625.199999928474,,inference_phase,1931177,,,,object_10b.png,,,51,object_08a.png,object_04b.png,0,,,,,object_07a.png,,0,,object_07a.png,,,,,,,
4358.099999904633,,inference_phase,1935540,,,,object_12b.png,,,49,object_06c.png,object_10c.png,0,,,,,object_04c.png,,0,,object_04c.png,,,,,,,
5000.199999928474,,inference_phase,1940543,,,,object_02a.png,,,51,object_02c.png,object_13a.png,1,,,,,object_13a.png,,0.3333333333333333,,object_14b.png,,,,,,,
4690.300000071526,,inference_phase,1945237,,,,object_12a.png,,,50,object_06c.png,object_07b.png,0,,,,,object_07b.png,,0.25,,object_08a.png,,,,,,,
4869.399999976158,,inference_phase,1950110,,,,object_07c.png,,,50,object_04a.png,object_10a.png,0,,,,,object_10a.png,,0.2,,object_03b.png,,,,,,,
4346.800000071526,,inference_phase,1954460,,,,object_11b.png,,,50,object_12c.png,object_01c.png,0,,,,,object_01c.png,,0.16666666666666666,,object_15b.png,,,,,,,
2074.7999999523163,,inference_phase,1956538,,,,object_09c.png,,,51,object_07b.png,object_01a.png,1,,,,,object_01a.png,,0.2857142857142857,,object_08a.png,,,,,,,
2165.100000023842,,inference_phase,1958706,,,,object_06c.png,,,51,object_14c.png,object_08b.png,1,,,,,object_08b.png,,0.375,,object_15c.png,,,,,,,
2646.1999999284744,,inference_phase,1961356,,,,object_01b.png,,,49,object_11a.png,object_05c.png,0,,,,,object_03c.png,,0.3333333333333333,,object_03c.png,,,,,,,
1914.5,,inference_phase,1963275,,,,object_06b.png,,,51,object_11c.png,object_03c.png,0,,,,,object_04b.png,,0.3,,object_04b.png,,,,,,,
1906,,inference_phase,1965184,,,,object_12c.png,,,49,object_06a.png,object_08b.png,0,,,,,object_13b.png,,0.2727272727272727,,object_13b.png,,,,,,,
2848,,inference_phase,1968036,,,,object_02c.png,,,49,object_10c.png,object_03b.png,0,,,,,object_03b.png,,0.25,,object_09c.png,,,,,,,
3500.100000023842,,inference_phase,1971540,,,,object_15c.png,,,50,object_07c.png,object_05b.png,0,,,,,object_05b.png,,0.23076923076923078,,object_09b.png,,,,,,,
3971.7000000476837,,inference_phase,1975516,,,,object_14a.png,,,50,object_15a.png,object_06c.png,0,,,,,object_15a.png,,0.21428571428571427,,object_04a.png,,,,,,,
4597.900000095367,,inference_phase,1980117,,,,object_05c.png,,,49,object_01b.png,object_08a.png,0,,,,,object_08c.png,,0.2,,object_08c.png,,,,,,,
,,survey,2125181,,,,survey-questions,,,,,,,,,,,,,,,,none,high,No,Concentration and forming images in my head of the pictures,The trials were almost all similar in difficulty level,No ,It was not easy to remember the learnt images honestly
