rt,responses,trial_type,time_elapsed,identifier_a,identifier_b,identifier_c,tasktype,browser_type,local_time,UTC_time,stimulus,button_pressed,response,key_press,stimulus_left,stimulus_right,accuracy,practice_cumulative_accuracy,stimulus_down_left,stimulus_down_mid,stimulus_down_right,stimulus_correct,prac_weighted_accuracy,cumulative_accuracy,failed_practice,weighted_accuracy,stimulus_middle,problems,smooth,distraction,strategies,easier,similar,comments
11938.29999999702,{worker_id:6526f601bedbae17738408b1},id_enter,11939,object_03b.png; object_13b.png; object_08c.png; object_01a.png; object_09a.png; object_05b.png; object_03c.png; object_04b.png; object_12a.png; object_07a.png; object_13c.png; object_12b.png; object_08b.png; object_09b.png; object_14c.png,object_01b.png; object_07c.png; object_09c.png; object_15b.png; object_02b.png; object_02a.png; object_14a.png; object_11c.png; object_10b.png; object_06c.png; object_15c.png; object_10c.png; object_06a.png; object_04c.png; object_11b.png,object_02c.png; object_07b.png; object_06b.png; object_01c.png; object_10a.png; object_03a.png; object_05a.png; object_04a.png; object_13a.png; object_11a.png; object_05c.png; object_08a.png; object_12c.png; object_14b.png; object_15a.png,interleaved,Mozilla/5.0 (Windows NT 10.0; Win64; x64) AppleWebKit/537.36 (KHTML, like Gecko) Chrome/136.0.0.0 Safari/537.36,5/8/2025, 8:19:56 PM,2025-05-09 00:19:56.187,,,,,,,,,,,,,,,,,,,,,,,,
52869.70000000298,,make_fullscreen,64817,,,,,,,,fullscreen,0,,,,,,,,,,,,,,,,,,,,,,
21039,,instruct_1,85857,,,,,,,,instruct,0,Next,,,,,,,,,,,,,,,,,,,,,
14717.10000000894,,instruct_2,100575,,,,,,,,instruct,1,Next,,,,,,,,,,,,,,,,,,,,,
7742.5,,instruct_3,108318,,,,,,,,instruct,1,Next,,,,,,,,,,,,,,,,,,,,,
29584.20000000298,,instruct_4,137904,,,,,,,,instruct,1,Next,,,,,,,,,,,,,,,,,,,,,
10808,,instruct_5,148712,,,,,,,,instruct,1,Next,,,,,,,,,,,,,,,,,,,,,
4467.100000008941,,instruct_6,153180,,,,,,,,instruct,1,Next,,,,,,,,,,,,,,,,,,,,,
14475.59999999404,,instruct_7,167657,,,,,,,,instruct,1,Next,,,,,,,,,,,,,,,,,,,,,
null,,prac_atten_color_black,168416,,,,,,,,black_plus_sign,,,null,,,,,,,,,,,,,,,,,,,,
null,,prac_atten_color,169062,,,,,,,,<p style='position:absolute;top: 50%;right: 50%;transform: translate(50%, -50%);font-size: 125px;color: blue;'>+</p>,,,null,,,,,,,,,,,,,,,,,,,,
null,,prac_atten_color_black,171064,,,,,,,,black_plus_sign,,,null,,,,,,,,,,,,,,,,,,,,
8172.5999999940395,,attentioncheck_help,179237,,,,,,,,instruct,,,32,,,,,,,,,,,,,,,,,,,,
null,,prac_atten_color_black,179994,,,,,,,,black_plus_sign,,,null,,,,,,,,,,,,,,,,,,,,
null,,prac_atten_color,180421,,,,,,,,<p style='position:absolute;top: 50%;right: 50%;transform: translate(50%, -50%);font-size: 125px;color: green;'>+</p>,,,null,,,,,,,,,,,,,,,,,,,,
null,,prac_atten_color_black,182422,,,,,,,,black_plus_sign,,,null,,,,,,,,,,,,,,,,,,,,
8641.5,,attentioncheck_help,191065,,,,,,,,instruct,,,32,,,,,,,,,,,,,,,,,,,,
null,,prac_atten_color_black,192039,,,,,,,,black_plus_sign,,,null,,,,,,,,,,,,,,,,,,,,
null,,prac_atten_color,192691,,,,,,,,<p style='position:absolute;top: 50%;right: 50%;transform: translate(50%, -50%);font-size: 125px;color: green;'>+</p>,,,null,,,,,,,,,,,,,,,,,,,,
1277.8999999910593,,prac_atten_color_black,194692,,,,,,,,black_plus_sign,,,50,,,,,,,,,,,,,,,,,,,,
null,,prac_atten_color_black,195445,,,,,,,,black_plus_sign,,,null,,,,,,,,,,,,,,,,,,,,
null,,prac_atten_color,196058,,,,,,,,<p style='position:absolute;top: 50%;right: 50%;transform: translate(50%, -50%);font-size: 125px;color: blue;'>+</p>,,,null,,,,,,,,,,,,,,,,,,,,
1231.5999999940395,,prac_atten_color_black,198059,,,,,,,,black_plus_sign,,,49,,,,,,,,,,,,,,,,,,,,
null,,prac_atten_color_black,198850,,,,,,,,black_plus_sign,,,null,,,,,,,,,,,,,,,,,,,,
null,,prac_atten_color,199436,,,,,,,,<p style='position:absolute;top: 50%;right: 50%;transform: translate(50%, -50%);font-size: 125px;color: green;'>+</p>,,,null,,,,,,,,,,,,,,,,,,,,
217,,prac_atten_color_black,201438,,,,,,,,black_plus_sign,,,50,,,,,,,,,,,,,,,,,,,,
null,,prac_atten_color_black,202255,,,,,,,,black_plus_sign,,,null,,,,,,,,,,,,,,,,,,,,
null,,prac_atten_color,203078,,,,,,,,<p style='position:absolute;top: 50%;right: 50%;transform: translate(50%, -50%);font-size: 125px;color: green;'>+</p>,,,null,,,,,,,,,,,,,,,,,,,,
371.90000000596046,,prac_atten_color_black,205078,,,,,,,,black_plus_sign,,,50,,,,,,,,,,,,,,,,,,,,
null,,prac_atten_color_black,205657,,,,,,,,black_plus_sign,,,null,,,,,,,,,,,,,,,,,,,,
726.9000000059605,,prac_atten_color,206657,,,,,,,,<p style='position:absolute;top: 50%;right: 50%;transform: translate(50%, -50%);font-size: 125px;color: blue;'>+</p>,,,49,,,,,,,,,,,,,,,,,,,,
null,,prac_atten_color_black,208658,,,,,,,,black_plus_sign,,,null,,,,,,,,,,,,,,,,,,,,
null,,prac_atten_color_black,209062,,,,,,,,black_plus_sign,,,null,,,,,,,,,,,,,,,,,,,,
545.2000000029802,,prac_atten_color,209799,,,,,,,,<p style='position:absolute;top: 50%;right: 50%;transform: translate(50%, -50%);font-size: 125px;color: green;'>+</p>,,,50,,,,,,,,,,,,,,,,,,,,
null,,prac_atten_color_black,211801,,,,,,,,black_plus_sign,,,null,,,,,,,,,,,,,,,,,,,,
null,,prac_atten_color_black,212469,,,,,,,,black_plus_sign,,,null,,,,,,,,,,,,,,,,,,,,
null,,prac_atten_color,212875,,,,,,,,<p style='position:absolute;top: 50%;right: 50%;transform: translate(50%, -50%);font-size: 125px;color: blue;'>+</p>,,,null,,,,,,,,,,,,,,,,,,,,
235.20000000298023,,prac_atten_color_black,214876,,,,,,,,black_plus_sign,,,49,,,,,,,,,,,,,,,,,,,,
null,,prac_atten_color_black,215874,,,,,,,,black_plus_sign,,,null,,,,,,,,,,,,,,,,,,,,
null,,prac_atten_color,216392,,,,,,,,<p style='position:absolute;top: 50%;right: 50%;transform: translate(50%, -50%);font-size: 125px;color: blue;'>+</p>,,,null,,,,,,,,,,,,,,,,,,,,
82.70000000298023,,prac_atten_color_black,218393,,,,,,,,black_plus_sign,,,49,,,,,,,,,,,,,,,,,,,,
7038,,attentioncheck_feedback,225432,,,,,,,,cross_check_feedback,0,,,,,,,,,,,,,,,,,,,,,,
21107.89999999106,,last_instruct,246541,,,,,,,,instruct,,,32,,,,,,,,,,,,,,,,,,,,
null,,prac_learn_phase(without_color),250042,,,,,,,,black_plus_sign,,,null,object_01a.png,object_15b.png,,,,,,,,,,,,,,,,,,
null,,prac_black_cross(without_color),250774,,,,,,,,green,,,null,object_01a.png,object_15b.png,,,,,,,,,,,,,,,,,,
null,,prac_rt_plussign_withcolor,251275,,,,,,,,green,,,null,object_01a.png,object_15b.png,,,,,,,,,,,,,,,,,,
2381.7000000029802,,prac_rt_thecrossant_black,252546,,,,,,,,black_plus_sign,,,50,,,1,1,,,,,,,,,,,,,,,,
null,,prac_color_black,252649,,,,,,,,black_plus_sign,,,null,,,,,,,,,,,,,,,,,,,,
null,,prac_learn_phase(without_color),256151,,,,,,,,black_plus_sign,,,null,object_07b.png,object_07c.png,,,,,,,,,,,,,,,,,,
null,,black_cross(without_color)1,257252,,,,,,,,blue,,,null,object_01a.png,object_15b.png,,,,,,,,,,,,,,,,,,
null,,prac_rt_plussign_withcolor,257753,,,,,,,,green,,,null,object_07b.png,object_07c.png,,,,,,,,,,,,,,,,,,
754,,prac_rt_thecrossant_black,259082,,,,,,,,black_plus_sign,,,50,,,1,1,,,,,,,,,,,,,,,,
null,,prac_color_black,259184,,,,,,,,black_plus_sign,,,null,,,,,,,,,,,,,,,,,,,,
null,,prac_learn_phase(without_color),262685,,,,,,,,black_plus_sign,,,null,object_05c.png,object_15c.png,,,,,,,,,,,,,,,,,,
null,,black_cross(without_color)1,263787,,,,,,,,blue,,,null,object_01a.png,object_15b.png,,,,,,,,,,,,,,,,,,
null,,prac_rt_plussign_withcolor,264288,,,,,,,,green,,,null,object_05c.png,object_15c.png,,,,,,,,,,,,,,,,,,
1062.5,,prac_rt_thecrossant_black,265525,,,,,,,,black_plus_sign,,,50,,,1,1,,,,,,,,,,,,,,,,
null,,prac_color_black,265626,,,,,,,,black_plus_sign,,,null,,,,,,,,,,,,,,,,,,,,
null,,prac_learn_phase(without_color),269127,,,,,,,,black_plus_sign,,,null,object_03a.png,object_02a.png,,,,,,,,,,,,,,,,,,
null,,black_cross(without_color)1,270228,,,,,,,,blue,,,null,object_01a.png,object_15b.png,,,,,,,,,,,,,,,,,,
null,,prac_rt_plussign_withcolor,270729,,,,,,,,green,,,null,object_03a.png,object_02a.png,,,,,,,,,,,,,,,,,,
1050.9000000059605,,prac_rt_thecrossant_black,271770,,,,,,,,black_plus_sign,,,50,,,1,1,,,,,,,,,,,,,,,,
null,,prac_color_black,271872,,,,,,,,black_plus_sign,,,null,,,,,,,,,,,,,,,,,,,,
12252.60000000894,,instruct_dir_01,284125,,,,,,,,instruct,0,Next,,,,,,,,,,,,,,,,,,,,,
7304.300000011921,,instruct_dir_2,291430,,,,,,,,instruct,1,Next,,,,,,,,,,,,,,,,,,,,,
5647.600000008941,,instruct_dir_3,297079,,,,,,,,instruct,1,Next,,,,,,,,,,,,,,,,,,,,,
10486.29999999702,,instruct_dir_4,307566,,,,,,,,instruct,1,Start,,,,,,,,,,,,,,,,,,,,,
null,,thebreak,307667,,,,,,,,<p></p>,,,null,,,,,,,,,,,,,,,,,,,,
1402.300000011921,,intro_0,309070,,,,,,,,instruct,,,32,,,,,,,,,,,,,,,,,,,,
9801.59999999404,,prac_directmemory_phase,318872,,,,,,,,practice/object_01a.png,,,49,,,0,,practice/object_04a.png,practice/object_01b.png,practice/object_02b.png,practice/object_01b.png,0,0,,,,,,,,,,
4739.79999999702,,prac_directmemory_phase,323615,,,,,,,,practice/object_02a.png,,,50,,,0,,practice/object_02b.png,practice/object_03b.png,practice/object_01a.png,practice/object_02b.png,0,0,,,,,,,,,,
8213.70000000298,,prac_directmemory_phase,331829,,,,,,,,practice/object_03a.png,,,51,,,1,,practice/object_01b.png,practice/object_04a.png,practice/object_03b.png,practice/object_03b.png,1,0.3333333333333333,,,,,,,,,,
167.30000001192093,,prac_directmemory_phase,331998,,,,,,,,practice/object_04a.png,,,51,,,0,,practice/object_01a.png,practice/object_04b.png,practice/object_02b.png,practice/object_04b.png,0,0.25,,,,,,,,,,
4226.0999999940395,,practice_feedback_force_restart,336225,,,,,,,,practice_feedback,0,,,,,,,,,,,,,1,,,,,,,,,
5002.29999999702,,last_instruct,341228,,,,,,,,instruct,,,32,,,,,,,,,,,,,,,,,,,,
null,,prac_learn_phase(without_color),344729,,,,,,,,black_plus_sign,,,null,object_01a.png,object_15b.png,,,,,,,,,,,,,,,,,,
null,,prac_black_cross(without_color),345551,,,,,,,,green,,,null,object_01a.png,object_15b.png,,,,,,,,,,,,,,,,,,
null,,prac_rt_plussign_withcolor,346053,,,,,,,,green,,,null,object_01a.png,object_15b.png,,,,,,,,,,,,,,,,,,
1151.7999999970198,,prac_rt_thecrossant_black,347232,,,,,,,,black_plus_sign,,,50,,,1,1,,,,,,,,,,,,,,,,
null,,prac_color_black,347334,,,,,,,,black_plus_sign,,,null,,,,,,,,,,,,,,,,,,,,
null,,prac_learn_phase(without_color),350836,,,,,,,,black_plus_sign,,,null,object_07b.png,object_07c.png,,,,,,,,,,,,,,,,,,
null,,black_cross(without_color)1,351937,,,,,,,,blue,,,null,object_01a.png,object_15b.png,,,,,,,,,,,,,,,,,,
478.5,,prac_rt_plussign_withcolor,352439,,,,,,,,green,,,50,object_07b.png,object_07c.png,,,,,,,,,,,,,,,,,,
null,,prac_rt_thecrossant_black,353667,,,,,,,,black_plus_sign,,,null,,,1,1,,,,,,,,,,,,,,,,
null,,prac_color_black,353769,,,,,,,,black_plus_sign,,,null,,,,,,,,,,,,,,,,,,,,
null,,prac_learn_phase(without_color),357270,,,,,,,,black_plus_sign,,,null,object_05c.png,object_15c.png,,,,,,,,,,,,,,,,,,
null,,black_cross(without_color)1,358371,,,,,,,,blue,,,null,object_01a.png,object_15b.png,,,,,,,,,,,,,,,,,,
null,,prac_rt_plussign_withcolor,358872,,,,,,,,green,,,null,object_05c.png,object_15c.png,,,,,,,,,,,,,,,,,,
890.2000000029802,,prac_rt_thecrossant_black,359855,,,,,,,,black_plus_sign,,,50,,,1,1,,,,,,,,,,,,,,,,
null,,prac_color_black,359956,,,,,,,,black_plus_sign,,,null,,,,,,,,,,,,,,,,,,,,
null,,prac_learn_phase(without_color),363457,,,,,,,,black_plus_sign,,,null,object_03a.png,object_02a.png,,,,,,,,,,,,,,,,,,
null,,black_cross(without_color)1,364559,,,,,,,,blue,,,null,object_01a.png,object_15b.png,,,,,,,,,,,,,,,,,,
null,,prac_rt_plussign_withcolor,365060,,,,,,,,green,,,null,object_03a.png,object_02a.png,,,,,,,,,,,,,,,,,,
1224.2000000029802,,prac_rt_thecrossant_black,366177,,,,,,,,black_plus_sign,,,50,,,1,1,,,,,,,,,,,,,,,,
null,,prac_color_black,366279,,,,,,,,black_plus_sign,,,null,,,,,,,,,,,,,,,,,,,,
3159,,instruct_dir_01,369439,,,,,,,,instruct,0,Next,,,,,,,,,,,,,,,,,,,,,
2609.3999999910593,,instruct_dir_2,372049,,,,,,,,instruct,1,Next,,,,,,,,,,,,,,,,,,,,,
4050.199999988079,,instruct_dir_3,376100,,,,,,,,instruct,1,Next,,,,,,,,,,,,,,,,,,,,,
8912.20000000298,,instruct_dir_4,385013,,,,,,,,instruct,1,Start,,,,,,,,,,,,,,,,,,,,,
null,,thebreak,385114,,,,,,,,<p></p>,,,null,,,,,,,,,,,,,,,,,,,,
1399.3999999910593,,intro_0,386514,,,,,,,,instruct,,,32,,,,,,,,,,,,,,,,,,,,
7433.29999999702,,prac_directmemory_phase,393948,,,,,,,,practice/object_01a.png,,,51,,,0,,practice/object_04a.png,practice/object_01b.png,practice/object_02b.png,practice/object_01b.png,0,0,,,,,,,,,,
13163.70000000298,,prac_directmemory_phase,407112,,,,,,,,practice/object_02a.png,,,49,,,1,,practice/object_02b.png,practice/object_03b.png,practice/object_01a.png,practice/object_02b.png,1,0.5,,,,,,,,,,
3132.4000000059605,,prac_directmemory_phase,410246,,,,,,,,practice/object_03a.png,,,51,,,1,,practice/object_01b.png,practice/object_04a.png,practice/object_03b.png,practice/object_03b.png,1,0.6666666666666666,,,,,,,,,,
3288,,prac_directmemory_phase,413535,,,,,,,,practice/object_04a.png,,,50,,,1,,practice/object_01a.png,practice/object_04b.png,practice/object_02b.png,practice/object_04b.png,1,0.75,,,,,,,,,,
5508.20000000298,,practice_feedback,419044,,,,,,,,practice_feedback,1,,,,,,,,,,,,,,,,,,,,,,
8833.29999999702,,proceed_actualTask,427878,,,,,,,,proceed_actualTask,1,Continue,,,,,,,,,,,,,,,,,,,,,
23435.10000000894,,last_inst,451313,,,,,,,,last_inst,,,32,,,,,,,,,,,,,,,,,,,,
null,,learn_phase(without_color)1,454815,,,,,,,,black_plus_sign,,,null,object_01a.png,object_15b.png,,,,,,,,,,,,,,,,,,
null,,black_cross(without_color)1,455916,,,,,,,,blue,,,null,object_01a.png,object_15b.png,,,,,,,,,,,,,,,,,,
null,,rt_plussign_withcolor1,456417,,,,,,,,blue,,,null,object_01a.png,object_15b.png,,,,,,,,,,,,,,,,,,
1582,,rt_thecrossant_black1,457318,,,,,,,,black_plus_sign,,,49,,,1,,,,,,,1,,,,,,,,,,
null,,color_black1,457421,,,,,,,,black_plus_sign,,,null,,,,,,,,,,,,,,,,,,,,
null,,learn_phase(without_color)1,460923,,,,,,,,black_plus_sign,,,null,object_07b.png,object_07c.png,,,,,,,,,,,,,,,,,,
null,,black_cross(without_color)1,461459,,,,,,,,green,,,null,object_07b.png,object_07c.png,,,,,,,,,,,,,,,,,,
null,,rt_plussign_withcolor1,461961,,,,,,,,green,,,null,object_07b.png,object_07c.png,,,,,,,,,,,,,,,,,,
1161.2000000029802,,rt_thecrossant_black1,463429,,,,,,,,black_plus_sign,,,50,,,1,,,,,,,1,,,,,,,,,,
null,,color_black1,463530,,,,,,,,black_plus_sign,,,null,,,,,,,,,,,,,,,,,,,,
null,,learn_phase(without_color)1,467031,,,,,,,,black_plus_sign,,,null,object_05c.png,object_15c.png,,,,,,,,,,,,,,,,,,
null,,black_cross(without_color)1,468037,,,,,,,,green,,,null,object_05c.png,object_15c.png,,,,,,,,,,,,,,,,,,
null,,rt_plussign_withcolor1,468539,,,,,,,,green,,,null,object_05c.png,object_15c.png,,,,,,,,,,,,,,,,,,
827.7999999970198,,rt_thecrossant_black1,469537,,,,,,,,black_plus_sign,,,50,,,1,,,,,,,1,,,,,,,,,,
null,,color_black1,469639,,,,,,,,black_plus_sign,,,null,,,,,,,,,,,,,,,,,,,,
null,,learn_phase(without_color)1,473142,,,,,,,,black_plus_sign,,,null,object_03a.png,object_02a.png,,,,,,,,,,,,,,,,,,
null,,black_cross(without_color)1,474029,,,,,,,,blue,,,null,object_03a.png,object_02a.png,,,,,,,,,,,,,,,,,,
null,,rt_plussign_withcolor1,474530,,,,,,,,blue,,,null,object_03a.png,object_02a.png,,,,,,,,,,,,,,,,,,
1354,,rt_thecrossant_black1,475646,,,,,,,,black_plus_sign,,,49,,,1,,,,,,,1,,,,,,,,,,
null,,color_black1,475747,,,,,,,,black_plus_sign,,,null,,,,,,,,,,,,,,,,,,,,
null,,learn_phase(without_color)1,479248,,,,,,,,black_plus_sign,,,null,object_03b.png,object_01b.png,,,,,,,,,,,,,,,,,,
null,,black_cross(without_color)1,480037,,,,,,,,green,,,null,object_03b.png,object_01b.png,,,,,,,,,,,,,,,,,,
null,,rt_plussign_withcolor1,480539,,,,,,,,green,,,null,object_03b.png,object_01b.png,,,,,,,,,,,,,,,,,,
2084.3999999910593,,rt_thecrossant_black1,481754,,,,,,,,black_plus_sign,,,50,,,1,,,,,,,1,,,,,,,,,,
null,,color_black1,481857,,,,,,,,black_plus_sign,,,null,,,,,,,,,,,,,,,,,,,,
null,,learn_phase(without_color)1,485358,,,,,,,,black_plus_sign,,,null,object_08c.png,object_09c.png,,,,,,,,,,,,,,,,,,
null,,black_cross(without_color)1,486220,,,,,,,,green,,,null,object_08c.png,object_09c.png,,,,,,,,,,,,,,,,,,
null,,rt_plussign_withcolor1,486721,,,,,,,,green,,,null,object_08c.png,object_09c.png,,,,,,,,,,,,,,,,,,
1634.199999988079,,rt_thecrossant_black1,487863,,,,,,,,black_plus_sign,,,50,,,1,,,,,,,1,,,,,,,,,,
null,,color_black1,487966,,,,,,,,black_plus_sign,,,null,,,,,,,,,,,,,,,,,,,,
null,,learn_phase(without_color)1,491468,,,,,,,,black_plus_sign,,,null,object_07a.png,object_06c.png,,,,,,,,,,,,,,,,,,
null,,black_cross(without_color)1,491882,,,,,,,,blue,,,null,object_07a.png,object_06c.png,,,,,,,,,,,,,,,,,,
null,,rt_plussign_withcolor1,492383,,,,,,,,blue,,,null,object_07a.png,object_06c.png,,,,,,,,,,,,,,,,,,
1916.800000011921,,rt_thecrossant_black1,493972,,,,,,,,black_plus_sign,,,49,,,1,,,,,,,1,,,,,,,,,,
null,,color_black1,494073,,,,,,,,black_plus_sign,,,null,,,,,,,,,,,,,,,,,,,,
null,,learn_phase(without_color)1,497576,,,,,,,,black_plus_sign,,,null,object_05b.png,object_02a.png,,,,,,,,,,,,,,,,,,
null,,black_cross(without_color)1,498222,,,,,,,,blue,,,null,object_05b.png,object_02a.png,,,,,,,,,,,,,,,,,,
null,,rt_plussign_withcolor1,498724,,,,,,,,blue,,,null,object_05b.png,object_02a.png,,,,,,,,,,,,,,,,,,
968.5,,rt_thecrossant_black1,500081,,,,,,,,black_plus_sign,,,49,,,1,,,,,,,1,,,,,,,,,,
null,,color_black1,500183,,,,,,,,black_plus_sign,,,null,,,,,,,,,,,,,,,,,,,,
null,,learn_phase(without_color)1,503685,,,,,,,,black_plus_sign,,,null,object_02b.png,object_09a.png,,,,,,,,,,,,,,,,,,
null,,black_cross(without_color)1,504579,,,,,,,,green,,,null,object_02b.png,object_09a.png,,,,,,,,,,,,,,,,,,
null,,rt_plussign_withcolor1,505083,,,,,,,,green,,,null,object_02b.png,object_09a.png,,,,,,,,,,,,,,,,,,
1604.9000000059605,,rt_thecrossant_black1,506192,,,,,,,,black_plus_sign,,,50,,,1,,,,,,,1,,,,,,,,,,
null,,color_black1,506294,,,,,,,,black_plus_sign,,,null,,,,,,,,,,,,,,,,,,,,
null,,learn_phase(without_color)1,509796,,,,,,,,black_plus_sign,,,null,object_08b.png,object_06a.png,,,,,,,,,,,,,,,,,,
null,,black_cross(without_color)1,510251,,,,,,,,green,,,null,object_08b.png,object_06a.png,,,,,,,,,,,,,,,,,,
null,,rt_plussign_withcolor1,510753,,,,,,,,green,,,null,object_08b.png,object_06a.png,,,,,,,,,,,,,,,,,,
1996.6000000089407,,rt_thecrossant_black1,512301,,,,,,,,black_plus_sign,,,50,,,1,,,,,,,1,,,,,,,,,,
null,,color_black1,512404,,,,,,,,black_plus_sign,,,null,,,,,,,,,,,,,,,,,,,,
null,,learn_phase(without_color)1,515905,,,,,,,,black_plus_sign,,,null,object_14a.png,object_03c.png,,,,,,,,,,,,,,,,,,
null,,black_cross(without_color)1,516669,,,,,,,,blue,,,null,object_14a.png,object_03c.png,,,,,,,,,,,,,,,,,,
null,,rt_plussign_withcolor1,517171,,,,,,,,blue,,,null,object_14a.png,object_03c.png,,,,,,,,,,,,,,,,,,
881.4000000059605,,rt_thecrossant_black1,518411,,,,,,,,black_plus_sign,,,49,,,1,,,,,,,1,,,,,,,,,,
null,,color_black1,518512,,,,,,,,black_plus_sign,,,null,,,,,,,,,,,,,,,,,,,,
null,,learn_phase(without_color)1,522014,,,,,,,,black_plus_sign,,,null,object_11b.png,object_15a.png,,,,,,,,,,,,,,,,,,
null,,black_cross(without_color)1,522699,,,,,,,,blue,,,null,object_11b.png,object_15a.png,,,,,,,,,,,,,,,,,,
null,,rt_plussign_withcolor1,523200,,,,,,,,blue,,,null,object_11b.png,object_15a.png,,,,,,,,,,,,,,,,,,
1267.7999999970198,,rt_thecrossant_black1,524519,,,,,,,,black_plus_sign,,,49,,,1,,,,,,,1,,,,,,,,,,
null,,color_black1,524622,,,,,,,,black_plus_sign,,,null,,,,,,,,,,,,,,,,,,,,
null,,learn_phase(without_color)1,528125,,,,,,,,black_plus_sign,,,null,object_02c.png,object_01b.png,,,,,,,,,,,,,,,,,,
null,,black_cross(without_color)1,528771,,,,,,,,green,,,null,object_02c.png,object_01b.png,,,,,,,,,,,,,,,,,,
null,,rt_plussign_withcolor1,529273,,,,,,,,green,,,null,object_02c.png,object_01b.png,,,,,,,,,,,,,,,,,,
null,,rt_thecrossant_black1,530631,,,,,,,,black_plus_sign,,,null,,,,,,,,,,1,,,,,,,,,,
null,,color_black1,530733,,,,,,,,black_plus_sign,,,null,,,,,,,,,,,,,,,,,,,,
null,,learn_phase(without_color)1,534234,,,,,,,,black_plus_sign,,,null,object_14b.png,object_04c.png,,,,,,,,,,,,,,,,,,
null,,black_cross(without_color)1,534801,,,,,,,,blue,,,null,object_14b.png,object_04c.png,,,,,,,,,,,,,,,,,,
null,,rt_plussign_withcolor1,535302,,,,,,,,blue,,,null,object_14b.png,object_04c.png,,,,,,,,,,,,,,,,,,
1418.2000000029802,,rt_thecrossant_black1,536738,,,,,,,,black_plus_sign,,,49,,,1,,,,,,,1,,,,,,,,,,
null,,color_black1,536840,,,,,,,,black_plus_sign,,,null,,,,,,,,,,,,,,,,,,,,
null,,learn_phase(without_color)1,540343,,,,,,,,black_plus_sign,,,null,object_12c.png,object_06a.png,,,,,,,,,,,,,,,,,,
null,,black_cross(without_color)1,541399,,,,,,,,blue,,,null,object_12c.png,object_06a.png,,,,,,,,,,,,,,,,,,
null,,rt_plussign_withcolor1,541902,,,,,,,,blue,,,null,object_12c.png,object_06a.png,,,,,,,,,,,,,,,,,,
1080.2000000029802,,rt_thecrossant_black1,542849,,,,,,,,black_plus_sign,,,49,,,1,,,,,,,1,,,,,,,,,,
null,,color_black1,542950,,,,,,,,black_plus_sign,,,null,,,,,,,,,,,,,,,,,,,,
null,,learn_phase(without_color)1,546453,,,,,,,,black_plus_sign,,,null,object_10b.png,object_13a.png,,,,,,,,,,,,,,,,,,
null,,black_cross(without_color)1,547503,,,,,,,,blue,,,null,object_10b.png,object_13a.png,,,,,,,,,,,,,,,,,,
null,,rt_plussign_withcolor1,548005,,,,,,,,blue,,,null,object_10b.png,object_13a.png,,,,,,,,,,,,,,,,,,
1543,,rt_thecrossant_black1,548959,,,,,,,,black_plus_sign,,,49,,,1,,,,,,,1,,,,,,,,,,
null,,color_black1,549061,,,,,,,,black_plus_sign,,,null,,,,,,,,,,,,,,,,,,,,
null,,learn_phase(without_color)1,552563,,,,,,,,black_plus_sign,,,null,object_11c.png,object_04a.png,,,,,,,,,,,,,,,,,,
null,,black_cross(without_color)1,553538,,,,,,,,green,,,null,object_11c.png,object_04a.png,,,,,,,,,,,,,,,,,,
null,,rt_plussign_withcolor1,554040,,,,,,,,green,,,null,object_11c.png,object_04a.png,,,,,,,,,,,,,,,,,,
1285.8999999910593,,rt_thecrossant_black1,555069,,,,,,,,black_plus_sign,,,50,,,1,,,,,,,1,,,,,,,,,,
null,,color_black1,555171,,,,,,,,black_plus_sign,,,null,,,,,,,,,,,,,,,,,,,,
null,,learn_phase(without_color)1,558674,,,,,,,,black_plus_sign,,,null,object_12b.png,object_10c.png,,,,,,,,,,,,,,,,,,
null,,black_cross(without_color)1,559769,,,,,,,,blue,,,null,object_12b.png,object_10c.png,,,,,,,,,,,,,,,,,,
null,,rt_plussign_withcolor1,560271,,,,,,,,blue,,,null,object_12b.png,object_10c.png,,,,,,,,,,,,,,,,,,
1597.7000000029802,,rt_thecrossant_black1,561182,,,,,,,,black_plus_sign,,,49,,,1,,,,,,,1,,,,,,,,,,
null,,color_black1,561284,,,,,,,,black_plus_sign,,,null,,,,,,,,,,,,,,,,,,,,
null,,learn_phase(without_color)1,564786,,,,,,,,black_plus_sign,,,null,object_13c.png,object_15c.png,,,,,,,,,,,,,,,,,,
null,,black_cross(without_color)1,565228,,,,,,,,green,,,null,object_13c.png,object_15c.png,,,,,,,,,,,,,,,,,,
null,,rt_plussign_withcolor1,565730,,,,,,,,green,,,null,object_13c.png,object_15c.png,,,,,,,,,,,,,,,,,,
1883.2000000029802,,rt_thecrossant_black1,567292,,,,,,,,black_plus_sign,,,50,,,1,,,,,,,1,,,,,,,,,,
null,,color_black1,567394,,,,,,,,black_plus_sign,,,null,,,,,,,,,,,,,,,,,,,,
null,,learn_phase(without_color)1,570896,,,,,,,,black_plus_sign,,,null,object_09c.png,object_06b.png,,,,,,,,,,,,,,,,,,
null,,black_cross(without_color)1,571641,,,,,,,,green,,,null,object_09c.png,object_06b.png,,,,,,,,,,,,,,,,,,
null,,rt_plussign_withcolor1,572144,,,,,,,,green,,,null,object_09c.png,object_06b.png,,,,,,,,,,,,,,,,,,
874.8000000119209,,rt_thecrossant_black1,573403,,,,,,,,black_plus_sign,,,50,,,1,,,,,,,1,,,,,,,,,,
null,,color_black1,573504,,,,,,,,black_plus_sign,,,null,,,,,,,,,,,,,,,,,,,,
null,,learn_phase(without_color)1,577007,,,,,,,,black_plus_sign,,,null,object_02b.png,object_10a.png,,,,,,,,,,,,,,,,,,
null,,black_cross(without_color)1,577507,,,,,,,,blue,,,null,object_02b.png,object_10a.png,,,,,,,,,,,,,,,,,,
null,,rt_plussign_withcolor1,578009,,,,,,,,blue,,,null,object_02b.png,object_10a.png,,,,,,,,,,,,,,,,,,
1467.0999999940395,,rt_thecrossant_black1,579514,,,,,,,,black_plus_sign,,,49,,,1,,,,,,,1,,,,,,,,,,
null,,color_black1,579615,,,,,,,,black_plus_sign,,,null,,,,,,,,,,,,,,,,,,,,
null,,learn_phase(without_color)1,583117,,,,,,,,black_plus_sign,,,null,object_04c.png,object_09b.png,,,,,,,,,,,,,,,,,,
null,,black_cross(without_color)1,583873,,,,,,,,green,,,null,object_04c.png,object_09b.png,,,,,,,,,,,,,,,,,,
null,,rt_plussign_withcolor1,584377,,,,,,,,green,,,null,object_04c.png,object_09b.png,,,,,,,,,,,,,,,,,,
1343.2999999970198,,rt_thecrossant_black1,585624,,,,,,,,black_plus_sign,,,50,,,1,,,,,,,1,,,,,,,,,,
null,,color_black1,585726,,,,,,,,black_plus_sign,,,null,,,,,,,,,,,,,,,,,,,,
null,,learn_phase(without_color)1,589228,,,,,,,,black_plus_sign,,,null,object_14c.png,object_11b.png,,,,,,,,,,,,,,,,,,
null,,black_cross(without_color)1,589983,,,,,,,,blue,,,null,object_14c.png,object_11b.png,,,,,,,,,,,,,,,,,,
null,,rt_plussign_withcolor1,590485,,,,,,,,blue,,,null,object_14c.png,object_11b.png,,,,,,,,,,,,,,,,,,
1245.8999999910593,,rt_thecrossant_black1,591733,,,,,,,,black_plus_sign,,,49,,,1,,,,,,,1,,,,,,,,,,
null,,color_black1,591835,,,,,,,,black_plus_sign,,,null,,,,,,,,,,,,,,,,,,,,
null,,learn_phase(without_color)1,595337,,,,,,,,black_plus_sign,,,null,object_08a.png,object_10c.png,,,,,,,,,,,,,,,,,,
null,,black_cross(without_color)1,595806,,,,,,,,blue,,,null,object_08a.png,object_10c.png,,,,,,,,,,,,,,,,,,
null,,rt_plussign_withcolor1,596307,,,,,,,,blue,,,null,object_08a.png,object_10c.png,,,,,,,,,,,,,,,,,,
1367.5,,rt_thecrossant_black1,597843,,,,,,,,black_plus_sign,,,49,,,1,,,,,,,1,,,,,,,,,,
null,,color_black1,597946,,,,,,,,black_plus_sign,,,null,,,,,,,,,,,,,,,,,,,,
null,,learn_phase(without_color)1,601449,,,,,,,,black_plus_sign,,,null,object_10b.png,object_12a.png,,,,,,,,,,,,,,,,,,
null,,black_cross(without_color)1,602226,,,,,,,,green,,,null,object_10b.png,object_12a.png,,,,,,,,,,,,,,,,,,
null,,rt_plussign_withcolor1,602727,,,,,,,,green,,,null,object_10b.png,object_12a.png,,,,,,,,,,,,,,,,,,
1301.699999988079,,rt_thecrossant_black1,603954,,,,,,,,black_plus_sign,,,50,,,1,,,,,,,1,,,,,,,,,,
null,,color_black1,604057,,,,,,,,black_plus_sign,,,null,,,,,,,,,,,,,,,,,,,,
null,,learn_phase(without_color)1,607559,,,,,,,,black_plus_sign,,,null,object_04b.png,object_11c.png,,,,,,,,,,,,,,,,,,
null,,black_cross(without_color)1,608246,,,,,,,,blue,,,null,object_04b.png,object_11c.png,,,,,,,,,,,,,,,,,,
null,,rt_plussign_withcolor1,608747,,,,,,,,blue,,,null,object_04b.png,object_11c.png,,,,,,,,,,,,,,,,,,
1366.0999999940395,,rt_thecrossant_black1,610064,,,,,,,,black_plus_sign,,,50,,,0,,,,,,,0.96,,,,,,,,,,
null,,color_black1,610166,,,,,,,,black_plus_sign,,,null,,,,,,,,,,,,,,,,,,,,
null,,learn_phase(without_color)1,613668,,,,,,,,black_plus_sign,,,null,object_07c.png,object_13b.png,,,,,,,,,,,,,,,,,,
null,,black_cross(without_color)1,614491,,,,,,,,blue,,,null,object_07c.png,object_13b.png,,,,,,,,,,,,,,,,,,
null,,rt_plussign_withcolor1,614993,,,,,,,,blue,,,null,object_07c.png,object_13b.png,,,,,,,,,,,,,,,,,,
1062.5,,rt_thecrossant_black1,616175,,,,,,,,black_plus_sign,,,49,,,1,,,,,,,0.9615384615384616,,,,,,,,,,
null,,color_black1,616278,,,,,,,,black_plus_sign,,,null,,,,,,,,,,,,,,,,,,,,
null,,learn_phase(without_color)1,619781,,,,,,,,black_plus_sign,,,null,object_01c.png,object_15b.png,,,,,,,,,,,,,,,,,,
null,,black_cross(without_color)1,620759,,,,,,,,blue,,,null,object_01c.png,object_15b.png,,,,,,,,,,,,,,,,,,
null,,rt_plussign_withcolor1,621261,,,,,,,,blue,,,null,object_01c.png,object_15b.png,,,,,,,,,,,,,,,,,,
1164,,rt_thecrossant_black1,622286,,,,,,,,black_plus_sign,,,49,,,1,,,,,,,0.9629629629629629,,,,,,,,,,
null,,color_black1,622387,,,,,,,,black_plus_sign,,,null,,,,,,,,,,,,,,,,,,,,
null,,learn_phase(without_color)1,625889,,,,,,,,black_plus_sign,,,null,object_14a.png,object_05a.png,,,,,,,,,,,,,,,,,,
null,,black_cross(without_color)1,626734,,,,,,,,blue,,,null,object_14a.png,object_05a.png,,,,,,,,,,,,,,,,,,
null,,rt_plussign_withcolor1,627236,,,,,,,,blue,,,null,object_14a.png,object_05a.png,,,,,,,,,,,,,,,,,,
1566.7000000029802,,rt_thecrossant_black1,628396,,,,,,,,black_plus_sign,,,49,,,1,,,,,,,0.9642857142857143,,,,,,,,,,
null,,color_black1,628498,,,,,,,,black_plus_sign,,,null,,,,,,,,,,,,,,,,,,,,
null,,learn_phase(without_color)1,632001,,,,,,,,black_plus_sign,,,null,object_11a.png,object_06c.png,,,,,,,,,,,,,,,,,,
null,,black_cross(without_color)1,633060,,,,,,,,blue,,,null,object_11a.png,object_06c.png,,,,,,,,,,,,,,,,,,
null,,rt_plussign_withcolor1,633562,,,,,,,,blue,,,null,object_11a.png,object_06c.png,,,,,,,,,,,,,,,,,,
1234.6000000089407,,rt_thecrossant_black1,634507,,,,,,,,black_plus_sign,,,49,,,1,,,,,,,0.9655172413793104,,,,,,,,,,
null,,color_black1,634609,,,,,,,,black_plus_sign,,,null,,,,,,,,,,,,,,,,,,,,
null,,thebreak,634712,,,,,,,,<p></p>,,,null,,,,,,,,,,,,,,,,,,,,
1959.5999999940395,,intro_0,636672,,,,,,,,instruct,,,32,,,,,,,,,,,,,,,,,,,,
6018.29999999702,,directmemory_phase1,642692,,,,,,,,object_09b.png,,,51,,,1,,object_02b.png,object_12a.png,object_04c.png,object_04c.png,,1,,1,,,,,,,,
5492.9000000059605,,directmemory_phase1,648187,,,,,,,,object_14c.png,,,49,,,0,,object_08b.png,object_11b.png,object_04c.png,object_11b.png,,0.5,,0,,,,,,,,
7401.800000011921,,directmemory_phase1,655590,,,,,,,,object_11c.png,,,50,,,0,,object_04a.png,object_01c.png,object_02a.png,object_04a.png,,0.3333333333333333,,0,,,,,,,,
3152.5,,directmemory_phase1,658745,,,,,,,,object_01a.png,,,49,,,0,,object_09a.png,object_15b.png,object_02b.png,object_15b.png,,0.25,,0,,,,,,,,
3828.2999999970198,,directmemory_phase1,662574,,,,,,,,object_15a.png,,,50,,,0,,object_10b.png,object_02c.png,object_11b.png,object_11b.png,,0.2,,0,,,,,,,,
5800.399999991059,,directmemory_phase1,668376,,,,,,,,object_10c.png,,,50,,,0,,object_08a.png,object_10a.png,object_15b.png,object_08a.png,,0.16666666666666666,,0,,,,,,,,
7156.399999991059,,directmemory_phase1,675535,,,,,,,,object_12a.png,,,50,,,1,,object_08b.png,object_10b.png,object_06a.png,object_10b.png,,0.2857142857142857,,1,,,,,,,,
5828.600000008941,,directmemory_phase1,681365,,,,,,,,object_10a.png,,,51,,,0,,object_13a.png,object_02b.png,object_10b.png,object_02b.png,,0.25,,0,,,,,,,,
5340.699999988079,,directmemory_phase1,686707,,,,,,,,object_04b.png,,,50,,,0,,object_06a.png,object_09a.png,object_11c.png,object_11c.png,,0.2222222222222222,,0,,,,,,,,
4003.0999999940395,,directmemory_phase1,690712,,,,,,,,object_06c.png,,,49,,,1,,object_11a.png,object_01c.png,object_01b.png,object_11a.png,,0.3,,1,,,,,,,,
6975.199999988079,,directmemory_phase1,697688,,,,,,,,object_13c.png,,,51,,,0,,object_15c.png,object_07c.png,object_01a.png,object_15c.png,,0.2727272727272727,,0,,,,,,,,
7422.5,,directmemory_phase1,705113,,,,,,,,object_12b.png,,,50,,,1,,object_13b.png,object_10c.png,object_06a.png,object_10c.png,,0.3333333333333333,,1,,,,,,,,
6776.399999991059,,directmemory_phase1,711891,,,,,,,,object_08b.png,,,49,,,1,,object_06a.png,object_02b.png,object_13c.png,object_06a.png,,0.38461538461538464,,1,,,,,,,,
7231.5999999940395,,directmemory_phase1,719125,,,,,,,,object_07c.png,,,50,,,0,,object_07b.png,object_13a.png,object_15b.png,object_07b.png,,0.35714285714285715,,0,,,,,,,,
4660.0999999940395,,directmemory_phase1,723787,,,,,,,,object_05a.png,,,50,,,1,,object_12c.png,object_14a.png,object_06a.png,object_14a.png,,0.4,,1,,,,,,,,
4023.8999999910593,,directmemory_phase1,727812,,,,,,,,object_07a.png,,,49,,,0,,object_10c.png,object_09b.png,object_06c.png,object_06c.png,,0.375,,0,,,,,,,,
6492.79999999702,,directmemory_phase1,734306,,,,,,,,object_06b.png,,,50,,,1,,object_02c.png,object_09c.png,object_02a.png,object_09c.png,,0.4117647058823529,,1,,,,,,,,
4027.5,,directmemory_phase1,738335,,,,,,,,object_13b.png,,,51,,,1,,object_06c.png,object_08c.png,object_07c.png,object_07c.png,,0.4444444444444444,,1,,,,,,,,
4885.29999999702,,directmemory_phase1,743222,,,,,,,,object_05c.png,,,51,,,1,,object_01b.png,object_13a.png,object_15c.png,object_15c.png,,0.47368421052631576,,1,,,,,,,,
10006.39999999106,,directmemory_phase1,753230,,,,,,,,object_02a.png,,,49,,,1,,object_03a.png,object_11a.png,object_01b.png,object_03a.png,,0.5,,1,,,,,,,,
4829.0999999940395,,directmemory_phase1,758061,,,,,,,,object_03b.png,,,49,,,1,,object_01b.png,object_09c.png,object_12a.png,object_01b.png,,0.5238095238095238,,1,,,,,,,,
6844.79999999702,,directmemory_phase1,764907,,,,,,,,object_10b.png,,,50,,,1,,object_06c.png,object_13a.png,object_07b.png,object_13a.png,,0.5454545454545454,,1,,,,,,,,
5744.79999999702,,directmemory_phase1,770653,,,,,,,,object_01b.png,,,50,,,1,,object_11c.png,object_02c.png,object_05a.png,object_02c.png,,0.5652173913043478,,1,,,,,,,,
3542.9000000059605,,directmemory_phase1,774198,,,,,,,,object_12c.png,,,51,,,1,,object_06c.png,object_01c.png,object_06a.png,object_06a.png,,0.5833333333333334,,1,,,,,,,,
3416.7999999970198,,directmemory_phase1,777616,,,,,,,,object_08c.png,,,51,,,0,,object_09c.png,object_06c.png,object_01a.png,object_09c.png,,0.56,,0,,,,,,,,
4971,,directmemory_phase1,782589,,,,,,,,object_05b.png,,,51,,,1,,object_11c.png,object_13c.png,object_02a.png,object_02a.png,,0.5769230769230769,,1,,,,,,,,
2486.4000000059605,,directmemory_phase1,785077,,,,,,,,object_09a.png,,,49,,,1,,object_02b.png,object_11c.png,object_12a.png,object_02b.png,,0.5925925925925926,,1,,,,,,,,
5153.0999999940395,,directmemory_phase1,790232,,,,,,,,object_03c.png,,,50,,,1,,object_05b.png,object_14a.png,object_06c.png,object_14a.png,,0.6071428571428571,,1,,,,,,,,
6012.5,,directmemory_phase1,796246,,,,,,,,object_01c.png,,,49,,,1,,object_15b.png,object_06a.png,object_05c.png,object_15b.png,,0.6206896551724138,,1,,,,,,,,
4297.100000008941,,directmemory_phase1,800546,,,,,,,,object_04c.png,,,49,,,0,,object_10a.png,object_06c.png,object_14b.png,object_14b.png,,0.6,,0,,,,,,,,
null,,thebreak,800648,,,,,,,,<p></p>,,,null,,,,,,,,,,,,,,,,,,,,
2286.7000000029802,,intro_0,802936,,,,,,,,instruct,,,32,,,,,,,,,,,,,,,,,,,,
null,,learn_phase(without_color)2,806438,,,,,,,,black_plus_sign,,,null,object_10c.png,object_12b.png,,,,,,,,,,,,,,,,,,
null,,black_cross(without_color)2,807198,,,,,,,,green,,,null,object_10c.png,object_12b.png,,,,,,,,,,,,,,,,,,
null,,rt_plussign_withcolor2,807699,,,,,,,,green,,,null,object_10c.png,object_12b.png,,,,,,,,,,,,,,,,,,
null,,rt_thecrossant_black2,808942,,,,,,,,black_plus_sign,,,null,,,,,,,,,,NaN,,,,,,,,,,
null,,color_black2,809044,,,,,,,,black_plus_sign,,,null,,,,,,,,,,,,,,,,,,,,
null,,learn_phase(without_color)2,812547,,,,,,,,black_plus_sign,,,null,object_02a.png,object_05b.png,,,,,,,,,,,,,,,,,,
null,,black_cross(without_color)2,813567,,,,,,,,green,,,null,object_02a.png,object_05b.png,,,,,,,,,,,,,,,,,,
null,,rt_plussign_withcolor2,814068,,,,,,,,green,,,null,object_02a.png,object_05b.png,,,,,,,,,,,,,,,,,,
1590,,rt_thecrossant_black2,815054,,,,,,,,black_plus_sign,,,50,,,1,,,,,,,1,,,,,,,,,,
null,,color_black2,815156,,,,,,,,black_plus_sign,,,null,,,,,,,,,,,,,,,,,,,,
null,,learn_phase(without_color)2,818658,,,,,,,,black_plus_sign,,,null,object_07a.png,object_06c.png,,,,,,,,,,,,,,,,,,
null,,black_cross(without_color)2,819427,,,,,,,,green,,,null,object_07a.png,object_06c.png,,,,,,,,,,,,,,,,,,
null,,rt_plussign_withcolor2,819928,,,,,,,,green,,,null,object_07a.png,object_06c.png,,,,,,,,,,,,,,,,,,
1390.7999999970198,,rt_thecrossant_black2,821163,,,,,,,,black_plus_sign,,,50,,,1,,,,,,,1,,,,,,,,,,
null,,color_black2,821265,,,,,,,,black_plus_sign,,,null,,,,,,,,,,,,,,,,,,,,
null,,learn_phase(without_color)2,824767,,,,,,,,black_plus_sign,,,null,object_09b.png,object_04c.png,,,,,,,,,,,,,,,,,,
null,,black_cross(without_color)2,825240,,,,,,,,green,,,null,object_09b.png,object_04c.png,,,,,,,,,,,,,,,,,,
null,,rt_plussign_withcolor2,825742,,,,,,,,green,,,null,object_09b.png,object_04c.png,,,,,,,,,,,,,,,,,,
1647.4000000059605,,rt_thecrossant_black2,827275,,,,,,,,black_plus_sign,,,50,,,1,,,,,,,1,,,,,,,,,,
null,,color_black2,827376,,,,,,,,black_plus_sign,,,null,,,,,,,,,,,,,,,,,,,,
null,,learn_phase(without_color)2,830879,,,,,,,,black_plus_sign,,,null,object_01c.png,object_15b.png,,,,,,,,,,,,,,,,,,
null,,black_cross(without_color)2,831947,,,,,,,,green,,,null,object_01c.png,object_15b.png,,,,,,,,,,,,,,,,,,
null,,rt_plussign_withcolor2,832448,,,,,,,,green,,,null,object_01c.png,object_15b.png,,,,,,,,,,,,,,,,,,
710.2000000029802,,rt_thecrossant_black2,833384,,,,,,,,black_plus_sign,,,50,,,1,,,,,,,1,,,,,,,,,,
null,,color_black2,833487,,,,,,,,black_plus_sign,,,null,,,,,,,,,,,,,,,,,,,,
null,,learn_phase(without_color)2,836990,,,,,,,,black_plus_sign,,,null,object_14b.png,object_04c.png,,,,,,,,,,,,,,,,,,
null,,black_cross(without_color)2,838089,,,,,,,,blue,,,null,object_14b.png,object_04c.png,,,,,,,,,,,,,,,,,,
null,,rt_plussign_withcolor2,838592,,,,,,,,blue,,,null,object_14b.png,object_04c.png,,,,,,,,,,,,,,,,,,
1415.6000000089407,,rt_thecrossant_black2,839496,,,,,,,,black_plus_sign,,,49,,,1,,,,,,,1,,,,,,,,,,
null,,color_black2,839598,,,,,,,,black_plus_sign,,,null,,,,,,,,,,,,,,,,,,,,
null,,learn_phase(without_color)2,843100,,,,,,,,black_plus_sign,,,null,object_11b.png,object_14c.png,,,,,,,,,,,,,,,,,,
null,,black_cross(without_color)2,843907,,,,,,,,green,,,null,object_11b.png,object_14c.png,,,,,,,,,,,,,,,,,,
null,,rt_plussign_withcolor2,844410,,,,,,,,green,,,null,object_11b.png,object_14c.png,,,,,,,,,,,,,,,,,,
1615.2999999970198,,rt_thecrossant_black2,845606,,,,,,,,black_plus_sign,,,50,,,1,,,,,,,1,,,,,,,,,,
null,,color_black2,845708,,,,,,,,black_plus_sign,,,null,,,,,,,,,,,,,,,,,,,,
null,,learn_phase(without_color)2,849210,,,,,,,,black_plus_sign,,,null,object_15a.png,object_11b.png,,,,,,,,,,,,,,,,,,
null,,black_cross(without_color)2,849809,,,,,,,,blue,,,null,object_15a.png,object_11b.png,,,,,,,,,,,,,,,,,,
null,,rt_plussign_withcolor2,850311,,,,,,,,blue,,,null,object_15a.png,object_11b.png,,,,,,,,,,,,,,,,,,
1313.2000000029802,,rt_thecrossant_black2,851717,,,,,,,,black_plus_sign,,,49,,,1,,,,,,,1,,,,,,,,,,
null,,color_black2,851818,,,,,,,,black_plus_sign,,,null,,,,,,,,,,,,,,,,,,,,
null,,learn_phase(without_color)2,855320,,,,,,,,black_plus_sign,,,null,object_15b.png,object_01a.png,,,,,,,,,,,,,,,,,,
null,,black_cross(without_color)2,856341,,,,,,,,blue,,,null,object_15b.png,object_01a.png,,,,,,,,,,,,,,,,,,
null,,rt_plussign_withcolor2,856843,,,,,,,,blue,,,null,object_15b.png,object_01a.png,,,,,,,,,,,,,,,,,,
1156.3999999910593,,rt_thecrossant_black2,857828,,,,,,,,black_plus_sign,,,49,,,1,,,,,,,1,,,,,,,,,,
null,,color_black2,857929,,,,,,,,black_plus_sign,,,null,,,,,,,,,,,,,,,,,,,,
null,,learn_phase(without_color)2,861431,,,,,,,,black_plus_sign,,,null,object_11c.png,object_04b.png,,,,,,,,,,,,,,,,,,
null,,black_cross(without_color)2,861912,,,,,,,,green,,,null,object_11c.png,object_04b.png,,,,,,,,,,,,,,,,,,
null,,rt_plussign_withcolor2,862414,,,,,,,,green,,,null,object_11c.png,object_04b.png,,,,,,,,,,,,,,,,,,
1244.5,,rt_thecrossant_black2,863938,,,,,,,,black_plus_sign,,,50,,,1,,,,,,,1,,,,,,,,,,
null,,color_black2,864039,,,,,,,,black_plus_sign,,,null,,,,,,,,,,,,,,,,,,,,
null,,learn_phase(without_color)2,867542,,,,,,,,black_plus_sign,,,null,object_09a.png,object_02b.png,,,,,,,,,,,,,,,,,,
null,,black_cross(without_color)2,868244,,,,,,,,green,,,null,object_09a.png,object_02b.png,,,,,,,,,,,,,,,,,,
null,,rt_plussign_withcolor2,868746,,,,,,,,green,,,null,object_09a.png,object_02b.png,,,,,,,,,,,,,,,,,,
1044.5,,rt_thecrossant_black2,870049,,,,,,,,black_plus_sign,,,50,,,1,,,,,,,1,,,,,,,,,,
null,,color_black2,870150,,,,,,,,black_plus_sign,,,null,,,,,,,,,,,,,,,,,,,,
null,,learn_phase(without_color)2,873655,,,,,,,,black_plus_sign,,,null,object_05c.png,object_15c.png,,,,,,,,,,,,,,,,,,
null,,black_cross(without_color)2,874733,,,,,,,,green,,,null,object_05c.png,object_15c.png,,,,,,,,,,,,,,,,,,
null,,rt_plussign_withcolor2,875235,,,,,,,,green,,,null,object_05c.png,object_15c.png,,,,,,,,,,,,,,,,,,
1083.7999999970198,,rt_thecrossant_black2,876162,,,,,,,,black_plus_sign,,,50,,,1,,,,,,,1,,,,,,,,,,
null,,color_black2,876264,,,,,,,,black_plus_sign,,,null,,,,,,,,,,,,,,,,,,,,
null,,learn_phase(without_color)2,879766,,,,,,,,black_plus_sign,,,null,object_15c.png,object_13c.png,,,,,,,,,,,,,,,,,,
null,,black_cross(without_color)2,880784,,,,,,,,blue,,,null,object_15c.png,object_13c.png,,,,,,,,,,,,,,,,,,
null,,rt_plussign_withcolor2,881287,,,,,,,,blue,,,null,object_15c.png,object_13c.png,,,,,,,,,,,,,,,,,,
1697.5,,rt_thecrossant_black2,882274,,,,,,,,black_plus_sign,,,49,,,1,,,,,,,1,,,,,,,,,,
null,,color_black2,882376,,,,,,,,black_plus_sign,,,null,,,,,,,,,,,,,,,,,,,,
null,,learn_phase(without_color)2,885878,,,,,,,,black_plus_sign,,,null,object_07b.png,object_07c.png,,,,,,,,,,,,,,,,,,
null,,black_cross(without_color)2,886946,,,,,,,,green,,,null,object_07b.png,object_07c.png,,,,,,,,,,,,,,,,,,
null,,rt_plussign_withcolor2,887449,,,,,,,,green,,,null,object_07b.png,object_07c.png,,,,,,,,,,,,,,,,,,
1615.2000000029802,,rt_thecrossant_black2,888385,,,,,,,,black_plus_sign,,,50,,,1,,,,,,,1,,,,,,,,,,
null,,color_black2,888487,,,,,,,,black_plus_sign,,,null,,,,,,,,,,,,,,,,,,,,
null,,learn_phase(without_color)2,891988,,,,,,,,black_plus_sign,,,null,object_08a.png,object_10c.png,,,,,,,,,,,,,,,,,,
null,,black_cross(without_color)2,892418,,,,,,,,blue,,,null,object_08a.png,object_10c.png,,,,,,,,,,,,,,,,,,
null,,rt_plussign_withcolor2,892921,,,,,,,,blue,,,null,object_08a.png,object_10c.png,,,,,,,,,,,,,,,,,,
2189,,rt_thecrossant_black2,894498,,,,,,,,black_plus_sign,,,49,,,1,,,,,,,1,,,,,,,,,,
null,,color_black2,894600,,,,,,,,black_plus_sign,,,null,,,,,,,,,,,,,,,,,,,,
null,,learn_phase(without_color)2,898103,,,,,,,,black_plus_sign,,,null,object_05a.png,object_14a.png,,,,,,,,,,,,,,,,,,
null,,black_cross(without_color)2,898555,,,,,,,,blue,,,null,object_05a.png,object_14a.png,,,,,,,,,,,,,,,,,,
null,,rt_plussign_withcolor2,899056,,,,,,,,blue,,,null,object_05a.png,object_14a.png,,,,,,,,,,,,,,,,,,
null,,rt_thecrossant_black2,900608,,,,,,,,black_plus_sign,,,null,,,,,,,,,,1,,,,,,,,,,
null,,color_black2,900710,,,,,,,,black_plus_sign,,,null,,,,,,,,,,,,,,,,,,,,
null,,learn_phase(without_color)2,904211,,,,,,,,black_plus_sign,,,null,object_08c.png,object_09c.png,,,,,,,,,,,,,,,,,,
null,,black_cross(without_color)2,904941,,,,,,,,blue,,,null,object_08c.png,object_09c.png,,,,,,,,,,,,,,,,,,
null,,rt_plussign_withcolor2,905445,,,,,,,,blue,,,null,object_08c.png,object_09c.png,,,,,,,,,,,,,,,,,,
825.4000000059605,,rt_thecrossant_black2,906719,,,,,,,,black_plus_sign,,,49,,,1,,,,,,,1,,,,,,,,,,
null,,color_black2,906821,,,,,,,,black_plus_sign,,,null,,,,,,,,,,,,,,,,,,,,
null,,learn_phase(without_color)2,910322,,,,,,,,black_plus_sign,,,null,object_12a.png,object_10b.png,,,,,,,,,,,,,,,,,,
null,,black_cross(without_color)2,911392,,,,,,,,green,,,null,object_12a.png,object_10b.png,,,,,,,,,,,,,,,,,,
null,,rt_plussign_withcolor2,911893,,,,,,,,green,,,null,object_12a.png,object_10b.png,,,,,,,,,,,,,,,,,,
1286.8999999910593,,rt_thecrossant_black2,912827,,,,,,,,black_plus_sign,,,50,,,1,,,,,,,1,,,,,,,,,,
null,,color_black2,912929,,,,,,,,black_plus_sign,,,null,,,,,,,,,,,,,,,,,,,,
null,,learn_phase(without_color)2,916434,,,,,,,,black_plus_sign,,,null,object_03a.png,object_02a.png,,,,,,,,,,,,,,,,,,
null,,black_cross(without_color)2,916865,,,,,,,,blue,,,null,object_03a.png,object_02a.png,,,,,,,,,,,,,,,,,,
null,,rt_plussign_withcolor2,917367,,,,,,,,blue,,,null,object_03a.png,object_02a.png,,,,,,,,,,,,,,,,,,
2364.1000000089407,,rt_thecrossant_black2,918940,,,,,,,,black_plus_sign,,,49,,,1,,,,,,,1,,,,,,,,,,
null,,color_black2,919042,,,,,,,,black_plus_sign,,,null,,,,,,,,,,,,,,,,,,,,
null,,learn_phase(without_color)2,922545,,,,,,,,black_plus_sign,,,null,object_02b.png,object_10a.png,,,,,,,,,,,,,,,,,,
null,,black_cross(without_color)2,922974,,,,,,,,blue,,,null,object_02b.png,object_10a.png,,,,,,,,,,,,,,,,,,
null,,rt_plussign_withcolor2,923476,,,,,,,,blue,,,null,object_02b.png,object_10a.png,,,,,,,,,,,,,,,,,,
1242.2000000029802,,rt_thecrossant_black2,925053,,,,,,,,black_plus_sign,,,49,,,1,,,,,,,1,,,,,,,,,,
null,,color_black2,925156,,,,,,,,black_plus_sign,,,null,,,,,,,,,,,,,,,,,,,,
null,,learn_phase(without_color)2,928658,,,,,,,,black_plus_sign,,,null,object_14a.png,object_03c.png,,,,,,,,,,,,,,,,,,
null,,black_cross(without_color)2,929232,,,,,,,,green,,,null,object_14a.png,object_03c.png,,,,,,,,,,,,,,,,,,
null,,rt_plussign_withcolor2,929733,,,,,,,,green,,,null,object_14a.png,object_03c.png,,,,,,,,,,,,,,,,,,
1033.199999988079,,rt_thecrossant_black2,931163,,,,,,,,black_plus_sign,,,50,,,1,,,,,,,1,,,,,,,,,,
null,,color_black2,931265,,,,,,,,black_plus_sign,,,null,,,,,,,,,,,,,,,,,,,,
null,,learn_phase(without_color)2,934768,,,,,,,,black_plus_sign,,,null,object_10b.png,object_13a.png,,,,,,,,,,,,,,,,,,
null,,black_cross(without_color)2,935689,,,,,,,,green,,,null,object_10b.png,object_13a.png,,,,,,,,,,,,,,,,,,
null,,rt_plussign_withcolor2,936191,,,,,,,,green,,,null,object_10b.png,object_13a.png,,,,,,,,,,,,,,,,,,
1240.5999999940395,,rt_thecrossant_black2,937273,,,,,,,,black_plus_sign,,,50,,,1,,,,,,,1,,,,,,,,,,
null,,color_black2,937375,,,,,,,,black_plus_sign,,,null,,,,,,,,,,,,,,,,,,,,
null,,learn_phase(without_color)2,940879,,,,,,,,black_plus_sign,,,null,object_06a.png,object_08b.png,,,,,,,,,,,,,,,,,,
null,,black_cross(without_color)2,941315,,,,,,,,green,,,null,object_06a.png,object_08b.png,,,,,,,,,,,,,,,,,,
null,,rt_plussign_withcolor2,941817,,,,,,,,green,,,null,object_06a.png,object_08b.png,,,,,,,,,,,,,,,,,,
1699.2000000029802,,rt_thecrossant_black2,943385,,,,,,,,black_plus_sign,,,50,,,1,,,,,,,1,,,,,,,,,,
null,,color_black2,943486,,,,,,,,black_plus_sign,,,null,,,,,,,,,,,,,,,,,,,,
null,,learn_phase(without_color)2,946988,,,,,,,,black_plus_sign,,,null,object_13b.png,object_07c.png,,,,,,,,,,,,,,,,,,
null,,black_cross(without_color)2,947561,,,,,,,,green,,,null,object_13b.png,object_07c.png,,,,,,,,,,,,,,,,,,
null,,rt_plussign_withcolor2,948064,,,,,,,,green,,,null,object_13b.png,object_07c.png,,,,,,,,,,,,,,,,,,
759.7000000029802,,rt_thecrossant_black2,949494,,,,,,,,black_plus_sign,,,50,,,1,,,,,,,1,,,,,,,,,,
null,,color_black2,949597,,,,,,,,black_plus_sign,,,null,,,,,,,,,,,,,,,,,,,,
null,,learn_phase(without_color)2,953099,,,,,,,,black_plus_sign,,,null,object_11c.png,object_04a.png,,,,,,,,,,,,,,,,,,
null,,black_cross(without_color)2,954006,,,,,,,,green,,,null,object_11c.png,object_04a.png,,,,,,,,,,,,,,,,,,
null,,rt_plussign_withcolor2,954509,,,,,,,,green,,,null,object_11c.png,object_04a.png,,,,,,,,,,,,,,,,,,
1040.5999999940395,,rt_thecrossant_black2,955606,,,,,,,,black_plus_sign,,,50,,,1,,,,,,,1,,,,,,,,,,
null,,color_black2,955708,,,,,,,,black_plus_sign,,,null,,,,,,,,,,,,,,,,,,,,
null,,learn_phase(without_color)2,959211,,,,,,,,black_plus_sign,,,null,object_01b.png,object_02c.png,,,,,,,,,,,,,,,,,,
null,,black_cross(without_color)2,960298,,,,,,,,green,,,null,object_01b.png,object_02c.png,,,,,,,,,,,,,,,,,,
null,,rt_plussign_withcolor2,960799,,,,,,,,green,,,null,object_01b.png,object_02c.png,,,,,,,,,,,,,,,,,,
1579.4000000059605,,rt_thecrossant_black2,961718,,,,,,,,black_plus_sign,,,50,,,1,,,,,,,1,,,,,,,,,,
null,,color_black2,961821,,,,,,,,black_plus_sign,,,null,,,,,,,,,,,,,,,,,,,,
null,,learn_phase(without_color)2,965323,,,,,,,,black_plus_sign,,,null,object_01b.png,object_03b.png,,,,,,,,,,,,,,,,,,
null,,black_cross(without_color)2,966283,,,,,,,,blue,,,null,object_01b.png,object_03b.png,,,,,,,,,,,,,,,,,,
null,,rt_plussign_withcolor2,966784,,,,,,,,blue,,,null,object_01b.png,object_03b.png,,,,,,,,,,,,,,,,,,
1386.5,,rt_thecrossant_black2,967829,,,,,,,,black_plus_sign,,,49,,,1,,,,,,,1,,,,,,,,,,
null,,color_black2,967930,,,,,,,,black_plus_sign,,,null,,,,,,,,,,,,,,,,,,,,
null,,learn_phase(without_color)2,971432,,,,,,,,black_plus_sign,,,null,object_11a.png,object_06c.png,,,,,,,,,,,,,,,,,,
null,,black_cross(without_color)2,972367,,,,,,,,green,,,null,object_11a.png,object_06c.png,,,,,,,,,,,,,,,,,,
null,,rt_plussign_withcolor2,972868,,,,,,,,green,,,null,object_11a.png,object_06c.png,,,,,,,,,,,,,,,,,,
1211.8999999910593,,rt_thecrossant_black2,973938,,,,,,,,black_plus_sign,,,50,,,1,,,,,,,1,,,,,,,,,,
null,,color_black2,974039,,,,,,,,black_plus_sign,,,null,,,,,,,,,,,,,,,,,,,,
null,,learn_phase(without_color)2,977542,,,,,,,,black_plus_sign,,,null,object_06b.png,object_09c.png,,,,,,,,,,,,,,,,,,
null,,black_cross(without_color)2,978485,,,,,,,,green,,,null,object_06b.png,object_09c.png,,,,,,,,,,,,,,,,,,
null,,rt_plussign_withcolor2,978987,,,,,,,,green,,,null,object_06b.png,object_09c.png,,,,,,,,,,,,,,,,,,
1582,,rt_thecrossant_black2,980049,,,,,,,,black_plus_sign,,,50,,,1,,,,,,,1,,,,,,,,,,
null,,color_black2,980151,,,,,,,,black_plus_sign,,,null,,,,,,,,,,,,,,,,,,,,
null,,learn_phase(without_color)2,983653,,,,,,,,black_plus_sign,,,null,object_12c.png,object_06a.png,,,,,,,,,,,,,,,,,,
null,,black_cross(without_color)2,984340,,,,,,,,blue,,,null,object_12c.png,object_06a.png,,,,,,,,,,,,,,,,,,
null,,rt_plussign_withcolor2,984841,,,,,,,,blue,,,null,object_12c.png,object_06a.png,,,,,,,,,,,,,,,,,,
1375.5,,rt_thecrossant_black2,986159,,,,,,,,black_plus_sign,,,49,,,1,,,,,,,1,,,,,,,,,,
null,,color_black2,986261,,,,,,,,black_plus_sign,,,null,,,,,,,,,,,,,,,,,,,,
null,,thebreak,986364,,,,,,,,<p></p>,,,null,,,,,,,,,,,,,,,,,,,,
1835.800000011921,,intro_0,988201,,,,,,,,instruct,,,32,,,,,,,,,,,,,,,,,,,,
4723.5,,directmemory_phase2,992926,,,,,,,,object_11a.png,,,49,,,1,,object_06c.png,object_10c.png,object_07b.png,object_06c.png,,0.6129032258064516,,1,,,,,,,,
5680.899999991059,,directmemory_phase2,998609,,,,,,,,object_14b.png,,,49,,,1,,object_04c.png,object_10c.png,object_07b.png,object_04c.png,,0.625,,1,,,,,,,,
1704,,directmemory_phase2,1000316,,,,,,,,object_13b.png,,,51,,,1,,object_14a.png,object_04b.png,object_07c.png,object_07c.png,,0.6363636363636364,,1,,,,,,,,
3489,,directmemory_phase2,1003807,,,,,,,,object_13a.png,,,51,,,1,,object_14a.png,object_11a.png,object_10b.png,object_10b.png,,0.6470588235294118,,1,,,,,,,,
1345.5999999940395,,directmemory_phase2,1005155,,,,,,,,object_12c.png,,,49,,,1,,object_06a.png,object_07c.png,object_06b.png,object_06a.png,,0.6571428571428571,,1,,,,,,,,
7255.29999999702,,directmemory_phase2,1012413,,,,,,,,object_03a.png,,,50,,,1,,object_07b.png,object_02a.png,object_01b.png,object_02a.png,,0.6666666666666666,,1,,,,,,,,
6839.9000000059605,,directmemory_phase2,1019255,,,,,,,,object_14c.png,,,50,,,1,,object_08b.png,object_11b.png,object_09c.png,object_11b.png,,0.6756756756756757,,1,,,,,,,,
5918.0999999940395,,directmemory_phase2,1025175,,,,,,,,object_07c.png,,,49,,,1,,object_07b.png,object_12c.png,object_02a.png,object_07b.png,,0.6842105263157895,,1,,,,,,,,
2558.7000000029802,,directmemory_phase2,1027735,,,,,,,,object_10c.png,,,49,,,0,,object_10a.png,object_06c.png,object_08a.png,object_08a.png,,0.6666666666666666,,0,,,,,,,,
2112.6000000089407,,directmemory_phase2,1029849,,,,,,,,object_10a.png,,,49,,,1,,object_02b.png,object_09c.png,object_11a.png,object_02b.png,,0.675,,1,,,,,,,,
4984.399999991059,,directmemory_phase2,1034835,,,,,,,,object_12b.png,,,50,,,0,,object_02a.png,object_07a.png,object_10c.png,object_10c.png,,0.6585365853658537,,0,,,,,,,,
5770.29999999702,,directmemory_phase2,1040607,,,,,,,,object_01b.png,,,50,,,1,,object_02a.png,object_02c.png,object_06b.png,object_02c.png,,0.6666666666666666,,1,,,,,,,,
7633.100000008941,,directmemory_phase2,1048242,,,,,,,,object_12a.png,,,51,,,0,,object_10b.png,object_06c.png,object_03c.png,object_10b.png,,0.6511627906976745,,0,,,,,,,,
3197.2999999970198,,directmemory_phase2,1051442,,,,,,,,object_06b.png,,,50,,,0,,object_15c.png,object_03a.png,object_09c.png,object_09c.png,,0.6363636363636364,,0,,,,,,,,
5804.9000000059605,,directmemory_phase2,1057248,,,,,,,,object_08b.png,,,50,,,1,,object_13c.png,object_06a.png,object_15b.png,object_06a.png,,0.6444444444444445,,1,,,,,,,,
6495.79999999702,,directmemory_phase2,1063746,,,,,,,,object_03b.png,,,50,,,0,,object_01b.png,object_07c.png,object_03c.png,object_01b.png,,0.6304347826086957,,0,,,,,,,,
3065.2999999970198,,directmemory_phase2,1066813,,,,,,,,object_04b.png,,,49,,,0,,object_15b.png,object_03b.png,object_11c.png,object_11c.png,,0.6170212765957447,,0,,,,,,,,
6144.5999999940395,,directmemory_phase2,1072959,,,,,,,,object_09a.png,,,50,,,1,,object_04b.png,object_02b.png,object_06c.png,object_02b.png,,0.625,,1,,,,,,,,
1947.6000000089407,,directmemory_phase2,1074909,,,,,,,,object_03c.png,,,49,,,1,,object_14a.png,object_01b.png,object_09b.png,object_14a.png,,0.6326530612244898,,1,,,,,,,,
6442.20000000298,,directmemory_phase2,1081353,,,,,,,,object_05b.png,,,50,,,0,,object_02a.png,object_15c.png,object_09b.png,object_02a.png,,0.62,,0,,,,,,,,
2798.2999999970198,,directmemory_phase2,1084153,,,,,,,,object_11b.png,,,51,,,1,,object_08a.png,object_10c.png,object_15a.png,object_15a.png,,0.6274509803921569,,1,,,,,,,,
3363.5,,directmemory_phase2,1087519,,,,,,,,object_09b.png,,,50,,,1,,object_03c.png,object_04c.png,object_06a.png,object_04c.png,,0.6346153846153846,,1,,,,,,,,
1783.0999999940395,,directmemory_phase2,1089304,,,,,,,,object_04a.png,,,51,,,1,,object_15b.png,object_01c.png,object_11c.png,object_11c.png,,0.6415094339622641,,1,,,,,,,,
7131.600000008941,,directmemory_phase2,1096437,,,,,,,,object_15b.png,,,51,,,0,,object_02a.png,object_01c.png,object_13a.png,object_01c.png,,0.6296296296296297,,0,,,,,,,,
3236.2000000029802,,directmemory_phase2,1099676,,,,,,,,object_05c.png,,,49,,,1,,object_15c.png,object_15b.png,object_11a.png,object_15c.png,,0.6363636363636364,,1,,,,,,,,
2652.4000000059605,,directmemory_phase2,1102331,,,,,,,,object_05a.png,,,49,,,1,,object_14a.png,object_15b.png,object_11a.png,object_14a.png,,0.6428571428571429,,1,,,,,,,,
6305,,directmemory_phase2,1108637,,,,,,,,object_07a.png,,,49,,,0,,object_08b.png,object_06c.png,object_02b.png,object_06c.png,,0.631578947368421,,0,,,,,,,,
4409.5,,directmemory_phase2,1113050,,,,,,,,object_13c.png,,,50,,,0,,object_06c.png,object_05b.png,object_15c.png,object_15c.png,,0.6206896551724138,,0,,,,,,,,
5014.300000011921,,directmemory_phase2,1118067,,,,,,,,object_01a.png,,,50,,,1,,object_12a.png,object_15b.png,object_09c.png,object_15b.png,,0.6271186440677966,,1,,,,,,,,
4197.79999999702,,directmemory_phase2,1122267,,,,,,,,object_08c.png,,,50,,,0,,object_09c.png,object_14a.png,object_07a.png,object_09c.png,,0.6166666666666667,,0,,,,,,,,
null,,thebreak,1122369,,,,,,,,<p></p>,,,null,,,,,,,,,,,,,,,,,,,,
2414.1000000089407,,intro_0,1124784,,,,,,,,instruct,,,32,,,,,,,,,,,,,,,,,,,,
null,,learn_phase(without_color)3,1128287,,,,,,,,black_plus_sign,,,null,object_07a.png,object_06c.png,,,,,,,,,,,,,,,,,,
null,,black_cross(without_color)3,1129021,,,,,,,,green,,,null,object_07a.png,object_06c.png,,,,,,,,,,,,,,,,,,
null,,rt_plussign_withcolor3,1129523,,,,,,,,green,,,null,object_07a.png,object_06c.png,,,,,,,,,,,,,,,,,,
1084.9000000059605,,rt_thecrossant_black3,1130792,,,,,,,,black_plus_sign,,,50,,,1,,,,,,,1,,,,,,,,,,
null,,color_black3,1130894,,,,,,,,black_plus_sign,,,null,,,,,,,,,,,,,,,,,,,,
null,,learn_phase(without_color)3,1134397,,,,,,,,black_plus_sign,,,null,object_02b.png,object_10a.png,,,,,,,,,,,,,,,,,,
null,,black_cross(without_color)3,1135402,,,,,,,,green,,,null,object_02b.png,object_10a.png,,,,,,,,,,,,,,,,,,
null,,rt_plussign_withcolor3,1135904,,,,,,,,green,,,null,object_02b.png,object_10a.png,,,,,,,,,,,,,,,,,,
1027.5,,rt_thecrossant_black3,1136904,,,,,,,,black_plus_sign,,,50,,,1,,,,,,,1,,,,,,,,,,
null,,color_black3,1137007,,,,,,,,black_plus_sign,,,null,,,,,,,,,,,,,,,,,,,,
null,,learn_phase(without_color)3,1140509,,,,,,,,black_plus_sign,,,null,object_08c.png,object_09c.png,,,,,,,,,,,,,,,,,,
null,,black_cross(without_color)3,1140952,,,,,,,,green,,,null,object_08c.png,object_09c.png,,,,,,,,,,,,,,,,,,
null,,rt_plussign_withcolor3,1141453,,,,,,,,green,,,null,object_08c.png,object_09c.png,,,,,,,,,,,,,,,,,,
1559.0999999940395,,rt_thecrossant_black3,1143015,,,,,,,,black_plus_sign,,,50,,,1,,,,,,,1,,,,,,,,,,
null,,color_black3,1143118,,,,,,,,black_plus_sign,,,null,,,,,,,,,,,,,,,,,,,,
null,,learn_phase(without_color)3,1146621,,,,,,,,black_plus_sign,,,null,object_01b.png,object_03b.png,,,,,,,,,,,,,,,,,,
null,,black_cross(without_color)3,1147196,,,,,,,,blue,,,null,object_01b.png,object_03b.png,,,,,,,,,,,,,,,,,,
null,,rt_plussign_withcolor3,1147697,,,,,,,,blue,,,null,object_01b.png,object_03b.png,,,,,,,,,,,,,,,,,,
1113.4000000059605,,rt_thecrossant_black3,1149126,,,,,,,,black_plus_sign,,,49,,,1,,,,,,,1,,,,,,,,,,
null,,color_black3,1149229,,,,,,,,black_plus_sign,,,null,,,,,,,,,,,,,,,,,,,,
null,,learn_phase(without_color)3,1152732,,,,,,,,black_plus_sign,,,null,object_14a.png,object_05a.png,,,,,,,,,,,,,,,,,,
null,,black_cross(without_color)3,1153214,,,,,,,,green,,,null,object_14a.png,object_05a.png,,,,,,,,,,,,,,,,,,
null,,rt_plussign_withcolor3,1153716,,,,,,,,green,,,null,object_14a.png,object_05a.png,,,,,,,,,,,,,,,,,,
1065,,rt_thecrossant_black3,1155238,,,,,,,,black_plus_sign,,,50,,,1,,,,,,,1,,,,,,,,,,
null,,color_black3,1155339,,,,,,,,black_plus_sign,,,null,,,,,,,,,,,,,,,,,,,,
null,,learn_phase(without_color)3,1158842,,,,,,,,black_plus_sign,,,null,object_11b.png,object_15a.png,,,,,,,,,,,,,,,,,,
null,,black_cross(without_color)3,1159825,,,,,,,,green,,,null,object_11b.png,object_15a.png,,,,,,,,,,,,,,,,,,
null,,rt_plussign_withcolor3,1160326,,,,,,,,green,,,null,object_11b.png,object_15a.png,,,,,,,,,,,,,,,,,,
985.0999999940395,,rt_thecrossant_black3,1161347,,,,,,,,black_plus_sign,,,50,,,1,,,,,,,1,,,,,,,,,,
null,,color_black3,1161450,,,,,,,,black_plus_sign,,,null,,,,,,,,,,,,,,,,,,,,
null,,learn_phase(without_color)3,1164953,,,,,,,,black_plus_sign,,,null,object_05b.png,object_02a.png,,,,,,,,,,,,,,,,,,
null,,black_cross(without_color)3,1165552,,,,,,,,green,,,null,object_05b.png,object_02a.png,,,,,,,,,,,,,,,,,,
null,,rt_plussign_withcolor3,1166055,,,,,,,,green,,,null,object_05b.png,object_02a.png,,,,,,,,,,,,,,,,,,
1411.2999999970198,,rt_thecrossant_black3,1167460,,,,,,,,black_plus_sign,,,50,,,1,,,,,,,1,,,,,,,,,,
null,,color_black3,1167563,,,,,,,,black_plus_sign,,,null,,,,,,,,,,,,,,,,,,,,
null,,learn_phase(without_color)3,1171065,,,,,,,,black_plus_sign,,,null,object_11a.png,object_06c.png,,,,,,,,,,,,,,,,,,
null,,black_cross(without_color)3,1171676,,,,,,,,green,,,null,object_11a.png,object_06c.png,,,,,,,,,,,,,,,,,,
null,,rt_plussign_withcolor3,1172179,,,,,,,,green,,,null,object_11a.png,object_06c.png,,,,,,,,,,,,,,,,,,
939.7000000029802,,rt_thecrossant_black3,1173574,,,,,,,,black_plus_sign,,,50,,,1,,,,,,,1,,,,,,,,,,
null,,color_black3,1173676,,,,,,,,black_plus_sign,,,null,,,,,,,,,,,,,,,,,,,,
null,,learn_phase(without_color)3,1177177,,,,,,,,black_plus_sign,,,null,object_07c.png,object_07b.png,,,,,,,,,,,,,,,,,,
null,,black_cross(without_color)3,1177623,,,,,,,,green,,,null,object_07c.png,object_07b.png,,,,,,,,,,,,,,,,,,
null,,rt_plussign_withcolor3,1178125,,,,,,,,green,,,null,object_07c.png,object_07b.png,,,,,,,,,,,,,,,,,,
1246.3999999910593,,rt_thecrossant_black3,1179683,,,,,,,,black_plus_sign,,,50,,,1,,,,,,,1,,,,,,,,,,
null,,color_black3,1179785,,,,,,,,black_plus_sign,,,null,,,,,,,,,,,,,,,,,,,,
null,,learn_phase(without_color)3,1183287,,,,,,,,black_plus_sign,,,null,object_04b.png,object_11c.png,,,,,,,,,,,,,,,,,,
null,,black_cross(without_color)3,1184216,,,,,,,,green,,,null,object_04b.png,object_11c.png,,,,,,,,,,,,,,,,,,
null,,rt_plussign_withcolor3,1184718,,,,,,,,green,,,null,object_04b.png,object_11c.png,,,,,,,,,,,,,,,,,,
861.7999999970198,,rt_thecrossant_black3,1185794,,,,,,,,black_plus_sign,,,50,,,1,,,,,,,1,,,,,,,,,,
null,,color_black3,1185896,,,,,,,,black_plus_sign,,,null,,,,,,,,,,,,,,,,,,,,
null,,learn_phase(without_color)3,1189398,,,,,,,,black_plus_sign,,,null,object_07c.png,object_13b.png,,,,,,,,,,,,,,,,,,
null,,black_cross(without_color)3,1190179,,,,,,,,green,,,null,object_07c.png,object_13b.png,,,,,,,,,,,,,,,,,,
null,,rt_plussign_withcolor3,1190680,,,,,,,,green,,,null,object_07c.png,object_13b.png,,,,,,,,,,,,,,,,,,
1068,,rt_thecrossant_black3,1191904,,,,,,,,black_plus_sign,,,50,,,1,,,,,,,1,,,,,,,,,,
null,,color_black3,1192008,,,,,,,,black_plus_sign,,,null,,,,,,,,,,,,,,,,,,,,
null,,learn_phase(without_color)3,1195511,,,,,,,,black_plus_sign,,,null,object_02b.png,object_09a.png,,,,,,,,,,,,,,,,,,
null,,black_cross(without_color)3,1196570,,,,,,,,green,,,null,object_02b.png,object_09a.png,,,,,,,,,,,,,,,,,,
null,,rt_plussign_withcolor3,1197072,,,,,,,,green,,,null,object_02b.png,object_09a.png,,,,,,,,,,,,,,,,,,
1364,,rt_thecrossant_black3,1198016,,,,,,,,black_plus_sign,,,50,,,1,,,,,,,1,,,,,,,,,,
null,,color_black3,1198119,,,,,,,,black_plus_sign,,,null,,,,,,,,,,,,,,,,,,,,
null,,learn_phase(without_color)3,1201620,,,,,,,,black_plus_sign,,,null,object_06a.png,object_12c.png,,,,,,,,,,,,,,,,,,
null,,black_cross(without_color)3,1202347,,,,,,,,green,,,null,object_06a.png,object_12c.png,,,,,,,,,,,,,,,,,,
null,,rt_plussign_withcolor3,1202849,,,,,,,,green,,,null,object_06a.png,object_12c.png,,,,,,,,,,,,,,,,,,
1427.800000011921,,rt_thecrossant_black3,1204129,,,,,,,,black_plus_sign,,,50,,,1,,,,,,,1,,,,,,,,,,
null,,color_black3,1204231,,,,,,,,black_plus_sign,,,null,,,,,,,,,,,,,,,,,,,,
null,,learn_phase(without_color)3,1207733,,,,,,,,black_plus_sign,,,null,object_14c.png,object_11b.png,,,,,,,,,,,,,,,,,,
null,,black_cross(without_color)3,1208521,,,,,,,,blue,,,null,object_14c.png,object_11b.png,,,,,,,,,,,,,,,,,,
null,,rt_plussign_withcolor3,1209023,,,,,,,,blue,,,null,object_14c.png,object_11b.png,,,,,,,,,,,,,,,,,,
1436.1000000089407,,rt_thecrossant_black3,1210242,,,,,,,,black_plus_sign,,,49,,,1,,,,,,,1,,,,,,,,,,
null,,color_black3,1210344,,,,,,,,black_plus_sign,,,null,,,,,,,,,,,,,,,,,,,,
null,,learn_phase(without_color)3,1213846,,,,,,,,black_plus_sign,,,null,object_08a.png,object_10c.png,,,,,,,,,,,,,,,,,,
null,,black_cross(without_color)3,1214409,,,,,,,,green,,,null,object_08a.png,object_10c.png,,,,,,,,,,,,,,,,,,
null,,rt_plussign_withcolor3,1214911,,,,,,,,green,,,null,object_08a.png,object_10c.png,,,,,,,,,,,,,,,,,,
924.7000000029802,,rt_thecrossant_black3,1216353,,,,,,,,black_plus_sign,,,50,,,1,,,,,,,1,,,,,,,,,,
null,,color_black3,1216456,,,,,,,,black_plus_sign,,,null,,,,,,,,,,,,,,,,,,,,
null,,learn_phase(without_color)3,1219958,,,,,,,,black_plus_sign,,,null,object_01c.png,object_15b.png,,,,,,,,,,,,,,,,,,
null,,black_cross(without_color)3,1220734,,,,,,,,green,,,null,object_01c.png,object_15b.png,,,,,,,,,,,,,,,,,,
null,,rt_plussign_withcolor3,1221236,,,,,,,,green,,,null,object_01c.png,object_15b.png,,,,,,,,,,,,,,,,,,
1230.5,,rt_thecrossant_black3,1222464,,,,,,,,black_plus_sign,,,50,,,1,,,,,,,1,,,,,,,,,,
null,,color_black3,1222565,,,,,,,,black_plus_sign,,,null,,,,,,,,,,,,,,,,,,,,
null,,learn_phase(without_color)3,1226068,,,,,,,,black_plus_sign,,,null,object_10c.png,object_12b.png,,,,,,,,,,,,,,,,,,
null,,black_cross(without_color)3,1226595,,,,,,,,green,,,null,object_10c.png,object_12b.png,,,,,,,,,,,,,,,,,,
null,,rt_plussign_withcolor3,1227098,,,,,,,,green,,,null,object_10c.png,object_12b.png,,,,,,,,,,,,,,,,,,
null,,rt_thecrossant_black3,1228574,,,,,,,,black_plus_sign,,,null,,,,,,,,,,1,,,,,,,,,,
null,,color_black3,1228677,,,,,,,,black_plus_sign,,,null,,,,,,,,,,,,,,,,,,,,
null,,learn_phase(without_color)3,1232180,,,,,,,,black_plus_sign,,,null,object_03c.png,object_14a.png,,,,,,,,,,,,,,,,,,
null,,black_cross(without_color)3,1232629,,,,,,,,blue,,,null,object_03c.png,object_14a.png,,,,,,,,,,,,,,,,,,
null,,rt_plussign_withcolor3,1233131,,,,,,,,blue,,,null,object_03c.png,object_14a.png,,,,,,,,,,,,,,,,,,
1478.2000000029802,,rt_thecrossant_black3,1234687,,,,,,,,black_plus_sign,,,49,,,1,,,,,,,1,,,,,,,,,,
null,,color_black3,1234789,,,,,,,,black_plus_sign,,,null,,,,,,,,,,,,,,,,,,,,
null,,learn_phase(without_color)3,1238291,,,,,,,,black_plus_sign,,,null,object_03a.png,object_02a.png,,,,,,,,,,,,,,,,,,
null,,black_cross(without_color)3,1239212,,,,,,,,green,,,null,object_03a.png,object_02a.png,,,,,,,,,,,,,,,,,,
null,,rt_plussign_withcolor3,1239713,,,,,,,,green,,,null,object_03a.png,object_02a.png,,,,,,,,,,,,,,,,,,
923.8999999910593,,rt_thecrossant_black3,1240798,,,,,,,,black_plus_sign,,,50,,,1,,,,,,,1,,,,,,,,,,
null,,color_black3,1240901,,,,,,,,black_plus_sign,,,null,,,,,,,,,,,,,,,,,,,,
null,,learn_phase(without_color)3,1244404,,,,,,,,black_plus_sign,,,null,object_04c.png,object_09b.png,,,,,,,,,,,,,,,,,,
null,,black_cross(without_color)3,1245079,,,,,,,,green,,,null,object_04c.png,object_09b.png,,,,,,,,,,,,,,,,,,
null,,rt_plussign_withcolor3,1245581,,,,,,,,green,,,null,object_04c.png,object_09b.png,,,,,,,,,,,,,,,,,,
2012.3999999910593,,rt_thecrossant_black3,1246912,,,,,,,,black_plus_sign,,,50,,,1,,,,,,,1,,,,,,,,,,
null,,color_black3,1247014,,,,,,,,black_plus_sign,,,null,,,,,,,,,,,,,,,,,,,,
null,,learn_phase(without_color)3,1250517,,,,,,,,black_plus_sign,,,null,object_09c.png,object_06b.png,,,,,,,,,,,,,,,,,,
null,,black_cross(without_color)3,1251076,,,,,,,,green,,,null,object_09c.png,object_06b.png,,,,,,,,,,,,,,,,,,
null,,rt_plussign_withcolor3,1251578,,,,,,,,green,,,null,object_09c.png,object_06b.png,,,,,,,,,,,,,,,,,,
940.7000000029802,,rt_thecrossant_black3,1253024,,,,,,,,black_plus_sign,,,50,,,1,,,,,,,1,,,,,,,,,,
null,,color_black3,1253126,,,,,,,,black_plus_sign,,,null,,,,,,,,,,,,,,,,,,,,
null,,learn_phase(without_color)3,1256628,,,,,,,,black_plus_sign,,,null,object_05c.png,object_15c.png,,,,,,,,,,,,,,,,,,
null,,black_cross(without_color)3,1257596,,,,,,,,green,,,null,object_05c.png,object_15c.png,,,,,,,,,,,,,,,,,,
null,,rt_plussign_withcolor3,1258098,,,,,,,,green,,,null,object_05c.png,object_15c.png,,,,,,,,,,,,,,,,,,
1038.300000011921,,rt_thecrossant_black3,1259134,,,,,,,,black_plus_sign,,,50,,,1,,,,,,,1,,,,,,,,,,
null,,color_black3,1259236,,,,,,,,black_plus_sign,,,null,,,,,,,,,,,,,,,,,,,,
null,,learn_phase(without_color)3,1262739,,,,,,,,black_plus_sign,,,null,object_13a.png,object_10b.png,,,,,,,,,,,,,,,,,,
null,,black_cross(without_color)3,1263376,,,,,,,,blue,,,null,object_13a.png,object_10b.png,,,,,,,,,,,,,,,,,,
null,,rt_plussign_withcolor3,1263881,,,,,,,,blue,,,null,object_13a.png,object_10b.png,,,,,,,,,,,,,,,,,,
1481,,rt_thecrossant_black3,1265254,,,,,,,,black_plus_sign,,,49,,,1,,,,,,,1,,,,,,,,,,
null,,color_black3,1265356,,,,,,,,black_plus_sign,,,null,,,,,,,,,,,,,,,,,,,,
null,,learn_phase(without_color)3,1268859,,,,,,,,black_plus_sign,,,null,object_15c.png,object_13c.png,,,,,,,,,,,,,,,,,,
null,,black_cross(without_color)3,1269574,,,,,,,,green,,,null,object_15c.png,object_13c.png,,,,,,,,,,,,,,,,,,
null,,rt_plussign_withcolor3,1270078,,,,,,,,green,,,null,object_15c.png,object_13c.png,,,,,,,,,,,,,,,,,,
1123.1000000089407,,rt_thecrossant_black3,1271368,,,,,,,,black_plus_sign,,,50,,,1,,,,,,,1,,,,,,,,,,
null,,color_black3,1271471,,,,,,,,black_plus_sign,,,null,,,,,,,,,,,,,,,,,,,,
null,,learn_phase(without_color)3,1274972,,,,,,,,black_plus_sign,,,null,object_15b.png,object_01a.png,,,,,,,,,,,,,,,,,,
null,,black_cross(without_color)3,1275721,,,,,,,,blue,,,null,object_15b.png,object_01a.png,,,,,,,,,,,,,,,,,,
null,,rt_plussign_withcolor3,1276223,,,,,,,,blue,,,null,object_15b.png,object_01a.png,,,,,,,,,,,,,,,,,,
1250.5,,rt_thecrossant_black3,1277479,,,,,,,,black_plus_sign,,,49,,,1,,,,,,,1,,,,,,,,,,
null,,color_black3,1277582,,,,,,,,black_plus_sign,,,null,,,,,,,,,,,,,,,,,,,,
null,,learn_phase(without_color)3,1281085,,,,,,,,black_plus_sign,,,null,object_01b.png,object_02c.png,,,,,,,,,,,,,,,,,,
null,,black_cross(without_color)3,1281658,,,,,,,,blue,,,null,object_01b.png,object_02c.png,,,,,,,,,,,,,,,,,,
null,,rt_plussign_withcolor3,1282160,,,,,,,,blue,,,null,object_01b.png,object_02c.png,,,,,,,,,,,,,,,,,,
1267.2000000029802,,rt_thecrossant_black3,1283591,,,,,,,,black_plus_sign,,,49,,,1,,,,,,,1,,,,,,,,,,
null,,color_black3,1283694,,,,,,,,black_plus_sign,,,null,,,,,,,,,,,,,,,,,,,,
null,,learn_phase(without_color)3,1287197,,,,,,,,black_plus_sign,,,null,object_10b.png,object_12a.png,,,,,,,,,,,,,,,,,,
null,,black_cross(without_color)3,1288116,,,,,,,,blue,,,null,object_10b.png,object_12a.png,,,,,,,,,,,,,,,,,,
null,,rt_plussign_withcolor3,1288618,,,,,,,,blue,,,null,object_10b.png,object_12a.png,,,,,,,,,,,,,,,,,,
970.4000000059605,,rt_thecrossant_black3,1289705,,,,,,,,black_plus_sign,,,49,,,1,,,,,,,1,,,,,,,,,,
null,,color_black3,1289807,,,,,,,,black_plus_sign,,,null,,,,,,,,,,,,,,,,,,,,
null,,learn_phase(without_color)3,1293310,,,,,,,,black_plus_sign,,,null,object_11c.png,object_04a.png,,,,,,,,,,,,,,,,,,
null,,black_cross(without_color)3,1294341,,,,,,,,green,,,null,object_11c.png,object_04a.png,,,,,,,,,,,,,,,,,,
null,,rt_plussign_withcolor3,1294842,,,,,,,,green,,,null,object_11c.png,object_04a.png,,,,,,,,,,,,,,,,,,
1347.2999999970198,,rt_thecrossant_black3,1295815,,,,,,,,black_plus_sign,,,50,,,1,,,,,,,1,,,,,,,,,,
null,,color_black3,1295918,,,,,,,,black_plus_sign,,,null,,,,,,,,,,,,,,,,,,,,
null,,learn_phase(without_color)3,1299421,,,,,,,,black_plus_sign,,,null,object_04c.png,object_14b.png,,,,,,,,,,,,,,,,,,
null,,black_cross(without_color)3,1300307,,,,,,,,green,,,null,object_04c.png,object_14b.png,,,,,,,,,,,,,,,,,,
null,,rt_plussign_withcolor3,1300810,,,,,,,,green,,,null,object_04c.png,object_14b.png,,,,,,,,,,,,,,,,,,
1470.5,,rt_thecrossant_black3,1301930,,,,,,,,black_plus_sign,,,50,,,1,,,,,,,1,,,,,,,,,,
null,,color_black3,1302032,,,,,,,,black_plus_sign,,,null,,,,,,,,,,,,,,,,,,,,
null,,learn_phase(without_color)3,1305535,,,,,,,,black_plus_sign,,,null,object_08b.png,object_06a.png,,,,,,,,,,,,,,,,,,
null,,black_cross(without_color)3,1306554,,,,,,,,green,,,null,object_08b.png,object_06a.png,,,,,,,,,,,,,,,,,,
null,,rt_plussign_withcolor3,1307056,,,,,,,,green,,,null,object_08b.png,object_06a.png,,,,,,,,,,,,,,,,,,
1325.2999999970198,,rt_thecrossant_black3,1308042,,,,,,,,black_plus_sign,,,49,,,0,,,,,,,0.9655172413793104,,,,,,,,,,
null,,color_black3,1308143,,,,,,,,black_plus_sign,,,null,,,,,,,,,,,,,,,,,,,,
null,,thebreak,1308246,,,,,,,,<p></p>,,,null,,,,,,,,,,,,,,,,,,,,
1865.8999999910593,,intro_0,1310113,,,,,,,,instruct,,,32,,,,,,,,,,,,,,,,,,,,
9714.90000000596,,directmemory_phase3,1319829,,,,,,,,object_13a.png,,,49,,,1,,object_10b.png,object_01b.png,object_02c.png,object_10b.png,,0.6229508196721312,,1,,,,,,,,
3637.5999999940395,,directmemory_phase3,1323469,,,,,,,,object_14c.png,,,51,,,1,,object_01b.png,object_13b.png,object_11b.png,object_11b.png,,0.6290322580645161,,1,,,,,,,,
5905.20000000298,,directmemory_phase3,1329376,,,,,,,,object_04b.png,,,50,,,1,,object_08c.png,object_11c.png,object_10b.png,object_11c.png,,0.6349206349206349,,1,,,,,,,,
2849.8999999910593,,directmemory_phase3,1332227,,,,,,,,object_07c.png,,,50,,,1,,object_15c.png,object_07b.png,object_02c.png,object_07b.png,,0.640625,,1,,,,,,,,
4959.800000011921,,directmemory_phase3,1337189,,,,,,,,object_11a.png,,,49,,,1,,object_06c.png,object_14a.png,object_05c.png,object_06c.png,,0.6461538461538462,,1,,,,,,,,
2124.2999999970198,,directmemory_phase3,1339315,,,,,,,,object_05c.png,,,49,,,1,,object_15c.png,object_10b.png,object_13a.png,object_15c.png,,0.6515151515151515,,1,,,,,,,,
3622.1000000089407,,directmemory_phase3,1342939,,,,,,,,object_02a.png,,,50,,,1,,object_15c.png,object_03a.png,object_12c.png,object_03a.png,,0.6567164179104478,,1,,,,,,,,
4029.7000000029802,,directmemory_phase3,1346971,,,,,,,,object_01a.png,,,51,,,0,,object_09a.png,object_15b.png,object_01b.png,object_15b.png,,0.6470588235294118,,0,,,,,,,,
2530.3999999910593,,directmemory_phase3,1349503,,,,,,,,object_12b.png,,,49,,,1,,object_10c.png,object_02a.png,object_07a.png,object_10c.png,,0.6521739130434783,,1,,,,,,,,
3191.6000000089407,,directmemory_phase3,1352698,,,,,,,,object_09b.png,,,51,,,1,,object_02b.png,object_01a.png,object_04c.png,object_04c.png,,0.6571428571428571,,1,,,,,,,,
6020.20000000298,,directmemory_phase3,1358720,,,,,,,,object_08c.png,,,51,,,0,,object_12a.png,object_09c.png,object_15b.png,object_09c.png,,0.647887323943662,,0,,,,,,,,
2062.7999999970198,,directmemory_phase3,1360785,,,,,,,,object_09a.png,,,49,,,1,,object_02b.png,object_10b.png,object_13c.png,object_02b.png,,0.6527777777777778,,1,,,,,,,,
4115.79999999702,,directmemory_phase3,1364903,,,,,,,,object_09c.png,,,50,,,1,,object_02a.png,object_06b.png,object_05c.png,object_06b.png,,0.6575342465753424,,1,,,,,,,,
1572.9000000059605,,directmemory_phase3,1366478,,,,,,,,object_15a.png,,,49,,,1,,object_11b.png,object_07c.png,object_06b.png,object_11b.png,,0.6621621621621622,,1,,,,,,,,
3145,,directmemory_phase3,1369625,,,,,,,,object_07a.png,,,51,,,1,,object_06a.png,object_05b.png,object_06c.png,object_06c.png,,0.6666666666666666,,1,,,,,,,,
7139.79999999702,,directmemory_phase3,1376767,,,,,,,,object_01b.png,,,51,,,1,,object_07b.png,object_11c.png,object_02c.png,object_02c.png,,0.6710526315789473,,1,,,,,,,,
1809.7000000029802,,directmemory_phase3,1378580,,,,,,,,object_11c.png,,,51,,,1,,object_10a.png,object_07c.png,object_04a.png,object_04a.png,,0.6753246753246753,,1,,,,,,,,
3517.0999999940395,,directmemory_phase3,1382099,,,,,,,,object_02b.png,,,49,,,0,,object_14b.png,object_15c.png,object_10a.png,object_10a.png,,0.6666666666666666,,0,,,,,,,,
4174.699999988079,,directmemory_phase3,1386276,,,,,,,,object_04c.png,,,50,,,1,,object_15c.png,object_14b.png,object_11a.png,object_14b.png,,0.6708860759493671,,1,,,,,,,,
5276.70000000298,,directmemory_phase3,1391555,,,,,,,,object_15b.png,,,50,,,1,,object_15c.png,object_01c.png,object_14b.png,object_01c.png,,0.675,,1,,,,,,,,
1520.2000000029802,,directmemory_phase3,1393076,,,,,,,,object_08a.png,,,51,,,1,,object_06a.png,object_13a.png,object_10c.png,object_10c.png,,0.6790123456790124,,1,,,,,,,,
2087.5,,directmemory_phase3,1395165,,,,,,,,object_13b.png,,,50,,,1,,object_05b.png,object_07c.png,object_06c.png,object_07c.png,,0.6829268292682927,,1,,,,,,,,
5590,,directmemory_phase3,1400757,,,,,,,,object_05b.png,,,51,,,1,,object_06a.png,object_04b.png,object_02a.png,object_02a.png,,0.6867469879518072,,1,,,,,,,,
1881,,directmemory_phase3,1402640,,,,,,,,object_06a.png,,,49,,,1,,object_12c.png,object_05a.png,object_10b.png,object_12c.png,,0.6904761904761905,,1,,,,,,,,
2809.0999999940395,,directmemory_phase3,1405451,,,,,,,,object_08b.png,,,50,,,1,,object_07a.png,object_06a.png,object_11c.png,object_06a.png,,0.6941176470588235,,1,,,,,,,,
1830.5999999940395,,directmemory_phase3,1407283,,,,,,,,object_03c.png,,,49,,,1,,object_14a.png,object_15c.png,object_05b.png,object_14a.png,,0.6976744186046512,,1,,,,,,,,
5769.0999999940395,,directmemory_phase3,1413054,,,,,,,,object_13c.png,,,49,,,0,,object_14a.png,object_12a.png,object_15c.png,object_15c.png,,0.6896551724137931,,0,,,,,,,,
2455.2000000029802,,directmemory_phase3,1415512,,,,,,,,object_12a.png,,,51,,,1,,object_09c.png,object_04b.png,object_10b.png,object_10b.png,,0.6931818181818182,,1,,,,,,,,
5298.5999999940395,,directmemory_phase3,1420813,,,,,,,,object_03b.png,,,49,,,1,,object_01b.png,object_06a.png,object_09b.png,object_01b.png,,0.6966292134831461,,1,,,,,,,,
4381.9000000059605,,directmemory_phase3,1425197,,,,,,,,object_14a.png,,,50,,,0,,object_05a.png,object_05c.png,object_06a.png,object_05a.png,,0.6888888888888889,,0,,,,,,,,
null,,thebreak,1425299,,,,,,,,<p></p>,,,null,,,,,,,,,,,,,,,,,,,,
2386.6000000089407,,intro_0,1427687,,,,,,,,instruct,,,32,,,,,,,,,,,,,,,,,,,,
null,,learn_phase(without_color)4,1431189,,,,,,,,black_plus_sign,,,null,object_14c.png,object_11b.png,,,,,,,,,,,,,,,,,,
null,,black_cross(without_color)4,1432034,,,,,,,,blue,,,null,object_14c.png,object_11b.png,,,,,,,,,,,,,,,,,,
null,,rt_plussign_withcolor4,1432535,,,,,,,,blue,,,null,object_14c.png,object_11b.png,,,,,,,,,,,,,,,,,,
null,,rt_thecrossant_black4,1433695,,,,,,,,black_plus_sign,,,null,,,,,,,,,,NaN,,,,,,,,,,
null,,warning_page,1438698,,,,,,,,warning,,,null,,,,,,,,,,,,,,,,,,,,
null,,color_black4,1438800,,,,,,,,black_plus_sign,,,null,,,,,,,,,,,,,,,,,,,,
null,,learn_phase(without_color)4,1442303,,,,,,,,black_plus_sign,,,null,object_10b.png,object_13a.png,,,,,,,,,,,,,,,,,,
null,,black_cross(without_color)4,1443323,,,,,,,,green,,,null,object_10b.png,object_13a.png,,,,,,,,,,,,,,,,,,
null,,rt_plussign_withcolor4,1443824,,,,,,,,green,,,null,object_10b.png,object_13a.png,,,,,,,,,,,,,,,,,,
1256.7999999970198,,rt_thecrossant_black4,1444810,,,,,,,,black_plus_sign,,,50,,,1,,,,,,,1,,,,,,,,,,
null,,color_black4,1444913,,,,,,,,black_plus_sign,,,null,,,,,,,,,,,,,,,,,,,,
null,,learn_phase(without_color)4,1448416,,,,,,,,black_plus_sign,,,null,object_08b.png,object_06a.png,,,,,,,,,,,,,,,,,,
null,,black_cross(without_color)4,1449152,,,,,,,,blue,,,null,object_08b.png,object_06a.png,,,,,,,,,,,,,,,,,,
null,,rt_plussign_withcolor4,1449654,,,,,,,,blue,,,null,object_08b.png,object_06a.png,,,,,,,,,,,,,,,,,,
1528.7000000029802,,rt_thecrossant_black4,1450923,,,,,,,,black_plus_sign,,,49,,,1,,,,,,,1,,,,,,,,,,
null,,color_black4,1451024,,,,,,,,black_plus_sign,,,null,,,,,,,,,,,,,,,,,,,,
null,,learn_phase(without_color)4,1454527,,,,,,,,black_plus_sign,,,null,object_15a.png,object_11b.png,,,,,,,,,,,,,,,,,,
null,,black_cross(without_color)4,1455113,,,,,,,,green,,,null,object_15a.png,object_11b.png,,,,,,,,,,,,,,,,,,
null,,rt_plussign_withcolor4,1455614,,,,,,,,green,,,null,object_15a.png,object_11b.png,,,,,,,,,,,,,,,,,,
1082.699999988079,,rt_thecrossant_black4,1457033,,,,,,,,black_plus_sign,,,50,,,1,,,,,,,1,,,,,,,,,,
null,,color_black4,1457135,,,,,,,,black_plus_sign,,,null,,,,,,,,,,,,,,,,,,,,
null,,learn_phase(without_color)4,1460638,,,,,,,,black_plus_sign,,,null,object_01c.png,object_15b.png,,,,,,,,,,,,,,,,,,
null,,black_cross(without_color)4,1461638,,,,,,,,blue,,,null,object_01c.png,object_15b.png,,,,,,,,,,,,,,,,,,
null,,rt_plussign_withcolor4,1462140,,,,,,,,blue,,,null,object_01c.png,object_15b.png,,,,,,,,,,,,,,,,,,
894.7999999970198,,rt_thecrossant_black4,1463144,,,,,,,,black_plus_sign,,,49,,,1,,,,,,,1,,,,,,,,,,
null,,color_black4,1463246,,,,,,,,black_plus_sign,,,null,,,,,,,,,,,,,,,,,,,,
null,,learn_phase(without_color)4,1466749,,,,,,,,black_plus_sign,,,null,object_14a.png,object_03c.png,,,,,,,,,,,,,,,,,,
null,,black_cross(without_color)4,1467277,,,,,,,,blue,,,null,object_14a.png,object_03c.png,,,,,,,,,,,,,,,,,,
null,,rt_plussign_withcolor4,1467780,,,,,,,,blue,,,null,object_14a.png,object_03c.png,,,,,,,,,,,,,,,,,,
1496.7999999970198,,rt_thecrossant_black4,1469258,,,,,,,,black_plus_sign,,,49,,,1,,,,,,,1,,,,,,,,,,
null,,color_black4,1469360,,,,,,,,black_plus_sign,,,null,,,,,,,,,,,,,,,,,,,,
null,,learn_phase(without_color)4,1472863,,,,,,,,black_plus_sign,,,null,object_02b.png,object_09a.png,,,,,,,,,,,,,,,,,,
null,,black_cross(without_color)4,1473768,,,,,,,,blue,,,null,object_02b.png,object_09a.png,,,,,,,,,,,,,,,,,,
null,,rt_plussign_withcolor4,1474271,,,,,,,,blue,,,null,object_02b.png,object_09a.png,,,,,,,,,,,,,,,,,,
1100.1000000089407,,rt_thecrossant_black4,1475371,,,,,,,,black_plus_sign,,,49,,,1,,,,,,,1,,,,,,,,,,
null,,color_black4,1475475,,,,,,,,black_plus_sign,,,null,,,,,,,,,,,,,,,,,,,,
null,,learn_phase(without_color)4,1478979,,,,,,,,black_plus_sign,,,null,object_05c.png,object_15c.png,,,,,,,,,,,,,,,,,,
null,,black_cross(without_color)4,1479473,,,,,,,,green,,,null,object_05c.png,object_15c.png,,,,,,,,,,,,,,,,,,
null,,rt_plussign_withcolor4,1479975,,,,,,,,green,,,null,object_05c.png,object_15c.png,,,,,,,,,,,,,,,,,,
1315.5,,rt_thecrossant_black4,1481487,,,,,,,,black_plus_sign,,,50,,,1,,,,,,,1,,,,,,,,,,
null,,color_black4,1481590,,,,,,,,black_plus_sign,,,null,,,,,,,,,,,,,,,,,,,,
null,,learn_phase(without_color)4,1485095,,,,,,,,black_plus_sign,,,null,object_02b.png,object_10a.png,,,,,,,,,,,,,,,,,,
null,,black_cross(without_color)4,1485672,,,,,,,,blue,,,null,object_02b.png,object_10a.png,,,,,,,,,,,,,,,,,,
null,,rt_plussign_withcolor4,1486173,,,,,,,,blue,,,null,object_02b.png,object_10a.png,,,,,,,,,,,,,,,,,,
832.8999999910593,,rt_thecrossant_black4,1487602,,,,,,,,black_plus_sign,,,49,,,1,,,,,,,1,,,,,,,,,,
null,,color_black4,1487705,,,,,,,,black_plus_sign,,,null,,,,,,,,,,,,,,,,,,,,
null,,learn_phase(without_color)4,1491207,,,,,,,,black_plus_sign,,,null,object_11a.png,object_06c.png,,,,,,,,,,,,,,,,,,
null,,black_cross(without_color)4,1491943,,,,,,,,blue,,,null,object_11a.png,object_06c.png,,,,,,,,,,,,,,,,,,
null,,rt_plussign_withcolor4,1492445,,,,,,,,blue,,,null,object_11a.png,object_06c.png,,,,,,,,,,,,,,,,,,
1140,,rt_thecrossant_black4,1493713,,,,,,,,black_plus_sign,,,49,,,1,,,,,,,1,,,,,,,,,,
null,,color_black4,1493815,,,,,,,,black_plus_sign,,,null,,,,,,,,,,,,,,,,,,,,
null,,learn_phase(without_color)4,1497317,,,,,,,,black_plus_sign,,,null,object_12b.png,object_10c.png,,,,,,,,,,,,,,,,,,
null,,black_cross(without_color)4,1497948,,,,,,,,blue,,,null,object_12b.png,object_10c.png,,,,,,,,,,,,,,,,,,
null,,rt_plussign_withcolor4,1498449,,,,,,,,blue,,,null,object_12b.png,object_10c.png,,,,,,,,,,,,,,,,,,
1216,,rt_thecrossant_black4,1499822,,,,,,,,black_plus_sign,,,49,,,1,,,,,,,1,,,,,,,,,,
null,,color_black4,1499924,,,,,,,,black_plus_sign,,,null,,,,,,,,,,,,,,,,,,,,
null,,learn_phase(without_color)4,1503428,,,,,,,,black_plus_sign,,,null,object_09b.png,object_04c.png,,,,,,,,,,,,,,,,,,
null,,black_cross(without_color)4,1504267,,,,,,,,blue,,,null,object_09b.png,object_04c.png,,,,,,,,,,,,,,,,,,
null,,rt_plussign_withcolor4,1504769,,,,,,,,blue,,,null,object_09b.png,object_04c.png,,,,,,,,,,,,,,,,,,
997.5999999940395,,rt_thecrossant_black4,1505934,,,,,,,,black_plus_sign,,,49,,,1,,,,,,,1,,,,,,,,,,
null,,color_black4,1506036,,,,,,,,black_plus_sign,,,null,,,,,,,,,,,,,,,,,,,,
null,,learn_phase(without_color)4,1509539,,,,,,,,black_plus_sign,,,null,object_02a.png,object_03a.png,,,,,,,,,,,,,,,,,,
null,,black_cross(without_color)4,1510381,,,,,,,,blue,,,null,object_02a.png,object_03a.png,,,,,,,,,,,,,,,,,,
null,,rt_plussign_withcolor4,1510883,,,,,,,,blue,,,null,object_02a.png,object_03a.png,,,,,,,,,,,,,,,,,,
1188.4000000059605,,rt_thecrossant_black4,1512046,,,,,,,,black_plus_sign,,,49,,,1,,,,,,,1,,,,,,,,,,
null,,color_black4,1512150,,,,,,,,black_plus_sign,,,null,,,,,,,,,,,,,,,,,,,,
null,,learn_phase(without_color)4,1515653,,,,,,,,black_plus_sign,,,null,object_10b.png,object_12a.png,,,,,,,,,,,,,,,,,,
null,,black_cross(without_color)4,1516120,,,,,,,,blue,,,null,object_10b.png,object_12a.png,,,,,,,,,,,,,,,,,,
null,,rt_plussign_withcolor4,1516622,,,,,,,,blue,,,null,object_10b.png,object_12a.png,,,,,,,,,,,,,,,,,,
1197.4000000059605,,rt_thecrossant_black4,1518160,,,,,,,,black_plus_sign,,,49,,,1,,,,,,,1,,,,,,,,,,
null,,color_black4,1518262,,,,,,,,black_plus_sign,,,null,,,,,,,,,,,,,,,,,,,,
null,,learn_phase(without_color)4,1521765,,,,,,,,black_plus_sign,,,null,object_05b.png,object_02a.png,,,,,,,,,,,,,,,,,,
null,,black_cross(without_color)4,1522616,,,,,,,,green,,,null,object_05b.png,object_02a.png,,,,,,,,,,,,,,,,,,
null,,rt_plussign_withcolor4,1523118,,,,,,,,green,,,null,object_05b.png,object_02a.png,,,,,,,,,,,,,,,,,,
1353.5999999940395,,rt_thecrossant_black4,1524271,,,,,,,,black_plus_sign,,,50,,,1,,,,,,,1,,,,,,,,,,
null,,color_black4,1524374,,,,,,,,black_plus_sign,,,null,,,,,,,,,,,,,,,,,,,,
null,,learn_phase(without_color)4,1527877,,,,,,,,black_plus_sign,,,null,object_04a.png,object_11c.png,,,,,,,,,,,,,,,,,,
null,,black_cross(without_color)4,1528514,,,,,,,,blue,,,null,object_04a.png,object_11c.png,,,,,,,,,,,,,,,,,,
null,,rt_plussign_withcolor4,1529016,,,,,,,,blue,,,null,object_04a.png,object_11c.png,,,,,,,,,,,,,,,,,,
1054.6000000089407,,rt_thecrossant_black4,1530383,,,,,,,,black_plus_sign,,,49,,,1,,,,,,,1,,,,,,,,,,
null,,color_black4,1530485,,,,,,,,black_plus_sign,,,null,,,,,,,,,,,,,,,,,,,,
null,,learn_phase(without_color)4,1533989,,,,,,,,black_plus_sign,,,null,object_09c.png,object_06b.png,,,,,,,,,,,,,,,,,,
null,,black_cross(without_color)4,1534740,,,,,,,,green,,,null,object_09c.png,object_06b.png,,,,,,,,,,,,,,,,,,
null,,rt_plussign_withcolor4,1535242,,,,,,,,green,,,null,object_09c.png,object_06b.png,,,,,,,,,,,,,,,,,,
1288.7999999970198,,rt_thecrossant_black4,1536496,,,,,,,,black_plus_sign,,,50,,,1,,,,,,,1,,,,,,,,,,
null,,color_black4,1536599,,,,,,,,black_plus_sign,,,null,,,,,,,,,,,,,,,,,,,,
null,,learn_phase(without_color)4,1540103,,,,,,,,black_plus_sign,,,null,object_13b.png,object_07c.png,,,,,,,,,,,,,,,,,,
null,,black_cross(without_color)4,1541085,,,,,,,,green,,,null,object_13b.png,object_07c.png,,,,,,,,,,,,,,,,,,
null,,rt_plussign_withcolor4,1541589,,,,,,,,green,,,null,object_13b.png,object_07c.png,,,,,,,,,,,,,,,,,,
1362.5,,rt_thecrossant_black4,1542612,,,,,,,,black_plus_sign,,,50,,,1,,,,,,,1,,,,,,,,,,
null,,color_black4,1542714,,,,,,,,black_plus_sign,,,null,,,,,,,,,,,,,,,,,,,,
null,,learn_phase(without_color)4,1546217,,,,,,,,black_plus_sign,,,null,object_01a.png,object_15b.png,,,,,,,,,,,,,,,,,,
null,,black_cross(without_color)4,1547114,,,,,,,,blue,,,null,object_01a.png,object_15b.png,,,,,,,,,,,,,,,,,,
null,,rt_plussign_withcolor4,1547615,,,,,,,,blue,,,null,object_01a.png,object_15b.png,,,,,,,,,,,,,,,,,,
1375.1000000089407,,rt_thecrossant_black4,1548723,,,,,,,,black_plus_sign,,,49,,,1,,,,,,,1,,,,,,,,,,
null,,color_black4,1548825,,,,,,,,black_plus_sign,,,null,,,,,,,,,,,,,,,,,,,,
null,,learn_phase(without_color)4,1552330,,,,,,,,black_plus_sign,,,null,object_01b.png,object_02c.png,,,,,,,,,,,,,,,,,,
null,,black_cross(without_color)4,1553169,,,,,,,,green,,,null,object_01b.png,object_02c.png,,,,,,,,,,,,,,,,,,
null,,rt_plussign_withcolor4,1553672,,,,,,,,green,,,null,object_01b.png,object_02c.png,,,,,,,,,,,,,,,,,,
1407.3999999910593,,rt_thecrossant_black4,1554839,,,,,,,,black_plus_sign,,,50,,,1,,,,,,,1,,,,,,,,,,
null,,color_black4,1554942,,,,,,,,black_plus_sign,,,null,,,,,,,,,,,,,,,,,,,,
null,,learn_phase(without_color)4,1558446,,,,,,,,black_plus_sign,,,null,object_07a.png,object_06c.png,,,,,,,,,,,,,,,,,,
null,,black_cross(without_color)4,1558989,,,,,,,,green,,,null,object_07a.png,object_06c.png,,,,,,,,,,,,,,,,,,
null,,rt_plussign_withcolor4,1559491,,,,,,,,green,,,null,object_07a.png,object_06c.png,,,,,,,,,,,,,,,,,,
1235.1000000089407,,rt_thecrossant_black4,1560953,,,,,,,,black_plus_sign,,,50,,,1,,,,,,,1,,,,,,,,,,
null,,color_black4,1561055,,,,,,,,black_plus_sign,,,null,,,,,,,,,,,,,,,,,,,,
null,,learn_phase(without_color)4,1564558,,,,,,,,black_plus_sign,,,null,object_14a.png,object_05a.png,,,,,,,,,,,,,,,,,,
null,,black_cross(without_color)4,1564965,,,,,,,,green,,,null,object_14a.png,object_05a.png,,,,,,,,,,,,,,,,,,
null,,rt_plussign_withcolor4,1565467,,,,,,,,green,,,null,object_14a.png,object_05a.png,,,,,,,,,,,,,,,,,,
null,,rt_thecrossant_black4,1567063,,,,,,,,black_plus_sign,,,null,,,,,,,,,,1,,,,,,,,,,
null,,color_black4,1567165,,,,,,,,black_plus_sign,,,null,,,,,,,,,,,,,,,,,,,,
null,,learn_phase(without_color)4,1570668,,,,,,,,black_plus_sign,,,null,object_07b.png,object_07c.png,,,,,,,,,,,,,,,,,,
null,,black_cross(without_color)4,1571512,,,,,,,,green,,,null,object_07b.png,object_07c.png,,,,,,,,,,,,,,,,,,
null,,rt_plussign_withcolor4,1572014,,,,,,,,green,,,null,object_07b.png,object_07c.png,,,,,,,,,,,,,,,,,,
696.5,,rt_thecrossant_black4,1573175,,,,,,,,black_plus_sign,,,50,,,1,,,,,,,1,,,,,,,,,,
null,,color_black4,1573278,,,,,,,,black_plus_sign,,,null,,,,,,,,,,,,,,,,,,,,
null,,learn_phase(without_color)4,1576782,,,,,,,,black_plus_sign,,,null,object_03b.png,object_01b.png,,,,,,,,,,,,,,,,,,
null,,black_cross(without_color)4,1577396,,,,,,,,blue,,,null,object_03b.png,object_01b.png,,,,,,,,,,,,,,,,,,
null,,rt_plussign_withcolor4,1577898,,,,,,,,blue,,,null,object_03b.png,object_01b.png,,,,,,,,,,,,,,,,,,
1192.7999999970198,,rt_thecrossant_black4,1579288,,,,,,,,black_plus_sign,,,49,,,1,,,,,,,1,,,,,,,,,,
null,,color_black4,1579391,,,,,,,,black_plus_sign,,,null,,,,,,,,,,,,,,,,,,,,
null,,learn_phase(without_color)4,1582893,,,,,,,,black_plus_sign,,,null,object_10c.png,object_08a.png,,,,,,,,,,,,,,,,,,
null,,black_cross(without_color)4,1583695,,,,,,,,green,,,null,object_10c.png,object_08a.png,,,,,,,,,,,,,,,,,,
null,,rt_plussign_withcolor4,1584198,,,,,,,,green,,,null,object_10c.png,object_08a.png,,,,,,,,,,,,,,,,,,
963.7999999970198,,rt_thecrossant_black4,1585401,,,,,,,,black_plus_sign,,,50,,,1,,,,,,,1,,,,,,,,,,
null,,color_black4,1585506,,,,,,,,black_plus_sign,,,null,,,,,,,,,,,,,,,,,,,,
null,,learn_phase(without_color)4,1589010,,,,,,,,black_plus_sign,,,null,object_12c.png,object_06a.png,,,,,,,,,,,,,,,,,,
null,,black_cross(without_color)4,1589487,,,,,,,,blue,,,null,object_12c.png,object_06a.png,,,,,,,,,,,,,,,,,,
null,,rt_plussign_withcolor4,1589989,,,,,,,,blue,,,null,object_12c.png,object_06a.png,,,,,,,,,,,,,,,,,,
1183.6000000089407,,rt_thecrossant_black4,1591515,,,,,,,,black_plus_sign,,,49,,,1,,,,,,,1,,,,,,,,,,
null,,color_black4,1591617,,,,,,,,black_plus_sign,,,null,,,,,,,,,,,,,,,,,,,,
null,,learn_phase(without_color)4,1595120,,,,,,,,black_plus_sign,,,null,object_11c.png,object_04b.png,,,,,,,,,,,,,,,,,,
null,,black_cross(without_color)4,1595954,,,,,,,,blue,,,null,object_11c.png,object_04b.png,,,,,,,,,,,,,,,,,,
null,,rt_plussign_withcolor4,1596456,,,,,,,,blue,,,null,object_11c.png,object_04b.png,,,,,,,,,,,,,,,,,,
823.2999999970198,,rt_thecrossant_black4,1597629,,,,,,,,black_plus_sign,,,49,,,1,,,,,,,1,,,,,,,,,,
null,,color_black4,1597731,,,,,,,,black_plus_sign,,,null,,,,,,,,,,,,,,,,,,,,
null,,learn_phase(without_color)4,1601234,,,,,,,,black_plus_sign,,,null,object_08c.png,object_09c.png,,,,,,,,,,,,,,,,,,
null,,black_cross(without_color)4,1601788,,,,,,,,blue,,,null,object_08c.png,object_09c.png,,,,,,,,,,,,,,,,,,
null,,rt_plussign_withcolor4,1602291,,,,,,,,blue,,,null,object_08c.png,object_09c.png,,,,,,,,,,,,,,,,,,
1507.2999999970198,,rt_thecrossant_black4,1603743,,,,,,,,black_plus_sign,,,49,,,1,,,,,,,1,,,,,,,,,,
null,,color_black4,1603846,,,,,,,,black_plus_sign,,,null,,,,,,,,,,,,,,,,,,,,
null,,learn_phase(without_color)4,1607348,,,,,,,,black_plus_sign,,,null,object_04c.png,object_14b.png,,,,,,,,,,,,,,,,,,
null,,black_cross(without_color)4,1608171,,,,,,,,green,,,null,object_04c.png,object_14b.png,,,,,,,,,,,,,,,,,,
null,,rt_plussign_withcolor4,1608673,,,,,,,,green,,,null,object_04c.png,object_14b.png,,,,,,,,,,,,,,,,,,
852.4000000059605,,rt_thecrossant_black4,1609856,,,,,,,,black_plus_sign,,,50,,,1,,,,,,,1,,,,,,,,,,
null,,color_black4,1609958,,,,,,,,black_plus_sign,,,null,,,,,,,,,,,,,,,,,,,,
null,,learn_phase(without_color)4,1613461,,,,,,,,black_plus_sign,,,null,object_15c.png,object_13c.png,,,,,,,,,,,,,,,,,,
null,,black_cross(without_color)4,1614536,,,,,,,,green,,,null,object_15c.png,object_13c.png,,,,,,,,,,,,,,,,,,
null,,rt_plussign_withcolor4,1615038,,,,,,,,green,,,null,object_15c.png,object_13c.png,,,,,,,,,,,,,,,,,,
1682.699999988079,,rt_thecrossant_black4,1615979,,,,,,,,black_plus_sign,,,50,,,1,,,,,,,1,,,,,,,,,,
null,,color_black4,1616083,,,,,,,,black_plus_sign,,,null,,,,,,,,,,,,,,,,,,,,
null,,thebreak,1616186,,,,,,,,<p></p>,,,null,,,,,,,,,,,,,,,,,,,,
2340.8999999910593,,intro_0,1618529,,,,,,,,instruct,,,32,,,,,,,,,,,,,,,,,,,,
6583.9000000059605,,directmemory_phase4,1625114,,,,,,,,object_15b.png,,,51,,,1,,object_11a.png,object_06c.png,object_01c.png,object_01c.png,,0.6923076923076923,,1,,,,,,,,
4231.4000000059605,,directmemory_phase4,1629348,,,,,,,,object_13c.png,,,51,,,1,,object_02b.png,object_12a.png,object_15c.png,object_15c.png,,0.6956521739130435,,1,,,,,,,,
7218.70000000298,,directmemory_phase4,1636569,,,,,,,,object_06c.png,,,49,,,0,,object_05a.png,object_07c.png,object_11a.png,object_11a.png,,0.6881720430107527,,0,,,,,,,,
1974,,directmemory_phase4,1638545,,,,,,,,object_06b.png,,,50,,,1,,object_07b.png,object_09c.png,object_06c.png,object_09c.png,,0.6914893617021277,,1,,,,,,,,
9629.59999999404,,directmemory_phase4,1648177,,,,,,,,object_10b.png,,,51,,,1,,object_06b.png,object_01b.png,object_13a.png,object_13a.png,,0.6947368421052632,,1,,,,,,,,
1906.3999999910593,,directmemory_phase4,1650086,,,,,,,,object_03b.png,,,50,,,1,,object_08c.png,object_01b.png,object_10c.png,object_01b.png,,0.6979166666666666,,1,,,,,,,,
1656.2000000029802,,directmemory_phase4,1651745,,,,,,,,object_13b.png,,,51,,,1,,object_06a.png,object_05b.png,object_07c.png,object_07c.png,,0.7010309278350515,,1,,,,,,,,
7081.70000000298,,directmemory_phase4,1658829,,,,,,,,object_01b.png,,,49,,,1,,object_02c.png,object_03a.png,object_02b.png,object_02c.png,,0.7040816326530612,,1,,,,,,,,
5008.5,,directmemory_phase4,1663841,,,,,,,,object_02a.png,,,51,,,1,,object_12c.png,object_07c.png,object_03a.png,object_03a.png,,0.7070707070707071,,1,,,,,,,,
2743.7999999970198,,directmemory_phase4,1666587,,,,,,,,object_10a.png,,,50,,,1,,object_05c.png,object_02b.png,object_06c.png,object_02b.png,,0.71,,1,,,,,,,,
7941.5999999940395,,directmemory_phase4,1674531,,,,,,,,object_15c.png,,,50,,,1,,object_10c.png,object_05c.png,object_08a.png,object_05c.png,,0.7128712871287128,,1,,,,,,,,
3256.800000011921,,directmemory_phase4,1677790,,,,,,,,object_04c.png,,,49,,,1,,object_14b.png,object_01c.png,object_06c.png,object_14b.png,,0.7156862745098039,,1,,,,,,,,
4421.9000000059605,,directmemory_phase4,1682215,,,,,,,,object_09b.png,,,49,,,1,,object_04c.png,object_15c.png,object_12a.png,object_04c.png,,0.7184466019417476,,1,,,,,,,,
3098.9000000059605,,directmemory_phase4,1685316,,,,,,,,object_15a.png,,,51,,,1,,object_01b.png,object_06b.png,object_11b.png,object_11b.png,,0.7211538461538461,,1,,,,,,,,
2593.4000000059605,,directmemory_phase4,1687912,,,,,,,,object_05a.png,,,51,,,1,,object_15c.png,object_10a.png,object_14a.png,object_14a.png,,0.7238095238095238,,1,,,,,,,,
3612.5,,directmemory_phase4,1691527,,,,,,,,object_03c.png,,,51,,,1,,object_06c.png,object_03b.png,object_14a.png,object_14a.png,,0.7264150943396226,,1,,,,,,,,
3151.5999999940395,,directmemory_phase4,1694680,,,,,,,,object_10c.png,,,50,,,1,,object_11c.png,object_08a.png,object_14b.png,object_08a.png,,0.7289719626168224,,1,,,,,,,,
3973.7999999970198,,directmemory_phase4,1698656,,,,,,,,object_05b.png,,,51,,,1,,object_02b.png,object_13b.png,object_02a.png,object_02a.png,,0.7314814814814815,,1,,,,,,,,
2685,,directmemory_phase4,1701344,,,,,,,,object_07a.png,,,51,,,1,,object_10c.png,object_03b.png,object_06c.png,object_06c.png,,0.7339449541284404,,1,,,,,,,,
6964.100000008941,,directmemory_phase4,1708309,,,,,,,,object_12b.png,,,50,,,1,,object_13c.png,object_10c.png,object_15b.png,object_10c.png,,0.7363636363636363,,1,,,,,,,,
1941.8999999910593,,directmemory_phase4,1710253,,,,,,,,object_04b.png,,,51,,,1,,object_02a.png,object_12a.png,object_11c.png,object_11c.png,,0.7387387387387387,,1,,,,,,,,
1636.5999999940395,,directmemory_phase4,1711892,,,,,,,,object_04a.png,,,51,,,1,,object_10c.png,object_03a.png,object_11c.png,object_11c.png,,0.7410714285714286,,1,,,,,,,,
3629.2999999970198,,directmemory_phase4,1715524,,,,,,,,object_12a.png,,,49,,,1,,object_10b.png,object_02a.png,object_12b.png,object_10b.png,,0.7433628318584071,,1,,,,,,,,
4780.0999999940395,,directmemory_phase4,1720306,,,,,,,,object_07c.png,,,49,,,1,,object_07b.png,object_01c.png,object_10b.png,object_07b.png,,0.7456140350877193,,1,,,,,,,,
2870.5999999940395,,directmemory_phase4,1723179,,,,,,,,object_08b.png,,,49,,,1,,object_06a.png,object_02a.png,object_05b.png,object_06a.png,,0.7478260869565218,,1,,,,,,,,
4271.5,,directmemory_phase4,1727452,,,,,,,,object_08c.png,,,49,,,1,,object_09c.png,object_02b.png,object_08b.png,object_09c.png,,0.75,,1,,,,,,,,
2306.300000011921,,directmemory_phase4,1729761,,,,,,,,object_12c.png,,,49,,,1,,object_06a.png,object_02b.png,object_04a.png,object_06a.png,,0.7521367521367521,,1,,,,,,,,
7675.100000008941,,directmemory_phase4,1737440,,,,,,,,object_09a.png,,,49,,,1,,object_02b.png,object_01b.png,object_08c.png,object_02b.png,,0.7542372881355932,,1,,,,,,,,
4495.29999999702,,directmemory_phase4,1741938,,,,,,,,object_14c.png,,,51,,,1,,object_04c.png,object_05b.png,object_11b.png,object_11b.png,,0.7563025210084033,,1,,,,,,,,
3827.7000000029802,,directmemory_phase4,1745768,,,,,,,,object_01a.png,,,49,,,0,,object_13c.png,object_15b.png,object_10c.png,object_15b.png,,0.75,,0,,,,,,,,
null,,thebreak,1745872,,,,,,,,<p></p>,,,null,,,,,,,,,,,,,,,,,,,,
7365.5,,intro_0,1753239,,,,,,,,instruct,,,32,,,,,,,,,,,,,,,,,,,,
25030.79999999702,,intro_1,1778271,,,,,,,,instruct,,,32,,,,,,,,,,,,,,,,,,,,
3424.2000000029802,,intro_2,1781696,,,,,,,,instruct,,,32,,,,,,,,,,,,,,,,,,,,
,,intro_3,1808176,,,,,,,,instruct,,,,,,,,,,,,,,,,,,,,,,,
3541.3999999910593,,intro_4,1811720,,,,,,,,instruct,,,32,,,,,,,,,,,,,,,,,,,,
7564.20000000298,,inference_phase,1819286,,,,,,,,object_07b.png,,,49,object_13b.png,object_12b.png,1,,,,,object_13b.png,,1,,,object_15c.png,,,,,,,
13646,,inference_phase,1832934,,,,,,,,object_07a.png,,,50,object_11a.png,object_06b.png,0,,,,,object_11a.png,,0.5,,,object_15c.png,,,,,,,
8172.70000000298,,inference_phase,1841109,,,,,,,,object_08c.png,,,50,object_10c.png,object_06b.png,0,,,,,object_06b.png,,0.3333333333333333,,,object_05c.png,,,,,,,
8053.5,,inference_phase,1849165,,,,,,,,object_14c.png,,,51,object_15a.png,object_13a.png,0,,,,,object_15a.png,,0.25,,,object_09c.png,,,,,,,
8822.40000000596,,inference_phase,1857991,,,,,,,,object_05c.png,,,49,object_13c.png,object_05b.png,1,,,,,object_13c.png,,0.4,,,object_15b.png,,,,,,,
null,,inference_phase,1872995,,,,,,,,object_13a.png,,,null,object_12a.png,object_13b.png,0,,,,,object_12a.png,,0.3333333333333333,,,object_02b.png,,,,,,,
null,,warning_page,1877998,,,,,,,,warning,,,null,,,,,,,,,,,,,,,,,,,,
5778.199999988079,,inference_phase,1883778,,,,,,,,object_01c.png,,,51,object_04b.png,object_01a.png,1,,,,,object_01a.png,,0.42857142857142855,,,object_06c.png,,,,,,,
4874.600000008941,,inference_phase,1888654,,,,,,,,object_05a.png,,,51,object_13c.png,object_03c.png,1,,,,,object_03c.png,,0.5,,,object_15b.png,,,,,,,
4938.899999991059,,inference_phase,1893596,,,,,,,,object_09b.png,,,49,object_14b.png,object_13a.png,1,,,,,object_14b.png,,0.5555555555555556,,,object_02b.png,,,,,,,
5389.100000008941,,inference_phase,1898988,,,,,,,,object_08a.png,,,51,object_03c.png,object_12b.png,1,,,,,object_12b.png,,0.6,,,object_15b.png,,,,,,,
6748.79999999702,,inference_phase,1905739,,,,,,,,object_10a.png,,,49,object_09a.png,object_08c.png,1,,,,,object_09a.png,,0.6363636363636364,,,object_10b.png,,,,,,,
3968.7999999970198,,inference_phase,1909710,,,,,,,,object_12c.png,,,49,object_08b.png,object_08c.png,1,,,,,object_08b.png,,0.6666666666666666,,,object_11c.png,,,,,,,
5552,,inference_phase,1915265,,,,,,,,object_02c.png,,,50,object_03b.png,object_13c.png,0,,,,,object_03b.png,,0.6153846153846154,,,object_07c.png,,,,,,,
3278.3999999910593,,inference_phase,1918545,,,,,,,,object_04a.png,,,51,object_13c.png,object_04b.png,1,,,,,object_04b.png,,0.6428571428571429,,,object_02b.png,,,,,,,
6344,,inference_phase,1924892,,,,,,,,object_03a.png,,,50,object_03c.png,object_05b.png,0,,,,,object_05b.png,,0.6,,,object_10b.png,,,,,,,
,,survey,2052045,,,,,,,,survey-questions,,,,,,,,,,,,,,,,,none,high,I paid my full attention.,I tried to remember mass, direction and pastel or vivid.,Not really.,Not quite, can't remember something similar enough.,Good pacing, engaging.
