rt,responses,trial_type,time_elapsed,identifier_a,identifier_b,identifier_c,tasktype,browser_type,local_time,UTC_time,stimulus,button_pressed,response,key_press,stimulus_left,stimulus_right,accuracy,practice_cumulative_accuracy,stimulus_down_left,stimulus_down_mid,stimulus_down_right,stimulus_correct,prac_weighted_accuracy,cumulative_accuracy,weighted_accuracy,stimulus_middle,problems,smooth,distraction,strategies,easier,similar,comments,detectfocus,breakfocus,completion_code
6341.9000000059605,{worker_id:55899b8dfdf99b7ae47f5fa4},id_enter,6343,object_14a.png; object_11b.png; object_11a.png; object_10c.png; object_03c.png; object_15c.png; object_07b.png; object_12b.png; object_14b.png; object_03b.png; object_12a.png; object_15a.png; object_09c.png; object_14c.png; object_06a.png,object_04c.png; object_11c.png; object_12c.png; object_07a.png; object_02c.png; object_02b.png; object_05c.png; object_04b.png; object_05a.png; object_09b.png; object_09a.png; object_05b.png; object_13a.png; object_15b.png; object_13c.png,object_10b.png; object_02a.png; object_01a.png; object_08a.png; object_01b.png; object_13b.png; object_08c.png; object_01c.png; object_04a.png; object_03a.png; object_10a.png; object_06b.png; object_07c.png; object_06c.png; object_08b.png,interleaved,Mozilla/5.0 (Windows NT 10.0; Win64; x64) AppleWebKit/537.36 (KHTML, like Gecko) Chrome/136.0.0.0 Safari/537.36,5/8/2025, 10:53:07 PM,2025-05-09 03:53:07.072,,,,,,,,,,,,,,,,,,,,,,,,,,
17943.80000001192,,make_fullscreen,24298,,,,,,,,fullscreen,0,,,,,,,,,,,,,,,,,,,,,,,,
4938.800000011921,,instruct_1,29238,,,,,,,,instruct,0,Next,,,,,,,,,,,,,,,,,,,,,,,
9575.300000011921,,instruct_2,38814,,,,,,,,instruct,1,Next,,,,,,,,,,,,,,,,,,,,,,,
6191.300000011921,,instruct_3,45006,,,,,,,,instruct,1,Next,,,,,,,,,,,,,,,,,,,,,,,
18643.20000001788,,instruct_4,63650,,,,,,,,instruct,1,Next,,,,,,,,,,,,,,,,,,,,,,,
13059.199999988079,,instruct_5,76710,,,,,,,,instruct,1,Next,,,,,,,,,,,,,,,,,,,,,,,
5867.5999999940395,,instruct_6,82578,,,,,,,,instruct,1,Next,,,,,,,,,,,,,,,,,,,,,,,
26615.20000001788,,instruct_7,109194,,,,,,,,instruct,1,Next,,,,,,,,,,,,,,,,,,,,,,,
null,,prac_atten_color_black,109928,,,,,,,,black_plus_sign,,,null,,,,,,,,,,,,,,,,,,,,,,
null,,prac_atten_color,110597,,,,,,,,<p style='position:absolute;top: 50%;right: 50%;transform: translate(50%, -50%);font-size: 125px;color: blue;'>+</p>,,,null,,,,,,,,,,,,,,,,,,,,,,
234.80000001192093,,prac_atten_color_black,112599,,,,,,,,black_plus_sign,,,49,,,,,,,,,,,,,,,,,,,,,,
null,,prac_atten_color_black,113335,,,,,,,,black_plus_sign,,,null,,,,,,,,,,,,,,,,,,,,,,
542.8999999761581,,prac_atten_color,114422,,,,,,,,<p style='position:absolute;top: 50%;right: 50%;transform: translate(50%, -50%);font-size: 125px;color: green;'>+</p>,,,50,,,,,,,,,,,,,,,,,,,,,,
null,,prac_atten_color_black,116423,,,,,,,,black_plus_sign,,,null,,,,,,,,,,,,,,,,,,,,,,
null,,prac_atten_color_black,116739,,,,,,,,black_plus_sign,,,null,,,,,,,,,,,,,,,,,,,,,,
null,,prac_atten_color,117209,,,,,,,,<p style='position:absolute;top: 50%;right: 50%;transform: translate(50%, -50%);font-size: 125px;color: green;'>+</p>,,,null,,,,,,,,,,,,,,,,,,,,,,
146.80000001192093,,prac_atten_color_black,119210,,,,,,,,black_plus_sign,,,50,,,,,,,,,,,,,,,,,,,,,,
null,,prac_atten_color_black,120142,,,,,,,,black_plus_sign,,,null,,,,,,,,,,,,,,,,,,,,,,
null,,prac_atten_color,120786,,,,,,,,<p style='position:absolute;top: 50%;right: 50%;transform: translate(50%, -50%);font-size: 125px;color: blue;'>+</p>,,,null,,,,,,,,,,,,,,,,,,,,,,
130,,prac_atten_color_black,122787,,,,,,,,black_plus_sign,,,49,,,,,,,,,,,,,,,,,,,,,,
null,,prac_atten_color_black,123545,,,,,,,,black_plus_sign,,,null,,,,,,,,,,,,,,,,,,,,,,
null,,prac_atten_color,124063,,,,,,,,<p style='position:absolute;top: 50%;right: 50%;transform: translate(50%, -50%);font-size: 125px;color: green;'>+</p>,,,null,,,,,,,,,,,,,,,,,,,,,,
6.5,,prac_atten_color_black,126065,,,,,,,,black_plus_sign,,,50,,,,,,,,,,,,,,,,,,,,,,
null,,prac_atten_color_black,126949,,,,,,,,black_plus_sign,,,null,,,,,,,,,,,,,,,,,,,,,,
666.5999999940395,,prac_atten_color,127795,,,,,,,,<p style='position:absolute;top: 50%;right: 50%;transform: translate(50%, -50%);font-size: 125px;color: green;'>+</p>,,,50,,,,,,,,,,,,,,,,,,,,,,
null,,prac_atten_color_black,129795,,,,,,,,black_plus_sign,,,null,,,,,,,,,,,,,,,,,,,,,,
null,,prac_atten_color_black,130352,,,,,,,,black_plus_sign,,,null,,,,,,,,,,,,,,,,,,,,,,
null,,prac_atten_color,130996,,,,,,,,<p style='position:absolute;top: 50%;right: 50%;transform: translate(50%, -50%);font-size: 125px;color: blue;'>+</p>,,,null,,,,,,,,,,,,,,,,,,,,,,
67.59999999403954,,prac_atten_color_black,133001,,,,,,,,black_plus_sign,,,49,,,,,,,,,,,,,,,,,,,,,,
null,,prac_atten_color_black,133760,,,,,,,,black_plus_sign,,,null,,,,,,,,,,,,,,,,,,,,,,
599.8000000119209,,prac_atten_color,134822,,,,,,,,<p style='position:absolute;top: 50%;right: 50%;transform: translate(50%, -50%);font-size: 125px;color: green;'>+</p>,,,50,,,,,,,,,,,,,,,,,,,,,,
null,,prac_atten_color_black,136824,,,,,,,,black_plus_sign,,,null,,,,,,,,,,,,,,,,,,,,,,
null,,prac_atten_color_black,137164,,,,,,,,black_plus_sign,,,null,,,,,,,,,,,,,,,,,,,,,,
587.6999999880791,,prac_atten_color,138251,,,,,,,,<p style='position:absolute;top: 50%;right: 50%;transform: translate(50%, -50%);font-size: 125px;color: blue;'>+</p>,,,49,,,,,,,,,,,,,,,,,,,,,,
null,,prac_atten_color_black,140251,,,,,,,,black_plus_sign,,,null,,,,,,,,,,,,,,,,,,,,,,
null,,prac_atten_color_black,140568,,,,,,,,black_plus_sign,,,null,,,,,,,,,,,,,,,,,,,,,,
572,,prac_atten_color,141256,,,,,,,,<p style='position:absolute;top: 50%;right: 50%;transform: translate(50%, -50%);font-size: 125px;color: blue;'>+</p>,,,49,,,,,,,,,,,,,,,,,,,,,,
null,,prac_atten_color_black,143257,,,,,,,,black_plus_sign,,,null,,,,,,,,,,,,,,,,,,,,,,
6256.4000000059605,,attentioncheck_feedback,149514,,,,,,,,cross_check_feedback,0,,,,,,,,,,,,,,,,,,,,,,,,
12165.59999999404,,last_instruct,161680,,,,,,,,instruct,,,32,,,,,,,,,,,,,,,,,,,,,,
null,,prac_learn_phase(without_color),165182,,,,,,,,black_plus_sign,,,null,object_12a.png,object_09a.png,,,,,,,,,,,,,,,,,,,,
null,,prac_black_cross(without_color),165686,,,,,,,,blue,,,null,object_12a.png,object_09a.png,,,,,,,,,,,,,,,,,,,,
null,,prac_rt_plussign_withcolor,166188,,,,,,,,blue,,,null,object_12a.png,object_09a.png,,,,,,,,,,,,,,,,,,,,
1067.4000000059605,,prac_rt_thecrossant_black,167687,,,,,,,,black_plus_sign,,,50,,,0,0,,,,,,,,,,,,,,,,,,
null,,prac_color_black,167788,,,,,,,,black_plus_sign,,,null,,,,,,,,,,,,,,,,,,,,,,
null,,prac_learn_phase(without_color),171289,,,,,,,,black_plus_sign,,,null,object_05b.png,object_06b.png,,,,,,,,,,,,,,,,,,,,
null,,black_cross(without_color)1,171890,,,,,,,,green,,,null,object_12a.png,object_09a.png,,,,,,,,,,,,,,,,,,,,
null,,prac_rt_plussign_withcolor,172392,,,,,,,,blue,,,null,object_05b.png,object_06b.png,,,,,,,,,,,,,,,,,,,,
1095.800000011921,,prac_rt_thecrossant_black,173971,,,,,,,,black_plus_sign,,,49,,,1,0.5,,,,,,,,,,,,,,,,,,
null,,prac_color_black,174072,,,,,,,,black_plus_sign,,,null,,,,,,,,,,,,,,,,,,,,,,
null,,prac_learn_phase(without_color),177574,,,,,,,,black_plus_sign,,,null,object_07a.png,object_10c.png,,,,,,,,,,,,,,,,,,,,
null,,black_cross(without_color)1,178175,,,,,,,,green,,,null,object_12a.png,object_09a.png,,,,,,,,,,,,,,,,,,,,
null,,prac_rt_plussign_withcolor,178676,,,,,,,,blue,,,null,object_07a.png,object_10c.png,,,,,,,,,,,,,,,,,,,,
750.5999999940395,,prac_rt_thecrossant_black,179756,,,,,,,,black_plus_sign,,,49,,,1,0.6666666666666666,,,,,,,,,,,,,,,,,,
null,,prac_color_black,179858,,,,,,,,black_plus_sign,,,null,,,,,,,,,,,,,,,,,,,,,,
null,,prac_learn_phase(without_color),183361,,,,,,,,black_plus_sign,,,null,object_11c.png,object_11b.png,,,,,,,,,,,,,,,,,,,,
null,,black_cross(without_color)1,183963,,,,,,,,green,,,null,object_12a.png,object_09a.png,,,,,,,,,,,,,,,,,,,,
null,,prac_rt_plussign_withcolor,184463,,,,,,,,blue,,,null,object_11c.png,object_11b.png,,,,,,,,,,,,,,,,,,,,
1073.4000000059605,,prac_rt_thecrossant_black,185747,,,,,,,,black_plus_sign,,,49,,,1,0.75,,,,,,,,,,,,,,,,,,
null,,prac_color_black,185849,,,,,,,,black_plus_sign,,,null,,,,,,,,,,,,,,,,,,,,,,
7692.4000000059605,,instruct_dir_01,193542,,,,,,,,instruct,0,Next,,,,,,,,,,,,,,,,,,,,,,,
7903.300000011921,,instruct_dir_2,201446,,,,,,,,instruct,1,Next,,,,,,,,,,,,,,,,,,,,,,,
6234.9000000059605,,instruct_dir_3,207682,,,,,,,,instruct,1,Next,,,,,,,,,,,,,,,,,,,,,,,
4495.4000000059605,,instruct_dir_4,212178,,,,,,,,instruct,1,Start,,,,,,,,,,,,,,,,,,,,,,,
null,,thebreak,212280,,,,,,,,<p></p>,,,null,,,,,,,,,,,,,,,,,,,,,,
3140.0999999940395,,intro_0,215420,,,,,,,,instruct,,,32,,,,,,,,,,,,,,,,,,,,,,
3081.300000011921,,prac_directmemory_phase,218502,,,,,,,,practice/object_04a.png,,,51,,,1,,practice/object_03b.png,practice/object_03a.png,practice/object_04b.png,practice/object_04b.png,1,1,,,,,,,,,,,,
4733.199999988079,,prac_directmemory_phase,223236,,,,,,,,practice/object_01a.png,,,49,,,0,,practice/object_02b.png,practice/object_03a.png,practice/object_01b.png,practice/object_01b.png,0,0.5,,,,,,,,,,,,
3006.9000000059605,,prac_directmemory_phase,226244,,,,,,,,practice/object_02a.png,,,50,,,1,,practice/object_04a.png,practice/object_02b.png,practice/object_01b.png,practice/object_02b.png,1,0.6666666666666666,,,,,,,,,,,,
3309.0999999940395,,prac_directmemory_phase,229554,,,,,,,,practice/object_03a.png,,,50,,,1,,practice/object_02a.png,practice/object_03b.png,practice/object_02b.png,practice/object_03b.png,1,0.75,,,,,,,,,,,,
5875.5999999940395,,practice_feedback,235430,,,,,,,,practice_feedback,1,,,,,,,,,,,,,,,,,,,,,,,,
10683.40000000596,,proceed_actualTask,246114,,,,,,,,proceed_actualTask,1,Continue,,,,,,,,,,,,,,,,,,,,,,,
11263.5,,last_inst,257378,,,,,,,,last_inst,,,32,,,,,,,,,,,,,,,,,,,,,,
null,,learn_phase(without_color)1,260879,,,,,,,,black_plus_sign,,,null,object_12a.png,object_09a.png,,,,,,,,,,,,,,,,,,,,
null,,black_cross(without_color)1,261481,,,,,,,,green,,,null,object_12a.png,object_09a.png,,,,,,,,,,,,,,,,,,,,
null,,rt_plussign_withcolor1,261982,,,,,,,,green,,,null,object_12a.png,object_09a.png,,,,,,,,,,,,,,,,,,,,
null,,rt_thecrossant_black1,263384,,,,,,,,black_plus_sign,,,null,,,,,,,,,,NaN,,,,,,,,,,,,
null,,color_black1,263486,,,,,,,,black_plus_sign,,,null,,,,,,,,,,,,,,,,,,,,,,
null,,learn_phase(without_color)1,266986,,,,,,,,black_plus_sign,,,null,object_05b.png,object_06b.png,,,,,,,,,,,,,,,,,,,,
null,,black_cross(without_color)1,267793,,,,,,,,green,,,null,object_05b.png,object_06b.png,,,,,,,,,,,,,,,,,,,,
null,,rt_plussign_withcolor1,268294,,,,,,,,green,,,null,object_05b.png,object_06b.png,,,,,,,,,,,,,,,,,,,,
1872.8999999761581,,rt_thecrossant_black1,269489,,,,,,,,black_plus_sign,,,50,,,1,,,,,,,1,,,,,,,,,,,,
null,,color_black1,269591,,,,,,,,black_plus_sign,,,null,,,,,,,,,,,,,,,,,,,,,,
null,,learn_phase(without_color)1,273092,,,,,,,,black_plus_sign,,,null,object_07a.png,object_10c.png,,,,,,,,,,,,,,,,,,,,
null,,black_cross(without_color)1,274147,,,,,,,,green,,,null,object_07a.png,object_10c.png,,,,,,,,,,,,,,,,,,,,
null,,rt_plussign_withcolor1,274655,,,,,,,,green,,,null,object_07a.png,object_10c.png,,,,,,,,,,,,,,,,,,,,
null,,rt_thecrossant_black1,275605,,,,,,,,black_plus_sign,,,null,,,,,,,,,,1,,,,,,,,,,,,
null,,color_black1,275706,,,,,,,,black_plus_sign,,,null,,,,,,,,,,,,,,,,,,,,,,
null,,learn_phase(without_color)1,279207,,,,,,,,black_plus_sign,,,null,object_11c.png,object_11b.png,,,,,,,,,,,,,,,,,,,,
null,,black_cross(without_color)1,280291,,,,,,,,green,,,null,object_11c.png,object_11b.png,,,,,,,,,,,,,,,,,,,,
null,,rt_plussign_withcolor1,280792,,,,,,,,green,,,null,object_11c.png,object_11b.png,,,,,,,,,,,,,,,,,,,,
1367.199999988079,,rt_thecrossant_black1,281712,,,,,,,,black_plus_sign,,,50,,,1,,,,,,,1,,,,,,,,,,,,
null,,color_black1,281812,,,,,,,,black_plus_sign,,,null,,,,,,,,,,,,,,,,,,,,,,
null,,learn_phase(without_color)1,285313,,,,,,,,black_plus_sign,,,null,object_06c.png,object_15b.png,,,,,,,,,,,,,,,,,,,,
null,,black_cross(without_color)1,286257,,,,,,,,green,,,null,object_06c.png,object_15b.png,,,,,,,,,,,,,,,,,,,,
null,,rt_plussign_withcolor1,286758,,,,,,,,green,,,null,object_06c.png,object_15b.png,,,,,,,,,,,,,,,,,,,,
1587.9000000059605,,rt_thecrossant_black1,287817,,,,,,,,black_plus_sign,,,50,,,1,,,,,,,1,,,,,,,,,,,,
null,,color_black1,287918,,,,,,,,black_plus_sign,,,null,,,,,,,,,,,,,,,,,,,,,,
null,,learn_phase(without_color)1,291420,,,,,,,,black_plus_sign,,,null,object_07c.png,object_13a.png,,,,,,,,,,,,,,,,,,,,
null,,black_cross(without_color)1,292420,,,,,,,,green,,,null,object_07c.png,object_13a.png,,,,,,,,,,,,,,,,,,,,
null,,rt_plussign_withcolor1,292922,,,,,,,,green,,,null,object_07c.png,object_13a.png,,,,,,,,,,,,,,,,,,,,
1371.699999988079,,rt_thecrossant_black1,293924,,,,,,,,black_plus_sign,,,50,,,1,,,,,,,1,,,,,,,,,,,,
null,,color_black1,294025,,,,,,,,black_plus_sign,,,null,,,,,,,,,,,,,,,,,,,,,,
null,,learn_phase(without_color)1,297527,,,,,,,,black_plus_sign,,,null,object_15b.png,object_14c.png,,,,,,,,,,,,,,,,,,,,
null,,black_cross(without_color)1,298427,,,,,,,,green,,,null,object_15b.png,object_14c.png,,,,,,,,,,,,,,,,,,,,
null,,rt_plussign_withcolor1,298928,,,,,,,,green,,,null,object_15b.png,object_14c.png,,,,,,,,,,,,,,,,,,,,
1388.300000011921,,rt_thecrossant_black1,300031,,,,,,,,black_plus_sign,,,50,,,1,,,,,,,1,,,,,,,,,,,,
null,,color_black1,300132,,,,,,,,black_plus_sign,,,null,,,,,,,,,,,,,,,,,,,,,,
null,,learn_phase(without_color)1,303634,,,,,,,,black_plus_sign,,,null,object_02a.png,object_11c.png,,,,,,,,,,,,,,,,,,,,
null,,black_cross(without_color)1,304529,,,,,,,,green,,,null,object_02a.png,object_11c.png,,,,,,,,,,,,,,,,,,,,
null,,rt_plussign_withcolor1,305031,,,,,,,,green,,,null,object_02a.png,object_11c.png,,,,,,,,,,,,,,,,,,,,
1191.199999988079,,rt_thecrossant_black1,306138,,,,,,,,black_plus_sign,,,50,,,1,,,,,,,1,,,,,,,,,,,,
null,,color_black1,306239,,,,,,,,black_plus_sign,,,null,,,,,,,,,,,,,,,,,,,,,,
null,,learn_phase(without_color)1,309741,,,,,,,,black_plus_sign,,,null,object_14b.png,object_05a.png,,,,,,,,,,,,,,,,,,,,
null,,black_cross(without_color)1,310421,,,,,,,,green,,,null,object_14b.png,object_05a.png,,,,,,,,,,,,,,,,,,,,
null,,rt_plussign_withcolor1,310922,,,,,,,,green,,,null,object_14b.png,object_05a.png,,,,,,,,,,,,,,,,,,,,
1165.699999988079,,rt_thecrossant_black1,312244,,,,,,,,black_plus_sign,,,50,,,1,,,,,,,1,,,,,,,,,,,,
null,,color_black1,312345,,,,,,,,black_plus_sign,,,null,,,,,,,,,,,,,,,,,,,,,,
null,,learn_phase(without_color)1,315847,,,,,,,,black_plus_sign,,,null,object_05b.png,object_15a.png,,,,,,,,,,,,,,,,,,,,
null,,black_cross(without_color)1,316664,,,,,,,,blue,,,null,object_05b.png,object_15a.png,,,,,,,,,,,,,,,,,,,,
null,,rt_plussign_withcolor1,317165,,,,,,,,blue,,,null,object_05b.png,object_15a.png,,,,,,,,,,,,,,,,,,,,
855.6999999880791,,rt_thecrossant_black1,318350,,,,,,,,black_plus_sign,,,49,,,1,,,,,,,1,,,,,,,,,,,,
null,,color_black1,318452,,,,,,,,black_plus_sign,,,null,,,,,,,,,,,,,,,,,,,,,,
null,,learn_phase(without_color)1,321953,,,,,,,,black_plus_sign,,,null,object_15c.png,object_02b.png,,,,,,,,,,,,,,,,,,,,
null,,black_cross(without_color)1,322784,,,,,,,,blue,,,null,object_15c.png,object_02b.png,,,,,,,,,,,,,,,,,,,,
null,,rt_plussign_withcolor1,323285,,,,,,,,blue,,,null,object_15c.png,object_02b.png,,,,,,,,,,,,,,,,,,,,
1294.9000000059605,,rt_thecrossant_black1,324456,,,,,,,,black_plus_sign,,,49,,,1,,,,,,,1,,,,,,,,,,,,
null,,color_black1,324558,,,,,,,,black_plus_sign,,,null,,,,,,,,,,,,,,,,,,,,,,
null,,learn_phase(without_color)1,328058,,,,,,,,black_plus_sign,,,null,object_04a.png,object_05a.png,,,,,,,,,,,,,,,,,,,,
null,,black_cross(without_color)1,329102,,,,,,,,blue,,,null,object_04a.png,object_05a.png,,,,,,,,,,,,,,,,,,,,
null,,rt_plussign_withcolor1,329603,,,,,,,,blue,,,null,object_04a.png,object_05a.png,,,,,,,,,,,,,,,,,,,,
1268.699999988079,,rt_thecrossant_black1,330562,,,,,,,,black_plus_sign,,,49,,,1,,,,,,,1,,,,,,,,,,,,
null,,color_black1,330664,,,,,,,,black_plus_sign,,,null,,,,,,,,,,,,,,,,,,,,,,
null,,learn_phase(without_color)1,334165,,,,,,,,black_plus_sign,,,null,object_13c.png,object_06a.png,,,,,,,,,,,,,,,,,,,,
null,,black_cross(without_color)1,335133,,,,,,,,blue,,,null,object_13c.png,object_06a.png,,,,,,,,,,,,,,,,,,,,
null,,rt_plussign_withcolor1,335634,,,,,,,,blue,,,null,object_13c.png,object_06a.png,,,,,,,,,,,,,,,,,,,,
1235.199999988079,,rt_thecrossant_black1,336669,,,,,,,,black_plus_sign,,,49,,,1,,,,,,,1,,,,,,,,,,,,
null,,color_black1,336771,,,,,,,,black_plus_sign,,,null,,,,,,,,,,,,,,,,,,,,,,
null,,learn_phase(without_color)1,340273,,,,,,,,black_plus_sign,,,null,object_08a.png,object_07a.png,,,,,,,,,,,,,,,,,,,,
null,,black_cross(without_color)1,341130,,,,,,,,blue,,,null,object_08a.png,object_07a.png,,,,,,,,,,,,,,,,,,,,
null,,rt_plussign_withcolor1,341631,,,,,,,,blue,,,null,object_08a.png,object_07a.png,,,,,,,,,,,,,,,,,,,,
1197.2999999821186,,rt_thecrossant_black1,342777,,,,,,,,black_plus_sign,,,49,,,1,,,,,,,1,,,,,,,,,,,,
null,,color_black1,342877,,,,,,,,black_plus_sign,,,null,,,,,,,,,,,,,,,,,,,,,,
null,,learn_phase(without_color)1,346379,,,,,,,,black_plus_sign,,,null,object_02c.png,object_01b.png,,,,,,,,,,,,,,,,,,,,
null,,black_cross(without_color)1,346983,,,,,,,,blue,,,null,object_02c.png,object_01b.png,,,,,,,,,,,,,,,,,,,,
null,,rt_plussign_withcolor1,347484,,,,,,,,blue,,,null,object_02c.png,object_01b.png,,,,,,,,,,,,,,,,,,,,
1659.5999999940395,,rt_thecrossant_black1,348882,,,,,,,,black_plus_sign,,,49,,,1,,,,,,,1,,,,,,,,,,,,
null,,color_black1,348983,,,,,,,,black_plus_sign,,,null,,,,,,,,,,,,,,,,,,,,,,
null,,learn_phase(without_color)1,352484,,,,,,,,black_plus_sign,,,null,object_05c.png,object_08c.png,,,,,,,,,,,,,,,,,,,,
null,,black_cross(without_color)1,353549,,,,,,,,green,,,null,object_05c.png,object_08c.png,,,,,,,,,,,,,,,,,,,,
null,,rt_plussign_withcolor1,354050,,,,,,,,green,,,null,object_05c.png,object_08c.png,,,,,,,,,,,,,,,,,,,,
749.5,,rt_thecrossant_black1,354988,,,,,,,,black_plus_sign,,,50,,,1,,,,,,,1,,,,,,,,,,,,
null,,color_black1,355090,,,,,,,,black_plus_sign,,,null,,,,,,,,,,,,,,,,,,,,,,
null,,learn_phase(without_color)1,358592,,,,,,,,black_plus_sign,,,null,object_13b.png,object_02b.png,,,,,,,,,,,,,,,,,,,,
null,,black_cross(without_color)1,359396,,,,,,,,green,,,null,object_13b.png,object_02b.png,,,,,,,,,,,,,,,,,,,,
null,,rt_plussign_withcolor1,359897,,,,,,,,green,,,null,object_13b.png,object_02b.png,,,,,,,,,,,,,,,,,,,,
1476.5999999940395,,rt_thecrossant_black1,361095,,,,,,,,black_plus_sign,,,50,,,1,,,,,,,1,,,,,,,,,,,,
null,,color_black1,361196,,,,,,,,black_plus_sign,,,null,,,,,,,,,,,,,,,,,,,,,,
null,,learn_phase(without_color)1,364697,,,,,,,,black_plus_sign,,,null,object_04c.png,object_14a.png,,,,,,,,,,,,,,,,,,,,
null,,black_cross(without_color)1,365628,,,,,,,,blue,,,null,object_04c.png,object_14a.png,,,,,,,,,,,,,,,,,,,,
null,,rt_plussign_withcolor1,366130,,,,,,,,blue,,,null,object_04c.png,object_14a.png,,,,,,,,,,,,,,,,,,,,
1080.7999999821186,,rt_thecrossant_black1,367202,,,,,,,,black_plus_sign,,,49,,,1,,,,,,,1,,,,,,,,,,,,
null,,color_black1,367303,,,,,,,,black_plus_sign,,,null,,,,,,,,,,,,,,,,,,,,,,
null,,learn_phase(without_color)1,370804,,,,,,,,black_plus_sign,,,null,object_04c.png,object_10b.png,,,,,,,,,,,,,,,,,,,,
null,,black_cross(without_color)1,371353,,,,,,,,blue,,,null,object_04c.png,object_10b.png,,,,,,,,,,,,,,,,,,,,
null,,rt_plussign_withcolor1,371854,,,,,,,,blue,,,null,object_04c.png,object_10b.png,,,,,,,,,,,,,,,,,,,,
1259.0999999940395,,rt_thecrossant_black1,373307,,,,,,,,black_plus_sign,,,49,,,1,,,,,,,1,,,,,,,,,,,,
null,,color_black1,373408,,,,,,,,black_plus_sign,,,null,,,,,,,,,,,,,,,,,,,,,,
null,,learn_phase(without_color)1,376911,,,,,,,,black_plus_sign,,,null,object_01a.png,object_12c.png,,,,,,,,,,,,,,,,,,,,
null,,black_cross(without_color)1,377932,,,,,,,,blue,,,null,object_01a.png,object_12c.png,,,,,,,,,,,,,,,,,,,,
null,,rt_plussign_withcolor1,378434,,,,,,,,blue,,,null,object_01a.png,object_12c.png,,,,,,,,,,,,,,,,,,,,
895.9000000059605,,rt_thecrossant_black1,379414,,,,,,,,black_plus_sign,,,49,,,1,,,,,,,1,,,,,,,,,,,,
null,,color_black1,379515,,,,,,,,black_plus_sign,,,null,,,,,,,,,,,,,,,,,,,,,,
null,,learn_phase(without_color)1,383017,,,,,,,,black_plus_sign,,,null,object_07b.png,object_05c.png,,,,,,,,,,,,,,,,,,,,
null,,black_cross(without_color)1,383947,,,,,,,,green,,,null,object_07b.png,object_05c.png,,,,,,,,,,,,,,,,,,,,
null,,rt_plussign_withcolor1,384459,,,,,,,,green,,,null,object_07b.png,object_05c.png,,,,,,,,,,,,,,,,,,,,
1136.199999988079,,rt_thecrossant_black1,385531,,,,,,,,black_plus_sign,,,50,,,1,,,,,,,1,,,,,,,,,,,,
null,,color_black1,385632,,,,,,,,black_plus_sign,,,null,,,,,,,,,,,,,,,,,,,,,,
null,,learn_phase(without_color)1,389134,,,,,,,,black_plus_sign,,,null,object_03b.png,object_09b.png,,,,,,,,,,,,,,,,,,,,
null,,black_cross(without_color)1,390192,,,,,,,,blue,,,null,object_03b.png,object_09b.png,,,,,,,,,,,,,,,,,,,,
null,,rt_plussign_withcolor1,390693,,,,,,,,blue,,,null,object_03b.png,object_09b.png,,,,,,,,,,,,,,,,,,,,
1122.0999999940395,,rt_thecrossant_black1,391637,,,,,,,,black_plus_sign,,,49,,,1,,,,,,,1,,,,,,,,,,,,
null,,color_black1,391738,,,,,,,,black_plus_sign,,,null,,,,,,,,,,,,,,,,,,,,,,
null,,learn_phase(without_color)1,395239,,,,,,,,black_plus_sign,,,null,object_13c.png,object_08b.png,,,,,,,,,,,,,,,,,,,,
null,,black_cross(without_color)1,395917,,,,,,,,blue,,,null,object_13c.png,object_08b.png,,,,,,,,,,,,,,,,,,,,
null,,rt_plussign_withcolor1,396418,,,,,,,,blue,,,null,object_13c.png,object_08b.png,,,,,,,,,,,,,,,,,,,,
1416.5999999940395,,rt_thecrossant_black1,397743,,,,,,,,black_plus_sign,,,49,,,1,,,,,,,1,,,,,,,,,,,,
null,,color_black1,397844,,,,,,,,black_plus_sign,,,null,,,,,,,,,,,,,,,,,,,,,,
null,,learn_phase(without_color)1,401346,,,,,,,,black_plus_sign,,,null,object_09b.png,object_03a.png,,,,,,,,,,,,,,,,,,,,
null,,black_cross(without_color)1,401775,,,,,,,,green,,,null,object_09b.png,object_03a.png,,,,,,,,,,,,,,,,,,,,
null,,rt_plussign_withcolor1,402276,,,,,,,,green,,,null,object_09b.png,object_03a.png,,,,,,,,,,,,,,,,,,,,
953,,rt_thecrossant_black1,403849,,,,,,,,black_plus_sign,,,50,,,1,,,,,,,1,,,,,,,,,,,,
null,,color_black1,403951,,,,,,,,black_plus_sign,,,null,,,,,,,,,,,,,,,,,,,,,,
null,,learn_phase(without_color)1,407453,,,,,,,,black_plus_sign,,,null,object_12b.png,object_04b.png,,,,,,,,,,,,,,,,,,,,
null,,black_cross(without_color)1,408188,,,,,,,,green,,,null,object_12b.png,object_04b.png,,,,,,,,,,,,,,,,,,,,
null,,rt_plussign_withcolor1,408689,,,,,,,,green,,,null,object_12b.png,object_04b.png,,,,,,,,,,,,,,,,,,,,
646.5,,rt_thecrossant_black1,409957,,,,,,,,black_plus_sign,,,50,,,1,,,,,,,1,,,,,,,,,,,,
null,,color_black1,410058,,,,,,,,black_plus_sign,,,null,,,,,,,,,,,,,,,,,,,,,,
null,,learn_phase(without_color)1,413559,,,,,,,,black_plus_sign,,,null,object_10a.png,object_09a.png,,,,,,,,,,,,,,,,,,,,
null,,black_cross(without_color)1,414099,,,,,,,,green,,,null,object_10a.png,object_09a.png,,,,,,,,,,,,,,,,,,,,
null,,rt_plussign_withcolor1,414601,,,,,,,,green,,,null,object_10a.png,object_09a.png,,,,,,,,,,,,,,,,,,,,
944.9000000059605,,rt_thecrossant_black1,416063,,,,,,,,black_plus_sign,,,50,,,1,,,,,,,1,,,,,,,,,,,,
null,,color_black1,416164,,,,,,,,black_plus_sign,,,null,,,,,,,,,,,,,,,,,,,,,,
null,,learn_phase(without_color)1,419665,,,,,,,,black_plus_sign,,,null,object_02c.png,object_03c.png,,,,,,,,,,,,,,,,,,,,
null,,black_cross(without_color)1,420079,,,,,,,,blue,,,null,object_02c.png,object_03c.png,,,,,,,,,,,,,,,,,,,,
null,,rt_plussign_withcolor1,420581,,,,,,,,blue,,,null,object_02c.png,object_03c.png,,,,,,,,,,,,,,,,,,,,
985.3000000119209,,rt_thecrossant_black1,422170,,,,,,,,black_plus_sign,,,50,,,0,,,,,,,0.96,,,,,,,,,,,,
null,,color_black1,422272,,,,,,,,black_plus_sign,,,null,,,,,,,,,,,,,,,,,,,,,,
null,,learn_phase(without_color)1,425773,,,,,,,,black_plus_sign,,,null,object_13a.png,object_09c.png,,,,,,,,,,,,,,,,,,,,
null,,black_cross(without_color)1,426571,,,,,,,,blue,,,null,object_13a.png,object_09c.png,,,,,,,,,,,,,,,,,,,,
null,,rt_plussign_withcolor1,427072,,,,,,,,blue,,,null,object_13a.png,object_09c.png,,,,,,,,,,,,,,,,,,,,
724.5999999940395,,rt_thecrossant_black1,428277,,,,,,,,black_plus_sign,,,49,,,1,,,,,,,0.9615384615384616,,,,,,,,,,,,
null,,color_black1,428379,,,,,,,,black_plus_sign,,,null,,,,,,,,,,,,,,,,,,,,,,
null,,learn_phase(without_color)1,431879,,,,,,,,black_plus_sign,,,null,object_01c.png,object_04b.png,,,,,,,,,,,,,,,,,,,,
null,,black_cross(without_color)1,432561,,,,,,,,blue,,,null,object_01c.png,object_04b.png,,,,,,,,,,,,,,,,,,,,
null,,rt_plussign_withcolor1,433062,,,,,,,,blue,,,null,object_01c.png,object_04b.png,,,,,,,,,,,,,,,,,,,,
1076.800000011921,,rt_thecrossant_black1,434383,,,,,,,,black_plus_sign,,,49,,,1,,,,,,,0.9629629629629629,,,,,,,,,,,,
null,,color_black1,434485,,,,,,,,black_plus_sign,,,null,,,,,,,,,,,,,,,,,,,,,,
null,,learn_phase(without_color)1,437986,,,,,,,,black_plus_sign,,,null,object_12c.png,object_11a.png,,,,,,,,,,,,,,,,,,,,
null,,black_cross(without_color)1,438556,,,,,,,,green,,,null,object_12c.png,object_11a.png,,,,,,,,,,,,,,,,,,,,
null,,rt_plussign_withcolor1,439057,,,,,,,,green,,,null,object_12c.png,object_11a.png,,,,,,,,,,,,,,,,,,,,
1027,,rt_thecrossant_black1,440489,,,,,,,,black_plus_sign,,,50,,,1,,,,,,,0.9642857142857143,,,,,,,,,,,,
null,,color_black1,440601,,,,,,,,black_plus_sign,,,null,,,,,,,,,,,,,,,,,,,,,,
null,,thebreak,440703,,,,,,,,<p></p>,,,null,,,,,,,,,,,,,,,,,,,,,,
1590.4000000059605,,intro_0,442294,,,,,,,,instruct,,,32,,,,,,,,,,,,,,,,,,,,,,
3153.5,,directmemory_phase1,445448,,,,,,,,object_15b.png,,,51,,,0,,object_06c.png,object_07c.png,object_04b.png,object_06c.png,,0,0,,,,,,,,,,,
2536.9000000059605,,directmemory_phase1,447986,,,,,,,,object_07a.png,,,50,,,1,,object_05b.png,object_08a.png,object_01c.png,object_08a.png,,0.5,1,,,,,,,,,,,
3653.300000011921,,directmemory_phase1,451640,,,,,,,,object_15a.png,,,51,,,0,,object_14a.png,object_05b.png,object_02b.png,object_05b.png,,0.3333333333333333,0,,,,,,,,,,,
3591.0999999940395,,directmemory_phase1,455232,,,,,,,,object_14b.png,,,51,,,0,,object_03b.png,object_05a.png,object_05c.png,object_05a.png,,0.25,0,,,,,,,,,,,
1505.199999988079,,directmemory_phase1,456738,,,,,,,,object_13a.png,,,50,,,1,,object_02c.png,object_07c.png,object_01b.png,object_07c.png,,0.4,1,,,,,,,,,,,
3063.199999988079,,directmemory_phase1,459802,,,,,,,,object_11b.png,,,49,,,0,,object_11a.png,object_11c.png,object_02b.png,object_11c.png,,0.3333333333333333,0,,,,,,,,,,,
3305.2999999821186,,directmemory_phase1,463108,,,,,,,,object_12b.png,,,50,,,0,,object_05b.png,object_10c.png,object_04b.png,object_04b.png,,0.2857142857142857,0,,,,,,,,,,,
3947.199999988079,,directmemory_phase1,467056,,,,,,,,object_06b.png,,,49,,,1,,object_05b.png,object_02b.png,object_08a.png,object_05b.png,,0.375,1,,,,,,,,,,,
3949.2999999821186,,directmemory_phase1,471006,,,,,,,,object_05a.png,,,50,,,0,,object_10b.png,object_02c.png,object_04a.png,object_04a.png,,0.3333333333333333,0,,,,,,,,,,,
2449,,directmemory_phase1,473456,,,,,,,,object_06a.png,,,51,,,1,,object_05a.png,object_14c.png,object_13c.png,object_13c.png,,0.4,1,,,,,,,,,,,
2405.2999999821186,,directmemory_phase1,475862,,,,,,,,object_14a.png,,,49,,,1,,object_04c.png,object_13a.png,object_11b.png,object_04c.png,,0.45454545454545453,1,,,,,,,,,,,
3661.0999999940395,,directmemory_phase1,479524,,,,,,,,object_04c.png,,,49,,,1,,object_10b.png,object_07c.png,object_09a.png,object_10b.png,,0.5,1,,,,,,,,,,,
3499.0999999940395,,directmemory_phase1,483024,,,,,,,,object_09c.png,,,51,,,1,,object_07a.png,object_12a.png,object_13a.png,object_13a.png,,0.5384615384615384,1,,,,,,,,,,,
2727.300000011921,,directmemory_phase1,485753,,,,,,,,object_03c.png,,,50,,,0,,object_05b.png,object_12a.png,object_02c.png,object_02c.png,,0.5,0,,,,,,,,,,,
2553,,directmemory_phase1,488306,,,,,,,,object_10c.png,,,51,,,0,,object_11a.png,object_07a.png,object_09a.png,object_07a.png,,0.4666666666666667,0,,,,,,,,,,,
3877.0999999940395,,directmemory_phase1,492184,,,,,,,,object_14c.png,,,50,,,0,,object_13a.png,object_07b.png,object_15b.png,object_15b.png,,0.4375,0,,,,,,,,,,,
2381.0999999940395,,directmemory_phase1,494566,,,,,,,,object_07b.png,,,51,,,0,,object_05c.png,object_04c.png,object_14c.png,object_05c.png,,0.4117647058823529,0,,,,,,,,,,,
3181.300000011921,,directmemory_phase1,497749,,,,,,,,object_12a.png,,,49,,,0,,object_11a.png,object_09a.png,object_12c.png,object_09a.png,,0.3888888888888889,0,,,,,,,,,,,
3877.0999999940395,,directmemory_phase1,501626,,,,,,,,object_11a.png,,,49,,,1,,object_12c.png,object_05a.png,object_15c.png,object_12c.png,,0.42105263157894735,1,,,,,,,,,,,
3715.199999988079,,directmemory_phase1,505342,,,,,,,,object_03a.png,,,49,,,1,,object_09b.png,object_05c.png,object_08c.png,object_09b.png,,0.45,1,,,,,,,,,,,
3945.2000000178814,,directmemory_phase1,509289,,,,,,,,object_02b.png,,,51,,,0,,object_13b.png,object_01b.png,object_02c.png,object_13b.png,,0.42857142857142855,0,,,,,,,,,,,
3549,,directmemory_phase1,512838,,,,,,,,object_15c.png,,,51,,,0,,object_02b.png,object_09a.png,object_07b.png,object_02b.png,,0.4090909090909091,0,,,,,,,,,,,
3753.0999999940395,,directmemory_phase1,516592,,,,,,,,object_08c.png,,,51,,,1,,object_12c.png,object_03a.png,object_05c.png,object_05c.png,,0.43478260869565216,1,,,,,,,,,,,
3443.300000011921,,directmemory_phase1,520037,,,,,,,,object_13c.png,,,49,,,1,,object_08b.png,object_07c.png,object_13a.png,object_08b.png,,0.4583333333333333,1,,,,,,,,,,,
3861.0999999940395,,directmemory_phase1,523898,,,,,,,,object_04b.png,,,50,,,0,,object_10b.png,object_02b.png,object_01c.png,object_01c.png,,0.44,0,,,,,,,,,,,
2041.0999999940395,,directmemory_phase1,525940,,,,,,,,object_03b.png,,,49,,,1,,object_09b.png,object_02b.png,object_14c.png,object_09b.png,,0.46153846153846156,1,,,,,,,,,,,
4557.300000011921,,directmemory_phase1,530499,,,,,,,,object_01b.png,,,49,,,1,,object_02c.png,object_05c.png,object_01a.png,object_02c.png,,0.48148148148148145,1,,,,,,,,,,,
4090.9000000059605,,directmemory_phase1,534590,,,,,,,,object_11c.png,,,50,,,1,,object_05a.png,object_02a.png,object_10b.png,object_02a.png,,0.5,1,,,,,,,,,,,
2453.2999999821186,,directmemory_phase1,537044,,,,,,,,object_10a.png,,,49,,,1,,object_09a.png,object_12c.png,object_08c.png,object_09a.png,,0.5172413793103449,1,,,,,,,,,,,
3307,,directmemory_phase1,540353,,,,,,,,object_12c.png,,,51,,,1,,object_07c.png,object_07a.png,object_01a.png,object_01a.png,,0.5333333333333333,1,,,,,,,,,,,
null,,thebreak,540454,,,,,,,,<p></p>,,,null,,,,,,,,,,,,,,,,,,,,,,
1439.800000011921,,intro_0,541895,,,,,,,,instruct,,,32,,,,,,,,,,,,,,,,,,,,,,
null,,learn_phase(without_color)2,545395,,,,,,,,black_plus_sign,,,null,object_03a.png,object_09b.png,,,,,,,,,,,,,,,,,,,,
null,,black_cross(without_color)2,546478,,,,,,,,green,,,null,object_03a.png,object_09b.png,,,,,,,,,,,,,,,,,,,,
null,,rt_plussign_withcolor2,546979,,,,,,,,green,,,null,object_03a.png,object_09b.png,,,,,,,,,,,,,,,,,,,,
1509.9000000059605,,rt_thecrossant_black2,547899,,,,,,,,black_plus_sign,,,50,,,1,,,,,,,1,,,,,,,,,,,,
null,,color_black2,548000,,,,,,,,black_plus_sign,,,null,,,,,,,,,,,,,,,,,,,,,,
null,,learn_phase(without_color)2,551501,,,,,,,,black_plus_sign,,,null,object_09a.png,object_12a.png,,,,,,,,,,,,,,,,,,,,
null,,black_cross(without_color)2,552481,,,,,,,,green,,,null,object_09a.png,object_12a.png,,,,,,,,,,,,,,,,,,,,
null,,rt_plussign_withcolor2,552982,,,,,,,,green,,,null,object_09a.png,object_12a.png,,,,,,,,,,,,,,,,,,,,
1266.800000011921,,rt_thecrossant_black2,554004,,,,,,,,black_plus_sign,,,50,,,1,,,,,,,1,,,,,,,,,,,,
null,,color_black2,554106,,,,,,,,black_plus_sign,,,null,,,,,,,,,,,,,,,,,,,,,,
null,,learn_phase(without_color)2,557608,,,,,,,,black_plus_sign,,,null,object_10c.png,object_07a.png,,,,,,,,,,,,,,,,,,,,
null,,black_cross(without_color)2,558649,,,,,,,,blue,,,null,object_10c.png,object_07a.png,,,,,,,,,,,,,,,,,,,,
null,,rt_plussign_withcolor2,559150,,,,,,,,blue,,,null,object_10c.png,object_07a.png,,,,,,,,,,,,,,,,,,,,
1252.699999988079,,rt_thecrossant_black2,560111,,,,,,,,black_plus_sign,,,49,,,1,,,,,,,1,,,,,,,,,,,,
null,,color_black2,560213,,,,,,,,black_plus_sign,,,null,,,,,,,,,,,,,,,,,,,,,,
null,,learn_phase(without_color)2,563715,,,,,,,,black_plus_sign,,,null,object_04c.png,object_10b.png,,,,,,,,,,,,,,,,,,,,
null,,black_cross(without_color)2,564566,,,,,,,,blue,,,null,object_04c.png,object_10b.png,,,,,,,,,,,,,,,,,,,,
493.80000001192093,,rt_plussign_withcolor2,565067,,,,,,,,blue,,,49,object_04c.png,object_10b.png,,,,,,,,,,,,,,,,,,,,
null,,rt_thecrossant_black2,566218,,,,,,,,black_plus_sign,,,null,,,1,,,,,,,1,,,,,,,,,,,,
null,,color_black2,566319,,,,,,,,black_plus_sign,,,null,,,,,,,,,,,,,,,,,,,,,,
null,,learn_phase(without_color)2,569820,,,,,,,,black_plus_sign,,,null,object_14c.png,object_15b.png,,,,,,,,,,,,,,,,,,,,
null,,black_cross(without_color)2,570569,,,,,,,,blue,,,null,object_14c.png,object_15b.png,,,,,,,,,,,,,,,,,,,,
null,,rt_plussign_withcolor2,571071,,,,,,,,blue,,,null,object_14c.png,object_15b.png,,,,,,,,,,,,,,,,,,,,
1231.3999999761581,,rt_thecrossant_black2,572335,,,,,,,,black_plus_sign,,,49,,,1,,,,,,,1,,,,,,,,,,,,
null,,color_black2,572436,,,,,,,,black_plus_sign,,,null,,,,,,,,,,,,,,,,,,,,,,
null,,learn_phase(without_color)2,575938,,,,,,,,black_plus_sign,,,null,object_08b.png,object_13c.png,,,,,,,,,,,,,,,,,,,,
null,,black_cross(without_color)2,576570,,,,,,,,green,,,null,object_08b.png,object_13c.png,,,,,,,,,,,,,,,,,,,,
null,,rt_plussign_withcolor2,577071,,,,,,,,green,,,null,object_08b.png,object_13c.png,,,,,,,,,,,,,,,,,,,,
1289.199999988079,,rt_thecrossant_black2,578441,,,,,,,,black_plus_sign,,,50,,,1,,,,,,,1,,,,,,,,,,,,
null,,color_black2,578542,,,,,,,,black_plus_sign,,,null,,,,,,,,,,,,,,,,,,,,,,
null,,learn_phase(without_color)2,582044,,,,,,,,black_plus_sign,,,null,object_10a.png,object_09a.png,,,,,,,,,,,,,,,,,,,,
null,,black_cross(without_color)2,582799,,,,,,,,green,,,null,object_10a.png,object_09a.png,,,,,,,,,,,,,,,,,,,,
null,,rt_plussign_withcolor2,583300,,,,,,,,green,,,null,object_10a.png,object_09a.png,,,,,,,,,,,,,,,,,,,,
883.1999999880791,,rt_thecrossant_black2,584546,,,,,,,,black_plus_sign,,,50,,,1,,,,,,,1,,,,,,,,,,,,
null,,color_black2,584648,,,,,,,,black_plus_sign,,,null,,,,,,,,,,,,,,,,,,,,,,
null,,learn_phase(without_color)2,588149,,,,,,,,black_plus_sign,,,null,object_11c.png,object_02a.png,,,,,,,,,,,,,,,,,,,,
null,,black_cross(without_color)2,588798,,,,,,,,green,,,null,object_11c.png,object_02a.png,,,,,,,,,,,,,,,,,,,,
null,,rt_plussign_withcolor2,589299,,,,,,,,green,,,null,object_11c.png,object_02a.png,,,,,,,,,,,,,,,,,,,,
965,,rt_thecrossant_black2,590652,,,,,,,,black_plus_sign,,,50,,,1,,,,,,,1,,,,,,,,,,,,
null,,color_black2,590753,,,,,,,,black_plus_sign,,,null,,,,,,,,,,,,,,,,,,,,,,
null,,learn_phase(without_color)2,594255,,,,,,,,black_plus_sign,,,null,object_03c.png,object_02c.png,,,,,,,,,,,,,,,,,,,,
null,,black_cross(without_color)2,594965,,,,,,,,green,,,null,object_03c.png,object_02c.png,,,,,,,,,,,,,,,,,,,,
null,,rt_plussign_withcolor2,595466,,,,,,,,green,,,null,object_03c.png,object_02c.png,,,,,,,,,,,,,,,,,,,,
796,,rt_thecrossant_black2,596759,,,,,,,,black_plus_sign,,,50,,,1,,,,,,,1,,,,,,,,,,,,
null,,color_black2,596861,,,,,,,,black_plus_sign,,,null,,,,,,,,,,,,,,,,,,,,,,
null,,learn_phase(without_color)2,600362,,,,,,,,black_plus_sign,,,null,object_07b.png,object_05c.png,,,,,,,,,,,,,,,,,,,,
null,,black_cross(without_color)2,601128,,,,,,,,blue,,,null,object_07b.png,object_05c.png,,,,,,,,,,,,,,,,,,,,
null,,rt_plussign_withcolor2,601629,,,,,,,,blue,,,null,object_07b.png,object_05c.png,,,,,,,,,,,,,,,,,,,,
1000.7000000178814,,rt_thecrossant_black2,602866,,,,,,,,black_plus_sign,,,49,,,1,,,,,,,1,,,,,,,,,,,,
null,,color_black2,602967,,,,,,,,black_plus_sign,,,null,,,,,,,,,,,,,,,,,,,,,,
null,,learn_phase(without_color)2,606468,,,,,,,,black_plus_sign,,,null,object_11c.png,object_11b.png,,,,,,,,,,,,,,,,,,,,
null,,black_cross(without_color)2,606971,,,,,,,,blue,,,null,object_11c.png,object_11b.png,,,,,,,,,,,,,,,,,,,,
null,,rt_plussign_withcolor2,607472,,,,,,,,blue,,,null,object_11c.png,object_11b.png,,,,,,,,,,,,,,,,,,,,
1466.5999999940395,,rt_thecrossant_black2,608973,,,,,,,,black_plus_sign,,,49,,,1,,,,,,,1,,,,,,,,,,,,
null,,color_black2,609074,,,,,,,,black_plus_sign,,,null,,,,,,,,,,,,,,,,,,,,,,
null,,learn_phase(without_color)2,612575,,,,,,,,black_plus_sign,,,null,object_04c.png,object_14a.png,,,,,,,,,,,,,,,,,,,,
null,,black_cross(without_color)2,613065,,,,,,,,green,,,null,object_04c.png,object_14a.png,,,,,,,,,,,,,,,,,,,,
null,,rt_plussign_withcolor2,613566,,,,,,,,green,,,null,object_04c.png,object_14a.png,,,,,,,,,,,,,,,,,,,,
840.8000000119209,,rt_thecrossant_black2,615080,,,,,,,,black_plus_sign,,,50,,,1,,,,,,,1,,,,,,,,,,,,
null,,color_black2,615181,,,,,,,,black_plus_sign,,,null,,,,,,,,,,,,,,,,,,,,,,
null,,learn_phase(without_color)2,618682,,,,,,,,black_plus_sign,,,null,object_15a.png,object_05b.png,,,,,,,,,,,,,,,,,,,,
null,,black_cross(without_color)2,619197,,,,,,,,green,,,null,object_15a.png,object_05b.png,,,,,,,,,,,,,,,,,,,,
null,,rt_plussign_withcolor2,619698,,,,,,,,green,,,null,object_15a.png,object_05b.png,,,,,,,,,,,,,,,,,,,,
677.3999999761581,,rt_thecrossant_black2,621187,,,,,,,,black_plus_sign,,,50,,,1,,,,,,,1,,,,,,,,,,,,
null,,color_black2,621289,,,,,,,,black_plus_sign,,,null,,,,,,,,,,,,,,,,,,,,,,
null,,learn_phase(without_color)2,624791,,,,,,,,black_plus_sign,,,null,object_05a.png,object_04a.png,,,,,,,,,,,,,,,,,,,,
null,,black_cross(without_color)2,625629,,,,,,,,green,,,null,object_05a.png,object_04a.png,,,,,,,,,,,,,,,,,,,,
null,,rt_plussign_withcolor2,626131,,,,,,,,green,,,null,object_05a.png,object_04a.png,,,,,,,,,,,,,,,,,,,,
785.9000000059605,,rt_thecrossant_black2,627295,,,,,,,,black_plus_sign,,,50,,,1,,,,,,,1,,,,,,,,,,,,
null,,color_black2,627396,,,,,,,,black_plus_sign,,,null,,,,,,,,,,,,,,,,,,,,,,
null,,learn_phase(without_color)2,630898,,,,,,,,black_plus_sign,,,null,object_11a.png,object_12c.png,,,,,,,,,,,,,,,,,,,,
null,,black_cross(without_color)2,631468,,,,,,,,green,,,null,object_11a.png,object_12c.png,,,,,,,,,,,,,,,,,,,,
null,,rt_plussign_withcolor2,631969,,,,,,,,green,,,null,object_11a.png,object_12c.png,,,,,,,,,,,,,,,,,,,,
1285.699999988079,,rt_thecrossant_black2,633403,,,,,,,,black_plus_sign,,,50,,,1,,,,,,,1,,,,,,,,,,,,
null,,color_black2,633504,,,,,,,,black_plus_sign,,,null,,,,,,,,,,,,,,,,,,,,,,
null,,learn_phase(without_color)2,637006,,,,,,,,black_plus_sign,,,null,object_02b.png,object_13b.png,,,,,,,,,,,,,,,,,,,,
null,,black_cross(without_color)2,637457,,,,,,,,green,,,null,object_02b.png,object_13b.png,,,,,,,,,,,,,,,,,,,,
null,,rt_plussign_withcolor2,637958,,,,,,,,green,,,null,object_02b.png,object_13b.png,,,,,,,,,,,,,,,,,,,,
712.5,,rt_thecrossant_black2,639509,,,,,,,,black_plus_sign,,,50,,,1,,,,,,,1,,,,,,,,,,,,
null,,color_black2,639611,,,,,,,,black_plus_sign,,,null,,,,,,,,,,,,,,,,,,,,,,
null,,learn_phase(without_color)2,643112,,,,,,,,black_plus_sign,,,null,object_09b.png,object_03b.png,,,,,,,,,,,,,,,,,,,,
null,,black_cross(without_color)2,643871,,,,,,,,green,,,null,object_09b.png,object_03b.png,,,,,,,,,,,,,,,,,,,,
null,,rt_plussign_withcolor2,644372,,,,,,,,green,,,null,object_09b.png,object_03b.png,,,,,,,,,,,,,,,,,,,,
835.6999999880791,,rt_thecrossant_black2,645616,,,,,,,,black_plus_sign,,,50,,,1,,,,,,,1,,,,,,,,,,,,
null,,color_black2,645717,,,,,,,,black_plus_sign,,,null,,,,,,,,,,,,,,,,,,,,,,
null,,learn_phase(without_color)2,649219,,,,,,,,black_plus_sign,,,null,object_01a.png,object_12c.png,,,,,,,,,,,,,,,,,,,,
null,,black_cross(without_color)2,649731,,,,,,,,green,,,null,object_01a.png,object_12c.png,,,,,,,,,,,,,,,,,,,,
null,,rt_plussign_withcolor2,650232,,,,,,,,green,,,null,object_01a.png,object_12c.png,,,,,,,,,,,,,,,,,,,,
1074.9000000059605,,rt_thecrossant_black2,651724,,,,,,,,black_plus_sign,,,50,,,1,,,,,,,1,,,,,,,,,,,,
null,,color_black2,651825,,,,,,,,black_plus_sign,,,null,,,,,,,,,,,,,,,,,,,,,,
null,,learn_phase(without_color)2,655326,,,,,,,,black_plus_sign,,,null,object_04b.png,object_12b.png,,,,,,,,,,,,,,,,,,,,
null,,black_cross(without_color)2,655843,,,,,,,,blue,,,null,object_04b.png,object_12b.png,,,,,,,,,,,,,,,,,,,,
null,,rt_plussign_withcolor2,656344,,,,,,,,blue,,,null,object_04b.png,object_12b.png,,,,,,,,,,,,,,,,,,,,
1298.7999999821186,,rt_thecrossant_black2,657831,,,,,,,,black_plus_sign,,,50,,,0,,,,,,,0.9473684210526315,,,,,,,,,,,,
null,,color_black2,657933,,,,,,,,black_plus_sign,,,null,,,,,,,,,,,,,,,,,,,,,,
null,,learn_phase(without_color)2,661434,,,,,,,,black_plus_sign,,,null,object_01c.png,object_04b.png,,,,,,,,,,,,,,,,,,,,
null,,black_cross(without_color)2,662046,,,,,,,,blue,,,null,object_01c.png,object_04b.png,,,,,,,,,,,,,,,,,,,,
null,,rt_plussign_withcolor2,662547,,,,,,,,blue,,,null,object_01c.png,object_04b.png,,,,,,,,,,,,,,,,,,,,
1000.2000000178814,,rt_thecrossant_black2,663938,,,,,,,,black_plus_sign,,,49,,,1,,,,,,,0.95,,,,,,,,,,,,
null,,color_black2,664041,,,,,,,,black_plus_sign,,,null,,,,,,,,,,,,,,,,,,,,,,
null,,learn_phase(without_color)2,667542,,,,,,,,black_plus_sign,,,null,object_13a.png,object_09c.png,,,,,,,,,,,,,,,,,,,,
null,,black_cross(without_color)2,668341,,,,,,,,blue,,,null,object_13a.png,object_09c.png,,,,,,,,,,,,,,,,,,,,
null,,rt_plussign_withcolor2,668842,,,,,,,,blue,,,null,object_13a.png,object_09c.png,,,,,,,,,,,,,,,,,,,,
971.3999999761581,,rt_thecrossant_black2,670046,,,,,,,,black_plus_sign,,,49,,,1,,,,,,,0.9523809523809523,,,,,,,,,,,,
null,,color_black2,670147,,,,,,,,black_plus_sign,,,null,,,,,,,,,,,,,,,,,,,,,,
null,,learn_phase(without_color)2,673649,,,,,,,,black_plus_sign,,,null,object_15b.png,object_06c.png,,,,,,,,,,,,,,,,,,,,
null,,black_cross(without_color)2,674710,,,,,,,,green,,,null,object_15b.png,object_06c.png,,,,,,,,,,,,,,,,,,,,
null,,rt_plussign_withcolor2,675211,,,,,,,,green,,,null,object_15b.png,object_06c.png,,,,,,,,,,,,,,,,,,,,
1057.6000000238419,,rt_thecrossant_black2,676153,,,,,,,,black_plus_sign,,,50,,,1,,,,,,,0.9545454545454546,,,,,,,,,,,,
null,,color_black2,676255,,,,,,,,black_plus_sign,,,null,,,,,,,,,,,,,,,,,,,,,,
null,,learn_phase(without_color)2,679757,,,,,,,,black_plus_sign,,,null,object_06b.png,object_05b.png,,,,,,,,,,,,,,,,,,,,
null,,black_cross(without_color)2,680491,,,,,,,,blue,,,null,object_06b.png,object_05b.png,,,,,,,,,,,,,,,,,,,,
null,,rt_plussign_withcolor2,680993,,,,,,,,blue,,,null,object_06b.png,object_05b.png,,,,,,,,,,,,,,,,,,,,
1329,,rt_thecrossant_black2,682261,,,,,,,,black_plus_sign,,,49,,,1,,,,,,,0.9565217391304348,,,,,,,,,,,,
null,,color_black2,682364,,,,,,,,black_plus_sign,,,null,,,,,,,,,,,,,,,,,,,,,,
null,,learn_phase(without_color)2,685865,,,,,,,,black_plus_sign,,,null,object_06a.png,object_13c.png,,,,,,,,,,,,,,,,,,,,
null,,black_cross(without_color)2,686733,,,,,,,,blue,,,null,object_06a.png,object_13c.png,,,,,,,,,,,,,,,,,,,,
null,,rt_plussign_withcolor2,687234,,,,,,,,blue,,,null,object_06a.png,object_13c.png,,,,,,,,,,,,,,,,,,,,
965.7000000178814,,rt_thecrossant_black2,688368,,,,,,,,black_plus_sign,,,49,,,1,,,,,,,0.9583333333333334,,,,,,,,,,,,
null,,color_black2,688470,,,,,,,,black_plus_sign,,,null,,,,,,,,,,,,,,,,,,,,,,
null,,learn_phase(without_color)2,691971,,,,,,,,black_plus_sign,,,null,object_07c.png,object_13a.png,,,,,,,,,,,,,,,,,,,,
null,,black_cross(without_color)2,692577,,,,,,,,blue,,,null,object_07c.png,object_13a.png,,,,,,,,,,,,,,,,,,,,
null,,rt_plussign_withcolor2,693079,,,,,,,,blue,,,null,object_07c.png,object_13a.png,,,,,,,,,,,,,,,,,,,,
1286.2000000178814,,rt_thecrossant_black2,694475,,,,,,,,black_plus_sign,,,49,,,1,,,,,,,0.96,,,,,,,,,,,,
null,,color_black2,694576,,,,,,,,black_plus_sign,,,null,,,,,,,,,,,,,,,,,,,,,,
null,,learn_phase(without_color)2,698078,,,,,,,,black_plus_sign,,,null,object_15c.png,object_02b.png,,,,,,,,,,,,,,,,,,,,
null,,black_cross(without_color)2,698813,,,,,,,,blue,,,null,object_15c.png,object_02b.png,,,,,,,,,,,,,,,,,,,,
null,,rt_plussign_withcolor2,699314,,,,,,,,blue,,,null,object_15c.png,object_02b.png,,,,,,,,,,,,,,,,,,,,
955.4000000059605,,rt_thecrossant_black2,700582,,,,,,,,black_plus_sign,,,49,,,1,,,,,,,0.9615384615384616,,,,,,,,,,,,
null,,color_black2,700683,,,,,,,,black_plus_sign,,,null,,,,,,,,,,,,,,,,,,,,,,
null,,learn_phase(without_color)2,704185,,,,,,,,black_plus_sign,,,null,object_01b.png,object_02c.png,,,,,,,,,,,,,,,,,,,,
null,,black_cross(without_color)2,705203,,,,,,,,blue,,,null,object_01b.png,object_02c.png,,,,,,,,,,,,,,,,,,,,
null,,rt_plussign_withcolor2,705704,,,,,,,,blue,,,null,object_01b.png,object_02c.png,,,,,,,,,,,,,,,,,,,,
1174.6000000238419,,rt_thecrossant_black2,706687,,,,,,,,black_plus_sign,,,49,,,1,,,,,,,0.9629629629629629,,,,,,,,,,,,
null,,color_black2,706789,,,,,,,,black_plus_sign,,,null,,,,,,,,,,,,,,,,,,,,,,
null,,learn_phase(without_color)2,710291,,,,,,,,black_plus_sign,,,null,object_05a.png,object_14b.png,,,,,,,,,,,,,,,,,,,,
null,,black_cross(without_color)2,711104,,,,,,,,green,,,null,object_05a.png,object_14b.png,,,,,,,,,,,,,,,,,,,,
null,,rt_plussign_withcolor2,711605,,,,,,,,green,,,null,object_05a.png,object_14b.png,,,,,,,,,,,,,,,,,,,,
1215,,rt_thecrossant_black2,712795,,,,,,,,black_plus_sign,,,50,,,1,,,,,,,0.9642857142857143,,,,,,,,,,,,
null,,color_black2,712896,,,,,,,,black_plus_sign,,,null,,,,,,,,,,,,,,,,,,,,,,
null,,learn_phase(without_color)2,716397,,,,,,,,black_plus_sign,,,null,object_08c.png,object_05c.png,,,,,,,,,,,,,,,,,,,,
null,,black_cross(without_color)2,717319,,,,,,,,blue,,,null,object_08c.png,object_05c.png,,,,,,,,,,,,,,,,,,,,
null,,rt_plussign_withcolor2,717820,,,,,,,,blue,,,null,object_08c.png,object_05c.png,,,,,,,,,,,,,,,,,,,,
1190.300000011921,,rt_thecrossant_black2,718901,,,,,,,,black_plus_sign,,,49,,,1,,,,,,,0.9655172413793104,,,,,,,,,,,,
null,,color_black2,719002,,,,,,,,black_plus_sign,,,null,,,,,,,,,,,,,,,,,,,,,,
null,,learn_phase(without_color)2,722503,,,,,,,,black_plus_sign,,,null,object_08a.png,object_07a.png,,,,,,,,,,,,,,,,,,,,
null,,black_cross(without_color)2,723011,,,,,,,,blue,,,null,object_08a.png,object_07a.png,,,,,,,,,,,,,,,,,,,,
null,,rt_plussign_withcolor2,723512,,,,,,,,blue,,,null,object_08a.png,object_07a.png,,,,,,,,,,,,,,,,,,,,
1123.300000011921,,rt_thecrossant_black2,725007,,,,,,,,black_plus_sign,,,49,,,1,,,,,,,0.9666666666666667,,,,,,,,,,,,
null,,color_black2,725109,,,,,,,,black_plus_sign,,,null,,,,,,,,,,,,,,,,,,,,,,
null,,thebreak,725211,,,,,,,,<p></p>,,,null,,,,,,,,,,,,,,,,,,,,,,
2295.300000011921,,intro_0,727507,,,,,,,,instruct,,,32,,,,,,,,,,,,,,,,,,,,,,
3389.300000011921,,directmemory_phase2,730897,,,,,,,,object_15c.png,,,49,,,1,,object_02b.png,object_05c.png,object_15a.png,object_02b.png,,0.5483870967741935,1,,,,,,,,,,,
1530.9000000059605,,directmemory_phase2,732429,,,,,,,,object_08a.png,,,50,,,1,,object_10a.png,object_07a.png,object_02c.png,object_07a.png,,0.5625,1,,,,,,,,,,,
3075.300000011921,,directmemory_phase2,735505,,,,,,,,object_14b.png,,,51,,,1,,object_02b.png,object_10c.png,object_05a.png,object_05a.png,,0.5757575757575758,1,,,,,,,,,,,
3395,,directmemory_phase2,738901,,,,,,,,object_04a.png,,,51,,,0,,object_05a.png,object_05c.png,object_08c.png,object_05a.png,,0.5588235294117647,0,,,,,,,,,,,
5894.9000000059605,,directmemory_phase2,744797,,,,,,,,object_02b.png,,,49,,,1,,object_13b.png,object_04a.png,object_02c.png,object_13b.png,,0.5714285714285714,1,,,,,,,,,,,
3790.9000000059605,,directmemory_phase2,748589,,,,,,,,object_04c.png,,,50,,,1,,object_02c.png,object_10b.png,object_08a.png,object_10b.png,,0.5833333333333334,1,,,,,,,,,,,
1263,,directmemory_phase2,749853,,,,,,,,object_03b.png,,,50,,,1,,object_09c.png,object_09b.png,object_05b.png,object_09b.png,,0.5945945945945946,1,,,,,,,,,,,
3375,,directmemory_phase2,753229,,,,,,,,object_07c.png,,,49,,,1,,object_13a.png,object_12c.png,object_10a.png,object_13a.png,,0.6052631578947368,1,,,,,,,,,,,
2709,,directmemory_phase2,755939,,,,,,,,object_15b.png,,,51,,,1,,object_10b.png,object_04b.png,object_06c.png,object_06c.png,,0.6153846153846154,1,,,,,,,,,,,
1955,,directmemory_phase2,757895,,,,,,,,object_08b.png,,,50,,,1,,object_03a.png,object_13c.png,object_07a.png,object_13c.png,,0.625,1,,,,,,,,,,,
1737,,directmemory_phase2,759633,,,,,,,,object_04b.png,,,49,,,1,,object_01c.png,object_02a.png,object_07a.png,object_01c.png,,0.6341463414634146,1,,,,,,,,,,,
3916.7999999821186,,directmemory_phase2,763551,,,,,,,,object_02c.png,,,49,,,1,,object_01b.png,object_06c.png,object_02b.png,object_01b.png,,0.6428571428571429,1,,,,,,,,,,,
2079,,directmemory_phase2,765631,,,,,,,,object_06a.png,,,51,,,1,,object_13a.png,object_07b.png,object_13c.png,object_13c.png,,0.6511627906976745,1,,,,,,,,,,,
2467.2000000178814,,directmemory_phase2,768099,,,,,,,,object_07b.png,,,49,,,1,,object_05c.png,object_09b.png,object_11a.png,object_05c.png,,0.6590909090909091,1,,,,,,,,,,,
1479,,directmemory_phase2,769579,,,,,,,,object_14a.png,,,49,,,1,,object_04c.png,object_05c.png,object_03c.png,object_04c.png,,0.6666666666666666,1,,,,,,,,,,,
1407.0999999940395,,directmemory_phase2,770987,,,,,,,,object_12b.png,,,50,,,1,,object_10c.png,object_04b.png,object_07a.png,object_04b.png,,0.6739130434782609,1,,,,,,,,,,,
4812.799999982119,,directmemory_phase2,775800,,,,,,,,object_11b.png,,,51,,,1,,object_15b.png,object_07b.png,object_11c.png,object_11c.png,,0.6808510638297872,1,,,,,,,,,,,
2623.4000000059605,,directmemory_phase2,778425,,,,,,,,object_14c.png,,,49,,,0,,object_07b.png,object_15b.png,object_05c.png,object_15b.png,,0.6666666666666666,0,,,,,,,,,,,
1729.1000000238419,,directmemory_phase2,780155,,,,,,,,object_12c.png,,,50,,,1,,object_04b.png,object_01a.png,object_13b.png,object_01a.png,,0.673469387755102,1,,,,,,,,,,,
2065.0999999940395,,directmemory_phase2,782221,,,,,,,,object_10a.png,,,49,,,1,,object_09a.png,object_04b.png,object_10b.png,object_09a.png,,0.68,1,,,,,,,,,,,
3335,,directmemory_phase2,785557,,,,,,,,object_09b.png,,,51,,,1,,object_06b.png,object_05a.png,object_03a.png,object_03a.png,,0.6862745098039216,1,,,,,,,,,,,
3930.9000000059605,,directmemory_phase2,789489,,,,,,,,object_10c.png,,,50,,,0,,object_04b.png,object_11b.png,object_07a.png,object_07a.png,,0.6730769230769231,0,,,,,,,,,,,
2931.0999999940395,,directmemory_phase2,792421,,,,,,,,object_09c.png,,,50,,,0,,object_15b.png,object_14c.png,object_13a.png,object_13a.png,,0.660377358490566,0,,,,,,,,,,,
4876.9000000059605,,directmemory_phase2,797299,,,,,,,,object_12a.png,,,51,,,1,,object_15b.png,object_12b.png,object_09a.png,object_09a.png,,0.6666666666666666,1,,,,,,,,,,,
2580.9000000059605,,directmemory_phase2,799881,,,,,,,,object_05c.png,,,51,,,1,,object_07c.png,object_13a.png,object_08c.png,object_08c.png,,0.6727272727272727,1,,,,,,,,,,,
1850.9000000059605,,directmemory_phase2,801733,,,,,,,,object_15a.png,,,49,,,1,,object_05b.png,object_13a.png,object_12b.png,object_05b.png,,0.6785714285714286,1,,,,,,,,,,,
3621.0999999940395,,directmemory_phase2,805355,,,,,,,,object_03c.png,,,51,,,1,,object_13a.png,object_14b.png,object_02c.png,object_02c.png,,0.6842105263157895,1,,,,,,,,,,,
2754.9000000059605,,directmemory_phase2,808111,,,,,,,,object_11a.png,,,51,,,0,,object_12c.png,object_04c.png,object_14c.png,object_12c.png,,0.6724137931034483,0,,,,,,,,,,,
3209.100000023842,,directmemory_phase2,811321,,,,,,,,object_02a.png,,,49,,,1,,object_11c.png,object_05b.png,object_03a.png,object_11c.png,,0.6779661016949152,1,,,,,,,,,,,
1795.1000000238419,,directmemory_phase2,813117,,,,,,,,object_05b.png,,,50,,,1,,object_13a.png,object_06b.png,object_01b.png,object_06b.png,,0.6833333333333333,1,,,,,,,,,,,
null,,thebreak,813219,,,,,,,,<p></p>,,,null,,,,,,,,,,,,,,,,,,,,,,
1467.5,,intro_0,814687,,,,,,,,instruct,,,32,,,,,,,,,,,,,,,,,,,,,,
null,,learn_phase(without_color)3,818188,,,,,,,,black_plus_sign,,,null,object_02b.png,object_15c.png,,,,,,,,,,,,,,,,,,,,
null,,black_cross(without_color)3,819025,,,,,,,,blue,,,null,object_02b.png,object_15c.png,,,,,,,,,,,,,,,,,,,,
null,,rt_plussign_withcolor3,819526,,,,,,,,blue,,,null,object_02b.png,object_15c.png,,,,,,,,,,,,,,,,,,,,
1252.4000000059605,,rt_thecrossant_black3,820691,,,,,,,,black_plus_sign,,,49,,,1,,,,,,,1,,,,,,,,,,,,
null,,color_black3,820792,,,,,,,,black_plus_sign,,,null,,,,,,,,,,,,,,,,,,,,,,
null,,learn_phase(without_color)3,824294,,,,,,,,black_plus_sign,,,null,object_07b.png,object_05c.png,,,,,,,,,,,,,,,,,,,,
null,,black_cross(without_color)3,824937,,,,,,,,green,,,null,object_07b.png,object_05c.png,,,,,,,,,,,,,,,,,,,,
null,,rt_plussign_withcolor3,825439,,,,,,,,green,,,null,object_07b.png,object_05c.png,,,,,,,,,,,,,,,,,,,,
1192.7000000178814,,rt_thecrossant_black3,826799,,,,,,,,black_plus_sign,,,50,,,1,,,,,,,1,,,,,,,,,,,,
null,,color_black3,826901,,,,,,,,black_plus_sign,,,null,,,,,,,,,,,,,,,,,,,,,,
null,,learn_phase(without_color)3,830402,,,,,,,,black_plus_sign,,,null,object_07a.png,object_10c.png,,,,,,,,,,,,,,,,,,,,
null,,black_cross(without_color)3,831278,,,,,,,,blue,,,null,object_07a.png,object_10c.png,,,,,,,,,,,,,,,,,,,,
null,,rt_plussign_withcolor3,831779,,,,,,,,blue,,,null,object_07a.png,object_10c.png,,,,,,,,,,,,,,,,,,,,
866.5999999940395,,rt_thecrossant_black3,832906,,,,,,,,black_plus_sign,,,49,,,1,,,,,,,1,,,,,,,,,,,,
null,,color_black3,833008,,,,,,,,black_plus_sign,,,null,,,,,,,,,,,,,,,,,,,,,,
null,,learn_phase(without_color)3,836510,,,,,,,,black_plus_sign,,,null,object_03b.png,object_09b.png,,,,,,,,,,,,,,,,,,,,
null,,black_cross(without_color)3,837366,,,,,,,,blue,,,null,object_03b.png,object_09b.png,,,,,,,,,,,,,,,,,,,,
null,,rt_plussign_withcolor3,837867,,,,,,,,blue,,,null,object_03b.png,object_09b.png,,,,,,,,,,,,,,,,,,,,
1119.4000000059605,,rt_thecrossant_black3,839014,,,,,,,,black_plus_sign,,,49,,,1,,,,,,,1,,,,,,,,,,,,
null,,color_black3,839115,,,,,,,,black_plus_sign,,,null,,,,,,,,,,,,,,,,,,,,,,
null,,learn_phase(without_color)3,842616,,,,,,,,black_plus_sign,,,null,object_06a.png,object_13c.png,,,,,,,,,,,,,,,,,,,,
null,,black_cross(without_color)3,843203,,,,,,,,blue,,,null,object_06a.png,object_13c.png,,,,,,,,,,,,,,,,,,,,
null,,rt_plussign_withcolor3,843703,,,,,,,,blue,,,null,object_06a.png,object_13c.png,,,,,,,,,,,,,,,,,,,,
1091.5999999940395,,rt_thecrossant_black3,845121,,,,,,,,black_plus_sign,,,49,,,1,,,,,,,1,,,,,,,,,,,,
null,,color_black3,845222,,,,,,,,black_plus_sign,,,null,,,,,,,,,,,,,,,,,,,,,,
null,,learn_phase(without_color)3,848724,,,,,,,,black_plus_sign,,,null,object_10b.png,object_04c.png,,,,,,,,,,,,,,,,,,,,
null,,black_cross(without_color)3,849503,,,,,,,,green,,,null,object_10b.png,object_04c.png,,,,,,,,,,,,,,,,,,,,
null,,rt_plussign_withcolor3,850005,,,,,,,,green,,,null,object_10b.png,object_04c.png,,,,,,,,,,,,,,,,,,,,
777.8000000119209,,rt_thecrossant_black3,851228,,,,,,,,black_plus_sign,,,50,,,1,,,,,,,1,,,,,,,,,,,,
null,,color_black3,851330,,,,,,,,black_plus_sign,,,null,,,,,,,,,,,,,,,,,,,,,,
null,,learn_phase(without_color)3,854831,,,,,,,,black_plus_sign,,,null,object_02c.png,object_01b.png,,,,,,,,,,,,,,,,,,,,
null,,black_cross(without_color)3,855579,,,,,,,,green,,,null,object_02c.png,object_01b.png,,,,,,,,,,,,,,,,,,,,
null,,rt_plussign_withcolor3,856081,,,,,,,,green,,,null,object_02c.png,object_01b.png,,,,,,,,,,,,,,,,,,,,
1107.300000011921,,rt_thecrossant_black3,857335,,,,,,,,black_plus_sign,,,50,,,1,,,,,,,1,,,,,,,,,,,,
null,,color_black3,857436,,,,,,,,black_plus_sign,,,null,,,,,,,,,,,,,,,,,,,,,,
null,,learn_phase(without_color)3,860937,,,,,,,,black_plus_sign,,,null,object_08a.png,object_07a.png,,,,,,,,,,,,,,,,,,,,
null,,black_cross(without_color)3,861551,,,,,,,,blue,,,null,object_08a.png,object_07a.png,,,,,,,,,,,,,,,,,,,,
null,,rt_plussign_withcolor3,862052,,,,,,,,blue,,,null,object_08a.png,object_07a.png,,,,,,,,,,,,,,,,,,,,
992.8000000119209,,rt_thecrossant_black3,863442,,,,,,,,black_plus_sign,,,49,,,1,,,,,,,1,,,,,,,,,,,,
null,,color_black3,863543,,,,,,,,black_plus_sign,,,null,,,,,,,,,,,,,,,,,,,,,,
null,,learn_phase(without_color)3,867045,,,,,,,,black_plus_sign,,,null,object_05a.png,object_14b.png,,,,,,,,,,,,,,,,,,,,
null,,black_cross(without_color)3,867786,,,,,,,,blue,,,null,object_05a.png,object_14b.png,,,,,,,,,,,,,,,,,,,,
null,,rt_plussign_withcolor3,868287,,,,,,,,blue,,,null,object_05a.png,object_14b.png,,,,,,,,,,,,,,,,,,,,
799.3000000119209,,rt_thecrossant_black3,869548,,,,,,,,black_plus_sign,,,49,,,1,,,,,,,1,,,,,,,,,,,,
null,,color_black3,869649,,,,,,,,black_plus_sign,,,null,,,,,,,,,,,,,,,,,,,,,,
null,,learn_phase(without_color)3,873151,,,,,,,,black_plus_sign,,,null,object_05b.png,object_15a.png,,,,,,,,,,,,,,,,,,,,
null,,black_cross(without_color)3,873705,,,,,,,,green,,,null,object_05b.png,object_15a.png,,,,,,,,,,,,,,,,,,,,
null,,rt_plussign_withcolor3,874207,,,,,,,,green,,,null,object_05b.png,object_15a.png,,,,,,,,,,,,,,,,,,,,
917.3000000119209,,rt_thecrossant_black3,875655,,,,,,,,black_plus_sign,,,50,,,1,,,,,,,1,,,,,,,,,,,,
null,,color_black3,875756,,,,,,,,black_plus_sign,,,null,,,,,,,,,,,,,,,,,,,,,,
null,,learn_phase(without_color)3,879258,,,,,,,,black_plus_sign,,,null,object_11c.png,object_11b.png,,,,,,,,,,,,,,,,,,,,
null,,black_cross(without_color)3,880033,,,,,,,,green,,,null,object_11c.png,object_11b.png,,,,,,,,,,,,,,,,,,,,
null,,rt_plussign_withcolor3,880534,,,,,,,,green,,,null,object_11c.png,object_11b.png,,,,,,,,,,,,,,,,,,,,
941.5,,rt_thecrossant_black3,881761,,,,,,,,black_plus_sign,,,50,,,1,,,,,,,1,,,,,,,,,,,,
null,,color_black3,881862,,,,,,,,black_plus_sign,,,null,,,,,,,,,,,,,,,,,,,,,,
null,,learn_phase(without_color)3,885363,,,,,,,,black_plus_sign,,,null,object_09a.png,object_12a.png,,,,,,,,,,,,,,,,,,,,
null,,black_cross(without_color)3,886018,,,,,,,,green,,,null,object_09a.png,object_12a.png,,,,,,,,,,,,,,,,,,,,
null,,rt_plussign_withcolor3,886519,,,,,,,,green,,,null,object_09a.png,object_12a.png,,,,,,,,,,,,,,,,,,,,
1021,,rt_thecrossant_black3,887867,,,,,,,,black_plus_sign,,,50,,,1,,,,,,,1,,,,,,,,,,,,
null,,color_black3,887969,,,,,,,,black_plus_sign,,,null,,,,,,,,,,,,,,,,,,,,,,
null,,learn_phase(without_color)3,891471,,,,,,,,black_plus_sign,,,null,object_04c.png,object_14a.png,,,,,,,,,,,,,,,,,,,,
null,,black_cross(without_color)3,892206,,,,,,,,green,,,null,object_04c.png,object_14a.png,,,,,,,,,,,,,,,,,,,,
null,,rt_plussign_withcolor3,892708,,,,,,,,green,,,null,object_04c.png,object_14a.png,,,,,,,,,,,,,,,,,,,,
775.2000000178814,,rt_thecrossant_black3,893976,,,,,,,,black_plus_sign,,,50,,,1,,,,,,,1,,,,,,,,,,,,
null,,color_black3,894077,,,,,,,,black_plus_sign,,,null,,,,,,,,,,,,,,,,,,,,,,
null,,learn_phase(without_color)3,897579,,,,,,,,black_plus_sign,,,null,object_05b.png,object_06b.png,,,,,,,,,,,,,,,,,,,,
null,,black_cross(without_color)3,898284,,,,,,,,blue,,,null,object_05b.png,object_06b.png,,,,,,,,,,,,,,,,,,,,
null,,rt_plussign_withcolor3,898785,,,,,,,,blue,,,null,object_05b.png,object_06b.png,,,,,,,,,,,,,,,,,,,,
915.8000000119209,,rt_thecrossant_black3,900084,,,,,,,,black_plus_sign,,,49,,,1,,,,,,,1,,,,,,,,,,,,
null,,color_black3,900185,,,,,,,,black_plus_sign,,,null,,,,,,,,,,,,,,,,,,,,,,
null,,learn_phase(without_color)3,903687,,,,,,,,black_plus_sign,,,null,object_13b.png,object_02b.png,,,,,,,,,,,,,,,,,,,,
null,,black_cross(without_color)3,904481,,,,,,,,blue,,,null,object_13b.png,object_02b.png,,,,,,,,,,,,,,,,,,,,
null,,rt_plussign_withcolor3,904982,,,,,,,,blue,,,null,object_13b.png,object_02b.png,,,,,,,,,,,,,,,,,,,,
946.7000000178814,,rt_thecrossant_black3,906191,,,,,,,,black_plus_sign,,,49,,,1,,,,,,,1,,,,,,,,,,,,
null,,color_black3,906294,,,,,,,,black_plus_sign,,,null,,,,,,,,,,,,,,,,,,,,,,
null,,learn_phase(without_color)3,909795,,,,,,,,black_plus_sign,,,null,object_12c.png,object_01a.png,,,,,,,,,,,,,,,,,,,,
null,,black_cross(without_color)3,910662,,,,,,,,blue,,,null,object_12c.png,object_01a.png,,,,,,,,,,,,,,,,,,,,
null,,rt_plussign_withcolor3,911162,,,,,,,,blue,,,null,object_12c.png,object_01a.png,,,,,,,,,,,,,,,,,,,,
1037.5,,rt_thecrossant_black3,912299,,,,,,,,black_plus_sign,,,49,,,1,,,,,,,1,,,,,,,,,,,,
null,,color_black3,912412,,,,,,,,black_plus_sign,,,null,,,,,,,,,,,,,,,,,,,,,,
null,,learn_phase(without_color)3,915914,,,,,,,,black_plus_sign,,,null,object_15b.png,object_06c.png,,,,,,,,,,,,,,,,,,,,
null,,black_cross(without_color)3,916343,,,,,,,,green,,,null,object_15b.png,object_06c.png,,,,,,,,,,,,,,,,,,,,
null,,rt_plussign_withcolor3,916844,,,,,,,,green,,,null,object_15b.png,object_06c.png,,,,,,,,,,,,,,,,,,,,
1112.800000011921,,rt_thecrossant_black3,918418,,,,,,,,black_plus_sign,,,50,,,1,,,,,,,1,,,,,,,,,,,,
null,,color_black3,918519,,,,,,,,black_plus_sign,,,null,,,,,,,,,,,,,,,,,,,,,,
null,,learn_phase(without_color)3,922021,,,,,,,,black_plus_sign,,,null,object_14c.png,object_15b.png,,,,,,,,,,,,,,,,,,,,
null,,black_cross(without_color)3,922448,,,,,,,,green,,,null,object_14c.png,object_15b.png,,,,,,,,,,,,,,,,,,,,
null,,rt_plussign_withcolor3,922949,,,,,,,,green,,,null,object_14c.png,object_15b.png,,,,,,,,,,,,,,,,,,,,
779.1000000238419,,rt_thecrossant_black3,924524,,,,,,,,black_plus_sign,,,50,,,1,,,,,,,1,,,,,,,,,,,,
null,,color_black3,924625,,,,,,,,black_plus_sign,,,null,,,,,,,,,,,,,,,,,,,,,,
null,,learn_phase(without_color)3,928127,,,,,,,,black_plus_sign,,,null,object_13a.png,object_09c.png,,,,,,,,,,,,,,,,,,,,
null,,black_cross(without_color)3,928868,,,,,,,,green,,,null,object_13a.png,object_09c.png,,,,,,,,,,,,,,,,,,,,
null,,rt_plussign_withcolor3,929370,,,,,,,,green,,,null,object_13a.png,object_09c.png,,,,,,,,,,,,,,,,,,,,
754.5999999940395,,rt_thecrossant_black3,930631,,,,,,,,black_plus_sign,,,50,,,1,,,,,,,1,,,,,,,,,,,,
null,,color_black3,930732,,,,,,,,black_plus_sign,,,null,,,,,,,,,,,,,,,,,,,,,,
null,,learn_phase(without_color)3,934233,,,,,,,,black_plus_sign,,,null,object_12b.png,object_04b.png,,,,,,,,,,,,,,,,,,,,
null,,black_cross(without_color)3,934805,,,,,,,,blue,,,null,object_12b.png,object_04b.png,,,,,,,,,,,,,,,,,,,,
null,,rt_plussign_withcolor3,935306,,,,,,,,blue,,,null,object_12b.png,object_04b.png,,,,,,,,,,,,,,,,,,,,
975.5,,rt_thecrossant_black3,936738,,,,,,,,black_plus_sign,,,49,,,1,,,,,,,1,,,,,,,,,,,,
null,,color_black3,936840,,,,,,,,black_plus_sign,,,null,,,,,,,,,,,,,,,,,,,,,,
null,,learn_phase(without_color)3,940341,,,,,,,,black_plus_sign,,,null,object_01c.png,object_04b.png,,,,,,,,,,,,,,,,,,,,
null,,black_cross(without_color)3,941221,,,,,,,,blue,,,null,object_01c.png,object_04b.png,,,,,,,,,,,,,,,,,,,,
null,,rt_plussign_withcolor3,941722,,,,,,,,blue,,,null,object_01c.png,object_04b.png,,,,,,,,,,,,,,,,,,,,
781.6999999880791,,rt_thecrossant_black3,942846,,,,,,,,black_plus_sign,,,49,,,1,,,,,,,1,,,,,,,,,,,,
null,,color_black3,942947,,,,,,,,black_plus_sign,,,null,,,,,,,,,,,,,,,,,,,,,,
null,,learn_phase(without_color)3,946449,,,,,,,,black_plus_sign,,,null,object_11c.png,object_02a.png,,,,,,,,,,,,,,,,,,,,
null,,black_cross(without_color)3,946911,,,,,,,,blue,,,null,object_11c.png,object_02a.png,,,,,,,,,,,,,,,,,,,,
null,,rt_plussign_withcolor3,947413,,,,,,,,blue,,,null,object_11c.png,object_02a.png,,,,,,,,,,,,,,,,,,,,
1363.5,,rt_thecrossant_black3,948953,,,,,,,,black_plus_sign,,,49,,,1,,,,,,,1,,,,,,,,,,,,
null,,color_black3,949054,,,,,,,,black_plus_sign,,,null,,,,,,,,,,,,,,,,,,,,,,
null,,learn_phase(without_color)3,952557,,,,,,,,black_plus_sign,,,null,object_13c.png,object_08b.png,,,,,,,,,,,,,,,,,,,,
null,,black_cross(without_color)3,953422,,,,,,,,blue,,,null,object_13c.png,object_08b.png,,,,,,,,,,,,,,,,,,,,
null,,rt_plussign_withcolor3,953923,,,,,,,,blue,,,null,object_13c.png,object_08b.png,,,,,,,,,,,,,,,,,,,,
641.9000000059605,,rt_thecrossant_black3,955061,,,,,,,,black_plus_sign,,,49,,,1,,,,,,,1,,,,,,,,,,,,
null,,color_black3,955162,,,,,,,,black_plus_sign,,,null,,,,,,,,,,,,,,,,,,,,,,
null,,learn_phase(without_color)3,958664,,,,,,,,black_plus_sign,,,null,object_05a.png,object_04a.png,,,,,,,,,,,,,,,,,,,,
null,,black_cross(without_color)3,959440,,,,,,,,green,,,null,object_05a.png,object_04a.png,,,,,,,,,,,,,,,,,,,,
null,,rt_plussign_withcolor3,959942,,,,,,,,green,,,null,object_05a.png,object_04a.png,,,,,,,,,,,,,,,,,,,,
1202.5999999940395,,rt_thecrossant_black3,961168,,,,,,,,black_plus_sign,,,50,,,1,,,,,,,1,,,,,,,,,,,,
null,,color_black3,961269,,,,,,,,black_plus_sign,,,null,,,,,,,,,,,,,,,,,,,,,,
null,,learn_phase(without_color)3,964771,,,,,,,,black_plus_sign,,,null,object_03c.png,object_02c.png,,,,,,,,,,,,,,,,,,,,
null,,black_cross(without_color)3,965871,,,,,,,,blue,,,null,object_03c.png,object_02c.png,,,,,,,,,,,,,,,,,,,,
null,,rt_plussign_withcolor3,966372,,,,,,,,blue,,,null,object_03c.png,object_02c.png,,,,,,,,,,,,,,,,,,,,
1169.4000000059605,,rt_thecrossant_black3,967275,,,,,,,,black_plus_sign,,,50,,,0,,,,,,,0.96,,,,,,,,,,,,
null,,color_black3,967377,,,,,,,,black_plus_sign,,,null,,,,,,,,,,,,,,,,,,,,,,
null,,learn_phase(without_color)3,970879,,,,,,,,black_plus_sign,,,null,object_07c.png,object_13a.png,,,,,,,,,,,,,,,,,,,,
null,,black_cross(without_color)3,971329,,,,,,,,green,,,null,object_07c.png,object_13a.png,,,,,,,,,,,,,,,,,,,,
null,,rt_plussign_withcolor3,971832,,,,,,,,green,,,null,object_07c.png,object_13a.png,,,,,,,,,,,,,,,,,,,,
1516.4000000059605,,rt_thecrossant_black3,973383,,,,,,,,black_plus_sign,,,50,,,1,,,,,,,0.9615384615384616,,,,,,,,,,,,
null,,color_black3,973485,,,,,,,,black_plus_sign,,,null,,,,,,,,,,,,,,,,,,,,,,
null,,learn_phase(without_color)3,976986,,,,,,,,black_plus_sign,,,null,object_05c.png,object_08c.png,,,,,,,,,,,,,,,,,,,,
null,,black_cross(without_color)3,977656,,,,,,,,green,,,null,object_05c.png,object_08c.png,,,,,,,,,,,,,,,,,,,,
null,,rt_plussign_withcolor3,978157,,,,,,,,green,,,null,object_05c.png,object_08c.png,,,,,,,,,,,,,,,,,,,,
632.9000000059605,,rt_thecrossant_black3,979490,,,,,,,,black_plus_sign,,,50,,,1,,,,,,,0.9629629629629629,,,,,,,,,,,,
null,,color_black3,979591,,,,,,,,black_plus_sign,,,null,,,,,,,,,,,,,,,,,,,,,,
null,,learn_phase(without_color)3,983092,,,,,,,,black_plus_sign,,,null,object_03a.png,object_09b.png,,,,,,,,,,,,,,,,,,,,
null,,black_cross(without_color)3,983731,,,,,,,,green,,,null,object_03a.png,object_09b.png,,,,,,,,,,,,,,,,,,,,
null,,rt_plussign_withcolor3,984233,,,,,,,,green,,,null,object_03a.png,object_09b.png,,,,,,,,,,,,,,,,,,,,
802.0999999940395,,rt_thecrossant_black3,985597,,,,,,,,black_plus_sign,,,50,,,1,,,,,,,0.9642857142857143,,,,,,,,,,,,
null,,color_black3,985698,,,,,,,,black_plus_sign,,,null,,,,,,,,,,,,,,,,,,,,,,
null,,learn_phase(without_color)3,989200,,,,,,,,black_plus_sign,,,null,object_10a.png,object_09a.png,,,,,,,,,,,,,,,,,,,,
null,,black_cross(without_color)3,989716,,,,,,,,green,,,null,object_10a.png,object_09a.png,,,,,,,,,,,,,,,,,,,,
null,,rt_plussign_withcolor3,990218,,,,,,,,green,,,null,object_10a.png,object_09a.png,,,,,,,,,,,,,,,,,,,,
877.5,,rt_thecrossant_black3,991704,,,,,,,,black_plus_sign,,,50,,,1,,,,,,,0.9655172413793104,,,,,,,,,,,,
null,,color_black3,991805,,,,,,,,black_plus_sign,,,null,,,,,,,,,,,,,,,,,,,,,,
null,,learn_phase(without_color)3,995306,,,,,,,,black_plus_sign,,,null,object_12c.png,object_11a.png,,,,,,,,,,,,,,,,,,,,
null,,black_cross(without_color)3,995976,,,,,,,,blue,,,null,object_12c.png,object_11a.png,,,,,,,,,,,,,,,,,,,,
null,,rt_plussign_withcolor3,996477,,,,,,,,blue,,,null,object_12c.png,object_11a.png,,,,,,,,,,,,,,,,,,,,
751.9000000059605,,rt_thecrossant_black3,997811,,,,,,,,black_plus_sign,,,49,,,1,,,,,,,0.9666666666666667,,,,,,,,,,,,
null,,color_black3,997912,,,,,,,,black_plus_sign,,,null,,,,,,,,,,,,,,,,,,,,,,
null,,thebreak,998014,,,,,,,,<p></p>,,,null,,,,,,,,,,,,,,,,,,,,,,
1322.300000011921,,intro_0,999337,,,,,,,,instruct,,,32,,,,,,,,,,,,,,,,,,,,,,
3339.2999999821186,,directmemory_phase3,1002677,,,,,,,,object_11c.png,,,49,,,1,,object_02a.png,object_07c.png,object_12c.png,object_02a.png,,0.6885245901639344,1,,,,,,,,,,,
2428.9000000059605,,directmemory_phase3,1005107,,,,,,,,object_12b.png,,,51,,,1,,object_02b.png,object_14b.png,object_04b.png,object_04b.png,,0.6935483870967742,1,,,,,,,,,,,
4016.9000000059605,,directmemory_phase3,1009125,,,,,,,,object_07b.png,,,49,,,1,,object_05c.png,object_13a.png,object_11b.png,object_05c.png,,0.6984126984126984,1,,,,,,,,,,,
3492.9000000059605,,directmemory_phase3,1012619,,,,,,,,object_13c.png,,,51,,,1,,object_10b.png,object_04b.png,object_08b.png,object_08b.png,,0.703125,1,,,,,,,,,,,
2160.9000000059605,,directmemory_phase3,1014781,,,,,,,,object_04c.png,,,49,,,1,,object_10b.png,object_06c.png,object_09b.png,object_10b.png,,0.7076923076923077,1,,,,,,,,,,,
1896.9000000059605,,directmemory_phase3,1016679,,,,,,,,object_06a.png,,,50,,,1,,object_14c.png,object_13c.png,object_04b.png,object_13c.png,,0.7121212121212122,1,,,,,,,,,,,
6849.0999999940395,,directmemory_phase3,1023529,,,,,,,,object_10c.png,,,51,,,1,,object_15b.png,object_11a.png,object_07a.png,object_07a.png,,0.7164179104477612,1,,,,,,,,,,,
4320.9000000059605,,directmemory_phase3,1027851,,,,,,,,object_14c.png,,,50,,,0,,object_15b.png,object_02c.png,object_03b.png,object_15b.png,,0.7058823529411765,0,,,,,,,,,,,
2584.800000011921,,directmemory_phase3,1030437,,,,,,,,object_03a.png,,,49,,,1,,object_09b.png,object_05a.png,object_06b.png,object_09b.png,,0.7101449275362319,1,,,,,,,,,,,
1354.800000011921,,directmemory_phase3,1031793,,,,,,,,object_12a.png,,,51,,,1,,object_04c.png,object_12b.png,object_09a.png,object_09a.png,,0.7142857142857143,1,,,,,,,,,,,
4052.9000000059605,,directmemory_phase3,1035847,,,,,,,,object_15c.png,,,50,,,1,,object_12a.png,object_02b.png,object_11c.png,object_02b.png,,0.7183098591549296,1,,,,,,,,,,,
3217,,directmemory_phase3,1039065,,,,,,,,object_01b.png,,,50,,,1,,object_08c.png,object_02c.png,object_04b.png,object_02c.png,,0.7222222222222222,1,,,,,,,,,,,
1452.9000000059605,,directmemory_phase3,1040519,,,,,,,,object_07a.png,,,51,,,1,,object_07c.png,object_13a.png,object_08a.png,object_08a.png,,0.726027397260274,1,,,,,,,,,,,
4121,,directmemory_phase3,1044641,,,,,,,,object_11b.png,,,51,,,0,,object_11c.png,object_07a.png,object_03c.png,object_11c.png,,0.7162162162162162,0,,,,,,,,,,,
3214.9000000059605,,directmemory_phase3,1047857,,,,,,,,object_11a.png,,,50,,,1,,object_12b.png,object_12c.png,object_04b.png,object_12c.png,,0.72,1,,,,,,,,,,,
1892.9000000059605,,directmemory_phase3,1049751,,,,,,,,object_14b.png,,,51,,,1,,object_02b.png,object_09c.png,object_05a.png,object_05a.png,,0.7236842105263158,1,,,,,,,,,,,
2354.800000011921,,directmemory_phase3,1052107,,,,,,,,object_09a.png,,,50,,,1,,object_09b.png,object_10a.png,object_03a.png,object_10a.png,,0.7272727272727273,1,,,,,,,,,,,
2111,,directmemory_phase3,1054219,,,,,,,,object_01a.png,,,49,,,1,,object_12c.png,object_05b.png,object_04a.png,object_12c.png,,0.7307692307692307,1,,,,,,,,,,,
2400.9000000059605,,directmemory_phase3,1056621,,,,,,,,object_04b.png,,,51,,,1,,object_03a.png,object_13a.png,object_01c.png,object_01c.png,,0.7341772151898734,1,,,,,,,,,,,
3806.800000011921,,directmemory_phase3,1060429,,,,,,,,object_03c.png,,,51,,,0,,object_02c.png,object_07a.png,object_15c.png,object_02c.png,,0.725,0,,,,,,,,,,,
2550.699999988079,,directmemory_phase3,1062980,,,,,,,,object_04a.png,,,50,,,0,,object_11c.png,object_03a.png,object_05a.png,object_05a.png,,0.7160493827160493,0,,,,,,,,,,,
2041.300000011921,,directmemory_phase3,1065023,,,,,,,,object_08c.png,,,49,,,1,,object_05c.png,object_02b.png,object_01a.png,object_05c.png,,0.7195121951219512,1,,,,,,,,,,,
2237,,directmemory_phase3,1067261,,,,,,,,object_09c.png,,,50,,,1,,object_15a.png,object_13a.png,object_07a.png,object_13a.png,,0.7228915662650602,1,,,,,,,,,,,
1779,,directmemory_phase3,1069041,,,,,,,,object_15a.png,,,50,,,1,,object_14b.png,object_05b.png,object_04b.png,object_05b.png,,0.7261904761904762,1,,,,,,,,,,,
1284.800000011921,,directmemory_phase3,1070327,,,,,,,,object_03b.png,,,50,,,1,,object_11b.png,object_09b.png,object_02c.png,object_09b.png,,0.7294117647058823,1,,,,,,,,,,,
1771,,directmemory_phase3,1072099,,,,,,,,object_15b.png,,,51,,,1,,object_10b.png,object_02b.png,object_06c.png,object_06c.png,,0.7325581395348837,1,,,,,,,,,,,
2173,,directmemory_phase3,1074273,,,,,,,,object_13a.png,,,50,,,1,,object_04c.png,object_07c.png,object_08a.png,object_07c.png,,0.735632183908046,1,,,,,,,,,,,
1688.800000011921,,directmemory_phase3,1075963,,,,,,,,object_14a.png,,,50,,,1,,object_14c.png,object_04c.png,object_05b.png,object_04c.png,,0.7386363636363636,1,,,,,,,,,,,
1470.9000000059605,,directmemory_phase3,1077435,,,,,,,,object_05b.png,,,49,,,1,,object_06b.png,object_08a.png,object_04b.png,object_06b.png,,0.7415730337078652,1,,,,,,,,,,,
3738.800000011921,,directmemory_phase3,1081175,,,,,,,,object_02b.png,,,51,,,1,,object_01c.png,object_02c.png,object_13b.png,object_13b.png,,0.7444444444444445,1,,,,,,,,,,,
null,,thebreak,1081277,,,,,,,,<p></p>,,,null,,,,,,,,,,,,,,,,,,,,,,
1511.5,,intro_0,1082789,,,,,,,,instruct,,,32,,,,,,,,,,,,,,,,,,,,,,
null,,learn_phase(without_color)4,1086290,,,,,,,,black_plus_sign,,,null,object_07c.png,object_13a.png,,,,,,,,,,,,,,,,,,,,
null,,black_cross(without_color)4,1086886,,,,,,,,green,,,null,object_07c.png,object_13a.png,,,,,,,,,,,,,,,,,,,,
null,,rt_plussign_withcolor4,1087387,,,,,,,,green,,,null,object_07c.png,object_13a.png,,,,,,,,,,,,,,,,,,,,
930.4000000059605,,rt_thecrossant_black4,1088794,,,,,,,,black_plus_sign,,,50,,,1,,,,,,,1,,,,,,,,,,,,
null,,color_black4,1088895,,,,,,,,black_plus_sign,,,null,,,,,,,,,,,,,,,,,,,,,,
null,,learn_phase(without_color)4,1092397,,,,,,,,black_plus_sign,,,null,object_13a.png,object_09c.png,,,,,,,,,,,,,,,,,,,,
null,,black_cross(without_color)4,1093252,,,,,,,,blue,,,null,object_13a.png,object_09c.png,,,,,,,,,,,,,,,,,,,,
null,,rt_plussign_withcolor4,1093754,,,,,,,,blue,,,null,object_13a.png,object_09c.png,,,,,,,,,,,,,,,,,,,,
1033.699999988079,,rt_thecrossant_black4,1094902,,,,,,,,black_plus_sign,,,49,,,1,,,,,,,1,,,,,,,,,,,,
null,,color_black4,1095003,,,,,,,,black_plus_sign,,,null,,,,,,,,,,,,,,,,,,,,,,
null,,learn_phase(without_color)4,1098505,,,,,,,,black_plus_sign,,,null,object_02b.png,object_15c.png,,,,,,,,,,,,,,,,,,,,
null,,black_cross(without_color)4,1098971,,,,,,,,blue,,,null,object_02b.png,object_15c.png,,,,,,,,,,,,,,,,,,,,
null,,rt_plussign_withcolor4,1099473,,,,,,,,blue,,,null,object_02b.png,object_15c.png,,,,,,,,,,,,,,,,,,,,
1215.0999999940395,,rt_thecrossant_black4,1101011,,,,,,,,black_plus_sign,,,49,,,1,,,,,,,1,,,,,,,,,,,,
null,,color_black4,1101112,,,,,,,,black_plus_sign,,,null,,,,,,,,,,,,,,,,,,,,,,
null,,learn_phase(without_color)4,1104614,,,,,,,,black_plus_sign,,,null,object_11c.png,object_11b.png,,,,,,,,,,,,,,,,,,,,
null,,black_cross(without_color)4,1105397,,,,,,,,green,,,null,object_11c.png,object_11b.png,,,,,,,,,,,,,,,,,,,,
null,,rt_plussign_withcolor4,1105898,,,,,,,,green,,,null,object_11c.png,object_11b.png,,,,,,,,,,,,,,,,,,,,
838.0999999940395,,rt_thecrossant_black4,1107118,,,,,,,,black_plus_sign,,,50,,,1,,,,,,,1,,,,,,,,,,,,
null,,color_black4,1107219,,,,,,,,black_plus_sign,,,null,,,,,,,,,,,,,,,,,,,,,,
null,,learn_phase(without_color)4,1110721,,,,,,,,black_plus_sign,,,null,object_09a.png,object_12a.png,,,,,,,,,,,,,,,,,,,,
null,,black_cross(without_color)4,1111402,,,,,,,,green,,,null,object_09a.png,object_12a.png,,,,,,,,,,,,,,,,,,,,
null,,rt_plussign_withcolor4,1111903,,,,,,,,green,,,null,object_09a.png,object_12a.png,,,,,,,,,,,,,,,,,,,,
987.5999999940395,,rt_thecrossant_black4,1113225,,,,,,,,black_plus_sign,,,50,,,1,,,,,,,1,,,,,,,,,,,,
null,,color_black4,1113327,,,,,,,,black_plus_sign,,,null,,,,,,,,,,,,,,,,,,,,,,
null,,learn_phase(without_color)4,1116829,,,,,,,,black_plus_sign,,,null,object_12c.png,object_01a.png,,,,,,,,,,,,,,,,,,,,
null,,black_cross(without_color)4,1117847,,,,,,,,green,,,null,object_12c.png,object_01a.png,,,,,,,,,,,,,,,,,,,,
null,,rt_plussign_withcolor4,1118348,,,,,,,,green,,,null,object_12c.png,object_01a.png,,,,,,,,,,,,,,,,,,,,
839,,rt_thecrossant_black4,1119334,,,,,,,,black_plus_sign,,,50,,,1,,,,,,,1,,,,,,,,,,,,
null,,color_black4,1119435,,,,,,,,black_plus_sign,,,null,,,,,,,,,,,,,,,,,,,,,,
null,,learn_phase(without_color)4,1122937,,,,,,,,black_plus_sign,,,null,object_04c.png,object_10b.png,,,,,,,,,,,,,,,,,,,,
null,,black_cross(without_color)4,1123957,,,,,,,,green,,,null,object_04c.png,object_10b.png,,,,,,,,,,,,,,,,,,,,
null,,rt_plussign_withcolor4,1124458,,,,,,,,green,,,null,object_04c.png,object_10b.png,,,,,,,,,,,,,,,,,,,,
1317.5999999940395,,rt_thecrossant_black4,1125442,,,,,,,,black_plus_sign,,,50,,,1,,,,,,,1,,,,,,,,,,,,
null,,color_black4,1125543,,,,,,,,black_plus_sign,,,null,,,,,,,,,,,,,,,,,,,,,,
null,,learn_phase(without_color)4,1129045,,,,,,,,black_plus_sign,,,null,object_09b.png,object_03a.png,,,,,,,,,,,,,,,,,,,,
null,,black_cross(without_color)4,1129526,,,,,,,,green,,,null,object_09b.png,object_03a.png,,,,,,,,,,,,,,,,,,,,
null,,rt_plussign_withcolor4,1130028,,,,,,,,green,,,null,object_09b.png,object_03a.png,,,,,,,,,,,,,,,,,,,,
1287.699999988079,,rt_thecrossant_black4,1131549,,,,,,,,black_plus_sign,,,50,,,1,,,,,,,1,,,,,,,,,,,,
null,,color_black4,1131660,,,,,,,,black_plus_sign,,,null,,,,,,,,,,,,,,,,,,,,,,
null,,learn_phase(without_color)4,1135162,,,,,,,,black_plus_sign,,,null,object_07a.png,object_08a.png,,,,,,,,,,,,,,,,,,,,
null,,black_cross(without_color)4,1135610,,,,,,,,green,,,null,object_07a.png,object_08a.png,,,,,,,,,,,,,,,,,,,,
null,,rt_plussign_withcolor4,1136111,,,,,,,,green,,,null,object_07a.png,object_08a.png,,,,,,,,,,,,,,,,,,,,
771,,rt_thecrossant_black4,1137666,,,,,,,,black_plus_sign,,,50,,,1,,,,,,,1,,,,,,,,,,,,
null,,color_black4,1137768,,,,,,,,black_plus_sign,,,null,,,,,,,,,,,,,,,,,,,,,,
null,,learn_phase(without_color)4,1141269,,,,,,,,black_plus_sign,,,null,object_15b.png,object_06c.png,,,,,,,,,,,,,,,,,,,,
null,,black_cross(without_color)4,1141817,,,,,,,,green,,,null,object_15b.png,object_06c.png,,,,,,,,,,,,,,,,,,,,
null,,rt_plussign_withcolor4,1142318,,,,,,,,green,,,null,object_15b.png,object_06c.png,,,,,,,,,,,,,,,,,,,,
702.7999999821186,,rt_thecrossant_black4,1143773,,,,,,,,black_plus_sign,,,50,,,1,,,,,,,1,,,,,,,,,,,,
null,,color_black4,1143874,,,,,,,,black_plus_sign,,,null,,,,,,,,,,,,,,,,,,,,,,
null,,learn_phase(without_color)4,1147375,,,,,,,,black_plus_sign,,,null,object_11c.png,object_02a.png,,,,,,,,,,,,,,,,,,,,
null,,black_cross(without_color)4,1148256,,,,,,,,green,,,null,object_11c.png,object_02a.png,,,,,,,,,,,,,,,,,,,,
null,,rt_plussign_withcolor4,1148757,,,,,,,,green,,,null,object_11c.png,object_02a.png,,,,,,,,,,,,,,,,,,,,
742,,rt_thecrossant_black4,1149881,,,,,,,,black_plus_sign,,,50,,,1,,,,,,,1,,,,,,,,,,,,
null,,color_black4,1149983,,,,,,,,black_plus_sign,,,null,,,,,,,,,,,,,,,,,,,,,,
null,,learn_phase(without_color)4,1153484,,,,,,,,black_plus_sign,,,null,object_01b.png,object_02c.png,,,,,,,,,,,,,,,,,,,,
null,,black_cross(without_color)4,1154110,,,,,,,,blue,,,null,object_01b.png,object_02c.png,,,,,,,,,,,,,,,,,,,,
null,,rt_plussign_withcolor4,1154611,,,,,,,,blue,,,null,object_01b.png,object_02c.png,,,,,,,,,,,,,,,,,,,,
1136.0999999940395,,rt_thecrossant_black4,1155989,,,,,,,,black_plus_sign,,,49,,,1,,,,,,,1,,,,,,,,,,,,
null,,color_black4,1156091,,,,,,,,black_plus_sign,,,null,,,,,,,,,,,,,,,,,,,,,,
null,,learn_phase(without_color)4,1159593,,,,,,,,black_plus_sign,,,null,object_02c.png,object_03c.png,,,,,,,,,,,,,,,,,,,,
null,,black_cross(without_color)4,1160045,,,,,,,,blue,,,null,object_02c.png,object_03c.png,,,,,,,,,,,,,,,,,,,,
null,,rt_plussign_withcolor4,1160546,,,,,,,,blue,,,null,object_02c.png,object_03c.png,,,,,,,,,,,,,,,,,,,,
963.0999999940395,,rt_thecrossant_black4,1162097,,,,,,,,black_plus_sign,,,49,,,1,,,,,,,1,,,,,,,,,,,,
null,,color_black4,1162199,,,,,,,,black_plus_sign,,,null,,,,,,,,,,,,,,,,,,,,,,
null,,learn_phase(without_color)4,1165701,,,,,,,,black_plus_sign,,,null,object_10c.png,object_07a.png,,,,,,,,,,,,,,,,,,,,
null,,black_cross(without_color)4,1166387,,,,,,,,blue,,,null,object_10c.png,object_07a.png,,,,,,,,,,,,,,,,,,,,
null,,rt_plussign_withcolor4,1166888,,,,,,,,blue,,,null,object_10c.png,object_07a.png,,,,,,,,,,,,,,,,,,,,
672.4000000059605,,rt_thecrossant_black4,1168206,,,,,,,,black_plus_sign,,,49,,,1,,,,,,,1,,,,,,,,,,,,
null,,color_black4,1168307,,,,,,,,black_plus_sign,,,null,,,,,,,,,,,,,,,,,,,,,,
null,,learn_phase(without_color)4,1171808,,,,,,,,black_plus_sign,,,null,object_13c.png,object_08b.png,,,,,,,,,,,,,,,,,,,,
null,,black_cross(without_color)4,1172740,,,,,,,,blue,,,null,object_13c.png,object_08b.png,,,,,,,,,,,,,,,,,,,,
null,,rt_plussign_withcolor4,1173242,,,,,,,,blue,,,null,object_13c.png,object_08b.png,,,,,,,,,,,,,,,,,,,,
822.3000000119209,,rt_thecrossant_black4,1174313,,,,,,,,black_plus_sign,,,49,,,1,,,,,,,1,,,,,,,,,,,,
null,,color_black4,1174414,,,,,,,,black_plus_sign,,,null,,,,,,,,,,,,,,,,,,,,,,
null,,learn_phase(without_color)4,1177915,,,,,,,,black_plus_sign,,,null,object_09b.png,object_03b.png,,,,,,,,,,,,,,,,,,,,
null,,black_cross(without_color)4,1178889,,,,,,,,green,,,null,object_09b.png,object_03b.png,,,,,,,,,,,,,,,,,,,,
null,,rt_plussign_withcolor4,1179390,,,,,,,,green,,,null,object_09b.png,object_03b.png,,,,,,,,,,,,,,,,,,,,
1179.0999999940395,,rt_thecrossant_black4,1180421,,,,,,,,black_plus_sign,,,50,,,1,,,,,,,1,,,,,,,,,,,,
null,,color_black4,1180522,,,,,,,,black_plus_sign,,,null,,,,,,,,,,,,,,,,,,,,,,
null,,learn_phase(without_color)4,1184024,,,,,,,,black_plus_sign,,,null,object_09a.png,object_10a.png,,,,,,,,,,,,,,,,,,,,
null,,black_cross(without_color)4,1184543,,,,,,,,green,,,null,object_09a.png,object_10a.png,,,,,,,,,,,,,,,,,,,,
null,,rt_plussign_withcolor4,1185044,,,,,,,,green,,,null,object_09a.png,object_10a.png,,,,,,,,,,,,,,,,,,,,
1192.699999988079,,rt_thecrossant_black4,1186527,,,,,,,,black_plus_sign,,,50,,,1,,,,,,,1,,,,,,,,,,,,
null,,color_black4,1186629,,,,,,,,black_plus_sign,,,null,,,,,,,,,,,,,,,,,,,,,,
null,,learn_phase(without_color)4,1190131,,,,,,,,black_plus_sign,,,null,object_05c.png,object_07b.png,,,,,,,,,,,,,,,,,,,,
null,,black_cross(without_color)4,1190583,,,,,,,,green,,,null,object_05c.png,object_07b.png,,,,,,,,,,,,,,,,,,,,
null,,rt_plussign_withcolor4,1191085,,,,,,,,green,,,null,object_05c.png,object_07b.png,,,,,,,,,,,,,,,,,,,,
644.5999999940395,,rt_thecrossant_black4,1192637,,,,,,,,black_plus_sign,,,50,,,1,,,,,,,1,,,,,,,,,,,,
null,,color_black4,1192739,,,,,,,,black_plus_sign,,,null,,,,,,,,,,,,,,,,,,,,,,
null,,learn_phase(without_color)4,1196241,,,,,,,,black_plus_sign,,,null,object_04a.png,object_05a.png,,,,,,,,,,,,,,,,,,,,
null,,black_cross(without_color)4,1196699,,,,,,,,blue,,,null,object_04a.png,object_05a.png,,,,,,,,,,,,,,,,,,,,
null,,rt_plussign_withcolor4,1197201,,,,,,,,blue,,,null,object_04a.png,object_05a.png,,,,,,,,,,,,,,,,,,,,
587.0999999940395,,rt_thecrossant_black4,1198746,,,,,,,,black_plus_sign,,,49,,,1,,,,,,,1,,,,,,,,,,,,
null,,color_black4,1198847,,,,,,,,black_plus_sign,,,null,,,,,,,,,,,,,,,,,,,,,,
null,,learn_phase(without_color)4,1202349,,,,,,,,black_plus_sign,,,null,object_14a.png,object_04c.png,,,,,,,,,,,,,,,,,,,,
null,,black_cross(without_color)4,1202867,,,,,,,,blue,,,null,object_14a.png,object_04c.png,,,,,,,,,,,,,,,,,,,,
null,,rt_plussign_withcolor4,1203369,,,,,,,,blue,,,null,object_14a.png,object_04c.png,,,,,,,,,,,,,,,,,,,,
724.2999999821186,,rt_thecrossant_black4,1204853,,,,,,,,black_plus_sign,,,49,,,1,,,,,,,1,,,,,,,,,,,,
null,,color_black4,1204954,,,,,,,,black_plus_sign,,,null,,,,,,,,,,,,,,,,,,,,,,
null,,learn_phase(without_color)4,1208456,,,,,,,,black_plus_sign,,,null,object_01c.png,object_04b.png,,,,,,,,,,,,,,,,,,,,
null,,black_cross(without_color)4,1209157,,,,,,,,blue,,,null,object_01c.png,object_04b.png,,,,,,,,,,,,,,,,,,,,
null,,rt_plussign_withcolor4,1209658,,,,,,,,blue,,,null,object_01c.png,object_04b.png,,,,,,,,,,,,,,,,,,,,
810.9000000059605,,rt_thecrossant_black4,1210961,,,,,,,,black_plus_sign,,,49,,,1,,,,,,,1,,,,,,,,,,,,
null,,color_black4,1211062,,,,,,,,black_plus_sign,,,null,,,,,,,,,,,,,,,,,,,,,,
null,,learn_phase(without_color)4,1214563,,,,,,,,black_plus_sign,,,null,object_12b.png,object_04b.png,,,,,,,,,,,,,,,,,,,,
null,,black_cross(without_color)4,1215213,,,,,,,,green,,,null,object_12b.png,object_04b.png,,,,,,,,,,,,,,,,,,,,
null,,rt_plussign_withcolor4,1215714,,,,,,,,green,,,null,object_12b.png,object_04b.png,,,,,,,,,,,,,,,,,,,,
944.6999999880791,,rt_thecrossant_black4,1217067,,,,,,,,black_plus_sign,,,50,,,1,,,,,,,1,,,,,,,,,,,,
null,,color_black4,1217169,,,,,,,,black_plus_sign,,,null,,,,,,,,,,,,,,,,,,,,,,
null,,learn_phase(without_color)4,1220671,,,,,,,,black_plus_sign,,,null,object_15a.png,object_05b.png,,,,,,,,,,,,,,,,,,,,
null,,black_cross(without_color)4,1221709,,,,,,,,blue,,,null,object_15a.png,object_05b.png,,,,,,,,,,,,,,,,,,,,
null,,rt_plussign_withcolor4,1222210,,,,,,,,blue,,,null,object_15a.png,object_05b.png,,,,,,,,,,,,,,,,,,,,
814.2999999821186,,rt_thecrossant_black4,1223181,,,,,,,,black_plus_sign,,,49,,,1,,,,,,,1,,,,,,,,,,,,
null,,color_black4,1223283,,,,,,,,black_plus_sign,,,null,,,,,,,,,,,,,,,,,,,,,,
null,,learn_phase(without_color)4,1226785,,,,,,,,black_plus_sign,,,null,object_05a.png,object_14b.png,,,,,,,,,,,,,,,,,,,,
null,,black_cross(without_color)4,1227726,,,,,,,,blue,,,null,object_05a.png,object_14b.png,,,,,,,,,,,,,,,,,,,,
null,,rt_plussign_withcolor4,1228228,,,,,,,,blue,,,null,object_05a.png,object_14b.png,,,,,,,,,,,,,,,,,,,,
1211.699999988079,,rt_thecrossant_black4,1229289,,,,,,,,black_plus_sign,,,49,,,1,,,,,,,1,,,,,,,,,,,,
null,,color_black4,1229391,,,,,,,,black_plus_sign,,,null,,,,,,,,,,,,,,,,,,,,,,
null,,learn_phase(without_color)4,1232893,,,,,,,,black_plus_sign,,,null,object_06b.png,object_05b.png,,,,,,,,,,,,,,,,,,,,
null,,black_cross(without_color)4,1233859,,,,,,,,green,,,null,object_06b.png,object_05b.png,,,,,,,,,,,,,,,,,,,,
null,,rt_plussign_withcolor4,1234361,,,,,,,,green,,,null,object_06b.png,object_05b.png,,,,,,,,,,,,,,,,,,,,
1083.7999999821186,,rt_thecrossant_black4,1235398,,,,,,,,black_plus_sign,,,50,,,1,,,,,,,1,,,,,,,,,,,,
null,,color_black4,1235499,,,,,,,,black_plus_sign,,,null,,,,,,,,,,,,,,,,,,,,,,
null,,learn_phase(without_color)4,1239002,,,,,,,,black_plus_sign,,,null,object_02b.png,object_13b.png,,,,,,,,,,,,,,,,,,,,
null,,black_cross(without_color)4,1239816,,,,,,,,green,,,null,object_02b.png,object_13b.png,,,,,,,,,,,,,,,,,,,,
null,,rt_plussign_withcolor4,1240317,,,,,,,,green,,,null,object_02b.png,object_13b.png,,,,,,,,,,,,,,,,,,,,
1169.9000000059605,,rt_thecrossant_black4,1241505,,,,,,,,black_plus_sign,,,50,,,1,,,,,,,1,,,,,,,,,,,,
null,,color_black4,1241606,,,,,,,,black_plus_sign,,,null,,,,,,,,,,,,,,,,,,,,,,
null,,learn_phase(without_color)4,1245108,,,,,,,,black_plus_sign,,,null,object_15b.png,object_14c.png,,,,,,,,,,,,,,,,,,,,
null,,black_cross(without_color)4,1245694,,,,,,,,green,,,null,object_15b.png,object_14c.png,,,,,,,,,,,,,,,,,,,,
null,,rt_plussign_withcolor4,1246195,,,,,,,,green,,,null,object_15b.png,object_14c.png,,,,,,,,,,,,,,,,,,,,
1156.199999988079,,rt_thecrossant_black4,1247611,,,,,,,,black_plus_sign,,,50,,,1,,,,,,,1,,,,,,,,,,,,
null,,color_black4,1247712,,,,,,,,black_plus_sign,,,null,,,,,,,,,,,,,,,,,,,,,,
null,,learn_phase(without_color)4,1251214,,,,,,,,black_plus_sign,,,null,object_05c.png,object_08c.png,,,,,,,,,,,,,,,,,,,,
null,,black_cross(without_color)4,1252061,,,,,,,,green,,,null,object_05c.png,object_08c.png,,,,,,,,,,,,,,,,,,,,
497.5,,rt_plussign_withcolor4,1252563,,,,,,,,green,,,50,object_05c.png,object_08c.png,,,,,,,,,,,,,,,,,,,,
null,,rt_thecrossant_black4,1253720,,,,,,,,black_plus_sign,,,null,,,1,,,,,,,1,,,,,,,,,,,,
null,,color_black4,1253821,,,,,,,,black_plus_sign,,,null,,,,,,,,,,,,,,,,,,,,,,
null,,learn_phase(without_color)4,1257322,,,,,,,,black_plus_sign,,,null,object_13c.png,object_06a.png,,,,,,,,,,,,,,,,,,,,
null,,black_cross(without_color)4,1257874,,,,,,,,green,,,null,object_13c.png,object_06a.png,,,,,,,,,,,,,,,,,,,,
null,,rt_plussign_withcolor4,1258375,,,,,,,,green,,,null,object_13c.png,object_06a.png,,,,,,,,,,,,,,,,,,,,
1074.5999999940395,,rt_thecrossant_black4,1259826,,,,,,,,black_plus_sign,,,50,,,1,,,,,,,1,,,,,,,,,,,,
null,,color_black4,1259928,,,,,,,,black_plus_sign,,,null,,,,,,,,,,,,,,,,,,,,,,
null,,learn_phase(without_color)4,1263429,,,,,,,,black_plus_sign,,,null,object_11a.png,object_12c.png,,,,,,,,,,,,,,,,,,,,
null,,black_cross(without_color)4,1264061,,,,,,,,green,,,null,object_11a.png,object_12c.png,,,,,,,,,,,,,,,,,,,,
null,,rt_plussign_withcolor4,1264563,,,,,,,,green,,,null,object_11a.png,object_12c.png,,,,,,,,,,,,,,,,,,,,
715.2999999821186,,rt_thecrossant_black4,1265934,,,,,,,,black_plus_sign,,,50,,,1,,,,,,,1,,,,,,,,,,,,
null,,color_black4,1266035,,,,,,,,black_plus_sign,,,null,,,,,,,,,,,,,,,,,,,,,,
null,,thebreak,1266137,,,,,,,,<p></p>,,,null,,,,,,,,,,,,,,,,,,,,,,
1321.0999999940395,,intro_0,1267459,,,,,,,,instruct,,,32,,,,,,,,,,,,,,,,,,,,,,
4301.399999976158,,directmemory_phase4,1271761,,,,,,,,object_15c.png,,,50,,,1,,object_03c.png,object_02b.png,object_05a.png,object_02b.png,,0.7472527472527473,1,,,,,,,,,,,
1342.7999999821186,,directmemory_phase4,1273105,,,,,,,,object_14b.png,,,49,,,1,,object_05a.png,object_04b.png,object_14c.png,object_05a.png,,0.75,1,,,,,,,,,,,
3114.899999976158,,directmemory_phase4,1276221,,,,,,,,object_03c.png,,,51,,,1,,object_05c.png,object_12b.png,object_02c.png,object_02c.png,,0.7526881720430108,1,,,,,,,,,,,
5176.5999999940395,,directmemory_phase4,1281399,,,,,,,,object_14c.png,,,50,,,1,,object_14b.png,object_15b.png,object_02b.png,object_15b.png,,0.7553191489361702,1,,,,,,,,,,,
2014.7999999821186,,directmemory_phase4,1283415,,,,,,,,object_06c.png,,,51,,,1,,object_05a.png,object_10a.png,object_15b.png,object_15b.png,,0.7578947368421053,1,,,,,,,,,,,
2030.7999999821186,,directmemory_phase4,1285447,,,,,,,,object_05c.png,,,50,,,1,,object_13a.png,object_08c.png,object_02a.png,object_08c.png,,0.7604166666666666,1,,,,,,,,,,,
2552.899999976158,,directmemory_phase4,1288001,,,,,,,,object_09c.png,,,51,,,1,,object_02b.png,object_15a.png,object_13a.png,object_13a.png,,0.7628865979381443,1,,,,,,,,,,,
1294.7999999821186,,directmemory_phase4,1289297,,,,,,,,object_01c.png,,,50,,,1,,object_13b.png,object_04b.png,object_11c.png,object_04b.png,,0.7653061224489796,1,,,,,,,,,,,
2294.7999999821186,,directmemory_phase4,1291593,,,,,,,,object_11b.png,,,51,,,1,,object_09a.png,object_14a.png,object_11c.png,object_11c.png,,0.7676767676767676,1,,,,,,,,,,,
1284.7999999821186,,directmemory_phase4,1292879,,,,,,,,object_03b.png,,,50,,,1,,object_10c.png,object_09b.png,object_05b.png,object_09b.png,,0.77,1,,,,,,,,,,,
1826.9000000059605,,directmemory_phase4,1294707,,,,,,,,object_12a.png,,,51,,,1,,object_05a.png,object_15c.png,object_09a.png,object_09a.png,,0.7722772277227723,1,,,,,,,,,,,
4384.899999976158,,directmemory_phase4,1299093,,,,,,,,object_02c.png,,,51,,,1,,object_01c.png,object_02b.png,object_01b.png,object_01b.png,,0.7745098039215687,1,,,,,,,,,,,
2264.699999988079,,directmemory_phase4,1301359,,,,,,,,object_06a.png,,,49,,,1,,object_13c.png,object_13a.png,object_14b.png,object_13c.png,,0.7766990291262136,1,,,,,,,,,,,
1252.800000011921,,directmemory_phase4,1302613,,,,,,,,object_12b.png,,,51,,,1,,object_12c.png,object_10c.png,object_04b.png,object_04b.png,,0.7788461538461539,1,,,,,,,,,,,
2656.7999999821186,,directmemory_phase4,1305271,,,,,,,,object_10b.png,,,49,,,1,,object_04c.png,object_05a.png,object_10a.png,object_04c.png,,0.780952380952381,1,,,,,,,,,,,
1792.7999999821186,,directmemory_phase4,1307065,,,,,,,,object_10c.png,,,50,,,1,,object_11a.png,object_07a.png,object_05b.png,object_07a.png,,0.7830188679245284,1,,,,,,,,,,,
2270.899999976158,,directmemory_phase4,1309337,,,,,,,,object_02a.png,,,49,,,1,,object_11c.png,object_12c.png,object_04a.png,object_11c.png,,0.7850467289719626,1,,,,,,,,,,,
1310.699999988079,,directmemory_phase4,1310649,,,,,,,,object_10a.png,,,50,,,1,,object_01a.png,object_09a.png,object_05b.png,object_09a.png,,0.7870370370370371,1,,,,,,,,,,,
1504.8999999761581,,directmemory_phase4,1312155,,,,,,,,object_14a.png,,,51,,,1,,object_02c.png,object_12b.png,object_04c.png,object_04c.png,,0.7889908256880734,1,,,,,,,,,,,
2056.5,,directmemory_phase4,1314213,,,,,,,,object_02b.png,,,49,,,1,,object_13b.png,object_08a.png,object_04b.png,object_13b.png,,0.7909090909090909,1,,,,,,,,,,,
2281,,directmemory_phase4,1316495,,,,,,,,object_13a.png,,,51,,,1,,object_02a.png,object_11c.png,object_07c.png,object_07c.png,,0.7927927927927928,1,,,,,,,,,,,
3401,,directmemory_phase4,1319897,,,,,,,,object_11a.png,,,49,,,1,,object_12c.png,object_05b.png,object_07b.png,object_12c.png,,0.7946428571428571,1,,,,,,,,,,,
3140.699999988079,,directmemory_phase4,1323039,,,,,,,,object_04a.png,,,49,,,1,,object_05a.png,object_09b.png,object_06c.png,object_05a.png,,0.7964601769911505,1,,,,,,,,,,,
3450.699999988079,,directmemory_phase4,1326491,,,,,,,,object_08b.png,,,51,,,1,,object_12c.png,object_03a.png,object_13c.png,object_13c.png,,0.7982456140350878,1,,,,,,,,,,,
4287,,directmemory_phase4,1330779,,,,,,,,object_03a.png,,,49,,,1,,object_09b.png,object_11c.png,object_06c.png,object_09b.png,,0.8,1,,,,,,,,,,,
1394.5999999940395,,directmemory_phase4,1332175,,,,,,,,object_07b.png,,,50,,,1,,object_15a.png,object_05c.png,object_04c.png,object_05c.png,,0.8017241379310345,1,,,,,,,,,,,
1544.699999988079,,directmemory_phase4,1333721,,,,,,,,object_05b.png,,,50,,,1,,object_04c.png,object_06b.png,object_06c.png,object_06b.png,,0.8034188034188035,1,,,,,,,,,,,
1746.8999999761581,,directmemory_phase4,1335469,,,,,,,,object_15a.png,,,49,,,1,,object_05b.png,object_11c.png,object_10c.png,object_05b.png,,0.8050847457627118,1,,,,,,,,,,,
1396.7999999821186,,directmemory_phase4,1336867,,,,,,,,object_08a.png,,,51,,,1,,object_05c.png,object_10a.png,object_07a.png,object_07a.png,,0.8067226890756303,1,,,,,,,,,,,
1904.699999988079,,directmemory_phase4,1338773,,,,,,,,object_01a.png,,,51,,,1,,object_05b.png,object_01c.png,object_12c.png,object_12c.png,,0.8083333333333333,1,,,,,,,,,,,
null,,thebreak,1338875,,,,,,,,<p></p>,,,null,,,,,,,,,,,,,,,,,,,,,,
5987.800000011921,,intro_0,1344863,,,,,,,,instruct,,,32,,,,,,,,,,,,,,,,,,,,,,
14183.40000000596,,intro_1,1359047,,,,,,,,instruct,,,32,,,,,,,,,,,,,,,,,,,,,,
4035.2999999821186,,intro_2,1363083,,,,,,,,instruct,,,32,,,,,,,,,,,,,,,,,,,,,,
,,intro_3,1388479,,,,,,,,instruct,,,,,,,,,,,,,,,,,,,,,,,,,
3441.4000000059605,,intro_4,1391921,,,,,,,,instruct,,,32,,,,,,,,,,,,,,,,,,,,,,
null,,thebreak,1392023,,,,,,,,<p></p>,,,null,,,,,,,,,,,,,,,,,,,,,,
1653.5999999940395,,intro_0,1393677,,,,,,,,instruct,,,32,,,,,,,,,,,,,,,,,,,,,,
6979.399999976158,,intro_1,1400657,,,,,,,,instruct,,,32,,,,,,,,,,,,,,,,,,,,,,
1171.3999999761581,,intro_2,1401829,,,,,,,,instruct,,,32,,,,,,,,,,,,,,,,,,,,,,
,,intro_3,1409115,,,,,,,,instruct,,,,,,,,,,,,,,,,,,,,,,,,,
3119.399999976158,,intro_4,1412235,,,,,,,,instruct,,,32,,,,,,,,,,,,,,,,,,,,,,
7325.4000000059605,,inference_phase,1419561,,,,,,,,object_15a.png,,,50,object_12c.png,object_02a.png,1,,,,,object_06b.png,,1,,object_06b.png,,,,,,,,,,
3838.7000000178814,,inference_phase,1423401,,,,,,,,object_03a.png,,,51,object_12a.png,object_03b.png,1,,,,,object_03b.png,,1,,object_05b.png,,,,,,,,,,
5820.699999988079,,inference_phase,1429223,,,,,,,,object_01b.png,,,50,object_12b.png,object_03c.png,0,,,,,object_03c.png,,0.6666666666666666,,object_15b.png,,,,,,,,,,
5068.799999982119,,inference_phase,1434293,,,,,,,,object_10a.png,,,51,object_10c.png,object_12a.png,1,,,,,object_12a.png,,0.75,,object_05b.png,,,,,,,,,,
3764.7999999821186,,inference_phase,1438059,,,,,,,,object_08b.png,,,50,object_06a.png,object_12b.png,0,,,,,object_06a.png,,0.6,,object_02c.png,,,,,,,,,,
2992.9000000059605,,inference_phase,1441053,,,,,,,,object_01c.png,,,50,object_15c.png,object_02c.png,1,,,,,object_12b.png,,0.6666666666666666,,object_12b.png,,,,,,,,,,
5386.799999982119,,inference_phase,1446441,,,,,,,,object_04a.png,,,50,object_14a.png,object_11c.png,1,,,,,object_14b.png,,0.7142857142857143,,object_14b.png,,,,,,,,,,
4014.899999976158,,inference_phase,1450457,,,,,,,,object_06c.png,,,51,object_07b.png,object_14c.png,1,,,,,object_14c.png,,0.75,,object_04c.png,,,,,,,,,,
4818.9000000059605,,inference_phase,1455277,,,,,,,,object_01a.png,,,49,object_03c.png,object_11a.png,0,,,,,object_11a.png,,0.6666666666666666,,object_15b.png,,,,,,,,,,
2898.9000000059605,,inference_phase,1458177,,,,,,,,object_07c.png,,,51,object_14a.png,object_09c.png,1,,,,,object_09c.png,,0.7,,object_12c.png,,,,,,,,,,
3678.899999976158,,inference_phase,1461857,,,,,,,,object_10c.png,,,50,object_13a.png,object_02a.png,1,,,,,object_08a.png,,0.7272727272727273,,object_08a.png,,,,,,,,,,
4548.899999976158,,inference_phase,1466407,,,,,,,,object_07b.png,,,49,object_08c.png,object_13b.png,1,,,,,object_08c.png,,0.75,,object_11c.png,,,,,,,,,,
5003,,inference_phase,1471411,,,,,,,,object_02a.png,,,51,object_03c.png,object_11b.png,1,,,,,object_11b.png,,0.7692307692307693,,object_09a.png,,,,,,,,,,
3510.699999988079,,inference_phase,1474923,,,,,,,,object_13b.png,,,51,object_15c.png,object_15a.png,0,,,,,object_15c.png,,0.7142857142857143,,object_09b.png,,,,,,,,,,
6985,,inference_phase,1481909,,,,,,,,object_10b.png,,,51,object_14a.png,object_10c.png,0,,,,,object_14a.png,,0.6666666666666666,,object_13a.png,,,,,,,,,,
,,survey,1585927,,,,,,,,survey-questions,,,,,,,,,,,,,,,,none,high,no,I tried to compare the shapes to objects that I recognize and then try to figure out how they go together,no,no,It was a difficult task.,,,
10080.5,,thank_you,1596031,,,,,,,,<p> Congratulations, you are all done!</p><p> <strong>Please click space on your keyboard to end the experiment!</strong> The secret code to enter at the beginning screen is: <strong>CIMBPENS</strong></p><p> Please make sure to submit the HIT and email uciccnl@gmail.com if you had any issues! </p><br><p>Please remember to submit this data by clicking space after copying the code. Failure of submission will lead to in-complete payment</p>,,,32,,,,,,,,,,,,,,,,,,,,0,0,C78LSMTN
