rt,responses,trial_type,time_elapsed,identifier_a,identifier_b,identifier_c,tasktype,browser_type,local_time,UTC_time,stimulus,button_pressed,response,key_press,stimulus_left,stimulus_right,accuracy,practice_cumulative_accuracy,stimulus_down_left,stimulus_down_mid,stimulus_down_right,stimulus_correct,prac_weighted_accuracy,cumulative_accuracy,weighted_accuracy,tooquick,stimulus_middle,problems,smooth,distraction,strategies,easier,similar,comments,detectfocus,breakfocus,completion_code
4919.199999988079,{worker_id:651ebcca48c60acc82f1f2bd},id_enter,4920,object_05b.png; object_08b.png; object_07a.png; object_07c.png; object_13c.png; object_14b.png; object_11a.png; object_08c.png; object_06c.png; object_01b.png; object_06b.png; object_05a.png; object_02c.png; object_15b.png; object_07b.png,object_10b.png; object_12c.png; object_10a.png; object_04c.png; object_15a.png; object_09c.png; object_06a.png; object_09b.png; object_05c.png; object_15c.png; object_13b.png; object_11c.png; object_13a.png; object_14a.png; object_09a.png,object_03a.png; object_14c.png; object_11b.png; object_04a.png; object_04b.png; object_01a.png; object_08a.png; object_10c.png; object_03c.png; object_12a.png; object_03b.png; object_02a.png; object_02b.png; object_12b.png; object_01c.png,blocked,Mozilla/5.0 (Windows NT 10.0; Win64; x64) AppleWebKit/537.36 (KHTML, like Gecko) Chrome/135.0.0.0 Safari/537.36,5/8/2025, 7:56:00 PM,2025-05-08 23:56:00.691,,,,,,,,,,,,,,,,,,,,,,,,,,,
7833.400000035763,,make_fullscreen,12759,,,,,,,,fullscreen,0,,,,,,,,,,,,,,,,,,,,,,,,,
4989.599999964237,,instruct_1,17751,,,,,,,,instruct,0,Next,,,,,,,,,,,,,,,,,,,,,,,,
7130.100000023842,,instruct_2,24883,,,,,,,,instruct,1,Next,,,,,,,,,,,,,,,,,,,,,,,,
5156.099999964237,,instruct_3,30041,,,,,,,,instruct,1,Next,,,,,,,,,,,,,,,,,,,,,,,,
15275.599999964237,,instruct_4,45318,,,,,,,,instruct,1,Next,,,,,,,,,,,,,,,,,,,,,,,,
9769.899999976158,,instruct_5,55089,,,,,,,,instruct,1,Next,,,,,,,,,,,,,,,,,,,,,,,,
3537.599999964237,,instruct_6,58628,,,,,,,,instruct,1,Next,,,,,,,,,,,,,,,,,,,,,,,,
20445.69999998808,,instruct_7,79076,,,,,,,,instruct,1,Next,,,,,,,,,,,,,,,,,,,,,,,,
null,,prac_atten_color_black,79894,,,,,,,,black_plus_sign,,,null,,,,,,,,,,,,,,,,,,,,,,,
null,,prac_atten_color,80484,,,,,,,,<p style='position:absolute;top: 50%;right: 50%;transform: translate(50%, -50%);font-size: 125px;color: blue;'>+</p>,,,null,,,,,,,,,,,,,,,,,,,,,,,
338.69999998807907,,prac_atten_color_black,82485,,,,,,,,black_plus_sign,,,49,,,,,,,,,,,,,,,,,,,,,,,
null,,prac_atten_color_black,83305,,,,,,,,black_plus_sign,,,null,,,,,,,,,,,,,,,,,,,,,,,
null,,prac_atten_color,83891,,,,,,,,<p style='position:absolute;top: 50%;right: 50%;transform: translate(50%, -50%);font-size: 125px;color: green;'>+</p>,,,null,,,,,,,,,,,,,,,,,,,,,,,
100.19999998807907,,prac_atten_color_black,85896,,,,,,,,black_plus_sign,,,50,,,,,,,,,,,,,,,,,,,,,,,
null,,prac_atten_color_black,86715,,,,,,,,black_plus_sign,,,null,,,,,,,,,,,,,,,,,,,,,,,
633.5999999642372,,prac_atten_color,87507,,,,,,,,<p style='position:absolute;top: 50%;right: 50%;transform: translate(50%, -50%);font-size: 125px;color: green;'>+</p>,,,50,,,,,,,,,,,,,,,,,,,,,,,
null,,prac_atten_color_black,89510,,,,,,,,black_plus_sign,,,null,,,,,,,,,,,,,,,,,,,,,,,
null,,prac_atten_color_black,90124,,,,,,,,black_plus_sign,,,null,,,,,,,,,,,,,,,,,,,,,,,
543,,prac_atten_color,91007,,,,,,,,<p style='position:absolute;top: 50%;right: 50%;transform: translate(50%, -50%);font-size: 125px;color: blue;'>+</p>,,,49,,,,,,,,,,,,,,,,,,,,,,,
null,,prac_atten_color_black,93010,,,,,,,,black_plus_sign,,,null,,,,,,,,,,,,,,,,,,,,,,,
null,,prac_atten_color_black,93531,,,,,,,,black_plus_sign,,,null,,,,,,,,,,,,,,,,,,,,,,,
544.4000000357628,,prac_atten_color,94097,,,,,,,,<p style='position:absolute;top: 50%;right: 50%;transform: translate(50%, -50%);font-size: 125px;color: green;'>+</p>,,,50,,,,,,,,,,,,,,,,,,,,,,,
null,,prac_atten_color_black,96099,,,,,,,,black_plus_sign,,,null,,,,,,,,,,,,,,,,,,,,,,,
null,,prac_atten_color_black,96937,,,,,,,,black_plus_sign,,,null,,,,,,,,,,,,,,,,,,,,,,,
513.6000000238419,,prac_atten_color,97782,,,,,,,,<p style='position:absolute;top: 50%;right: 50%;transform: translate(50%, -50%);font-size: 125px;color: green;'>+</p>,,,50,,,,,,,,,,,,,,,,,,,,,,,
null,,prac_atten_color_black,99783,,,,,,,,black_plus_sign,,,null,,,,,,,,,,,,,,,,,,,,,,,
null,,prac_atten_color_black,100343,,,,,,,,black_plus_sign,,,null,,,,,,,,,,,,,,,,,,,,,,,
670.4000000357628,,prac_atten_color,101288,,,,,,,,<p style='position:absolute;top: 50%;right: 50%;transform: translate(50%, -50%);font-size: 125px;color: blue;'>+</p>,,,49,,,,,,,,,,,,,,,,,,,,,,,
null,,prac_atten_color_black,103290,,,,,,,,black_plus_sign,,,null,,,,,,,,,,,,,,,,,,,,,,,
null,,prac_atten_color_black,103749,,,,,,,,black_plus_sign,,,null,,,,,,,,,,,,,,,,,,,,,,,
498.39999997615814,,prac_atten_color,104415,,,,,,,,<p style='position:absolute;top: 50%;right: 50%;transform: translate(50%, -50%);font-size: 125px;color: green;'>+</p>,,,50,,,,,,,,,,,,,,,,,,,,,,,
null,,prac_atten_color_black,106417,,,,,,,,black_plus_sign,,,null,,,,,,,,,,,,,,,,,,,,,,,
null,,prac_atten_color_black,107156,,,,,,,,black_plus_sign,,,null,,,,,,,,,,,,,,,,,,,,,,,
730.5999999642372,,prac_atten_color,107901,,,,,,,,<p style='position:absolute;top: 50%;right: 50%;transform: translate(50%, -50%);font-size: 125px;color: blue;'>+</p>,,,49,,,,,,,,,,,,,,,,,,,,,,,
null,,prac_atten_color_black,109904,,,,,,,,black_plus_sign,,,null,,,,,,,,,,,,,,,,,,,,,,,
null,,prac_atten_color_black,110563,,,,,,,,black_plus_sign,,,null,,,,,,,,,,,,,,,,,,,,,,,
627,,prac_atten_color,111371,,,,,,,,<p style='position:absolute;top: 50%;right: 50%;transform: translate(50%, -50%);font-size: 125px;color: blue;'>+</p>,,,49,,,,,,,,,,,,,,,,,,,,,,,
null,,prac_atten_color_black,113374,,,,,,,,black_plus_sign,,,null,,,,,,,,,,,,,,,,,,,,,,,
5248.899999976158,,attentioncheck_feedback,118626,,,,,,,,cross_check_feedback,0,,,,,,,,,,,,,,,,,,,,,,,,,
8980,,last_instruct,127606,,,,,,,,instruct,,,32,,,,,,,,,,,,,,,,,,,,,,,
null,,prac_learn_phase(without_color),131109,,,,,,,,black_plus_sign,,,null,object_15c.png,object_01b.png,,,,,,,,,,,,,,,,,,,,,
null,,prac_black_cross(without_color),132066,,,,,,,,green,,,null,object_15c.png,object_01b.png,,,,,,,,,,,,,,,,,,,,,
null,,prac_rt_plussign_withcolor,132568,,,,,,,,green,,,null,object_15c.png,object_01b.png,,,,,,,,,,,,,,,,,,,,,
973.5,,prac_rt_thecrossant_black,133615,,,,,,,,black_plus_sign,,,50,,,1,1,,,,,,,,,,,,,,,,,,,
null,,prac_color_black,133718,,,,,,,,black_plus_sign,,,null,,,,,,,,,,,,,,,,,,,,,,,
null,,prac_learn_phase(without_color),137222,,,,,,,,black_plus_sign,,,null,object_08b.png,object_12c.png,,,,,,,,,,,,,,,,,,,,,
null,,black_cross(without_color)1,137968,,,,,,,,blue,,,null,object_15c.png,object_01b.png,,,,,,,,,,,,,,,,,,,,,
null,,prac_rt_plussign_withcolor,138472,,,,,,,,green,,,null,object_08b.png,object_12c.png,,,,,,,,,,,,,,,,,,,,,
1196.300000011921,,prac_rt_thecrossant_black,139694,,,,,,,,black_plus_sign,,,50,,,1,1,,,,,,,,,,,,,,,,,,,
null,,prac_color_black,139799,,,,,,,,black_plus_sign,,,null,,,,,,,,,,,,,,,,,,,,,,,
null,,prac_learn_phase(without_color),143302,,,,,,,,black_plus_sign,,,null,object_07c.png,object_04c.png,,,,,,,,,,,,,,,,,,,,,
null,,black_cross(without_color)1,144046,,,,,,,,blue,,,null,object_15c.png,object_01b.png,,,,,,,,,,,,,,,,,,,,,
null,,prac_rt_plussign_withcolor,144550,,,,,,,,green,,,null,object_07c.png,object_04c.png,,,,,,,,,,,,,,,,,,,,,
954.5,,prac_rt_thecrossant_black,145780,,,,,,,,black_plus_sign,,,50,,,1,1,,,,,,,,,,,,,,,,,,,
null,,prac_color_black,145884,,,,,,,,black_plus_sign,,,null,,,,,,,,,,,,,,,,,,,,,,,
null,,prac_learn_phase(without_color),149389,,,,,,,,black_plus_sign,,,null,object_13c.png,object_15a.png,,,,,,,,,,,,,,,,,,,,,
null,,black_cross(without_color)1,150133,,,,,,,,blue,,,null,object_15c.png,object_01b.png,,,,,,,,,,,,,,,,,,,,,
null,,prac_rt_plussign_withcolor,150635,,,,,,,,green,,,null,object_13c.png,object_15a.png,,,,,,,,,,,,,,,,,,,,,
916.5,,prac_rt_thecrossant_black,151706,,,,,,,,black_plus_sign,,,50,,,1,1,,,,,,,,,,,,,,,,,,,
null,,prac_color_black,151807,,,,,,,,black_plus_sign,,,null,,,,,,,,,,,,,,,,,,,,,,,
9412.300000011921,,instruct_dir_01,161220,,,,,,,,instruct,0,Next,,,,,,,,,,,,,,,,,,,,,,,,
5675.5,,instruct_dir_2,166897,,,,,,,,instruct,1,Next,,,,,,,,,,,,,,,,,,,,,,,,
3457.900000035763,,instruct_dir_3,170356,,,,,,,,instruct,1,Next,,,,,,,,,,,,,,,,,,,,,,,,
5008,,instruct_dir_4,175365,,,,,,,,instruct,1,Start,,,,,,,,,,,,,,,,,,,,,,,,
null,,thebreak,175467,,,,,,,,<p></p>,,,null,,,,,,,,,,,,,,,,,,,,,,,
2150.2999999523163,,intro_0,177618,,,,,,,,instruct,,,32,,,,,,,,,,,,,,,,,,,,,,,
4406.099999964237,,prac_directmemory_phase,182025,,,,,,,,practice/object_04a.png,,,50,,,1,,practice/object_03a.png,practice/object_04b.png,practice/object_01b.png,practice/object_04b.png,1,1,,,,,,,,,,,,,
1737.5999999642372,,prac_directmemory_phase,183764,,,,,,,,practice/object_01a.png,,,49,,,1,,practice/object_01b.png,practice/object_02b.png,practice/object_04a.png,practice/object_01b.png,1,1,,,,,,,,,,,,,
3262.399999976158,,prac_directmemory_phase,187028,,,,,,,,practice/object_02a.png,,,50,,,1,,practice/object_01a.png,practice/object_02b.png,practice/object_04b.png,practice/object_02b.png,1,1,,,,,,,,,,,,,
3402.100000023842,,prac_directmemory_phase,190431,,,,,,,,practice/object_03a.png,,,51,,,0,,practice/object_03b.png,practice/object_02b.png,practice/object_02a.png,practice/object_03b.png,0,0.75,,,,,,,,,,,,,
6368.100000023842,,practice_feedback,196801,,,,,,,,practice_feedback,1,,,,,,,,,,,,,,,,,,,,,,,,,
7748.199999988079,,proceed_actualTask,204550,,,,,,,,proceed_actualTask,1,Continue,,,,,,,,,,,,,,,,,,,,,,,,
7533.900000035763,,last_inst,212084,,,,,,,,last_inst,,,32,,,,,,,,,,,,,,,,,,,,,,,
null,,learn_phase(without_color)1,215585,,,,,,,,black_plus_sign,,,null,object_15c.png,object_01b.png,,,,,,,,,,,,,,,,,,,,,
null,,black_cross(without_color)1,216329,,,,,,,,blue,,,null,object_15c.png,object_01b.png,,,,,,,,,,,,,,,,,,,,,
null,,rt_plussign_withcolor1,216831,,,,,,,,blue,,,null,object_15c.png,object_01b.png,,,,,,,,,,,,,,,,,,,,,
1574.1000000238419,,rt_thecrossant_black1,218092,,,,,,,,black_plus_sign,,,49,,,1,,,,,,,1,,,,,,,,,,,,,
null,,color_black1,218194,,,,,,,,black_plus_sign,,,null,,,,,,,,,,,,,,,,,,,,,,,
null,,learn_phase(without_color)1,221700,,,,,,,,black_plus_sign,,,null,object_08b.png,object_12c.png,,,,,,,,,,,,,,,,,,,,,
null,,black_cross(without_color)1,222426,,,,,,,,green,,,null,object_08b.png,object_12c.png,,,,,,,,,,,,,,,,,,,,,
null,,rt_plussign_withcolor1,222927,,,,,,,,green,,,null,object_08b.png,object_12c.png,,,,,,,,,,,,,,,,,,,,,
955.5,,rt_thecrossant_black1,224211,,,,,,,,black_plus_sign,,,50,,,1,,,,,,,1,,,,,,,,,,,,,
null,,color_black1,224324,,,,,,,,black_plus_sign,,,null,,,,,,,,,,,,,,,,,,,,,,,
null,,learn_phase(without_color)1,227826,,,,,,,,black_plus_sign,,,null,object_07c.png,object_04c.png,,,,,,,,,,,,,,,,,,,,,
null,,black_cross(without_color)1,228237,,,,,,,,blue,,,null,object_07c.png,object_04c.png,,,,,,,,,,,,,,,,,,,,,
null,,rt_plussign_withcolor1,228738,,,,,,,,blue,,,null,object_07c.png,object_04c.png,,,,,,,,,,,,,,,,,,,,,
1009,,rt_thecrossant_black1,230336,,,,,,,,black_plus_sign,,,49,,,1,,,,,,,1,,,,,,,,,,,,,
null,,color_black1,230438,,,,,,,,black_plus_sign,,,null,,,,,,,,,,,,,,,,,,,,,,,
null,,learn_phase(without_color)1,233940,,,,,,,,black_plus_sign,,,null,object_13c.png,object_15a.png,,,,,,,,,,,,,,,,,,,,,
null,,black_cross(without_color)1,234587,,,,,,,,blue,,,null,object_13c.png,object_15a.png,,,,,,,,,,,,,,,,,,,,,
426.7000000476837,,rt_plussign_withcolor1,235089,,,,,,,,blue,,,49,object_13c.png,object_15a.png,,,,,,,,,,,,,,,,,,,,,
null,,rt_thecrossant_black1,236451,,,,,,,,black_plus_sign,,,null,,,1,,,,,,,1,,,,,,,,,,,,,
null,,color_black1,236553,,,,,,,,black_plus_sign,,,null,,,,,,,,,,,,,,,,,,,,,,,
null,,learn_phase(without_color)1,240060,,,,,,,,black_plus_sign,,,null,object_07b.png,object_09a.png,,,,,,,,,,,,,,,,,,,,,
null,,black_cross(without_color)1,241054,,,,,,,,green,,,null,object_07b.png,object_09a.png,,,,,,,,,,,,,,,,,,,,,
null,,rt_plussign_withcolor1,241556,,,,,,,,green,,,null,object_07b.png,object_09a.png,,,,,,,,,,,,,,,,,,,,,
835.2999999523163,,rt_thecrossant_black1,242571,,,,,,,,black_plus_sign,,,50,,,1,,,,,,,1,,,,,,,,,,,,,
null,,color_black1,242672,,,,,,,,black_plus_sign,,,null,,,,,,,,,,,,,,,,,,,,,,,
null,,learn_phase(without_color)1,246174,,,,,,,,black_plus_sign,,,null,object_15b.png,object_14a.png,,,,,,,,,,,,,,,,,,,,,
null,,black_cross(without_color)1,247099,,,,,,,,green,,,null,object_15b.png,object_14a.png,,,,,,,,,,,,,,,,,,,,,
418.30000001192093,,rt_plussign_withcolor1,247602,,,,,,,,green,,,50,object_15b.png,object_14a.png,,,,,,,,,,,,,,,,,,,,,
null,,rt_thecrossant_black1,248680,,,,,,,,black_plus_sign,,,null,,,1,,,,,,,1,,,,,,,,,,,,,
null,,color_black1,248785,,,,,,,,black_plus_sign,,,null,,,,,,,,,,,,,,,,,,,,,,,
null,,learn_phase(without_color)1,252288,,,,,,,,black_plus_sign,,,null,object_13a.png,object_02c.png,,,,,,,,,,,,,,,,,,,,,
null,,black_cross(without_color)1,252812,,,,,,,,green,,,null,object_13a.png,object_02c.png,,,,,,,,,,,,,,,,,,,,,
null,,rt_plussign_withcolor1,253313,,,,,,,,green,,,null,object_13a.png,object_02c.png,,,,,,,,,,,,,,,,,,,,,
1257.1000000238419,,rt_thecrossant_black1,254797,,,,,,,,black_plus_sign,,,50,,,1,,,,,,,1,,,,,,,,,,,,,
null,,color_black1,254899,,,,,,,,black_plus_sign,,,null,,,,,,,,,,,,,,,,,,,,,,,
null,,learn_phase(without_color)1,258401,,,,,,,,black_plus_sign,,,null,object_09b.png,object_08c.png,,,,,,,,,,,,,,,,,,,,,
null,,black_cross(without_color)1,259194,,,,,,,,blue,,,null,object_09b.png,object_08c.png,,,,,,,,,,,,,,,,,,,,,
null,,rt_plussign_withcolor1,259696,,,,,,,,blue,,,null,object_09b.png,object_08c.png,,,,,,,,,,,,,,,,,,,,,
698.6000000238419,,rt_thecrossant_black1,260907,,,,,,,,black_plus_sign,,,49,,,1,,,,,,,1,,,,,,,,,,,,,
null,,color_black1,261009,,,,,,,,black_plus_sign,,,null,,,,,,,,,,,,,,,,,,,,,,,
null,,learn_phase(without_color)1,264514,,,,,,,,black_plus_sign,,,null,object_06a.png,object_11a.png,,,,,,,,,,,,,,,,,,,,,
null,,black_cross(without_color)1,265178,,,,,,,,blue,,,null,object_06a.png,object_11a.png,,,,,,,,,,,,,,,,,,,,,
null,,rt_plussign_withcolor1,265683,,,,,,,,blue,,,null,object_06a.png,object_11a.png,,,,,,,,,,,,,,,,,,,,,
1307.300000011921,,rt_thecrossant_black1,267026,,,,,,,,black_plus_sign,,,49,,,1,,,,,,,1,,,,,,,,,,,,,
null,,color_black1,267128,,,,,,,,black_plus_sign,,,null,,,,,,,,,,,,,,,,,,,,,,,
null,,learn_phase(without_color)1,270631,,,,,,,,black_plus_sign,,,null,object_10a.png,object_07a.png,,,,,,,,,,,,,,,,,,,,,
null,,black_cross(without_color)1,271250,,,,,,,,blue,,,null,object_10a.png,object_07a.png,,,,,,,,,,,,,,,,,,,,,
null,,rt_plussign_withcolor1,271752,,,,,,,,blue,,,null,object_10a.png,object_07a.png,,,,,,,,,,,,,,,,,,,,,
861.5999999642372,,rt_thecrossant_black1,273136,,,,,,,,black_plus_sign,,,49,,,1,,,,,,,1,,,,,,,,,,,,,
null,,color_black1,273238,,,,,,,,black_plus_sign,,,null,,,,,,,,,,,,,,,,,,,,,,,
null,,learn_phase(without_color)1,276741,,,,,,,,black_plus_sign,,,null,object_10b.png,object_05b.png,,,,,,,,,,,,,,,,,,,,,
null,,black_cross(without_color)1,277171,,,,,,,,green,,,null,object_10b.png,object_05b.png,,,,,,,,,,,,,,,,,,,,,
null,,rt_plussign_withcolor1,277672,,,,,,,,green,,,null,object_10b.png,object_05b.png,,,,,,,,,,,,,,,,,,,,,
1247,,rt_thecrossant_black1,279247,,,,,,,,black_plus_sign,,,50,,,1,,,,,,,1,,,,,,,,,,,,,
null,,color_black1,279348,,,,,,,,black_plus_sign,,,null,,,,,,,,,,,,,,,,,,,,,,,
null,,learn_phase(without_color)1,282856,,,,,,,,black_plus_sign,,,null,object_05c.png,object_06c.png,,,,,,,,,,,,,,,,,,,,,
null,,black_cross(without_color)1,283517,,,,,,,,blue,,,null,object_05c.png,object_06c.png,,,,,,,,,,,,,,,,,,,,,
null,,rt_plussign_withcolor1,284019,,,,,,,,blue,,,null,object_05c.png,object_06c.png,,,,,,,,,,,,,,,,,,,,,
611.1999999880791,,rt_thecrossant_black1,285377,,,,,,,,black_plus_sign,,,49,,,1,,,,,,,1,,,,,,,,,,,,,
null,,color_black1,285478,,,,,,,,black_plus_sign,,,null,,,,,,,,,,,,,,,,,,,,,,,
null,,learn_phase(without_color)1,288981,,,,,,,,black_plus_sign,,,null,object_13b.png,object_06b.png,,,,,,,,,,,,,,,,,,,,,
null,,black_cross(without_color)1,289507,,,,,,,,green,,,null,object_13b.png,object_06b.png,,,,,,,,,,,,,,,,,,,,,
472.39999997615814,,rt_plussign_withcolor1,290007,,,,,,,,green,,,50,object_13b.png,object_06b.png,,,,,,,,,,,,,,,,,,,,,
null,,rt_thecrossant_black1,291488,,,,,,,,black_plus_sign,,,null,,,1,,,,,,,1,,,,,,,,,,,,,
null,,color_black1,291590,,,,,,,,black_plus_sign,,,null,,,,,,,,,,,,,,,,,,,,,,,
null,,learn_phase(without_color)1,295096,,,,,,,,black_plus_sign,,,null,object_05a.png,object_11c.png,,,,,,,,,,,,,,,,,,,,,
null,,black_cross(without_color)1,295955,,,,,,,,blue,,,null,object_05a.png,object_11c.png,,,,,,,,,,,,,,,,,,,,,
null,,rt_plussign_withcolor1,296457,,,,,,,,blue,,,null,object_05a.png,object_11c.png,,,,,,,,,,,,,,,,,,,,,
670.8000000119209,,rt_thecrossant_black1,297604,,,,,,,,black_plus_sign,,,49,,,1,,,,,,,1,,,,,,,,,,,,,
null,,color_black1,297707,,,,,,,,black_plus_sign,,,null,,,,,,,,,,,,,,,,,,,,,,,
null,,learn_phase(without_color)1,301209,,,,,,,,black_plus_sign,,,null,object_09c.png,object_14b.png,,,,,,,,,,,,,,,,,,,,,
null,,black_cross(without_color)1,301999,,,,,,,,green,,,null,object_09c.png,object_14b.png,,,,,,,,,,,,,,,,,,,,,
null,,rt_plussign_withcolor1,302502,,,,,,,,green,,,null,object_09c.png,object_14b.png,,,,,,,,,,,,,,,,,,,,,
1013.3999999761581,,rt_thecrossant_black1,303717,,,,,,,,black_plus_sign,,,50,,,1,,,,,,,1,,,,,,,,,,,,,
null,,color_black1,303819,,,,,,,,black_plus_sign,,,null,,,,,,,,,,,,,,,,,,,,,,,
null,,thebreak,303924,,,,,,,,<p></p>,,,null,,,,,,,,,,,,,,,,,,,,,,,
1803.5999999642372,,intro_0,305729,,,,,,,,instruct,,,32,,,,,,,,,,,,,,,,,,,,,,,
5755.800000011921,,directmemory_phase1,311485,,,,,,,,object_05b.png,,,51,,,1,,object_15c.png,object_06b.png,object_10b.png,object_10b.png,,1,1,,,,,,,,,,,,
4814.199999988079,,directmemory_phase1,316301,,,,,,,,object_02c.png,,,49,,,1,,object_13a.png,object_06a.png,object_15b.png,object_13a.png,,1,1,,,,,,,,,,,,
2710,,directmemory_phase1,319012,,,,,,,,object_07c.png,,,51,,,1,,object_09c.png,object_11a.png,object_04c.png,object_04c.png,,1,1,,,,,,,,,,,,
9469.199999988079,,directmemory_phase1,328483,,,,,,,,object_15b.png,,,49,,,0,,object_13c.png,object_14a.png,object_15c.png,object_14a.png,,0.75,0,,,,,,,,,,,,
1745.1000000238419,,directmemory_phase1,330229,,,,,,,,object_08b.png,,,51,,,1,,object_09c.png,object_14b.png,object_12c.png,object_12c.png,,0.8,1,,,,,,,,,,,,
1857.199999988079,,directmemory_phase1,332088,,,,,,,,object_06b.png,,,49,,,1,,object_13b.png,object_12c.png,object_08b.png,object_13b.png,,0.8333333333333334,1,,,,,,,,,,,,
1792.800000011921,,directmemory_phase1,333882,,,,,,,,object_07a.png,,,49,,,1,,object_10a.png,object_13b.png,object_06b.png,object_10a.png,,0.8571428571428571,1,,,,,,,,,,,,
2151.900000035763,,directmemory_phase1,336035,,,,,,,,object_08c.png,,,49,,,1,,object_09b.png,object_04c.png,object_06b.png,object_09b.png,,0.875,1,,,,,,,,,,,,
3419.300000011921,,directmemory_phase1,339455,,,,,,,,object_13c.png,,,51,,,1,,object_11c.png,object_02c.png,object_15a.png,object_15a.png,,0.8888888888888888,1,,,,,,,,,,,,
2886.400000035763,,directmemory_phase1,342342,,,,,,,,object_07b.png,,,51,,,1,,object_09b.png,object_08b.png,object_09a.png,object_09a.png,,0.9,1,,,,,,,,,,,,
9079.099999964237,,directmemory_phase1,351423,,,,,,,,object_11a.png,,,50,,,1,,object_05a.png,object_06a.png,object_15c.png,object_06a.png,,0.9090909090909091,1,,,,,,,,,,,,
2214.099999964237,,directmemory_phase1,353638,,,,,,,,object_14b.png,,,50,,,1,,object_07a.png,object_09c.png,object_15c.png,object_09c.png,,0.9166666666666666,1,,,,,,,,,,,,
3429.300000011921,,directmemory_phase1,357069,,,,,,,,object_01b.png,,,49,,,1,,object_15c.png,object_06a.png,object_15b.png,object_15c.png,,0.9230769230769231,1,,,,,,,,,,,,
4969,,directmemory_phase1,362039,,,,,,,,object_05a.png,,,49,,,1,,object_11c.png,object_15a.png,object_08c.png,object_11c.png,,0.9285714285714286,1,,,,,,,,,,,,
2661.899999976158,,directmemory_phase1,364702,,,,,,,,object_06c.png,,,51,,,1,,object_04c.png,object_08c.png,object_05c.png,object_05c.png,,0.9333333333333333,1,,,,,,,,,,,,
null,,thebreak,364805,,,,,,,,<p></p>,,,null,,,,,,,,,,,,,,,,,,,,,,,
1561.6000000238419,,intro_0,366368,,,,,,,,instruct,,,32,,,,,,,,,,,,,,,,,,,,,,,
null,,learn_phase(without_color)2,369870,,,,,,,,black_plus_sign,,,null,object_09a.png,object_07b.png,,,,,,,,,,,,,,,,,,,,,
null,,black_cross(without_color)2,370507,,,,,,,,blue,,,null,object_09a.png,object_07b.png,,,,,,,,,,,,,,,,,,,,,
null,,rt_plussign_withcolor2,371012,,,,,,,,blue,,,null,object_09a.png,object_07b.png,,,,,,,,,,,,,,,,,,,,,
1316.2000000476837,,rt_thecrossant_black2,372386,,,,,,,,black_plus_sign,,,49,,,1,,,,,,,1,,,,,,,,,,,,,
null,,color_black2,372488,,,,,,,,black_plus_sign,,,null,,,,,,,,,,,,,,,,,,,,,,,
null,,learn_phase(without_color)2,375992,,,,,,,,black_plus_sign,,,null,object_06b.png,object_13b.png,,,,,,,,,,,,,,,,,,,,,
null,,black_cross(without_color)2,376684,,,,,,,,blue,,,null,object_06b.png,object_13b.png,,,,,,,,,,,,,,,,,,,,,
null,,rt_plussign_withcolor2,377187,,,,,,,,blue,,,null,object_06b.png,object_13b.png,,,,,,,,,,,,,,,,,,,,,
1075.3999999761581,,rt_thecrossant_black2,378506,,,,,,,,black_plus_sign,,,49,,,1,,,,,,,1,,,,,,,,,,,,,
null,,color_black2,378608,,,,,,,,black_plus_sign,,,null,,,,,,,,,,,,,,,,,,,,,,,
null,,learn_phase(without_color)2,382111,,,,,,,,black_plus_sign,,,null,object_11c.png,object_05a.png,,,,,,,,,,,,,,,,,,,,,
null,,black_cross(without_color)2,382629,,,,,,,,blue,,,null,object_11c.png,object_05a.png,,,,,,,,,,,,,,,,,,,,,
null,,rt_plussign_withcolor2,383132,,,,,,,,blue,,,null,object_11c.png,object_05a.png,,,,,,,,,,,,,,,,,,,,,
816.3999999761581,,rt_thecrossant_black2,384624,,,,,,,,black_plus_sign,,,49,,,1,,,,,,,1,,,,,,,,,,,,,
null,,color_black2,384726,,,,,,,,black_plus_sign,,,null,,,,,,,,,,,,,,,,,,,,,,,
null,,learn_phase(without_color)2,388230,,,,,,,,black_plus_sign,,,null,object_06c.png,object_05c.png,,,,,,,,,,,,,,,,,,,,,
null,,black_cross(without_color)2,389125,,,,,,,,green,,,null,object_06c.png,object_05c.png,,,,,,,,,,,,,,,,,,,,,
null,,rt_plussign_withcolor2,389628,,,,,,,,green,,,null,object_06c.png,object_05c.png,,,,,,,,,,,,,,,,,,,,,
1188.699999988079,,rt_thecrossant_black2,390739,,,,,,,,black_plus_sign,,,50,,,1,,,,,,,1,,,,,,,,,,,,,
null,,color_black2,390841,,,,,,,,black_plus_sign,,,null,,,,,,,,,,,,,,,,,,,,,,,
null,,learn_phase(without_color)2,394342,,,,,,,,black_plus_sign,,,null,object_14b.png,object_09c.png,,,,,,,,,,,,,,,,,,,,,
null,,black_cross(without_color)2,395070,,,,,,,,green,,,null,object_14b.png,object_09c.png,,,,,,,,,,,,,,,,,,,,,
null,,rt_plussign_withcolor2,395572,,,,,,,,green,,,null,object_14b.png,object_09c.png,,,,,,,,,,,,,,,,,,,,,
1161.699999988079,,rt_thecrossant_black2,396848,,,,,,,,black_plus_sign,,,50,,,1,,,,,,,1,,,,,,,,,,,,,
null,,color_black2,396949,,,,,,,,black_plus_sign,,,null,,,,,,,,,,,,,,,,,,,,,,,
null,,learn_phase(without_color)2,400456,,,,,,,,black_plus_sign,,,null,object_08c.png,object_09b.png,,,,,,,,,,,,,,,,,,,,,
null,,black_cross(without_color)2,401467,,,,,,,,blue,,,null,object_08c.png,object_09b.png,,,,,,,,,,,,,,,,,,,,,
null,,rt_plussign_withcolor2,401974,,,,,,,,blue,,,null,object_08c.png,object_09b.png,,,,,,,,,,,,,,,,,,,,,
829.1000000238419,,rt_thecrossant_black2,402969,,,,,,,,black_plus_sign,,,49,,,1,,,,,,,1,,,,,,,,,,,,,
null,,color_black2,403081,,,,,,,,black_plus_sign,,,null,,,,,,,,,,,,,,,,,,,,,,,
null,,learn_phase(without_color)2,406585,,,,,,,,black_plus_sign,,,null,object_10a.png,object_07a.png,,,,,,,,,,,,,,,,,,,,,
null,,black_cross(without_color)2,407614,,,,,,,,blue,,,null,object_10a.png,object_07a.png,,,,,,,,,,,,,,,,,,,,,
473.10000002384186,,rt_plussign_withcolor2,408117,,,,,,,,blue,,,49,object_10a.png,object_07a.png,,,,,,,,,,,,,,,,,,,,,
null,,rt_thecrossant_black2,409091,,,,,,,,black_plus_sign,,,null,,,1,,,,,,,1,,,,,,,,,,,,,
null,,color_black2,409193,,,,,,,,black_plus_sign,,,null,,,,,,,,,,,,,,,,,,,,,,,
null,,learn_phase(without_color)2,412696,,,,,,,,black_plus_sign,,,null,object_10b.png,object_05b.png,,,,,,,,,,,,,,,,,,,,,
null,,black_cross(without_color)2,413753,,,,,,,,blue,,,null,object_10b.png,object_05b.png,,,,,,,,,,,,,,,,,,,,,
null,,rt_plussign_withcolor2,414260,,,,,,,,blue,,,null,object_10b.png,object_05b.png,,,,,,,,,,,,,,,,,,,,,
1436.300000011921,,rt_thecrossant_black2,415210,,,,,,,,black_plus_sign,,,49,,,1,,,,,,,1,,,,,,,,,,,,,
null,,color_black2,415313,,,,,,,,black_plus_sign,,,null,,,,,,,,,,,,,,,,,,,,,,,
null,,learn_phase(without_color)2,418816,,,,,,,,black_plus_sign,,,null,object_15a.png,object_13c.png,,,,,,,,,,,,,,,,,,,,,
null,,black_cross(without_color)2,419646,,,,,,,,blue,,,null,object_15a.png,object_13c.png,,,,,,,,,,,,,,,,,,,,,
387.10000002384186,,rt_plussign_withcolor2,420148,,,,,,,,blue,,,49,object_15a.png,object_13c.png,,,,,,,,,,,,,,,,,,,,,
null,,rt_thecrossant_black2,421322,,,,,,,,black_plus_sign,,,null,,,1,,,,,,,1,,,,,,,,,,,,,
null,,color_black2,421424,,,,,,,,black_plus_sign,,,null,,,,,,,,,,,,,,,,,,,,,,,
null,,learn_phase(without_color)2,424928,,,,,,,,black_plus_sign,,,null,object_07c.png,object_04c.png,,,,,,,,,,,,,,,,,,,,,
null,,black_cross(without_color)2,425587,,,,,,,,blue,,,null,object_07c.png,object_04c.png,,,,,,,,,,,,,,,,,,,,,
null,,rt_plussign_withcolor2,426089,,,,,,,,blue,,,null,object_07c.png,object_04c.png,,,,,,,,,,,,,,,,,,,,,
989.6999999880791,,rt_thecrossant_black2,427435,,,,,,,,black_plus_sign,,,49,,,1,,,,,,,1,,,,,,,,,,,,,
null,,color_black2,427549,,,,,,,,black_plus_sign,,,null,,,,,,,,,,,,,,,,,,,,,,,
null,,learn_phase(without_color)2,431050,,,,,,,,black_plus_sign,,,null,object_02c.png,object_13a.png,,,,,,,,,,,,,,,,,,,,,
null,,black_cross(without_color)2,431815,,,,,,,,blue,,,null,object_02c.png,object_13a.png,,,,,,,,,,,,,,,,,,,,,
null,,rt_plussign_withcolor2,432317,,,,,,,,blue,,,null,object_02c.png,object_13a.png,,,,,,,,,,,,,,,,,,,,,
795.6999999880791,,rt_thecrossant_black2,433558,,,,,,,,black_plus_sign,,,49,,,1,,,,,,,1,,,,,,,,,,,,,
null,,color_black2,433661,,,,,,,,black_plus_sign,,,null,,,,,,,,,,,,,,,,,,,,,,,
null,,learn_phase(without_color)2,437166,,,,,,,,black_plus_sign,,,null,object_15b.png,object_14a.png,,,,,,,,,,,,,,,,,,,,,
null,,black_cross(without_color)2,437803,,,,,,,,blue,,,null,object_15b.png,object_14a.png,,,,,,,,,,,,,,,,,,,,,
null,,rt_plussign_withcolor2,438306,,,,,,,,blue,,,null,object_15b.png,object_14a.png,,,,,,,,,,,,,,,,,,,,,
864.3000000119209,,rt_thecrossant_black2,439679,,,,,,,,black_plus_sign,,,49,,,1,,,,,,,1,,,,,,,,,,,,,
null,,color_black2,439783,,,,,,,,black_plus_sign,,,null,,,,,,,,,,,,,,,,,,,,,,,
null,,learn_phase(without_color)2,443287,,,,,,,,black_plus_sign,,,null,object_08b.png,object_12c.png,,,,,,,,,,,,,,,,,,,,,
null,,black_cross(without_color)2,444229,,,,,,,,green,,,null,object_08b.png,object_12c.png,,,,,,,,,,,,,,,,,,,,,
null,,rt_plussign_withcolor2,444732,,,,,,,,green,,,null,object_08b.png,object_12c.png,,,,,,,,,,,,,,,,,,,,,
961.0999999642372,,rt_thecrossant_black2,445799,,,,,,,,black_plus_sign,,,50,,,1,,,,,,,1,,,,,,,,,,,,,
null,,color_black2,445900,,,,,,,,black_plus_sign,,,null,,,,,,,,,,,,,,,,,,,,,,,
null,,learn_phase(without_color)2,449418,,,,,,,,black_plus_sign,,,null,object_01b.png,object_15c.png,,,,,,,,,,,,,,,,,,,,,
null,,black_cross(without_color)2,449952,,,,,,,,blue,,,null,object_01b.png,object_15c.png,,,,,,,,,,,,,,,,,,,,,
null,,rt_plussign_withcolor2,450455,,,,,,,,blue,,,null,object_01b.png,object_15c.png,,,,,,,,,,,,,,,,,,,,,
1466.6000000238419,,rt_thecrossant_black2,451940,,,,,,,,black_plus_sign,,,49,,,1,,,,,,,1,,,,,,,,,,,,,
null,,color_black2,452041,,,,,,,,black_plus_sign,,,null,,,,,,,,,,,,,,,,,,,,,,,
null,,learn_phase(without_color)2,455544,,,,,,,,black_plus_sign,,,null,object_11a.png,object_06a.png,,,,,,,,,,,,,,,,,,,,,
null,,black_cross(without_color)2,456244,,,,,,,,green,,,null,object_11a.png,object_06a.png,,,,,,,,,,,,,,,,,,,,,
null,,rt_plussign_withcolor2,456746,,,,,,,,green,,,null,object_11a.png,object_06a.png,,,,,,,,,,,,,,,,,,,,,
795.8000000119209,,rt_thecrossant_black2,458050,,,,,,,,black_plus_sign,,,50,,,1,,,,,,,1,,,,,,,,,,,,,
null,,color_black2,458152,,,,,,,,black_plus_sign,,,null,,,,,,,,,,,,,,,,,,,,,,,
null,,thebreak,458254,,,,,,,,<p></p>,,,null,,,,,,,,,,,,,,,,,,,,,,,
1398.5,,intro_0,459653,,,,,,,,instruct,,,32,,,,,,,,,,,,,,,,,,,,,,,
1527.5,,directmemory_phase2,461181,,,,,,,,object_14b.png,,,51,,,1,,object_10a.png,object_05a.png,object_09c.png,object_09c.png,,0.9375,1,,,,,,,,,,,,
5631.699999988079,,directmemory_phase2,466814,,,,,,,,object_15b.png,,,49,,,1,,object_14a.png,object_13a.png,object_01b.png,object_14a.png,,0.9411764705882353,1,,,,,,,,,,,,
3014.699999988079,,directmemory_phase2,469830,,,,,,,,object_05a.png,,,49,,,1,,object_11c.png,object_04c.png,object_01b.png,object_11c.png,,0.9444444444444444,1,,,,,,,,,,,,
1452.0999999642372,,directmemory_phase2,471283,,,,,,,,object_07a.png,,,49,,,1,,object_10a.png,object_15c.png,object_07c.png,object_10a.png,,0.9473684210526315,1,,,,,,,,,,,,
2294.099999964237,,directmemory_phase2,473578,,,,,,,,object_01b.png,,,50,,,1,,object_06b.png,object_15c.png,object_06a.png,object_15c.png,,0.95,1,,,,,,,,,,,,
3188.100000023842,,directmemory_phase2,476767,,,,,,,,object_13c.png,,,49,,,1,,object_15a.png,object_13a.png,object_07a.png,object_15a.png,,0.9523809523809523,1,,,,,,,,,,,,
1374.699999988079,,directmemory_phase2,478143,,,,,,,,object_05b.png,,,49,,,1,,object_10b.png,object_09c.png,object_07a.png,object_10b.png,,0.9545454545454546,1,,,,,,,,,,,,
2509.100000023842,,directmemory_phase2,480654,,,,,,,,object_08c.png,,,51,,,1,,object_06a.png,object_05a.png,object_09b.png,object_09b.png,,0.9565217391304348,1,,,,,,,,,,,,
1454.199999988079,,directmemory_phase2,482109,,,,,,,,object_02c.png,,,50,,,1,,object_13c.png,object_13a.png,object_06a.png,object_13a.png,,0.9583333333333334,1,,,,,,,,,,,,
5557,,directmemory_phase2,487667,,,,,,,,object_11a.png,,,49,,,1,,object_06a.png,object_09b.png,object_05a.png,object_06a.png,,0.96,1,,,,,,,,,,,,
1810.5,,directmemory_phase2,489479,,,,,,,,object_07c.png,,,51,,,1,,object_15a.png,object_13c.png,object_04c.png,object_04c.png,,0.9615384615384616,1,,,,,,,,,,,,
1840,,directmemory_phase2,491320,,,,,,,,object_06b.png,,,51,,,1,,object_05c.png,object_07a.png,object_13b.png,object_13b.png,,0.9629629629629629,1,,,,,,,,,,,,
1651.3999999761581,,directmemory_phase2,492973,,,,,,,,object_06c.png,,,51,,,1,,object_13a.png,object_01b.png,object_05c.png,object_05c.png,,0.9642857142857143,1,,,,,,,,,,,,
1481.699999988079,,directmemory_phase2,494456,,,,,,,,object_08b.png,,,50,,,1,,object_06b.png,object_12c.png,object_09c.png,object_12c.png,,0.9655172413793104,1,,,,,,,,,,,,
1347.5,,directmemory_phase2,495805,,,,,,,,object_07b.png,,,49,,,1,,object_09a.png,object_15a.png,object_08b.png,object_09a.png,,0.9666666666666667,1,,,,,,,,,,,,
null,,thebreak,495906,,,,,,,,<p></p>,,,null,,,,,,,,,,,,,,,,,,,,,,,
1334.800000011921,,intro_0,497242,,,,,,,,instruct,,,32,,,,,,,,,,,,,,,,,,,,,,,
null,,learn_phase(without_color)3,500743,,,,,,,,black_plus_sign,,,null,object_06a.png,object_11a.png,,,,,,,,,,,,,,,,,,,,,
null,,black_cross(without_color)3,501380,,,,,,,,blue,,,null,object_06a.png,object_11a.png,,,,,,,,,,,,,,,,,,,,,
null,,rt_plussign_withcolor3,501885,,,,,,,,blue,,,null,object_06a.png,object_11a.png,,,,,,,,,,,,,,,,,,,,,
942.1000000238419,,rt_thecrossant_black3,503256,,,,,,,,black_plus_sign,,,49,,,1,,,,,,,1,,,,,,,,,,,,,
null,,color_black3,503360,,,,,,,,black_plus_sign,,,null,,,,,,,,,,,,,,,,,,,,,,,
null,,learn_phase(without_color)3,506863,,,,,,,,black_plus_sign,,,null,object_05b.png,object_10b.png,,,,,,,,,,,,,,,,,,,,,
null,,black_cross(without_color)3,507332,,,,,,,,blue,,,null,object_05b.png,object_10b.png,,,,,,,,,,,,,,,,,,,,,
null,,rt_plussign_withcolor3,507833,,,,,,,,blue,,,null,object_05b.png,object_10b.png,,,,,,,,,,,,,,,,,,,,,
769.1999999880791,,rt_thecrossant_black3,509372,,,,,,,,black_plus_sign,,,49,,,1,,,,,,,1,,,,,,,,,,,,,
null,,color_black3,509475,,,,,,,,black_plus_sign,,,null,,,,,,,,,,,,,,,,,,,,,,,
null,,learn_phase(without_color)3,512992,,,,,,,,black_plus_sign,,,null,object_13a.png,object_02c.png,,,,,,,,,,,,,,,,,,,,,
null,,black_cross(without_color)3,513543,,,,,,,,blue,,,null,object_13a.png,object_02c.png,,,,,,,,,,,,,,,,,,,,,
481.60000002384186,,rt_plussign_withcolor3,514044,,,,,,,,blue,,,49,object_13a.png,object_02c.png,,,,,,,,,,,,,,,,,,,,,
null,,rt_thecrossant_black3,515498,,,,,,,,black_plus_sign,,,null,,,1,,,,,,,1,,,,,,,,,,,,,
null,,color_black3,515603,,,,,,,,black_plus_sign,,,null,,,,,,,,,,,,,,,,,,,,,,,
null,,learn_phase(without_color)3,519108,,,,,,,,black_plus_sign,,,null,object_15c.png,object_01b.png,,,,,,,,,,,,,,,,,,,,,
null,,black_cross(without_color)3,519706,,,,,,,,blue,,,null,object_15c.png,object_01b.png,,,,,,,,,,,,,,,,,,,,,
null,,rt_plussign_withcolor3,520208,,,,,,,,blue,,,null,object_15c.png,object_01b.png,,,,,,,,,,,,,,,,,,,,,
787.5,,rt_thecrossant_black3,521617,,,,,,,,black_plus_sign,,,49,,,1,,,,,,,1,,,,,,,,,,,,,
null,,color_black3,521719,,,,,,,,black_plus_sign,,,null,,,,,,,,,,,,,,,,,,,,,,,
null,,learn_phase(without_color)3,525224,,,,,,,,black_plus_sign,,,null,object_06b.png,object_13b.png,,,,,,,,,,,,,,,,,,,,,
null,,black_cross(without_color)3,526125,,,,,,,,blue,,,null,object_06b.png,object_13b.png,,,,,,,,,,,,,,,,,,,,,
null,,rt_plussign_withcolor3,526627,,,,,,,,blue,,,null,object_06b.png,object_13b.png,,,,,,,,,,,,,,,,,,,,,
725.3000000119209,,rt_thecrossant_black3,527741,,,,,,,,black_plus_sign,,,49,,,1,,,,,,,1,,,,,,,,,,,,,
null,,color_black3,527843,,,,,,,,black_plus_sign,,,null,,,,,,,,,,,,,,,,,,,,,,,
null,,learn_phase(without_color)3,531346,,,,,,,,black_plus_sign,,,null,object_11c.png,object_05a.png,,,,,,,,,,,,,,,,,,,,,
null,,black_cross(without_color)3,532232,,,,,,,,blue,,,null,object_11c.png,object_05a.png,,,,,,,,,,,,,,,,,,,,,
null,,rt_plussign_withcolor3,532741,,,,,,,,blue,,,null,object_11c.png,object_05a.png,,,,,,,,,,,,,,,,,,,,,
1168.3999999761581,,rt_thecrossant_black3,533875,,,,,,,,black_plus_sign,,,49,,,1,,,,,,,1,,,,,,,,,,,,,
null,,color_black3,533979,,,,,,,,black_plus_sign,,,null,,,,,,,,,,,,,,,,,,,,,,,
null,,learn_phase(without_color)3,537482,,,,,,,,black_plus_sign,,,null,object_10a.png,object_07a.png,,,,,,,,,,,,,,,,,,,,,
null,,black_cross(without_color)3,538037,,,,,,,,green,,,null,object_10a.png,object_07a.png,,,,,,,,,,,,,,,,,,,,,
467.10000002384186,,rt_plussign_withcolor3,538539,,,,,,,,green,,,50,object_10a.png,object_07a.png,,,,,,,,,,,,,,,,,,,,,
null,,rt_thecrossant_black3,540003,,,,,,,,black_plus_sign,,,null,,,1,,,,,,,1,,,,,,,,,,,,,
null,,color_black3,540105,,,,,,,,black_plus_sign,,,null,,,,,,,,,,,,,,,,,,,,,,,
null,,learn_phase(without_color)3,543607,,,,,,,,black_plus_sign,,,null,object_07c.png,object_04c.png,,,,,,,,,,,,,,,,,,,,,
null,,black_cross(without_color)3,544157,,,,,,,,green,,,null,object_07c.png,object_04c.png,,,,,,,,,,,,,,,,,,,,,
null,,rt_plussign_withcolor3,544662,,,,,,,,green,,,null,object_07c.png,object_04c.png,,,,,,,,,,,,,,,,,,,,,
941.1000000238419,,rt_thecrossant_black3,546117,,,,,,,,black_plus_sign,,,50,,,1,,,,,,,1,,,,,,,,,,,,,
null,,color_black3,546220,,,,,,,,black_plus_sign,,,null,,,,,,,,,,,,,,,,,,,,,,,
null,,learn_phase(without_color)3,549723,,,,,,,,black_plus_sign,,,null,object_09c.png,object_14b.png,,,,,,,,,,,,,,,,,,,,,
null,,black_cross(without_color)3,550148,,,,,,,,blue,,,null,object_09c.png,object_14b.png,,,,,,,,,,,,,,,,,,,,,
476.80000001192093,,rt_plussign_withcolor3,550650,,,,,,,,blue,,,49,object_09c.png,object_14b.png,,,,,,,,,,,,,,,,,,,,,
null,,rt_thecrossant_black3,552229,,,,,,,,black_plus_sign,,,null,,,1,,,,,,,1,,,,,,,,,,,,,
null,,color_black3,552331,,,,,,,,black_plus_sign,,,null,,,,,,,,,,,,,,,,,,,,,,,
null,,learn_phase(without_color)3,555833,,,,,,,,black_plus_sign,,,null,object_09a.png,object_07b.png,,,,,,,,,,,,,,,,,,,,,
null,,black_cross(without_color)3,556770,,,,,,,,green,,,null,object_09a.png,object_07b.png,,,,,,,,,,,,,,,,,,,,,
442.10000002384186,,rt_plussign_withcolor3,557273,,,,,,,,green,,,50,object_09a.png,object_07b.png,,,,,,,,,,,,,,,,,,,,,
null,,rt_thecrossant_black3,558345,,,,,,,,black_plus_sign,,,null,,,1,,,,,,,1,,,,,,,,,,,,,
null,,color_black3,558447,,,,,,,,black_plus_sign,,,null,,,,,,,,,,,,,,,,,,,,,,,
null,,learn_phase(without_color)3,561955,,,,,,,,black_plus_sign,,,null,object_12c.png,object_08b.png,,,,,,,,,,,,,,,,,,,,,
null,,black_cross(without_color)3,562807,,,,,,,,blue,,,null,object_12c.png,object_08b.png,,,,,,,,,,,,,,,,,,,,,
null,,rt_plussign_withcolor3,563312,,,,,,,,blue,,,null,object_12c.png,object_08b.png,,,,,,,,,,,,,,,,,,,,,
1242.3999999761581,,rt_thecrossant_black3,564467,,,,,,,,black_plus_sign,,,49,,,1,,,,,,,1,,,,,,,,,,,,,
null,,color_black3,564570,,,,,,,,black_plus_sign,,,null,,,,,,,,,,,,,,,,,,,,,,,
null,,learn_phase(without_color)3,568073,,,,,,,,black_plus_sign,,,null,object_14a.png,object_15b.png,,,,,,,,,,,,,,,,,,,,,
null,,black_cross(without_color)3,568806,,,,,,,,green,,,null,object_14a.png,object_15b.png,,,,,,,,,,,,,,,,,,,,,
500.5,,rt_plussign_withcolor3,569308,,,,,,,,green,,,49,object_14a.png,object_15b.png,,,,,,,,,,,,,,,,,,,,,
null,,rt_thecrossant_black3,570583,,,,,,,,black_plus_sign,,,50,,,0,,,,,,,0.9166666666666666,,,,,,,,,,,,,
null,,color_black3,570686,,,,,,,,black_plus_sign,,,null,,,,,,,,,,,,,,,,,,,,,,,
null,,learn_phase(without_color)3,574189,,,,,,,,black_plus_sign,,,null,object_13c.png,object_15a.png,,,,,,,,,,,,,,,,,,,,,
null,,black_cross(without_color)3,575090,,,,,,,,green,,,null,object_13c.png,object_15a.png,,,,,,,,,,,,,,,,,,,,,
null,,rt_plussign_withcolor3,575593,,,,,,,,green,,,null,object_13c.png,object_15a.png,,,,,,,,,,,,,,,,,,,,,
1001.8000000119209,,rt_thecrossant_black3,576699,,,,,,,,black_plus_sign,,,50,,,1,,,,,,,0.9230769230769231,,,,,,,,,,,,,
null,,color_black3,576806,,,,,,,,black_plus_sign,,,null,,,,,,,,,,,,,,,,,,,,,,,
null,,learn_phase(without_color)3,580310,,,,,,,,black_plus_sign,,,null,object_09b.png,object_08c.png,,,,,,,,,,,,,,,,,,,,,
null,,black_cross(without_color)3,581213,,,,,,,,green,,,null,object_09b.png,object_08c.png,,,,,,,,,,,,,,,,,,,,,
null,,rt_plussign_withcolor3,581719,,,,,,,,green,,,null,object_09b.png,object_08c.png,,,,,,,,,,,,,,,,,,,,,
1077.1000000238419,,rt_thecrossant_black3,582826,,,,,,,,black_plus_sign,,,50,,,1,,,,,,,0.9285714285714286,,,,,,,,,,,,,
null,,color_black3,582929,,,,,,,,black_plus_sign,,,null,,,,,,,,,,,,,,,,,,,,,,,
null,,learn_phase(without_color)3,586434,,,,,,,,black_plus_sign,,,null,object_05c.png,object_06c.png,,,,,,,,,,,,,,,,,,,,,
null,,black_cross(without_color)3,586978,,,,,,,,blue,,,null,object_05c.png,object_06c.png,,,,,,,,,,,,,,,,,,,,,
null,,rt_plussign_withcolor3,587483,,,,,,,,blue,,,null,object_05c.png,object_06c.png,,,,,,,,,,,,,,,,,,,,,
1163,,rt_thecrossant_black3,588949,,,,,,,,black_plus_sign,,,49,,,1,,,,,,,0.9333333333333333,,,,,,,,,,,,,
null,,color_black3,589055,,,,,,,,black_plus_sign,,,null,,,,,,,,,,,,,,,,,,,,,,,
null,,thebreak,589158,,,,,,,,<p></p>,,,null,,,,,,,,,,,,,,,,,,,,,,,
1328.199999988079,,intro_0,590487,,,,,,,,instruct,,,32,,,,,,,,,,,,,,,,,,,,,,,
1315,,directmemory_phase3,591803,,,,,,,,object_08b.png,,,50,,,1,,object_05a.png,object_12c.png,object_14a.png,object_12c.png,,0.967741935483871,1,,,,,,,,,,,,
2500.899999976158,,directmemory_phase3,594305,,,,,,,,object_13c.png,,,51,,,1,,object_12c.png,object_05a.png,object_15a.png,object_15a.png,,0.96875,1,,,,,,,,,,,,
1363.0999999642372,,directmemory_phase3,595670,,,,,,,,object_02c.png,,,51,,,1,,object_14a.png,object_13c.png,object_13a.png,object_13a.png,,0.9696969696969697,1,,,,,,,,,,,,
1538.1000000238419,,directmemory_phase3,597209,,,,,,,,object_05a.png,,,50,,,1,,object_08b.png,object_11c.png,object_13a.png,object_11c.png,,0.9705882352941176,1,,,,,,,,,,,,
1317.5,,directmemory_phase3,598529,,,,,,,,object_07c.png,,,50,,,1,,object_06b.png,object_04c.png,object_15a.png,object_04c.png,,0.9714285714285714,1,,,,,,,,,,,,
1272.0999999642372,,directmemory_phase3,599802,,,,,,,,object_06c.png,,,49,,,1,,object_05c.png,object_04c.png,object_01b.png,object_05c.png,,0.9722222222222222,1,,,,,,,,,,,,
2863.300000011921,,directmemory_phase3,602666,,,,,,,,object_11a.png,,,49,,,1,,object_06a.png,object_09c.png,object_07c.png,object_06a.png,,0.972972972972973,1,,,,,,,,,,,,
1201.3999999761581,,directmemory_phase3,603869,,,,,,,,object_14b.png,,,49,,,1,,object_09c.png,object_13b.png,object_13c.png,object_09c.png,,0.9736842105263158,1,,,,,,,,,,,,
1444.5,,directmemory_phase3,605315,,,,,,,,object_15b.png,,,50,,,1,,object_14b.png,object_14a.png,object_15c.png,object_14a.png,,0.9743589743589743,1,,,,,,,,,,,,
1388.1000000238419,,directmemory_phase3,606705,,,,,,,,object_01b.png,,,51,,,1,,object_13b.png,object_07c.png,object_15c.png,object_15c.png,,0.975,1,,,,,,,,,,,,
1144.5,,directmemory_phase3,607850,,,,,,,,object_07b.png,,,49,,,1,,object_09a.png,object_15c.png,object_01b.png,object_09a.png,,0.975609756097561,1,,,,,,,,,,,,
4450.600000023842,,directmemory_phase3,612304,,,,,,,,object_08c.png,,,49,,,1,,object_09b.png,object_14a.png,object_05a.png,object_09b.png,,0.9761904761904762,1,,,,,,,,,,,,
1725.3999999761581,,directmemory_phase3,614030,,,,,,,,object_06b.png,,,51,,,1,,object_10b.png,object_01b.png,object_13b.png,object_13b.png,,0.9767441860465116,1,,,,,,,,,,,,
1187.2999999523163,,directmemory_phase3,615218,,,,,,,,object_07a.png,,,50,,,1,,object_08c.png,object_10a.png,object_14a.png,object_10a.png,,0.9772727272727273,1,,,,,,,,,,,,
1856,,directmemory_phase3,617075,,,,,,,,object_05b.png,,,51,,,1,,object_13b.png,object_08c.png,object_10b.png,object_10b.png,,0.9777777777777777,1,,,,,,,,,,,,
null,,thebreak,617177,,,,,,,,<p></p>,,,null,,,,,,,,,,,,,,,,,,,,,,,
1045,,intro_0,618223,,,,,,,,instruct,,,32,,,,,,,,,,,,,,,,,,,,,,,
null,,learn_phase(without_color)4,621724,,,,,,,,black_plus_sign,,,null,object_15c.png,object_01b.png,,,,,,,,,,,,,,,,,,,,,
null,,black_cross(without_color)4,622806,,,,,,,,blue,,,null,object_15c.png,object_01b.png,,,,,,,,,,,,,,,,,,,,,
null,,rt_plussign_withcolor4,623313,,,,,,,,blue,,,null,object_15c.png,object_01b.png,,,,,,,,,,,,,,,,,,,,,
1734.6000000238419,,rt_thecrossant_black4,624235,,,,,,,,black_plus_sign,,,49,,,1,,,,,,,1,,,,,,,,,,,,,
null,,color_black4,624337,,,,,,,,black_plus_sign,,,null,,,,,,,,,,,,,,,,,,,,,,,
null,,learn_phase(without_color)4,627841,,,,,,,,black_plus_sign,,,null,object_08b.png,object_12c.png,,,,,,,,,,,,,,,,,,,,,
null,,black_cross(without_color)4,628503,,,,,,,,green,,,null,object_08b.png,object_12c.png,,,,,,,,,,,,,,,,,,,,,
null,,rt_plussign_withcolor4,629009,,,,,,,,green,,,null,object_08b.png,object_12c.png,,,,,,,,,,,,,,,,,,,,,
1230.3999999761581,,rt_thecrossant_black4,630353,,,,,,,,black_plus_sign,,,50,,,1,,,,,,,1,,,,,,,,,,,,,
null,,color_black4,630458,,,,,,,,black_plus_sign,,,null,,,,,,,,,,,,,,,,,,,,,,,
null,,learn_phase(without_color)4,633962,,,,,,,,black_plus_sign,,,null,object_07c.png,object_04c.png,,,,,,,,,,,,,,,,,,,,,
null,,black_cross(without_color)4,634958,,,,,,,,green,,,null,object_07c.png,object_04c.png,,,,,,,,,,,,,,,,,,,,,
null,,rt_plussign_withcolor4,635463,,,,,,,,green,,,null,object_07c.png,object_04c.png,,,,,,,,,,,,,,,,,,,,,
944.5,,rt_thecrossant_black4,636475,,,,,,,,black_plus_sign,,,50,,,1,,,,,,,1,,,,,,,,,,,,,
null,,color_black4,636577,,,,,,,,black_plus_sign,,,null,,,,,,,,,,,,,,,,,,,,,,,
null,,learn_phase(without_color)4,640081,,,,,,,,black_plus_sign,,,null,object_13b.png,object_06b.png,,,,,,,,,,,,,,,,,,,,,
null,,black_cross(without_color)4,641080,,,,,,,,blue,,,null,object_13b.png,object_06b.png,,,,,,,,,,,,,,,,,,,,,
null,,rt_plussign_withcolor4,641583,,,,,,,,blue,,,null,object_13b.png,object_06b.png,,,,,,,,,,,,,,,,,,,,,
1827.699999988079,,rt_thecrossant_black4,642591,,,,,,,,black_plus_sign,,,50,,,0,,,,,,,0.75,,,,,,,,,,,,,
null,,color_black4,642693,,,,,,,,black_plus_sign,,,null,,,,,,,,,,,,,,,,,,,,,,,
null,,learn_phase(without_color)4,646196,,,,,,,,black_plus_sign,,,null,object_06a.png,object_11a.png,,,,,,,,,,,,,,,,,,,,,
null,,black_cross(without_color)4,646996,,,,,,,,blue,,,null,object_06a.png,object_11a.png,,,,,,,,,,,,,,,,,,,,,
null,,rt_plussign_withcolor4,647499,,,,,,,,blue,,,null,object_06a.png,object_11a.png,,,,,,,,,,,,,,,,,,,,,
1107.4000000357628,,rt_thecrossant_black4,648708,,,,,,,,black_plus_sign,,,49,,,1,,,,,,,0.8,,,,,,,,,,,,,
null,,color_black4,648811,,,,,,,,black_plus_sign,,,null,,,,,,,,,,,,,,,,,,,,,,,
null,,learn_phase(without_color)4,652313,,,,,,,,black_plus_sign,,,null,object_05c.png,object_06c.png,,,,,,,,,,,,,,,,,,,,,
null,,black_cross(without_color)4,653413,,,,,,,,green,,,null,object_05c.png,object_06c.png,,,,,,,,,,,,,,,,,,,,,
null,,rt_plussign_withcolor4,653918,,,,,,,,green,,,null,object_05c.png,object_06c.png,,,,,,,,,,,,,,,,,,,,,
985.3999999761581,,rt_thecrossant_black4,654824,,,,,,,,black_plus_sign,,,50,,,1,,,,,,,0.8333333333333334,,,,,,,,,,,,,
null,,color_black4,654926,,,,,,,,black_plus_sign,,,null,,,,,,,,,,,,,,,,,,,,,,,
null,,learn_phase(without_color)4,658429,,,,,,,,black_plus_sign,,,null,object_10a.png,object_07a.png,,,,,,,,,,,,,,,,,,,,,
null,,black_cross(without_color)4,659030,,,,,,,,green,,,null,object_10a.png,object_07a.png,,,,,,,,,,,,,,,,,,,,,
395.19999998807907,,rt_plussign_withcolor4,659533,,,,,,,,green,,,50,object_10a.png,object_07a.png,,,,,,,,,,,,,,,,,,,,,
null,,rt_thecrossant_black4,660937,,,,,,,,black_plus_sign,,,null,,,1,,,,,,,0.8571428571428571,,,,,,,,,,,,,
null,,color_black4,661039,,,,,,,,black_plus_sign,,,null,,,,,,,,,,,,,,,,,,,,,,,
null,,learn_phase(without_color)4,664543,,,,,,,,black_plus_sign,,,null,object_14a.png,object_15b.png,,,,,,,,,,,,,,,,,,,,,
null,,black_cross(without_color)4,665036,,,,,,,,blue,,,null,object_14a.png,object_15b.png,,,,,,,,,,,,,,,,,,,,,
null,,rt_plussign_withcolor4,665538,,,,,,,,blue,,,null,object_14a.png,object_15b.png,,,,,,,,,,,,,,,,,,,,,
1111.3999999761581,,rt_thecrossant_black4,667051,,,,,,,,black_plus_sign,,,49,,,1,,,,,,,0.875,,,,,,,,,,,,,
null,,color_black4,667154,,,,,,,,black_plus_sign,,,null,,,,,,,,,,,,,,,,,,,,,,,
null,,learn_phase(without_color)4,670657,,,,,,,,black_plus_sign,,,null,object_13c.png,object_15a.png,,,,,,,,,,,,,,,,,,,,,
null,,black_cross(without_color)4,671530,,,,,,,,blue,,,null,object_13c.png,object_15a.png,,,,,,,,,,,,,,,,,,,,,
null,,rt_plussign_withcolor4,672031,,,,,,,,blue,,,null,object_13c.png,object_15a.png,,,,,,,,,,,,,,,,,,,,,
803.1999999880791,,rt_thecrossant_black4,673161,,,,,,,,black_plus_sign,,,49,,,1,,,,,,,0.8888888888888888,,,,,,,,,,,,,
null,,color_black4,673263,,,,,,,,black_plus_sign,,,null,,,,,,,,,,,,,,,,,,,,,,,
null,,learn_phase(without_color)4,676765,,,,,,,,black_plus_sign,,,null,object_05b.png,object_10b.png,,,,,,,,,,,,,,,,,,,,,
null,,black_cross(without_color)4,677535,,,,,,,,blue,,,null,object_05b.png,object_10b.png,,,,,,,,,,,,,,,,,,,,,
null,,rt_plussign_withcolor4,678038,,,,,,,,blue,,,null,object_05b.png,object_10b.png,,,,,,,,,,,,,,,,,,,,,
1142.5,,rt_thecrossant_black4,679272,,,,,,,,black_plus_sign,,,49,,,1,,,,,,,0.9,,,,,,,,,,,,,
null,,color_black4,679374,,,,,,,,black_plus_sign,,,null,,,,,,,,,,,,,,,,,,,,,,,
null,,learn_phase(without_color)4,682879,,,,,,,,black_plus_sign,,,null,object_11c.png,object_05a.png,,,,,,,,,,,,,,,,,,,,,
null,,black_cross(without_color)4,683741,,,,,,,,green,,,null,object_11c.png,object_05a.png,,,,,,,,,,,,,,,,,,,,,
null,,rt_plussign_withcolor4,684243,,,,,,,,green,,,null,object_11c.png,object_05a.png,,,,,,,,,,,,,,,,,,,,,
1065.300000011921,,rt_thecrossant_black4,685392,,,,,,,,black_plus_sign,,,50,,,1,,,,,,,0.9090909090909091,,,,,,,,,,,,,
null,,color_black4,685495,,,,,,,,black_plus_sign,,,null,,,,,,,,,,,,,,,,,,,,,,,
null,,learn_phase(without_color)4,689001,,,,,,,,black_plus_sign,,,null,object_07b.png,object_09a.png,,,,,,,,,,,,,,,,,,,,,
null,,black_cross(without_color)4,689425,,,,,,,,blue,,,null,object_07b.png,object_09a.png,,,,,,,,,,,,,,,,,,,,,
null,,rt_plussign_withcolor4,689928,,,,,,,,blue,,,null,object_07b.png,object_09a.png,,,,,,,,,,,,,,,,,,,,,
989.1000000238419,,rt_thecrossant_black4,691511,,,,,,,,black_plus_sign,,,49,,,1,,,,,,,0.9166666666666666,,,,,,,,,,,,,
null,,color_black4,691623,,,,,,,,black_plus_sign,,,null,,,,,,,,,,,,,,,,,,,,,,,
null,,learn_phase(without_color)4,695130,,,,,,,,black_plus_sign,,,null,object_02c.png,object_13a.png,,,,,,,,,,,,,,,,,,,,,
null,,black_cross(without_color)4,696051,,,,,,,,green,,,null,object_02c.png,object_13a.png,,,,,,,,,,,,,,,,,,,,,
439.9000000357628,,rt_plussign_withcolor4,696553,,,,,,,,green,,,50,object_02c.png,object_13a.png,,,,,,,,,,,,,,,,,,,,,
null,,rt_thecrossant_black4,697638,,,,,,,,black_plus_sign,,,null,,,1,,,,,,,0.9230769230769231,,,,,,,,,,,,,
null,,color_black4,697742,,,,,,,,black_plus_sign,,,null,,,,,,,,,,,,,,,,,,,,,,,
null,,learn_phase(without_color)4,701248,,,,,,,,black_plus_sign,,,null,object_14b.png,object_09c.png,,,,,,,,,,,,,,,,,,,,,
null,,black_cross(without_color)4,702191,,,,,,,,green,,,null,object_14b.png,object_09c.png,,,,,,,,,,,,,,,,,,,,,
null,,rt_plussign_withcolor4,702693,,,,,,,,green,,,null,object_14b.png,object_09c.png,,,,,,,,,,,,,,,,,,,,,
1231.800000011921,,rt_thecrossant_black4,703765,,,,,,,,black_plus_sign,,,50,,,1,,,,,,,0.9285714285714286,,,,,,,,,,,,,
null,,color_black4,703868,,,,,,,,black_plus_sign,,,null,,,,,,,,,,,,,,,,,,,,,,,
null,,learn_phase(without_color)4,707373,,,,,,,,black_plus_sign,,,null,object_09b.png,object_08c.png,,,,,,,,,,,,,,,,,,,,,
null,,black_cross(without_color)4,708371,,,,,,,,green,,,null,object_09b.png,object_08c.png,,,,,,,,,,,,,,,,,,,,,
null,,rt_plussign_withcolor4,708873,,,,,,,,green,,,null,object_09b.png,object_08c.png,,,,,,,,,,,,,,,,,,,,,
1237.199999988079,,rt_thecrossant_black4,709895,,,,,,,,black_plus_sign,,,50,,,1,,,,,,,0.9333333333333333,,,,,,,,,,,,,
null,,color_black4,709997,,,,,,,,black_plus_sign,,,null,,,,,,,,,,,,,,,,,,,,,,,
null,,thebreak,710100,,,,,,,,<p></p>,,,null,,,,,,,,,,,,,,,,,,,,,,,
1710.5,,intro_0,711812,,,,,,,,instruct,,,32,,,,,,,,,,,,,,,,,,,,,,,
2369.900000035763,,directmemory_phase4,714182,,,,,,,,object_15b.png,,,51,,,1,,object_13b.png,object_07a.png,object_14a.png,object_14a.png,,0.9782608695652174,1,,,,,,,,,,,,
1684.5,,directmemory_phase4,715868,,,,,,,,object_05a.png,,,50,,,1,,object_08c.png,object_11c.png,object_06a.png,object_11c.png,,0.9787234042553191,1,,,,,,,,,,,,
1782,,directmemory_phase4,717651,,,,,,,,object_05b.png,,,50,,,1,,object_06c.png,object_10b.png,object_11c.png,object_10b.png,,0.9791666666666666,1,,,,,,,,,,,,
1520,,directmemory_phase4,719173,,,,,,,,object_06b.png,,,49,,,1,,object_13b.png,object_12c.png,object_13c.png,object_13b.png,,0.9795918367346939,1,,,,,,,,,,,,
2657.800000011921,,directmemory_phase4,721832,,,,,,,,object_11a.png,,,49,,,1,,object_06a.png,object_15c.png,object_08c.png,object_06a.png,,0.98,1,,,,,,,,,,,,
1675.2999999523163,,directmemory_phase4,723508,,,,,,,,object_13c.png,,,49,,,1,,object_15a.png,object_10b.png,object_06b.png,object_15a.png,,0.9803921568627451,1,,,,,,,,,,,,
1346.800000011921,,directmemory_phase4,724856,,,,,,,,object_06c.png,,,50,,,1,,object_07a.png,object_05c.png,object_10a.png,object_05c.png,,0.9807692307692307,1,,,,,,,,,,,,
1466.3999999761581,,directmemory_phase4,726323,,,,,,,,object_08c.png,,,49,,,1,,object_09b.png,object_15c.png,object_06b.png,object_09b.png,,0.9811320754716981,1,,,,,,,,,,,,
1226,,directmemory_phase4,727550,,,,,,,,object_07b.png,,,49,,,1,,object_09a.png,object_15a.png,object_06b.png,object_09a.png,,0.9814814814814815,1,,,,,,,,,,,,
1245.5,,directmemory_phase4,728797,,,,,,,,object_08b.png,,,50,,,1,,object_11a.png,object_12c.png,object_05c.png,object_12c.png,,0.9818181818181818,1,,,,,,,,,,,,
1332.5999999642372,,directmemory_phase4,730131,,,,,,,,object_02c.png,,,50,,,1,,object_08c.png,object_13a.png,object_11c.png,object_13a.png,,0.9821428571428571,1,,,,,,,,,,,,
1321.5,,directmemory_phase4,731453,,,,,,,,object_01b.png,,,50,,,1,,object_08c.png,object_15c.png,object_06a.png,object_15c.png,,0.9824561403508771,1,,,,,,,,,,,,
1261.1000000238419,,directmemory_phase4,732716,,,,,,,,object_07c.png,,,49,,,1,,object_04c.png,object_09b.png,object_14b.png,object_04c.png,,0.9827586206896551,1,1,,,,,,,,,,,
null,,slowdown_page,742717,,,,,,,,too_quick,,,null,,,,,,,,,,,,,,,,,,,,,,,
1799.699999988079,,directmemory_phase4,744518,,,,,,,,object_07a.png,,,50,,,1,,object_06c.png,object_10a.png,object_06a.png,object_10a.png,,0.9830508474576272,1,,,,,,,,,,,,
1861.9000000357628,,directmemory_phase4,746381,,,,,,,,object_14b.png,,,51,,,1,,object_04c.png,object_06c.png,object_09c.png,object_09c.png,,0.9833333333333333,1,,,,,,,,,,,,
null,,thebreak,746484,,,,,,,,<p></p>,,,null,,,,,,,,,,,,,,,,,,,,,,,
1395.300000011921,,intro_0,747881,,,,,,,,instruct,,,32,,,,,,,,,,,,,,,,,,,,,,,
null,,learn_phase(without_color)5,751386,,,,,,,,black_plus_sign,,,null,object_12b.png,object_14a.png,,,,,,,,,,,,,,,,,,,,,
null,,black_cross(without_color)5,752434,,,,,,,,blue,,,null,object_12b.png,object_14a.png,,,,,,,,,,,,,,,,,,,,,
null,,rt_plussign_withcolor5,752938,,,,,,,,blue,,,null,object_12b.png,object_14a.png,,,,,,,,,,,,,,,,,,,,,
1496.5,,rt_thecrossant_black5,753900,,,,,,,,black_plus_sign,,,49,,,1,,,,,,,1,,,,,,,,,,,,,
null,,color_black5,754002,,,,,,,,black_plus_sign,,,null,,,,,,,,,,,,,,,,,,,,,,,
null,,learn_phase(without_color)5,757506,,,,,,,,black_plus_sign,,,null,object_13a.png,object_02b.png,,,,,,,,,,,,,,,,,,,,,
null,,black_cross(without_color)5,758077,,,,,,,,blue,,,null,object_13a.png,object_02b.png,,,,,,,,,,,,,,,,,,,,,
null,,rt_plussign_withcolor5,758579,,,,,,,,blue,,,null,object_13a.png,object_02b.png,,,,,,,,,,,,,,,,,,,,,
1354.199999988079,,rt_thecrossant_black5,760012,,,,,,,,black_plus_sign,,,49,,,1,,,,,,,1,,,,,,,,,,,,,
null,,color_black5,760115,,,,,,,,black_plus_sign,,,null,,,,,,,,,,,,,,,,,,,,,,,
null,,learn_phase(without_color)5,763619,,,,,,,,black_plus_sign,,,null,object_10a.png,object_11b.png,,,,,,,,,,,,,,,,,,,,,
null,,black_cross(without_color)5,764217,,,,,,,,blue,,,null,object_10a.png,object_11b.png,,,,,,,,,,,,,,,,,,,,,
null,,rt_plussign_withcolor5,764719,,,,,,,,blue,,,null,object_10a.png,object_11b.png,,,,,,,,,,,,,,,,,,,,,
1010.1000000238419,,rt_thecrossant_black5,766127,,,,,,,,black_plus_sign,,,49,,,1,,,,,,,1,,,,,,,,,,,,,
null,,color_black5,766229,,,,,,,,black_plus_sign,,,null,,,,,,,,,,,,,,,,,,,,,,,
null,,learn_phase(without_color)5,769732,,,,,,,,black_plus_sign,,,null,object_04b.png,object_15a.png,,,,,,,,,,,,,,,,,,,,,
null,,black_cross(without_color)5,770703,,,,,,,,green,,,null,object_04b.png,object_15a.png,,,,,,,,,,,,,,,,,,,,,
496.5,,rt_plussign_withcolor5,771204,,,,,,,,green,,,50,object_04b.png,object_15a.png,,,,,,,,,,,,,,,,,,,,,
null,,rt_thecrossant_black5,772240,,,,,,,,black_plus_sign,,,null,,,1,,,,,,,1,,,,,,,,,,,,,
null,,color_black5,772348,,,,,,,,black_plus_sign,,,null,,,,,,,,,,,,,,,,,,,,,,,
null,,learn_phase(without_color)5,775851,,,,,,,,black_plus_sign,,,null,object_09c.png,object_01a.png,,,,,,,,,,,,,,,,,,,,,
null,,black_cross(without_color)5,776933,,,,,,,,green,,,null,object_09c.png,object_01a.png,,,,,,,,,,,,,,,,,,,,,
438.10000002384186,,rt_plussign_withcolor5,777436,,,,,,,,green,,,50,object_09c.png,object_01a.png,,,,,,,,,,,,,,,,,,,,,
null,,rt_thecrossant_black5,778369,,,,,,,,black_plus_sign,,,null,,,1,,,,,,,1,,,,,,,,,,,,,
null,,color_black5,778472,,,,,,,,black_plus_sign,,,null,,,,,,,,,,,,,,,,,,,,,,,
null,,learn_phase(without_color)5,781974,,,,,,,,black_plus_sign,,,null,object_09a.png,object_01c.png,,,,,,,,,,,,,,,,,,,,,
null,,black_cross(without_color)5,782477,,,,,,,,blue,,,null,object_09a.png,object_01c.png,,,,,,,,,,,,,,,,,,,,,
null,,rt_plussign_withcolor5,782979,,,,,,,,blue,,,null,object_09a.png,object_01c.png,,,,,,,,,,,,,,,,,,,,,
1246.5999999642372,,rt_thecrossant_black5,784482,,,,,,,,black_plus_sign,,,49,,,1,,,,,,,1,,,,,,,,,,,,,
null,,color_black5,784584,,,,,,,,black_plus_sign,,,null,,,,,,,,,,,,,,,,,,,,,,,
null,,learn_phase(without_color)5,788092,,,,,,,,black_plus_sign,,,null,object_03c.png,object_05c.png,,,,,,,,,,,,,,,,,,,,,
null,,black_cross(without_color)5,788614,,,,,,,,green,,,null,object_03c.png,object_05c.png,,,,,,,,,,,,,,,,,,,,,
null,,rt_plussign_withcolor5,789116,,,,,,,,green,,,null,object_03c.png,object_05c.png,,,,,,,,,,,,,,,,,,,,,
654.5999999642372,,rt_thecrossant_black5,790597,,,,,,,,black_plus_sign,,,50,,,1,,,,,,,1,,,,,,,,,,,,,
null,,color_black5,790700,,,,,,,,black_plus_sign,,,null,,,,,,,,,,,,,,,,,,,,,,,
null,,learn_phase(without_color)5,794203,,,,,,,,black_plus_sign,,,null,object_15c.png,object_12a.png,,,,,,,,,,,,,,,,,,,,,
null,,black_cross(without_color)5,795199,,,,,,,,blue,,,null,object_15c.png,object_12a.png,,,,,,,,,,,,,,,,,,,,,
null,,rt_plussign_withcolor5,795700,,,,,,,,blue,,,null,object_15c.png,object_12a.png,,,,,,,,,,,,,,,,,,,,,
740.2999999523163,,rt_thecrossant_black5,796708,,,,,,,,black_plus_sign,,,49,,,1,,,,,,,1,,,,,,,,,,,,,
null,,color_black5,796810,,,,,,,,black_plus_sign,,,null,,,,,,,,,,,,,,,,,,,,,,,
null,,learn_phase(without_color)5,800312,,,,,,,,black_plus_sign,,,null,object_13b.png,object_03b.png,,,,,,,,,,,,,,,,,,,,,
null,,black_cross(without_color)5,800811,,,,,,,,blue,,,null,object_13b.png,object_03b.png,,,,,,,,,,,,,,,,,,,,,
null,,rt_plussign_withcolor5,801316,,,,,,,,blue,,,null,object_13b.png,object_03b.png,,,,,,,,,,,,,,,,,,,,,
1164.4000000357628,,rt_thecrossant_black5,802825,,,,,,,,black_plus_sign,,,49,,,1,,,,,,,1,,,,,,,,,,,,,
null,,color_black5,802927,,,,,,,,black_plus_sign,,,null,,,,,,,,,,,,,,,,,,,,,,,
null,,learn_phase(without_color)5,806431,,,,,,,,black_plus_sign,,,null,object_04a.png,object_04c.png,,,,,,,,,,,,,,,,,,,,,
null,,black_cross(without_color)5,806891,,,,,,,,blue,,,null,object_04a.png,object_04c.png,,,,,,,,,,,,,,,,,,,,,
null,,rt_plussign_withcolor5,807394,,,,,,,,blue,,,null,object_04a.png,object_04c.png,,,,,,,,,,,,,,,,,,,,,
751,,rt_thecrossant_black5,808942,,,,,,,,black_plus_sign,,,49,,,1,,,,,,,1,,,,,,,,,,,,,
null,,color_black5,809044,,,,,,,,black_plus_sign,,,null,,,,,,,,,,,,,,,,,,,,,,,
null,,learn_phase(without_color)5,812547,,,,,,,,black_plus_sign,,,null,object_10b.png,object_03a.png,,,,,,,,,,,,,,,,,,,,,
null,,black_cross(without_color)5,813521,,,,,,,,blue,,,null,object_10b.png,object_03a.png,,,,,,,,,,,,,,,,,,,,,
null,,rt_plussign_withcolor5,814022,,,,,,,,blue,,,null,object_10b.png,object_03a.png,,,,,,,,,,,,,,,,,,,,,
610.9000000357628,,rt_thecrossant_black5,815052,,,,,,,,black_plus_sign,,,49,,,1,,,,,,,1,,,,,,,,,,,,,
null,,color_black5,815164,,,,,,,,black_plus_sign,,,null,,,,,,,,,,,,,,,,,,,,,,,
null,,learn_phase(without_color)5,818667,,,,,,,,black_plus_sign,,,null,object_12c.png,object_14c.png,,,,,,,,,,,,,,,,,,,,,
null,,black_cross(without_color)5,819416,,,,,,,,green,,,null,object_12c.png,object_14c.png,,,,,,,,,,,,,,,,,,,,,
null,,rt_plussign_withcolor5,819921,,,,,,,,green,,,null,object_12c.png,object_14c.png,,,,,,,,,,,,,,,,,,,,,
1402.199999988079,,rt_thecrossant_black5,821180,,,,,,,,black_plus_sign,,,50,,,1,,,,,,,1,,,,,,,,,,,,,
null,,color_black5,821283,,,,,,,,black_plus_sign,,,null,,,,,,,,,,,,,,,,,,,,,,,
null,,learn_phase(without_color)5,824786,,,,,,,,black_plus_sign,,,null,object_10c.png,object_09b.png,,,,,,,,,,,,,,,,,,,,,
null,,black_cross(without_color)5,825404,,,,,,,,green,,,null,object_10c.png,object_09b.png,,,,,,,,,,,,,,,,,,,,,
null,,rt_plussign_withcolor5,825906,,,,,,,,green,,,null,object_10c.png,object_09b.png,,,,,,,,,,,,,,,,,,,,,
985.1999999880791,,rt_thecrossant_black5,827301,,,,,,,,black_plus_sign,,,50,,,1,,,,,,,1,,,,,,,,,,,,,
null,,color_black5,827404,,,,,,,,black_plus_sign,,,null,,,,,,,,,,,,,,,,,,,,,,,
null,,learn_phase(without_color)5,830912,,,,,,,,black_plus_sign,,,null,object_06a.png,object_08a.png,,,,,,,,,,,,,,,,,,,,,
null,,black_cross(without_color)5,831725,,,,,,,,green,,,null,object_06a.png,object_08a.png,,,,,,,,,,,,,,,,,,,,,
399.80000001192093,,rt_plussign_withcolor5,832228,,,,,,,,green,,,50,object_06a.png,object_08a.png,,,,,,,,,,,,,,,,,,,,,
null,,rt_thecrossant_black5,833422,,,,,,,,black_plus_sign,,,null,,,1,,,,,,,1,,,,,,,,,,,,,
null,,color_black5,833524,,,,,,,,black_plus_sign,,,null,,,,,,,,,,,,,,,,,,,,,,,
null,,learn_phase(without_color)5,837030,,,,,,,,black_plus_sign,,,null,object_11c.png,object_02a.png,,,,,,,,,,,,,,,,,,,,,
null,,black_cross(without_color)5,837574,,,,,,,,green,,,null,object_11c.png,object_02a.png,,,,,,,,,,,,,,,,,,,,,
null,,rt_plussign_withcolor5,838079,,,,,,,,green,,,null,object_11c.png,object_02a.png,,,,,,,,,,,,,,,,,,,,,
1045.5999999642372,,rt_thecrossant_black5,839544,,,,,,,,black_plus_sign,,,50,,,1,,,,,,,1,,,,,,,,,,,,,
null,,color_black5,839647,,,,,,,,black_plus_sign,,,null,,,,,,,,,,,,,,,,,,,,,,,
null,,thebreak,839749,,,,,,,,<p></p>,,,null,,,,,,,,,,,,,,,,,,,,,,,
1256,,intro_0,841006,,,,,,,,instruct,,,32,,,,,,,,,,,,,,,,,,,,,,,
6291.600000023842,,directmemory_phase5,847299,,,,,,,,object_09b.png,,,50,,,1,,object_12c.png,object_10c.png,object_11b.png,object_10c.png,,0.9836065573770492,1,,,,,,,,,,,,
1503,,directmemory_phase5,848803,,,,,,,,object_08a.png,,,51,,,1,,object_09c.png,object_02a.png,object_06a.png,object_06a.png,,0.9838709677419355,1,,,,,,,,,,,,
7392.899999976158,,directmemory_phase5,856197,,,,,,,,object_12c.png,,,51,,,1,,object_03c.png,object_05c.png,object_14c.png,object_14c.png,,0.9841269841269841,1,,,,,,,,,,,,
4036.199999988079,,directmemory_phase5,860235,,,,,,,,object_12a.png,,,50,,,1,,object_03c.png,object_15c.png,object_14a.png,object_15c.png,,0.984375,1,,,,,,,,,,,,
3764.100000023842,,directmemory_phase5,864000,,,,,,,,object_09a.png,,,50,,,1,,object_05c.png,object_01c.png,object_03b.png,object_01c.png,,0.9846153846153847,1,,,,,,,,,,,,
5291.400000035763,,directmemory_phase5,869292,,,,,,,,object_04c.png,,,49,,,1,,object_04a.png,object_02b.png,object_13b.png,object_04a.png,,0.9848484848484849,1,,,,,,,,,,,,
4924,,directmemory_phase5,874218,,,,,,,,object_10b.png,,,49,,,1,,object_03a.png,object_08a.png,object_12c.png,object_03a.png,,0.9850746268656716,1,,,,,,,,,,,,
3459.300000011921,,directmemory_phase5,877678,,,,,,,,object_13a.png,,,51,,,1,,object_14c.png,object_13b.png,object_02b.png,object_02b.png,,0.9852941176470589,1,,,,,,,,,,,,
3098.5,,directmemory_phase5,880778,,,,,,,,object_11b.png,,,49,,,1,,object_10a.png,object_06a.png,object_10c.png,object_10a.png,,0.9855072463768116,1,,,,,,,,,,,,
3049.199999988079,,directmemory_phase5,883829,,,,,,,,object_11c.png,,,51,,,1,,object_03c.png,object_09b.png,object_02a.png,object_02a.png,,0.9857142857142858,1,,,,,,,,,,,,
3641.2000000476837,,directmemory_phase5,887471,,,,,,,,object_14a.png,,,49,,,1,,object_12b.png,object_01a.png,object_04c.png,object_12b.png,,0.9859154929577465,1,,,,,,,,,,,,
1765,,directmemory_phase5,889238,,,,,,,,object_04b.png,,,49,,,1,,object_15a.png,object_13a.png,object_03b.png,object_15a.png,,0.9861111111111112,1,,,,,,,,,,,,
6456,,directmemory_phase5,895696,,,,,,,,object_05c.png,,,51,,,1,,object_10c.png,object_13a.png,object_03c.png,object_03c.png,,0.9863013698630136,1,,,,,,,,,,,,
2053.600000023842,,directmemory_phase5,897751,,,,,,,,object_09c.png,,,51,,,1,,object_03a.png,object_09b.png,object_01a.png,object_01a.png,,0.9864864864864865,1,,,,,,,,,,,,
3292.100000023842,,directmemory_phase5,901044,,,,,,,,object_03b.png,,,49,,,1,,object_13b.png,object_14a.png,object_12a.png,object_13b.png,,0.9866666666666667,1,,,,,,,,,,,,
null,,thebreak,901147,,,,,,,,<p></p>,,,null,,,,,,,,,,,,,,,,,,,,,,,
1310.699999988079,,intro_0,902458,,,,,,,,instruct,,,32,,,,,,,,,,,,,,,,,,,,,,,
null,,learn_phase(without_color)6,905960,,,,,,,,black_plus_sign,,,null,object_08a.png,object_06a.png,,,,,,,,,,,,,,,,,,,,,
null,,black_cross(without_color)6,906922,,,,,,,,blue,,,null,object_08a.png,object_06a.png,,,,,,,,,,,,,,,,,,,,,
null,,rt_plussign_withcolor6,907424,,,,,,,,blue,,,null,object_08a.png,object_06a.png,,,,,,,,,,,,,,,,,,,,,
1291.5,,rt_thecrossant_black6,908473,,,,,,,,black_plus_sign,,,49,,,1,,,,,,,1,,,,,,,,,,,,,
null,,color_black6,908575,,,,,,,,black_plus_sign,,,null,,,,,,,,,,,,,,,,,,,,,,,
null,,learn_phase(without_color)6,912077,,,,,,,,black_plus_sign,,,null,object_11b.png,object_10a.png,,,,,,,,,,,,,,,,,,,,,
null,,black_cross(without_color)6,912610,,,,,,,,blue,,,null,object_11b.png,object_10a.png,,,,,,,,,,,,,,,,,,,,,
483,,rt_plussign_withcolor6,913112,,,,,,,,blue,,,49,object_11b.png,object_10a.png,,,,,,,,,,,,,,,,,,,,,
null,,rt_thecrossant_black6,914582,,,,,,,,black_plus_sign,,,null,,,1,,,,,,,1,,,,,,,,,,,,,
null,,color_black6,914684,,,,,,,,black_plus_sign,,,null,,,,,,,,,,,,,,,,,,,,,,,
null,,learn_phase(without_color)6,918186,,,,,,,,black_plus_sign,,,null,object_15c.png,object_12a.png,,,,,,,,,,,,,,,,,,,,,
null,,black_cross(without_color)6,919140,,,,,,,,blue,,,null,object_15c.png,object_12a.png,,,,,,,,,,,,,,,,,,,,,
null,,rt_plussign_withcolor6,919642,,,,,,,,blue,,,null,object_15c.png,object_12a.png,,,,,,,,,,,,,,,,,,,,,
679.5,,rt_thecrossant_black6,920691,,,,,,,,black_plus_sign,,,49,,,1,,,,,,,1,,,,,,,,,,,,,
null,,color_black6,920793,,,,,,,,black_plus_sign,,,null,,,,,,,,,,,,,,,,,,,,,,,
null,,learn_phase(without_color)6,924297,,,,,,,,black_plus_sign,,,null,object_10b.png,object_03a.png,,,,,,,,,,,,,,,,,,,,,
null,,black_cross(without_color)6,925308,,,,,,,,blue,,,null,object_10b.png,object_03a.png,,,,,,,,,,,,,,,,,,,,,
null,,rt_plussign_withcolor6,925811,,,,,,,,blue,,,null,object_10b.png,object_03a.png,,,,,,,,,,,,,,,,,,,,,
1125.3999999761581,,rt_thecrossant_black6,926809,,,,,,,,black_plus_sign,,,49,,,1,,,,,,,1,,,,,,,,,,,,,
null,,color_black6,926912,,,,,,,,black_plus_sign,,,null,,,,,,,,,,,,,,,,,,,,,,,
null,,learn_phase(without_color)6,930416,,,,,,,,black_plus_sign,,,null,object_02b.png,object_13a.png,,,,,,,,,,,,,,,,,,,,,
null,,black_cross(without_color)6,931067,,,,,,,,green,,,null,object_02b.png,object_13a.png,,,,,,,,,,,,,,,,,,,,,
null,,rt_plussign_withcolor6,931570,,,,,,,,green,,,null,object_02b.png,object_13a.png,,,,,,,,,,,,,,,,,,,,,
1236.0999999642372,,rt_thecrossant_black6,932939,,,,,,,,black_plus_sign,,,50,,,1,,,,,,,1,,,,,,,,,,,,,
null,,color_black6,933042,,,,,,,,black_plus_sign,,,null,,,,,,,,,,,,,,,,,,,,,,,
null,,learn_phase(without_color)6,936545,,,,,,,,black_plus_sign,,,null,object_14c.png,object_12c.png,,,,,,,,,,,,,,,,,,,,,
null,,black_cross(without_color)6,937074,,,,,,,,blue,,,null,object_14c.png,object_12c.png,,,,,,,,,,,,,,,,,,,,,
null,,rt_plussign_withcolor6,937578,,,,,,,,blue,,,null,object_14c.png,object_12c.png,,,,,,,,,,,,,,,,,,,,,
1021.3000000119209,,rt_thecrossant_black6,939055,,,,,,,,black_plus_sign,,,49,,,1,,,,,,,1,,,,,,,,,,,,,
null,,color_black6,939159,,,,,,,,black_plus_sign,,,null,,,,,,,,,,,,,,,,,,,,,,,
null,,learn_phase(without_color)6,942663,,,,,,,,black_plus_sign,,,null,object_03c.png,object_05c.png,,,,,,,,,,,,,,,,,,,,,
null,,black_cross(without_color)6,943607,,,,,,,,blue,,,null,object_03c.png,object_05c.png,,,,,,,,,,,,,,,,,,,,,
502.5,,rt_plussign_withcolor6,944111,,,,,,,,blue,,,49,object_03c.png,object_05c.png,,,,,,,,,,,,,,,,,,,,,
null,,rt_thecrossant_black6,945177,,,,,,,,black_plus_sign,,,null,,,1,,,,,,,1,,,,,,,,,,,,,
null,,color_black6,945285,,,,,,,,black_plus_sign,,,null,,,,,,,,,,,,,,,,,,,,,,,
null,,learn_phase(without_color)6,948789,,,,,,,,black_plus_sign,,,null,object_14a.png,object_12b.png,,,,,,,,,,,,,,,,,,,,,
null,,black_cross(without_color)6,949306,,,,,,,,blue,,,null,object_14a.png,object_12b.png,,,,,,,,,,,,,,,,,,,,,
null,,rt_plussign_withcolor6,949809,,,,,,,,blue,,,null,object_14a.png,object_12b.png,,,,,,,,,,,,,,,,,,,,,
1372.300000011921,,rt_thecrossant_black6,951303,,,,,,,,black_plus_sign,,,49,,,1,,,,,,,1,,,,,,,,,,,,,
null,,color_black6,951406,,,,,,,,black_plus_sign,,,null,,,,,,,,,,,,,,,,,,,,,,,
null,,learn_phase(without_color)6,954909,,,,,,,,black_plus_sign,,,null,object_09c.png,object_01a.png,,,,,,,,,,,,,,,,,,,,,
null,,black_cross(without_color)6,955338,,,,,,,,green,,,null,object_09c.png,object_01a.png,,,,,,,,,,,,,,,,,,,,,
null,,rt_plussign_withcolor6,955850,,,,,,,,green,,,null,object_09c.png,object_01a.png,,,,,,,,,,,,,,,,,,,,,
736,,rt_thecrossant_black6,957431,,,,,,,,black_plus_sign,,,50,,,1,,,,,,,1,,,,,,,,,,,,,
null,,color_black6,957534,,,,,,,,black_plus_sign,,,null,,,,,,,,,,,,,,,,,,,,,,,
null,,learn_phase(without_color)6,961037,,,,,,,,black_plus_sign,,,null,object_03b.png,object_13b.png,,,,,,,,,,,,,,,,,,,,,
null,,black_cross(without_color)6,961574,,,,,,,,green,,,null,object_03b.png,object_13b.png,,,,,,,,,,,,,,,,,,,,,
null,,rt_plussign_withcolor6,962075,,,,,,,,green,,,null,object_03b.png,object_13b.png,,,,,,,,,,,,,,,,,,,,,
794.1999999880791,,rt_thecrossant_black6,963543,,,,,,,,black_plus_sign,,,50,,,1,,,,,,,1,,,,,,,,,,,,,
null,,color_black6,963650,,,,,,,,black_plus_sign,,,null,,,,,,,,,,,,,,,,,,,,,,,
null,,learn_phase(without_color)6,967154,,,,,,,,black_plus_sign,,,null,object_11c.png,object_02a.png,,,,,,,,,,,,,,,,,,,,,
null,,black_cross(without_color)6,967900,,,,,,,,blue,,,null,object_11c.png,object_02a.png,,,,,,,,,,,,,,,,,,,,,
null,,rt_plussign_withcolor6,968402,,,,,,,,blue,,,null,object_11c.png,object_02a.png,,,,,,,,,,,,,,,,,,,,,
710.9000000357628,,rt_thecrossant_black6,969667,,,,,,,,black_plus_sign,,,49,,,1,,,,,,,1,,,,,,,,,,,,,
null,,color_black6,969771,,,,,,,,black_plus_sign,,,null,,,,,,,,,,,,,,,,,,,,,,,
null,,learn_phase(without_color)6,973273,,,,,,,,black_plus_sign,,,null,object_09b.png,object_10c.png,,,,,,,,,,,,,,,,,,,,,
null,,black_cross(without_color)6,973886,,,,,,,,blue,,,null,object_09b.png,object_10c.png,,,,,,,,,,,,,,,,,,,,,
null,,rt_plussign_withcolor6,974388,,,,,,,,blue,,,null,object_09b.png,object_10c.png,,,,,,,,,,,,,,,,,,,,,
909.8999999761581,,rt_thecrossant_black6,975778,,,,,,,,black_plus_sign,,,49,,,1,,,,,,,1,,,,,,,,,,,,,
null,,color_black6,975880,,,,,,,,black_plus_sign,,,null,,,,,,,,,,,,,,,,,,,,,,,
null,,learn_phase(without_color)6,979382,,,,,,,,black_plus_sign,,,null,object_01c.png,object_09a.png,,,,,,,,,,,,,,,,,,,,,
null,,black_cross(without_color)6,980404,,,,,,,,blue,,,null,object_01c.png,object_09a.png,,,,,,,,,,,,,,,,,,,,,
null,,rt_plussign_withcolor6,980906,,,,,,,,blue,,,null,object_01c.png,object_09a.png,,,,,,,,,,,,,,,,,,,,,
715.3000000119209,,rt_thecrossant_black6,981890,,,,,,,,black_plus_sign,,,49,,,1,,,,,,,1,,,,,,,,,,,,,
null,,color_black6,981993,,,,,,,,black_plus_sign,,,null,,,,,,,,,,,,,,,,,,,,,,,
null,,learn_phase(without_color)6,985495,,,,,,,,black_plus_sign,,,null,object_04a.png,object_04c.png,,,,,,,,,,,,,,,,,,,,,
null,,black_cross(without_color)6,985945,,,,,,,,blue,,,null,object_04a.png,object_04c.png,,,,,,,,,,,,,,,,,,,,,
null,,rt_plussign_withcolor6,986446,,,,,,,,blue,,,null,object_04a.png,object_04c.png,,,,,,,,,,,,,,,,,,,,,
1168.3999999761581,,rt_thecrossant_black6,988003,,,,,,,,black_plus_sign,,,49,,,1,,,,,,,1,,,,,,,,,,,,,
null,,color_black6,988106,,,,,,,,black_plus_sign,,,null,,,,,,,,,,,,,,,,,,,,,,,
null,,learn_phase(without_color)6,991611,,,,,,,,black_plus_sign,,,null,object_15a.png,object_04b.png,,,,,,,,,,,,,,,,,,,,,
null,,black_cross(without_color)6,992657,,,,,,,,green,,,null,object_15a.png,object_04b.png,,,,,,,,,,,,,,,,,,,,,
null,,rt_plussign_withcolor6,993160,,,,,,,,green,,,null,object_15a.png,object_04b.png,,,,,,,,,,,,,,,,,,,,,
746,,rt_thecrossant_black6,994121,,,,,,,,black_plus_sign,,,50,,,1,,,,,,,1,,,,,,,,,,,,,
null,,color_black6,994223,,,,,,,,black_plus_sign,,,null,,,,,,,,,,,,,,,,,,,,,,,
null,,thebreak,994325,,,,,,,,<p></p>,,,null,,,,,,,,,,,,,,,,,,,,,,,
999.5,,intro_0,995327,,,,,,,,instruct,,,32,,,,,,,,,,,,,,,,,,,,,,,
5019.5,,directmemory_phase6,1000347,,,,,,,,object_02a.png,,,51,,,1,,object_10a.png,object_11b.png,object_11c.png,object_11c.png,,0.9868421052631579,1,,,,,,,,,,,,
2190.199999988079,,directmemory_phase6,1002539,,,,,,,,object_03b.png,,,51,,,1,,object_09c.png,object_11b.png,object_13b.png,object_13b.png,,0.987012987012987,1,,,,,,,,,,,,
1699.6000000238419,,directmemory_phase6,1004240,,,,,,,,object_13a.png,,,50,,,1,,object_06a.png,object_02b.png,object_14c.png,object_02b.png,,0.9871794871794872,1,,,,,,,,,,,,
1609.300000011921,,directmemory_phase6,1005851,,,,,,,,object_12b.png,,,51,,,1,,object_12c.png,object_02b.png,object_14a.png,object_14a.png,,0.9873417721518988,1,,,,,,,,,,,,
2110.899999976158,,directmemory_phase6,1007963,,,,,,,,object_09a.png,,,50,,,1,,object_09b.png,object_01c.png,object_04b.png,object_01c.png,,0.9875,1,,,,,,,,,,,,
1683.6000000238419,,directmemory_phase6,1009648,,,,,,,,object_09b.png,,,49,,,1,,object_10c.png,object_12a.png,object_05c.png,object_10c.png,,0.9876543209876543,1,,,,,,,,,,,,
4038,,directmemory_phase6,1013688,,,,,,,,object_06a.png,,,49,,,1,,object_08a.png,object_10c.png,object_10a.png,object_08a.png,,0.9878048780487805,1,,,,,,,,,,,,
2332.5,,directmemory_phase6,1016022,,,,,,,,object_10b.png,,,50,,,1,,object_15a.png,object_03a.png,object_08a.png,object_03a.png,,0.9879518072289156,1,,,,,,,,,,,,
1612.5,,directmemory_phase6,1017636,,,,,,,,object_01a.png,,,49,,,1,,object_09c.png,object_09b.png,object_10c.png,object_09c.png,,0.9880952380952381,1,,,,,,,,,,,,
2646.199999988079,,directmemory_phase6,1020284,,,,,,,,object_15c.png,,,51,,,1,,object_03b.png,object_05c.png,object_12a.png,object_12a.png,,0.9882352941176471,1,,,,,,,,,,,,
1729.699999988079,,directmemory_phase6,1022014,,,,,,,,object_04a.png,,,49,,,1,,object_04c.png,object_10a.png,object_02a.png,object_04c.png,,0.9883720930232558,1,,,,,,,,,,,,
2921.199999988079,,directmemory_phase6,1024937,,,,,,,,object_05c.png,,,49,,,1,,object_03c.png,object_08a.png,object_15a.png,object_03c.png,,0.9885057471264368,1,,,,,,,,,,,,
1747.800000011921,,directmemory_phase6,1026686,,,,,,,,object_10a.png,,,51,,,1,,object_03c.png,object_13b.png,object_11b.png,object_11b.png,,0.9886363636363636,1,,,,,,,,,,,,
3160.100000023842,,directmemory_phase6,1029848,,,,,,,,object_12c.png,,,51,,,1,,object_10c.png,object_15c.png,object_14c.png,object_14c.png,,0.9887640449438202,1,,,,,,,,,,,,
1668.5,,directmemory_phase6,1031518,,,,,,,,object_04b.png,,,50,,,1,,object_08a.png,object_15a.png,object_14a.png,object_15a.png,,0.9888888888888889,1,,,,,,,,,,,,
null,,thebreak,1031621,,,,,,,,<p></p>,,,null,,,,,,,,,,,,,,,,,,,,,,,
1115.1000000238419,,intro_0,1032737,,,,,,,,instruct,,,32,,,,,,,,,,,,,,,,,,,,,,,
null,,learn_phase(without_color)7,1036238,,,,,,,,black_plus_sign,,,null,object_03c.png,object_05c.png,,,,,,,,,,,,,,,,,,,,,
null,,black_cross(without_color)7,1036948,,,,,,,,blue,,,null,object_03c.png,object_05c.png,,,,,,,,,,,,,,,,,,,,,
null,,rt_plussign_withcolor7,1037451,,,,,,,,blue,,,null,object_03c.png,object_05c.png,,,,,,,,,,,,,,,,,,,,,
1248.199999988079,,rt_thecrossant_black7,1038746,,,,,,,,black_plus_sign,,,49,,,1,,,,,,,1,,,,,,,,,,,,,
null,,color_black7,1038848,,,,,,,,black_plus_sign,,,null,,,,,,,,,,,,,,,,,,,,,,,
null,,learn_phase(without_color)7,1042354,,,,,,,,black_plus_sign,,,null,object_08a.png,object_06a.png,,,,,,,,,,,,,,,,,,,,,
null,,black_cross(without_color)7,1043439,,,,,,,,blue,,,null,object_08a.png,object_06a.png,,,,,,,,,,,,,,,,,,,,,
null,,rt_plussign_withcolor7,1043941,,,,,,,,blue,,,null,object_08a.png,object_06a.png,,,,,,,,,,,,,,,,,,,,,
865.8000000119209,,rt_thecrossant_black7,1044861,,,,,,,,black_plus_sign,,,49,,,1,,,,,,,1,,,,,,,,,,,,,
null,,color_black7,1044962,,,,,,,,black_plus_sign,,,null,,,,,,,,,,,,,,,,,,,,,,,
null,,learn_phase(without_color)7,1048465,,,,,,,,black_plus_sign,,,null,object_13b.png,object_03b.png,,,,,,,,,,,,,,,,,,,,,
null,,black_cross(without_color)7,1049497,,,,,,,,blue,,,null,object_13b.png,object_03b.png,,,,,,,,,,,,,,,,,,,,,
491.5,,rt_plussign_withcolor7,1049998,,,,,,,,blue,,,49,object_13b.png,object_03b.png,,,,,,,,,,,,,,,,,,,,,
null,,rt_thecrossant_black7,1050973,,,,,,,,black_plus_sign,,,null,,,1,,,,,,,1,,,,,,,,,,,,,
null,,color_black7,1051090,,,,,,,,black_plus_sign,,,null,,,,,,,,,,,,,,,,,,,,,,,
null,,learn_phase(without_color)7,1054594,,,,,,,,black_plus_sign,,,null,object_03a.png,object_10b.png,,,,,,,,,,,,,,,,,,,,,
null,,black_cross(without_color)7,1055281,,,,,,,,green,,,null,object_03a.png,object_10b.png,,,,,,,,,,,,,,,,,,,,,
null,,rt_plussign_withcolor7,1055787,,,,,,,,green,,,null,object_03a.png,object_10b.png,,,,,,,,,,,,,,,,,,,,,
1397.300000011921,,rt_thecrossant_black7,1057114,,,,,,,,black_plus_sign,,,50,,,1,,,,,,,1,,,,,,,,,,,,,
null,,color_black7,1057216,,,,,,,,black_plus_sign,,,null,,,,,,,,,,,,,,,,,,,,,,,
null,,learn_phase(without_color)7,1060721,,,,,,,,black_plus_sign,,,null,object_04c.png,object_04a.png,,,,,,,,,,,,,,,,,,,,,
null,,black_cross(without_color)7,1061798,,,,,,,,green,,,null,object_04c.png,object_04a.png,,,,,,,,,,,,,,,,,,,,,
null,,rt_plussign_withcolor7,1062303,,,,,,,,green,,,null,object_04c.png,object_04a.png,,,,,,,,,,,,,,,,,,,,,
1064.8999999761581,,rt_thecrossant_black7,1063232,,,,,,,,black_plus_sign,,,50,,,1,,,,,,,1,,,,,,,,,,,,,
null,,color_black7,1063335,,,,,,,,black_plus_sign,,,null,,,,,,,,,,,,,,,,,,,,,,,
null,,learn_phase(without_color)7,1066838,,,,,,,,black_plus_sign,,,null,object_11c.png,object_02a.png,,,,,,,,,,,,,,,,,,,,,
null,,black_cross(without_color)7,1067403,,,,,,,,green,,,null,object_11c.png,object_02a.png,,,,,,,,,,,,,,,,,,,,,
410,,rt_plussign_withcolor7,1067905,,,,,,,,green,,,50,object_11c.png,object_02a.png,,,,,,,,,,,,,,,,,,,,,
null,,rt_thecrossant_black7,1069347,,,,,,,,black_plus_sign,,,null,,,1,,,,,,,1,,,,,,,,,,,,,
null,,color_black7,1069451,,,,,,,,black_plus_sign,,,null,,,,,,,,,,,,,,,,,,,,,,,
null,,learn_phase(without_color)7,1072954,,,,,,,,black_plus_sign,,,null,object_12a.png,object_15c.png,,,,,,,,,,,,,,,,,,,,,
null,,black_cross(without_color)7,1073795,,,,,,,,blue,,,null,object_12a.png,object_15c.png,,,,,,,,,,,,,,,,,,,,,
null,,rt_plussign_withcolor7,1074297,,,,,,,,blue,,,null,object_12a.png,object_15c.png,,,,,,,,,,,,,,,,,,,,,
887,,rt_thecrossant_black7,1075464,,,,,,,,black_plus_sign,,,49,,,1,,,,,,,1,,,,,,,,,,,,,
null,,color_black7,1075567,,,,,,,,black_plus_sign,,,null,,,,,,,,,,,,,,,,,,,,,,,
null,,learn_phase(without_color)7,1079071,,,,,,,,black_plus_sign,,,null,object_15a.png,object_04b.png,,,,,,,,,,,,,,,,,,,,,
null,,black_cross(without_color)7,1080005,,,,,,,,blue,,,null,object_15a.png,object_04b.png,,,,,,,,,,,,,,,,,,,,,
null,,rt_plussign_withcolor7,1080507,,,,,,,,blue,,,null,object_15a.png,object_04b.png,,,,,,,,,,,,,,,,,,,,,
1084.3999999761581,,rt_thecrossant_black7,1081578,,,,,,,,black_plus_sign,,,49,,,1,,,,,,,1,,,,,,,,,,,,,
null,,color_black7,1081680,,,,,,,,black_plus_sign,,,null,,,,,,,,,,,,,,,,,,,,,,,
null,,learn_phase(without_color)7,1085184,,,,,,,,black_plus_sign,,,null,object_13a.png,object_02b.png,,,,,,,,,,,,,,,,,,,,,
null,,black_cross(without_color)7,1085938,,,,,,,,blue,,,null,object_13a.png,object_02b.png,,,,,,,,,,,,,,,,,,,,,
null,,rt_plussign_withcolor7,1086439,,,,,,,,blue,,,null,object_13a.png,object_02b.png,,,,,,,,,,,,,,,,,,,,,
1046,,rt_thecrossant_black7,1087691,,,,,,,,black_plus_sign,,,49,,,1,,,,,,,1,,,,,,,,,,,,,
null,,color_black7,1087793,,,,,,,,black_plus_sign,,,null,,,,,,,,,,,,,,,,,,,,,,,
null,,learn_phase(without_color)7,1091294,,,,,,,,black_plus_sign,,,null,object_09a.png,object_01c.png,,,,,,,,,,,,,,,,,,,,,
null,,black_cross(without_color)7,1092027,,,,,,,,blue,,,null,object_09a.png,object_01c.png,,,,,,,,,,,,,,,,,,,,,
null,,rt_plussign_withcolor7,1092529,,,,,,,,blue,,,null,object_09a.png,object_01c.png,,,,,,,,,,,,,,,,,,,,,
968.1999999880791,,rt_thecrossant_black7,1093800,,,,,,,,black_plus_sign,,,49,,,1,,,,,,,1,,,,,,,,,,,,,
null,,color_black7,1093902,,,,,,,,black_plus_sign,,,null,,,,,,,,,,,,,,,,,,,,,,,
null,,learn_phase(without_color)7,1097404,,,,,,,,black_plus_sign,,,null,object_09c.png,object_01a.png,,,,,,,,,,,,,,,,,,,,,
null,,black_cross(without_color)7,1098104,,,,,,,,blue,,,null,object_09c.png,object_01a.png,,,,,,,,,,,,,,,,,,,,,
499.19999998807907,,rt_plussign_withcolor7,1098605,,,,,,,,blue,,,49,object_09c.png,object_01a.png,,,,,,,,,,,,,,,,,,,,,
null,,rt_thecrossant_black7,1099909,,,,,,,,black_plus_sign,,,null,,,1,,,,,,,1,,,,,,,,,,,,,
null,,color_black7,1100011,,,,,,,,black_plus_sign,,,null,,,,,,,,,,,,,,,,,,,,,,,
null,,learn_phase(without_color)7,1103515,,,,,,,,black_plus_sign,,,null,object_10a.png,object_11b.png,,,,,,,,,,,,,,,,,,,,,
null,,black_cross(without_color)7,1104443,,,,,,,,blue,,,null,object_10a.png,object_11b.png,,,,,,,,,,,,,,,,,,,,,
458.19999998807907,,rt_plussign_withcolor7,1104946,,,,,,,,blue,,,49,object_10a.png,object_11b.png,,,,,,,,,,,,,,,,,,,,,
null,,rt_thecrossant_black7,1106030,,,,,,,,black_plus_sign,,,null,,,1,,,,,,,1,,,,,,,,,,,,,
null,,color_black7,1106132,,,,,,,,black_plus_sign,,,null,,,,,,,,,,,,,,,,,,,,,,,
null,,learn_phase(without_color)7,1109634,,,,,,,,black_plus_sign,,,null,object_10c.png,object_09b.png,,,,,,,,,,,,,,,,,,,,,
null,,black_cross(without_color)7,1110268,,,,,,,,blue,,,null,object_10c.png,object_09b.png,,,,,,,,,,,,,,,,,,,,,
null,,rt_plussign_withcolor7,1110773,,,,,,,,blue,,,null,object_10c.png,object_09b.png,,,,,,,,,,,,,,,,,,,,,
1039.5999999642372,,rt_thecrossant_black7,1112148,,,,,,,,black_plus_sign,,,49,,,1,,,,,,,1,,,,,,,,,,,,,
null,,color_black7,1112252,,,,,,,,black_plus_sign,,,null,,,,,,,,,,,,,,,,,,,,,,,
null,,learn_phase(without_color)7,1115759,,,,,,,,black_plus_sign,,,null,object_12b.png,object_14a.png,,,,,,,,,,,,,,,,,,,,,
null,,black_cross(without_color)7,1116578,,,,,,,,blue,,,null,object_12b.png,object_14a.png,,,,,,,,,,,,,,,,,,,,,
null,,rt_plussign_withcolor7,1117080,,,,,,,,blue,,,null,object_12b.png,object_14a.png,,,,,,,,,,,,,,,,,,,,,
893.3000000119209,,rt_thecrossant_black7,1118269,,,,,,,,black_plus_sign,,,49,,,1,,,,,,,1,,,,,,,,,,,,,
null,,color_black7,1118372,,,,,,,,black_plus_sign,,,null,,,,,,,,,,,,,,,,,,,,,,,
null,,learn_phase(without_color)7,1121874,,,,,,,,black_plus_sign,,,null,object_14c.png,object_12c.png,,,,,,,,,,,,,,,,,,,,,
null,,black_cross(without_color)7,1122973,,,,,,,,green,,,null,object_14c.png,object_12c.png,,,,,,,,,,,,,,,,,,,,,
445.69999998807907,,rt_plussign_withcolor7,1123474,,,,,,,,green,,,49,object_14c.png,object_12c.png,,,,,,,,,,,,,,,,,,,,,
null,,rt_thecrossant_black7,1124380,,,,,,,,black_plus_sign,,,null,,,0,,,,,,,0.9333333333333333,,,,,,,,,,,,,
null,,color_black7,1124483,,,,,,,,black_plus_sign,,,null,,,,,,,,,,,,,,,,,,,,,,,
null,,thebreak,1124585,,,,,,,,<p></p>,,,null,,,,,,,,,,,,,,,,,,,,,,,
1165.5,,intro_0,1125752,,,,,,,,instruct,,,32,,,,,,,,,,,,,,,,,,,,,,,
1510.6000000238419,,directmemory_phase7,1127263,,,,,,,,object_15a.png,,,49,,,1,,object_04b.png,object_01a.png,object_13a.png,object_04b.png,,0.989010989010989,1,,,,,,,,,,,,
1753.699999988079,,directmemory_phase7,1129018,,,,,,,,object_11b.png,,,51,,,1,,object_13b.png,object_04a.png,object_10a.png,object_10a.png,,0.9891304347826086,1,,,,,,,,,,,,
1830,,directmemory_phase7,1130849,,,,,,,,object_14c.png,,,50,,,1,,object_03b.png,object_12c.png,object_10b.png,object_12c.png,,0.989247311827957,1,,,,,,,,,,,,
1802.7000000476837,,directmemory_phase7,1132654,,,,,,,,object_14a.png,,,50,,,1,,object_10a.png,object_12b.png,object_04b.png,object_12b.png,,0.9893617021276596,1,,,,,,,,,,,,
1603.6000000238419,,directmemory_phase7,1134259,,,,,,,,object_12a.png,,,51,,,1,,object_13a.png,object_08a.png,object_15c.png,object_15c.png,,0.9894736842105263,1,,,,,,,,,,,,
2346.199999988079,,directmemory_phase7,1136607,,,,,,,,object_02b.png,,,49,,,1,,object_13a.png,object_15a.png,object_10c.png,object_13a.png,,0.9895833333333334,1,,,,,,,,,,,,
1855.5,,directmemory_phase7,1138464,,,,,,,,object_08a.png,,,49,,,1,,object_06a.png,object_14a.png,object_12a.png,object_06a.png,,0.9896907216494846,1,,,,,,,,,,,,
1859.5,,directmemory_phase7,1140325,,,,,,,,object_01c.png,,,50,,,1,,object_02a.png,object_09a.png,object_13b.png,object_09a.png,,0.9897959183673469,1,,,,,,,,,,,,
1826.8999999761581,,directmemory_phase7,1142154,,,,,,,,object_01a.png,,,51,,,1,,object_15c.png,object_12a.png,object_09c.png,object_09c.png,,0.98989898989899,1,,,,,,,,,,,,
3824.300000011921,,directmemory_phase7,1145980,,,,,,,,object_04a.png,,,49,,,1,,object_04c.png,object_10a.png,object_14c.png,object_04c.png,,0.99,1,,,,,,,,,,,,
2738,,directmemory_phase7,1148719,,,,,,,,object_11c.png,,,50,,,1,,object_04c.png,object_02a.png,object_12b.png,object_02a.png,,0.9900990099009901,1,,,,,,,,,,,,
1899.800000011921,,directmemory_phase7,1150620,,,,,,,,object_03a.png,,,50,,,1,,object_12a.png,object_10b.png,object_11c.png,object_10b.png,,0.9901960784313726,1,,,,,,,,,,,,
2729.600000023842,,directmemory_phase7,1153351,,,,,,,,object_05c.png,,,49,,,1,,object_03c.png,object_10c.png,object_12c.png,object_03c.png,,0.9902912621359223,1,,,,,,,,,,,,
1866.5,,directmemory_phase7,1155219,,,,,,,,object_03b.png,,,51,,,1,,object_10a.png,object_03a.png,object_13b.png,object_13b.png,,0.9903846153846154,1,,,,,,,,,,,,
1797.300000011921,,directmemory_phase7,1157017,,,,,,,,object_09b.png,,,50,,,1,,object_06a.png,object_10c.png,object_02a.png,object_10c.png,,0.9904761904761905,1,,,,,,,,,,,,
null,,thebreak,1157119,,,,,,,,<p></p>,,,null,,,,,,,,,,,,,,,,,,,,,,,
1480.6000000238419,,intro_0,1158600,,,,,,,,instruct,,,32,,,,,,,,,,,,,,,,,,,,,,,
null,,learn_phase(without_color)8,1162102,,,,,,,,black_plus_sign,,,null,object_05c.png,object_03c.png,,,,,,,,,,,,,,,,,,,,,
null,,black_cross(without_color)8,1162554,,,,,,,,blue,,,null,object_05c.png,object_03c.png,,,,,,,,,,,,,,,,,,,,,
null,,rt_plussign_withcolor8,1163056,,,,,,,,blue,,,null,object_05c.png,object_03c.png,,,,,,,,,,,,,,,,,,,,,
651.5,,rt_thecrossant_black8,1164617,,,,,,,,black_plus_sign,,,49,,,1,,,,,,,1,,,,,,,,,,,,,
null,,color_black8,1164720,,,,,,,,black_plus_sign,,,null,,,,,,,,,,,,,,,,,,,,,,,
null,,learn_phase(without_color)8,1168223,,,,,,,,black_plus_sign,,,null,object_09c.png,object_01a.png,,,,,,,,,,,,,,,,,,,,,
null,,black_cross(without_color)8,1169231,,,,,,,,green,,,null,object_09c.png,object_01a.png,,,,,,,,,,,,,,,,,,,,,
null,,rt_plussign_withcolor8,1169738,,,,,,,,green,,,null,object_09c.png,object_01a.png,,,,,,,,,,,,,,,,,,,,,
664.6999999880791,,rt_thecrossant_black8,1170743,,,,,,,,black_plus_sign,,,50,,,1,,,,,,,1,,,,,,,,,,,,,
null,,color_black8,1170845,,,,,,,,black_plus_sign,,,null,,,,,,,,,,,,,,,,,,,,,,,
null,,learn_phase(without_color)8,1174351,,,,,,,,black_plus_sign,,,null,object_15c.png,object_12a.png,,,,,,,,,,,,,,,,,,,,,
null,,black_cross(without_color)8,1174906,,,,,,,,blue,,,null,object_15c.png,object_12a.png,,,,,,,,,,,,,,,,,,,,,
null,,rt_plussign_withcolor8,1175411,,,,,,,,blue,,,null,object_15c.png,object_12a.png,,,,,,,,,,,,,,,,,,,,,
1701.7000000476837,,rt_thecrossant_black8,1176861,,,,,,,,black_plus_sign,,,49,,,1,,,,,,,1,,,,,,,,,,,,,
null,,color_black8,1176963,,,,,,,,black_plus_sign,,,null,,,,,,,,,,,,,,,,,,,,,,,
null,,learn_phase(without_color)8,1180468,,,,,,,,black_plus_sign,,,null,object_02b.png,object_13a.png,,,,,,,,,,,,,,,,,,,,,
null,,black_cross(without_color)8,1181221,,,,,,,,green,,,null,object_02b.png,object_13a.png,,,,,,,,,,,,,,,,,,,,,
463.30000001192093,,rt_plussign_withcolor8,1181723,,,,,,,,green,,,50,object_02b.png,object_13a.png,,,,,,,,,,,,,,,,,,,,,
null,,rt_thecrossant_black8,1182981,,,,,,,,black_plus_sign,,,null,,,1,,,,,,,1,,,,,,,,,,,,,
null,,color_black8,1183083,,,,,,,,black_plus_sign,,,null,,,,,,,,,,,,,,,,,,,,,,,
null,,learn_phase(without_color)8,1186589,,,,,,,,black_plus_sign,,,null,object_14c.png,object_12c.png,,,,,,,,,,,,,,,,,,,,,
null,,black_cross(without_color)8,1187573,,,,,,,,blue,,,null,object_14c.png,object_12c.png,,,,,,,,,,,,,,,,,,,,,
null,,rt_plussign_withcolor8,1188078,,,,,,,,blue,,,null,object_14c.png,object_12c.png,,,,,,,,,,,,,,,,,,,,,
984.0999999642372,,rt_thecrossant_black8,1189103,,,,,,,,black_plus_sign,,,49,,,1,,,,,,,1,,,,,,,,,,,,,
null,,color_black8,1189207,,,,,,,,black_plus_sign,,,null,,,,,,,,,,,,,,,,,,,,,,,
null,,learn_phase(without_color)8,1192712,,,,,,,,black_plus_sign,,,null,object_10b.png,object_03a.png,,,,,,,,,,,,,,,,,,,,,
null,,black_cross(without_color)8,1193740,,,,,,,,blue,,,null,object_10b.png,object_03a.png,,,,,,,,,,,,,,,,,,,,,
null,,rt_plussign_withcolor8,1194243,,,,,,,,blue,,,null,object_10b.png,object_03a.png,,,,,,,,,,,,,,,,,,,,,
1144.5,,rt_thecrossant_black8,1195221,,,,,,,,black_plus_sign,,,49,,,1,,,,,,,1,,,,,,,,,,,,,
null,,color_black8,1195324,,,,,,,,black_plus_sign,,,null,,,,,,,,,,,,,,,,,,,,,,,
null,,learn_phase(without_color)8,1198827,,,,,,,,black_plus_sign,,,null,object_03b.png,object_13b.png,,,,,,,,,,,,,,,,,,,,,
null,,black_cross(without_color)8,1199434,,,,,,,,blue,,,null,object_03b.png,object_13b.png,,,,,,,,,,,,,,,,,,,,,
null,,rt_plussign_withcolor8,1199937,,,,,,,,blue,,,null,object_03b.png,object_13b.png,,,,,,,,,,,,,,,,,,,,,
1399.1000000238419,,rt_thecrossant_black8,1201340,,,,,,,,black_plus_sign,,,49,,,1,,,,,,,1,,,,,,,,,,,,,
null,,color_black8,1201444,,,,,,,,black_plus_sign,,,null,,,,,,,,,,,,,,,,,,,,,,,
null,,learn_phase(without_color)8,1204948,,,,,,,,black_plus_sign,,,null,object_11c.png,object_02a.png,,,,,,,,,,,,,,,,,,,,,
null,,black_cross(without_color)8,1205420,,,,,,,,green,,,null,object_11c.png,object_02a.png,,,,,,,,,,,,,,,,,,,,,
null,,rt_plussign_withcolor8,1205923,,,,,,,,green,,,null,object_11c.png,object_02a.png,,,,,,,,,,,,,,,,,,,,,
1027.800000011921,,rt_thecrossant_black8,1207470,,,,,,,,black_plus_sign,,,50,,,1,,,,,,,1,,,,,,,,,,,,,
null,,color_black8,1207573,,,,,,,,black_plus_sign,,,null,,,,,,,,,,,,,,,,,,,,,,,
null,,learn_phase(without_color)8,1211075,,,,,,,,black_plus_sign,,,null,object_06a.png,object_08a.png,,,,,,,,,,,,,,,,,,,,,
null,,black_cross(without_color)8,1211859,,,,,,,,blue,,,null,object_06a.png,object_08a.png,,,,,,,,,,,,,,,,,,,,,
null,,rt_plussign_withcolor8,1212361,,,,,,,,blue,,,null,object_06a.png,object_08a.png,,,,,,,,,,,,,,,,,,,,,
815.6000000238419,,rt_thecrossant_black8,1213580,,,,,,,,black_plus_sign,,,49,,,1,,,,,,,1,,,,,,,,,,,,,
null,,color_black8,1213683,,,,,,,,black_plus_sign,,,null,,,,,,,,,,,,,,,,,,,,,,,
null,,learn_phase(without_color)8,1217185,,,,,,,,black_plus_sign,,,null,object_01c.png,object_09a.png,,,,,,,,,,,,,,,,,,,,,
null,,black_cross(without_color)8,1217708,,,,,,,,green,,,null,object_01c.png,object_09a.png,,,,,,,,,,,,,,,,,,,,,
null,,rt_plussign_withcolor8,1218209,,,,,,,,green,,,null,object_01c.png,object_09a.png,,,,,,,,,,,,,,,,,,,,,
1086,,rt_thecrossant_black8,1219692,,,,,,,,black_plus_sign,,,50,,,1,,,,,,,1,,,,,,,,,,,,,
null,,color_black8,1219795,,,,,,,,black_plus_sign,,,null,,,,,,,,,,,,,,,,,,,,,,,
null,,learn_phase(without_color)8,1223301,,,,,,,,black_plus_sign,,,null,object_04b.png,object_15a.png,,,,,,,,,,,,,,,,,,,,,
null,,black_cross(without_color)8,1223932,,,,,,,,green,,,null,object_04b.png,object_15a.png,,,,,,,,,,,,,,,,,,,,,
null,,rt_plussign_withcolor8,1224438,,,,,,,,green,,,null,object_04b.png,object_15a.png,,,,,,,,,,,,,,,,,,,,,
767.8000000119209,,rt_thecrossant_black8,1225819,,,,,,,,black_plus_sign,,,50,,,1,,,,,,,1,,,,,,,,,,,,,
null,,color_black8,1225923,,,,,,,,black_plus_sign,,,null,,,,,,,,,,,,,,,,,,,,,,,
null,,learn_phase(without_color)8,1229429,,,,,,,,black_plus_sign,,,null,object_10a.png,object_11b.png,,,,,,,,,,,,,,,,,,,,,
null,,black_cross(without_color)8,1230437,,,,,,,,green,,,null,object_10a.png,object_11b.png,,,,,,,,,,,,,,,,,,,,,
null,,rt_plussign_withcolor8,1230941,,,,,,,,green,,,null,object_10a.png,object_11b.png,,,,,,,,,,,,,,,,,,,,,
775.3000000119209,,rt_thecrossant_black8,1231942,,,,,,,,black_plus_sign,,,50,,,1,,,,,,,1,,,,,,,,,,,,,
null,,color_black8,1232044,,,,,,,,black_plus_sign,,,null,,,,,,,,,,,,,,,,,,,,,,,
null,,learn_phase(without_color)8,1235549,,,,,,,,black_plus_sign,,,null,object_12b.png,object_14a.png,,,,,,,,,,,,,,,,,,,,,
null,,black_cross(without_color)8,1235953,,,,,,,,green,,,null,object_12b.png,object_14a.png,,,,,,,,,,,,,,,,,,,,,
null,,rt_plussign_withcolor8,1236456,,,,,,,,green,,,null,object_12b.png,object_14a.png,,,,,,,,,,,,,,,,,,,,,
1156.800000011921,,rt_thecrossant_black8,1238057,,,,,,,,black_plus_sign,,,50,,,1,,,,,,,1,,,,,,,,,,,,,
null,,color_black8,1238160,,,,,,,,black_plus_sign,,,null,,,,,,,,,,,,,,,,,,,,,,,
null,,learn_phase(without_color)8,1241665,,,,,,,,black_plus_sign,,,null,object_04a.png,object_04c.png,,,,,,,,,,,,,,,,,,,,,
null,,black_cross(without_color)8,1242173,,,,,,,,blue,,,null,object_04a.png,object_04c.png,,,,,,,,,,,,,,,,,,,,,
null,,rt_plussign_withcolor8,1242675,,,,,,,,blue,,,null,object_04a.png,object_04c.png,,,,,,,,,,,,,,,,,,,,,
1104.699999988079,,rt_thecrossant_black8,1244170,,,,,,,,black_plus_sign,,,49,,,1,,,,,,,1,,,,,,,,,,,,,
null,,color_black8,1244273,,,,,,,,black_plus_sign,,,null,,,,,,,,,,,,,,,,,,,,,,,
null,,learn_phase(without_color)8,1247777,,,,,,,,black_plus_sign,,,null,object_10c.png,object_09b.png,,,,,,,,,,,,,,,,,,,,,
null,,black_cross(without_color)8,1248260,,,,,,,,blue,,,null,object_10c.png,object_09b.png,,,,,,,,,,,,,,,,,,,,,
null,,rt_plussign_withcolor8,1248762,,,,,,,,blue,,,null,object_10c.png,object_09b.png,,,,,,,,,,,,,,,,,,,,,
651.0999999642372,,rt_thecrossant_black8,1250285,,,,,,,,black_plus_sign,,,49,,,1,,,,,,,1,,,,,,,,,,,,,
null,,color_black8,1250390,,,,,,,,black_plus_sign,,,null,,,,,,,,,,,,,,,,,,,,,,,
null,,thebreak,1250492,,,,,,,,<p></p>,,,null,,,,,,,,,,,,,,,,,,,,,,,
1470.699999988079,,intro_0,1251964,,,,,,,,instruct,,,32,,,,,,,,,,,,,,,,,,,,,,,
2648.300000011921,,directmemory_phase8,1254613,,,,,,,,object_05c.png,,,50,,,1,,object_13a.png,object_03c.png,object_02a.png,object_03c.png,,0.9905660377358491,1,,,,,,,,,,,,
1813.199999988079,,directmemory_phase8,1256428,,,,,,,,object_01c.png,,,50,,,1,,object_08a.png,object_09a.png,object_13b.png,object_09a.png,,0.9906542056074766,1,,,,,,,,,,,,
1612.4000000357628,,directmemory_phase8,1258041,,,,,,,,object_15a.png,,,50,,,1,,object_13b.png,object_04b.png,object_11b.png,object_04b.png,,0.9907407407407407,1,,,,,,,,,,,,
1699.4000000357628,,directmemory_phase8,1259742,,,,,,,,object_09c.png,,,50,,,1,,object_05c.png,object_01a.png,object_11b.png,object_01a.png,,0.9908256880733946,1,,,,,,,,,,,,
3293.100000023842,,directmemory_phase8,1263036,,,,,,,,object_02a.png,,,49,,,1,,object_11c.png,object_15a.png,object_12b.png,object_11c.png,,0.990909090909091,1,,,,,,,,,,,,
1913.699999988079,,directmemory_phase8,1264952,,,,,,,,object_10a.png,,,49,,,1,,object_11b.png,object_12a.png,object_12c.png,object_11b.png,,0.990990990990991,1,,,,,,,,,,,,
1935.8999999761581,,directmemory_phase8,1266889,,,,,,,,object_04a.png,,,49,,,1,,object_04c.png,object_15c.png,object_11b.png,object_04c.png,,0.9910714285714286,1,,,,,,,,,,,,
2155,,directmemory_phase8,1269046,,,,,,,,object_13a.png,,,51,,,1,,object_10c.png,object_15a.png,object_02b.png,object_02b.png,,0.9911504424778761,1,,,,,,,,,,,,
1654.7999999523163,,directmemory_phase8,1270702,,,,,,,,object_08a.png,,,49,,,1,,object_06a.png,object_15a.png,object_04a.png,object_06a.png,,0.9912280701754386,1,,,,,,,,,,,,
1969.1000000238419,,directmemory_phase8,1272673,,,,,,,,object_12b.png,,,49,,,1,,object_14a.png,object_09c.png,object_01a.png,object_14a.png,,0.991304347826087,1,,,,,,,,,,,,
2051.2999999523163,,directmemory_phase8,1274725,,,,,,,,object_10b.png,,,50,,,1,,object_15a.png,object_03a.png,object_03c.png,object_03a.png,,0.9913793103448276,1,,,,,,,,,,,,
1807.8999999761581,,directmemory_phase8,1276534,,,,,,,,object_12a.png,,,50,,,1,,object_10c.png,object_15c.png,object_13a.png,object_15c.png,,0.9914529914529915,1,,,,,,,,,,,,
1811.5,,directmemory_phase8,1278347,,,,,,,,object_09b.png,,,50,,,1,,object_10b.png,object_10c.png,object_03c.png,object_10c.png,,0.9915254237288136,1,,,,,,,,,,,,
1727.199999988079,,directmemory_phase8,1280075,,,,,,,,object_03b.png,,,49,,,1,,object_13b.png,object_10b.png,object_12a.png,object_13b.png,,0.9915966386554622,1,,,,,,,,,,,,
1733.4000000357628,,directmemory_phase8,1281810,,,,,,,,object_14c.png,,,50,,,1,,object_12b.png,object_12c.png,object_04c.png,object_12c.png,,0.9916666666666667,1,,,,,,,,,,,,
null,,thebreak,1281912,,,,,,,,<p></p>,,,null,,,,,,,,,,,,,,,,,,,,,,,
3300.5,,intro_0,1285214,,,,,,,,instruct,,,32,,,,,,,,,,,,,,,,,,,,,,,
8454.400000035763,,intro_1,1293669,,,,,,,,instruct,,,32,,,,,,,,,,,,,,,,,,,,,,,
4415.399999976158,,intro_2,1298085,,,,,,,,instruct,,,32,,,,,,,,,,,,,,,,,,,,,,,
,,intro_3,1318109,,,,,,,,instruct,,,,,,,,,,,,,,,,,,,,,,,,,,
3251.900000035763,,intro_4,1321361,,,,,,,,instruct,,,32,,,,,,,,,,,,,,,,,,,,,,,
13675,,inference_phase,1335037,,,,,,,,object_03a.png,,,51,object_14b.png,object_05b.png,1,,,,,object_05b.png,,1,,,object_05c.png,,,,,,,,,,
null,,inference_phase,1350041,,,,,,,,object_03c.png,,,null,object_08b.png,object_06c.png,0,,,,,object_06c.png,,0.5,,,object_13a.png,,,,,,,,,,
null,,warning_page,1355047,,,,,,,,warning,,,null,,,,,,,,,,,,,,,,,,,,,,,
4906.100000023842,,inference_phase,1359954,,,,,,,,object_02c.png,,,49,object_06a.png,object_02b.png,0,,,,,object_02b.png,,0.3333333333333333,,,object_10c.png,,,,,,,,,,
3059,,inference_phase,1363015,,,,,,,,object_14b.png,,,49,object_01a.png,object_11b.png,1,,,,,object_01a.png,,0.5,,,object_10b.png,,,,,,,,,,
6566.400000035763,,inference_phase,1369583,,,,,,,,object_15b.png,,,49,object_05c.png,object_03a.png,0,,,,,object_12b.png,,0.4,,,object_12b.png,,,,,,,,,,
5918.5,,inference_phase,1375503,,,,,,,,object_10c.png,,,51,object_02c.png,object_08c.png,1,,,,,object_08c.png,,0.5,,,object_11c.png,,,,,,,,,,
4121.400000035763,,inference_phase,1379626,,,,,,,,object_04a.png,,,49,object_07c.png,object_05a.png,1,,,,,object_07c.png,,0.5714285714285714,,,object_15c.png,,,,,,,,,,
4045.5,,inference_phase,1383673,,,,,,,,object_08b.png,,,49,object_14c.png,object_11b.png,1,,,,,object_14c.png,,0.625,,,object_13b.png,,,,,,,,,,
5241.100000023842,,inference_phase,1388916,,,,,,,,object_01c.png,,,49,object_06c.png,object_14a.png,0,,,,,object_07b.png,,0.5555555555555556,,,object_07b.png,,,,,,,,,,
9444.300000011921,,inference_phase,1398361,,,,,,,,object_13c.png,,,49,object_04b.png,object_03b.png,1,,,,,object_04b.png,,0.6,,,object_04c.png,,,,,,,,,,
4518.399999976158,,inference_phase,1402882,,,,,,,,object_11b.png,,,51,object_07c.png,object_07a.png,1,,,,,object_07a.png,,0.6363636363636364,,,object_09b.png,,,,,,,,,,
5667.599999964237,,inference_phase,1408550,,,,,,,,object_05a.png,,,50,object_12c.png,object_02a.png,0,,,,,object_02a.png,,0.5833333333333334,,,object_12b.png,,,,,,,,,,
6206.699999988079,,inference_phase,1414759,,,,,,,,object_08a.png,,,51,object_06c.png,object_11a.png,1,,,,,object_11a.png,,0.6153846153846154,,,object_10b.png,,,,,,,,,,
3296.699999988079,,inference_phase,1418058,,,,,,,,object_12a.png,,,49,object_01b.png,object_07a.png,1,,,,,object_01b.png,,0.6428571428571429,,,object_09b.png,,,,,,,,,,
6347,,inference_phase,1424406,,,,,,,,object_06b.png,,,51,object_15a.png,object_03b.png,1,,,,,object_03b.png,,0.6666666666666666,,,object_12a.png,,,,,,,,,,
,,survey,1482042,,,,,,,,survey-questions,,,,,,,,,,,,,,,,,none,high,no,Trying to pair a feature of both items to remember,The friends test was the most difficult,no,,,,
16703.19999998808,,thank_you,1498788,,,,,,,,<p> Congratulations, you are all done!</p><p> <strong>Please click space on your keyboard to end the experiment!</strong> The secret code to enter at the beginning screen is: <strong>CIMBPENS</strong></p><p> Please make sure to submit the HIT and email uciccnl@gmail.com if you had any issues! </p><br><p>Please remember to submit this data by clicking space after copying the code. Failure of submission will lead to in-complete payment</p>,,,32,,,,,,,,,,,,,,,,,,,,,0,0,C78LSMTN
