rt,responses,trial_type,time_elapsed,identifier_a,identifier_b,identifier_c,tasktype,browser_type,local_time,UTC_time,stimulus,button_pressed,response,key_press,stimulus_left,stimulus_right,accuracy,practice_cumulative_accuracy,stimulus_down_left,stimulus_down_mid,stimulus_down_right,stimulus_correct,prac_weighted_accuracy,cumulative_accuracy,failed_practice,weighted_accuracy,stimulus_middle,problems,smooth,distraction,strategies,easier,similar,comments,detectfocus,breakfocus,completion_code
14410.800000011921,{worker_id:67da893b401289d9d4573047},id_enter,14414,object_11a.png; object_04c.png; object_09c.png; object_06a.png; object_05b.png; object_07a.png; object_08a.png; object_01b.png; object_10a.png; object_10b.png; object_12b.png; object_03c.png; object_07c.png; object_13b.png; object_06c.png,object_15c.png; object_09a.png; object_11c.png; object_11b.png; object_09b.png; object_04b.png; object_05c.png; object_15b.png; object_08b.png; object_13a.png; object_12c.png; object_13c.png; object_10c.png; object_14a.png; object_07b.png,object_01c.png; object_02c.png; object_02a.png; object_03a.png; object_04a.png; object_14c.png; object_08c.png; object_06b.png; object_03b.png; object_05a.png; object_02b.png; object_15a.png; object_14b.png; object_01a.png; object_12a.png,interleaved,Mozilla/5.0 (Windows NT 10.0; Win64; x64) AppleWebKit/537.36 (KHTML, like Gecko) Chrome/134.0.0.0 Safari/537.36,5/8/2025, 6:58:48 PM,2025-05-08 23:58:48.866,,,,,,,,,,,,,,,,,,,,,,,,,,,
44198.19999998808,,make_fullscreen,58641,,,,,,,,fullscreen,0,,,,,,,,,,,,,,,,,,,,,,,,,
12578.800000011921,,instruct_1,71232,,,,,,,,instruct,0,Next,,,,,,,,,,,,,,,,,,,,,,,,
30407.19999998808,,instruct_2,101642,,,,,,,,instruct,1,Next,,,,,,,,,,,,,,,,,,,,,,,,
18871.69999998808,,instruct_3,120515,,,,,,,,instruct,1,Next,,,,,,,,,,,,,,,,,,,,,,,,
46582.39999997616,,instruct_4,167099,,,,,,,,instruct,1,Next,,,,,,,,,,,,,,,,,,,,,,,,
38331.90000003576,,instruct_5,205433,,,,,,,,instruct,1,Next,,,,,,,,,,,,,,,,,,,,,,,,
10511.699999988079,,instruct_6,215946,,,,,,,,instruct,1,Next,,,,,,,,,,,,,,,,,,,,,,,,
67203.09999996424,,instruct_7,283151,,,,,,,,instruct,1,Next,,,,,,,,,,,,,,,,,,,,,,,,
null,,prac_atten_color_black,284114,,,,,,,,black_plus_sign,,,null,,,,,,,,,,,,,,,,,,,,,,,
null,,prac_atten_color,284565,,,,,,,,<p style='position:absolute;top: 50%;right: 50%;transform: translate(50%, -50%);font-size: 125px;color: blue;'>+</p>,,,null,,,,,,,,,,,,,,,,,,,,,,,
null,,prac_atten_color_black,286579,,,,,,,,black_plus_sign,,,null,,,,,,,,,,,,,,,,,,,,,,,
16812.30000001192,,attentioncheck_help,303393,,,,,,,,instruct,,,32,,,,,,,,,,,,,,,,,,,,,,,
null,,prac_atten_color_black,304358,,,,,,,,black_plus_sign,,,null,,,,,,,,,,,,,,,,,,,,,,,
null,,prac_atten_color,304789,,,,,,,,<p style='position:absolute;top: 50%;right: 50%;transform: translate(50%, -50%);font-size: 125px;color: green;'>+</p>,,,null,,,,,,,,,,,,,,,,,,,,,,,
679.1999999880791,,prac_atten_color_black,306797,,,,,,,,black_plus_sign,,,50,,,,,,,,,,,,,,,,,,,,,,,
null,,prac_atten_color_black,307784,,,,,,,,black_plus_sign,,,null,,,,,,,,,,,,,,,,,,,,,,,
null,,prac_atten_color,308710,,,,,,,,<p style='position:absolute;top: 50%;right: 50%;transform: translate(50%, -50%);font-size: 125px;color: green;'>+</p>,,,null,,,,,,,,,,,,,,,,,,,,,,,
330.5999999642372,,prac_atten_color_black,310727,,,,,,,,black_plus_sign,,,50,,,,,,,,,,,,,,,,,,,,,,,
null,,prac_atten_color_black,311220,,,,,,,,black_plus_sign,,,null,,,,,,,,,,,,,,,,,,,,,,,
433,,prac_atten_color,312048,,,,,,,,<p style='position:absolute;top: 50%;right: 50%;transform: translate(50%, -50%);font-size: 125px;color: blue;'>+</p>,,,49,,,,,,,,,,,,,,,,,,,,,,,
null,,prac_atten_color_black,314058,,,,,,,,black_plus_sign,,,null,,,,,,,,,,,,,,,,,,,,,,,
null,,prac_atten_color_black,314658,,,,,,,,black_plus_sign,,,null,,,,,,,,,,,,,,,,,,,,,,,
464.0999999642372,,prac_atten_color,315267,,,,,,,,<p style='position:absolute;top: 50%;right: 50%;transform: translate(50%, -50%);font-size: 125px;color: green;'>+</p>,,,50,,,,,,,,,,,,,,,,,,,,,,,
null,,prac_atten_color_black,317274,,,,,,,,black_plus_sign,,,null,,,,,,,,,,,,,,,,,,,,,,,
null,,prac_atten_color_black,318091,,,,,,,,black_plus_sign,,,null,,,,,,,,,,,,,,,,,,,,,,,
409.0999999642372,,prac_atten_color,318622,,,,,,,,<p style='position:absolute;top: 50%;right: 50%;transform: translate(50%, -50%);font-size: 125px;color: green;'>+</p>,,,49,,,,,,,,,,,,,,,,,,,,,,,
269,,prac_atten_color_black,320630,,,,,,,,black_plus_sign,,,50,,,,,,,,,,,,,,,,,,,,,,,
null,,prac_atten_color_black,321505,,,,,,,,black_plus_sign,,,null,,,,,,,,,,,,,,,,,,,,,,,
null,,prac_atten_color,322020,,,,,,,,<p style='position:absolute;top: 50%;right: 50%;transform: translate(50%, -50%);font-size: 125px;color: blue;'>+</p>,,,null,,,,,,,,,,,,,,,,,,,,,,,
260.39999997615814,,prac_atten_color_black,324024,,,,,,,,black_plus_sign,,,49,,,,,,,,,,,,,,,,,,,,,,,
null,,prac_atten_color_black,324935,,,,,,,,black_plus_sign,,,null,,,,,,,,,,,,,,,,,,,,,,,
433.80000001192093,,prac_atten_color,325607,,,,,,,,<p style='position:absolute;top: 50%;right: 50%;transform: translate(50%, -50%);font-size: 125px;color: green;'>+</p>,,,50,,,,,,,,,,,,,,,,,,,,,,,
null,,prac_atten_color_black,327609,,,,,,,,black_plus_sign,,,null,,,,,,,,,,,,,,,,,,,,,,,
null,,prac_atten_color_black,328352,,,,,,,,black_plus_sign,,,null,,,,,,,,,,,,,,,,,,,,,,,
440,,prac_atten_color,329119,,,,,,,,<p style='position:absolute;top: 50%;right: 50%;transform: translate(50%, -50%);font-size: 125px;color: blue;'>+</p>,,,49,,,,,,,,,,,,,,,,,,,,,,,
null,,prac_atten_color_black,331128,,,,,,,,black_plus_sign,,,null,,,,,,,,,,,,,,,,,,,,,,,
null,,prac_atten_color_black,331782,,,,,,,,black_plus_sign,,,null,,,,,,,,,,,,,,,,,,,,,,,
null,,prac_atten_color,332512,,,,,,,,<p style='position:absolute;top: 50%;right: 50%;transform: translate(50%, -50%);font-size: 125px;color: blue;'>+</p>,,,null,,,,,,,,,,,,,,,,,,,,,,,
49.89999997615814,,prac_atten_color_black,334522,,,,,,,,black_plus_sign,,,49,,,,,,,,,,,,,,,,,,,,,,,
10050.800000011921,,attentioncheck_feedback,344574,,,,,,,,cross_check_feedback,0,,,,,,,,,,,,,,,,,,,,,,,,,
27375.30000001192,,last_instruct,371951,,,,,,,,instruct,,,32,,,,,,,,,,,,,,,,,,,,,,,
null,,prac_learn_phase(without_color),375465,,,,,,,,black_plus_sign,,,null,object_03a.png,object_11b.png,,,,,,,,,,,,,,,,,,,,,
null,,prac_black_cross(without_color),375913,,,,,,,,blue,,,null,object_03a.png,object_11b.png,,,,,,,,,,,,,,,,,,,,,
null,,prac_rt_plussign_withcolor,376415,,,,,,,,blue,,,null,object_03a.png,object_11b.png,,,,,,,,,,,,,,,,,,,,,
1248.300000011921,,prac_rt_thecrossant_black,377983,,,,,,,,black_plus_sign,,,49,,,1,1,,,,,,,,,,,,,,,,,,,
null,,prac_color_black,378089,,,,,,,,black_plus_sign,,,null,,,,,,,,,,,,,,,,,,,,,,,
null,,prac_learn_phase(without_color),381603,,,,,,,,black_plus_sign,,,null,object_09b.png,object_04a.png,,,,,,,,,,,,,,,,,,,,,
null,,black_cross(without_color)1,382380,,,,,,,,blue,,,null,object_03a.png,object_11b.png,,,,,,,,,,,,,,,,,,,,,
null,,prac_rt_plussign_withcolor,382887,,,,,,,,green,,,null,object_09b.png,object_04a.png,,,,,,,,,,,,,,,,,,,,,
1194.9000000357628,,prac_rt_thecrossant_black,383835,,,,,,,,black_plus_sign,,,50,,,1,1,,,,,,,,,,,,,,,,,,,
null,,prac_color_black,383946,,,,,,,,black_plus_sign,,,null,,,,,,,,,,,,,,,,,,,,,,,
null,,prac_learn_phase(without_color),387452,,,,,,,,black_plus_sign,,,null,object_06c.png,object_07b.png,,,,,,,,,,,,,,,,,,,,,
null,,black_cross(without_color)1,388224,,,,,,,,blue,,,null,object_03a.png,object_11b.png,,,,,,,,,,,,,,,,,,,,,
null,,prac_rt_plussign_withcolor,388738,,,,,,,,blue,,,null,object_06c.png,object_07b.png,,,,,,,,,,,,,,,,,,,,,
1298.7999999523163,,prac_rt_thecrossant_black,389716,,,,,,,,black_plus_sign,,,49,,,1,1,,,,,,,,,,,,,,,,,,,
null,,prac_color_black,389830,,,,,,,,black_plus_sign,,,null,,,,,,,,,,,,,,,,,,,,,,,
null,,prac_learn_phase(without_color),393333,,,,,,,,black_plus_sign,,,null,object_08a.png,object_05c.png,,,,,,,,,,,,,,,,,,,,,
null,,black_cross(without_color)1,394098,,,,,,,,blue,,,null,object_03a.png,object_11b.png,,,,,,,,,,,,,,,,,,,,,
492.5,,prac_rt_plussign_withcolor,394613,,,,,,,,green,,,50,object_08a.png,object_05c.png,,,,,,,,,,,,,,,,,,,,,
null,,prac_rt_thecrossant_black,395559,,,,,,,,black_plus_sign,,,null,,,1,1,,,,,,,,,,,,,,,,,,,
null,,prac_color_black,395668,,,,,,,,black_plus_sign,,,null,,,,,,,,,,,,,,,,,,,,,,,
27202.69999998808,,instruct_dir_01,422872,,,,,,,,instruct,0,Next,,,,,,,,,,,,,,,,,,,,,,,,
13669.5,,instruct_dir_2,436544,,,,,,,,instruct,1,Next,,,,,,,,,,,,,,,,,,,,,,,,
11198.600000023842,,instruct_dir_3,447744,,,,,,,,instruct,1,Next,,,,,,,,,,,,,,,,,,,,,,,,
23630.399999976158,,instruct_dir_4,471376,,,,,,,,instruct,1,Start,,,,,,,,,,,,,,,,,,,,,,,,
null,,thebreak,471481,,,,,,,,<p></p>,,,null,,,,,,,,,,,,,,,,,,,,,,,
3842.300000011921,,intro_0,475324,,,,,,,,instruct,,,32,,,,,,,,,,,,,,,,,,,,,,,
13402,,prac_directmemory_phase,488728,,,,,,,,practice/object_02a.png,,,51,,,1,,practice/object_04b.png,practice/object_04a.png,practice/object_02b.png,practice/object_02b.png,1,1,,,,,,,,,,,,,
7434.099999964237,,prac_directmemory_phase,496164,,,,,,,,practice/object_04a.png,,,50,,,0,,practice/object_03b.png,practice/object_01a.png,practice/object_04b.png,practice/object_04b.png,0,0.5,,,,,,,,,,,,,
6789.900000035763,,prac_directmemory_phase,502956,,,,,,,,practice/object_03a.png,,,51,,,0,,practice/object_04a.png,practice/object_03b.png,practice/object_04b.png,practice/object_03b.png,0,0.3333333333333333,,,,,,,,,,,,,
6853.900000035763,,prac_directmemory_phase,509812,,,,,,,,practice/object_01a.png,,,50,,,0,,practice/object_02b.png,practice/object_04a.png,practice/object_01b.png,practice/object_01b.png,0,0.25,,,,,,,,,,,,,
8806.800000011921,,practice_feedback_force_restart,518620,,,,,,,,practice_feedback,0,,,,,,,,,,,,,1,,,,,,,,,,,,
6121.399999976158,,last_instruct,524743,,,,,,,,instruct,,,32,,,,,,,,,,,,,,,,,,,,,,,
null,,prac_learn_phase(without_color),528252,,,,,,,,black_plus_sign,,,null,object_03a.png,object_11b.png,,,,,,,,,,,,,,,,,,,,,
null,,prac_black_cross(without_color),529195,,,,,,,,blue,,,null,object_03a.png,object_11b.png,,,,,,,,,,,,,,,,,,,,,
null,,prac_rt_plussign_withcolor,529701,,,,,,,,blue,,,null,object_03a.png,object_11b.png,,,,,,,,,,,,,,,,,,,,,
null,,prac_rt_thecrossant_black,530773,,,,,,,,black_plus_sign,,,null,,,,1,,,,,,,,,,,,,,,,,,,
null,,prac_color_black,530877,,,,,,,,black_plus_sign,,,null,,,,,,,,,,,,,,,,,,,,,,,
null,,prac_learn_phase(without_color),534390,,,,,,,,black_plus_sign,,,null,object_09b.png,object_04a.png,,,,,,,,,,,,,,,,,,,,,
null,,black_cross(without_color)1,535160,,,,,,,,blue,,,null,object_03a.png,object_11b.png,,,,,,,,,,,,,,,,,,,,,
null,,prac_rt_plussign_withcolor,535673,,,,,,,,green,,,null,object_09b.png,object_04a.png,,,,,,,,,,,,,,,,,,,,,
1057.300000011921,,prac_rt_thecrossant_black,536929,,,,,,,,black_plus_sign,,,50,,,1,1,,,,,,,,,,,,,,,,,,,
null,,prac_color_black,537037,,,,,,,,black_plus_sign,,,null,,,,,,,,,,,,,,,,,,,,,,,
null,,prac_learn_phase(without_color),540544,,,,,,,,black_plus_sign,,,null,object_06c.png,object_07b.png,,,,,,,,,,,,,,,,,,,,,
null,,black_cross(without_color)1,541322,,,,,,,,blue,,,null,object_03a.png,object_11b.png,,,,,,,,,,,,,,,,,,,,,
null,,prac_rt_plussign_withcolor,541836,,,,,,,,blue,,,null,object_06c.png,object_07b.png,,,,,,,,,,,,,,,,,,,,,
1045.3999999761581,,prac_rt_thecrossant_black,543426,,,,,,,,black_plus_sign,,,49,,,1,1,,,,,,,,,,,,,,,,,,,
null,,prac_color_black,543535,,,,,,,,black_plus_sign,,,null,,,,,,,,,,,,,,,,,,,,,,,
null,,prac_learn_phase(without_color),547045,,,,,,,,black_plus_sign,,,null,object_08a.png,object_05c.png,,,,,,,,,,,,,,,,,,,,,
null,,black_cross(without_color)1,547808,,,,,,,,blue,,,null,object_03a.png,object_11b.png,,,,,,,,,,,,,,,,,,,,,
null,,prac_rt_plussign_withcolor,548313,,,,,,,,green,,,null,object_08a.png,object_05c.png,,,,,,,,,,,,,,,,,,,,,
682.5,,prac_rt_thecrossant_black,549660,,,,,,,,black_plus_sign,,,49,,,0,0.8571428571428571,,,,,,,,,,,,,,,,,,,
null,,prac_color_black,549768,,,,,,,,black_plus_sign,,,null,,,,,,,,,,,,,,,,,,,,,,,
14985.399999976158,,instruct_dir_01,564755,,,,,,,,instruct,0,Next,,,,,,,,,,,,,,,,,,,,,,,,
27346.19999998808,,instruct_dir_2,592103,,,,,,,,instruct,1,Next,,,,,,,,,,,,,,,,,,,,,,,,
7947.800000011921,,instruct_dir_3,600052,,,,,,,,instruct,1,Next,,,,,,,,,,,,,,,,,,,,,,,,
10077.099999964237,,instruct_dir_4,610131,,,,,,,,instruct,1,Start,,,,,,,,,,,,,,,,,,,,,,,,
null,,thebreak,610237,,,,,,,,<p></p>,,,null,,,,,,,,,,,,,,,,,,,,,,,
3122.300000011921,,intro_0,613360,,,,,,,,instruct,,,32,,,,,,,,,,,,,,,,,,,,,,,
10092,,prac_directmemory_phase,623453,,,,,,,,practice/object_02a.png,,,50,,,0,,practice/object_04b.png,practice/object_04a.png,practice/object_02b.png,practice/object_02b.png,0,0,,,,,,,,,,,,,
5580,,prac_directmemory_phase,629035,,,,,,,,practice/object_04a.png,,,50,,,0,,practice/object_03b.png,practice/object_01a.png,practice/object_04b.png,practice/object_04b.png,0,0,,,,,,,,,,,,,
7209.099999964237,,prac_directmemory_phase,636246,,,,,,,,practice/object_03a.png,,,49,,,0,,practice/object_04a.png,practice/object_03b.png,practice/object_04b.png,practice/object_03b.png,0,0,,,,,,,,,,,,,
5931.600000023842,,prac_directmemory_phase,642180,,,,,,,,practice/object_01a.png,,,50,,,0,,practice/object_02b.png,practice/object_04a.png,practice/object_01b.png,practice/object_01b.png,0,0,,,,,,,,,,,,,
7731.100000023842,,practice_feedback_force_restart,649913,,,,,,,,practice_feedback,0,,,,,,,,,,,,,2,,,,,,,,,,,,
3062.199999988079,,last_instruct,652976,,,,,,,,instruct,,,32,,,,,,,,,,,,,,,,,,,,,,,
null,,prac_learn_phase(without_color),656491,,,,,,,,black_plus_sign,,,null,object_03a.png,object_11b.png,,,,,,,,,,,,,,,,,,,,,
null,,prac_black_cross(without_color),657194,,,,,,,,blue,,,null,object_03a.png,object_11b.png,,,,,,,,,,,,,,,,,,,,,
null,,prac_rt_plussign_withcolor,657700,,,,,,,,blue,,,null,object_03a.png,object_11b.png,,,,,,,,,,,,,,,,,,,,,
1197.199999988079,,prac_rt_thecrossant_black,659019,,,,,,,,black_plus_sign,,,49,,,1,0.875,,,,,,,,,,,,,,,,,,,
null,,prac_color_black,659137,,,,,,,,black_plus_sign,,,null,,,,,,,,,,,,,,,,,,,,,,,
null,,prac_learn_phase(without_color),662652,,,,,,,,black_plus_sign,,,null,object_09b.png,object_04a.png,,,,,,,,,,,,,,,,,,,,,
null,,black_cross(without_color)1,663421,,,,,,,,blue,,,null,object_03a.png,object_11b.png,,,,,,,,,,,,,,,,,,,,,
null,,prac_rt_plussign_withcolor,663923,,,,,,,,green,,,null,object_09b.png,object_04a.png,,,,,,,,,,,,,,,,,,,,,
1319.8999999761581,,prac_rt_thecrossant_black,665519,,,,,,,,black_plus_sign,,,50,,,1,0.8888888888888888,,,,,,,,,,,,,,,,,,,
null,,prac_color_black,665628,,,,,,,,black_plus_sign,,,null,,,,,,,,,,,,,,,,,,,,,,,
null,,prac_learn_phase(without_color),669141,,,,,,,,black_plus_sign,,,null,object_06c.png,object_07b.png,,,,,,,,,,,,,,,,,,,,,
null,,black_cross(without_color)1,669914,,,,,,,,blue,,,null,object_03a.png,object_11b.png,,,,,,,,,,,,,,,,,,,,,
null,,prac_rt_plussign_withcolor,670429,,,,,,,,blue,,,null,object_06c.png,object_07b.png,,,,,,,,,,,,,,,,,,,,,
653.8999999761581,,prac_rt_thecrossant_black,671701,,,,,,,,black_plus_sign,,,49,,,1,0.9,,,,,,,,,,,,,,,,,,,
null,,prac_color_black,671816,,,,,,,,black_plus_sign,,,null,,,,,,,,,,,,,,,,,,,,,,,
null,,prac_learn_phase(without_color),675333,,,,,,,,black_plus_sign,,,null,object_08a.png,object_05c.png,,,,,,,,,,,,,,,,,,,,,
null,,black_cross(without_color)1,676096,,,,,,,,blue,,,null,object_03a.png,object_11b.png,,,,,,,,,,,,,,,,,,,,,
null,,prac_rt_plussign_withcolor,676609,,,,,,,,green,,,null,object_08a.png,object_05c.png,,,,,,,,,,,,,,,,,,,,,
1302.199999988079,,prac_rt_thecrossant_black,677686,,,,,,,,black_plus_sign,,,50,,,1,0.9090909090909091,,,,,,,,,,,,,,,,,,,
null,,prac_color_black,677795,,,,,,,,black_plus_sign,,,null,,,,,,,,,,,,,,,,,,,,,,,
3226.300000011921,,instruct_dir_01,681023,,,,,,,,instruct,0,Next,,,,,,,,,,,,,,,,,,,,,,,,
6410.800000011921,,instruct_dir_2,687436,,,,,,,,instruct,1,Next,,,,,,,,,,,,,,,,,,,,,,,,
4818.199999988079,,instruct_dir_3,692257,,,,,,,,instruct,1,Next,,,,,,,,,,,,,,,,,,,,,,,,
5347.300000011921,,instruct_dir_4,697606,,,,,,,,instruct,1,Start,,,,,,,,,,,,,,,,,,,,,,,,
null,,thebreak,697718,,,,,,,,<p></p>,,,null,,,,,,,,,,,,,,,,,,,,,,,
3424.2000000476837,,intro_0,701143,,,,,,,,instruct,,,32,,,,,,,,,,,,,,,,,,,,,,,
9993.100000023842,,prac_directmemory_phase,711137,,,,,,,,practice/object_02a.png,,,51,,,1,,practice/object_04b.png,practice/object_04a.png,practice/object_02b.png,practice/object_02b.png,1,1,,,,,,,,,,,,,
10249.199999988079,,prac_directmemory_phase,721388,,,,,,,,practice/object_04a.png,,,51,,,1,,practice/object_03b.png,practice/object_01a.png,practice/object_04b.png,practice/object_04b.png,1,1,,,,,,,,,,,,,
4448.699999988079,,prac_directmemory_phase,725839,,,,,,,,practice/object_03a.png,,,50,,,1,,practice/object_04a.png,practice/object_03b.png,practice/object_04b.png,practice/object_03b.png,1,1,,,,,,,,,,,,,
4504.5,,prac_directmemory_phase,730345,,,,,,,,practice/object_01a.png,,,51,,,1,,practice/object_02b.png,practice/object_04a.png,practice/object_01b.png,practice/object_01b.png,1,1,,,,,,,,,,,,,
6109.699999988079,,practice_feedback,736457,,,,,,,,practice_feedback,1,,,,,,,,,,,,,,,,,,,,,,,,,
19476.700000047684,,proceed_actualTask,755935,,,,,,,,proceed_actualTask,1,Continue,,,,,,,,,,,,,,,,,,,,,,,,
23339.5,,last_inst,779276,,,,,,,,last_inst,,,32,,,,,,,,,,,,,,,,,,,,,,,
null,,learn_phase(without_color)1,782790,,,,,,,,black_plus_sign,,,null,object_03a.png,object_11b.png,,,,,,,,,,,,,,,,,,,,,
null,,black_cross(without_color)1,783557,,,,,,,,blue,,,null,object_03a.png,object_11b.png,,,,,,,,,,,,,,,,,,,,,
null,,rt_plussign_withcolor1,784073,,,,,,,,blue,,,null,object_03a.png,object_11b.png,,,,,,,,,,,,,,,,,,,,,
1328.800000011921,,rt_thecrossant_black1,785319,,,,,,,,black_plus_sign,,,49,,,1,,,,,,,1,,,,,,,,,,,,,
null,,color_black1,785422,,,,,,,,black_plus_sign,,,null,,,,,,,,,,,,,,,,,,,,,,,
null,,learn_phase(without_color)1,788925,,,,,,,,black_plus_sign,,,null,object_09b.png,object_04a.png,,,,,,,,,,,,,,,,,,,,,
null,,black_cross(without_color)1,789556,,,,,,,,green,,,null,object_09b.png,object_04a.png,,,,,,,,,,,,,,,,,,,,,
null,,rt_plussign_withcolor1,790065,,,,,,,,green,,,null,object_09b.png,object_04a.png,,,,,,,,,,,,,,,,,,,,,
1107.5,,rt_thecrossant_black1,791459,,,,,,,,black_plus_sign,,,50,,,1,,,,,,,1,,,,,,,,,,,,,
null,,color_black1,791567,,,,,,,,black_plus_sign,,,null,,,,,,,,,,,,,,,,,,,,,,,
null,,learn_phase(without_color)1,795073,,,,,,,,black_plus_sign,,,null,object_06c.png,object_07b.png,,,,,,,,,,,,,,,,,,,,,
null,,black_cross(without_color)1,795865,,,,,,,,blue,,,null,object_06c.png,object_07b.png,,,,,,,,,,,,,,,,,,,,,
null,,rt_plussign_withcolor1,796380,,,,,,,,blue,,,null,object_06c.png,object_07b.png,,,,,,,,,,,,,,,,,,,,,
1215.300000011921,,rt_thecrossant_black1,797600,,,,,,,,black_plus_sign,,,49,,,1,,,,,,,1,,,,,,,,,,,,,
null,,color_black1,797704,,,,,,,,black_plus_sign,,,null,,,,,,,,,,,,,,,,,,,,,,,
null,,learn_phase(without_color)1,801220,,,,,,,,black_plus_sign,,,null,object_08a.png,object_05c.png,,,,,,,,,,,,,,,,,,,,,
null,,black_cross(without_color)1,801968,,,,,,,,blue,,,null,object_08a.png,object_05c.png,,,,,,,,,,,,,,,,,,,,,
null,,rt_plussign_withcolor1,802484,,,,,,,,blue,,,null,object_08a.png,object_05c.png,,,,,,,,,,,,,,,,,,,,,
1208.199999988079,,rt_thecrossant_black1,803753,,,,,,,,black_plus_sign,,,49,,,1,,,,,,,1,,,,,,,,,,,,,
null,,color_black1,803862,,,,,,,,black_plus_sign,,,null,,,,,,,,,,,,,,,,,,,,,,,
null,,learn_phase(without_color)1,807377,,,,,,,,black_plus_sign,,,null,object_11c.png,object_09c.png,,,,,,,,,,,,,,,,,,,,,
null,,black_cross(without_color)1,808116,,,,,,,,green,,,null,object_11c.png,object_09c.png,,,,,,,,,,,,,,,,,,,,,
null,,rt_plussign_withcolor1,808617,,,,,,,,green,,,null,object_11c.png,object_09c.png,,,,,,,,,,,,,,,,,,,,,
1464.2999999523163,,rt_thecrossant_black1,809882,,,,,,,,black_plus_sign,,,50,,,1,,,,,,,1,,,,,,,,,,,,,
null,,color_black1,809995,,,,,,,,black_plus_sign,,,null,,,,,,,,,,,,,,,,,,,,,,,
null,,learn_phase(without_color)1,813502,,,,,,,,black_plus_sign,,,null,object_15b.png,object_06b.png,,,,,,,,,,,,,,,,,,,,,
null,,black_cross(without_color)1,814083,,,,,,,,blue,,,null,object_15b.png,object_06b.png,,,,,,,,,,,,,,,,,,,,,
null,,rt_plussign_withcolor1,814585,,,,,,,,blue,,,null,object_15b.png,object_06b.png,,,,,,,,,,,,,,,,,,,,,
1467.800000011921,,rt_thecrossant_black1,816027,,,,,,,,black_plus_sign,,,49,,,1,,,,,,,1,,,,,,,,,,,,,
null,,color_black1,816135,,,,,,,,black_plus_sign,,,null,,,,,,,,,,,,,,,,,,,,,,,
null,,learn_phase(without_color)1,819652,,,,,,,,black_plus_sign,,,null,object_14a.png,object_01a.png,,,,,,,,,,,,,,,,,,,,,
null,,black_cross(without_color)1,820650,,,,,,,,green,,,null,object_14a.png,object_01a.png,,,,,,,,,,,,,,,,,,,,,
null,,rt_plussign_withcolor1,821158,,,,,,,,green,,,null,object_14a.png,object_01a.png,,,,,,,,,,,,,,,,,,,,,
1234.4000000357628,,rt_thecrossant_black1,822185,,,,,,,,black_plus_sign,,,50,,,1,,,,,,,1,,,,,,,,,,,,,
null,,color_black1,822287,,,,,,,,black_plus_sign,,,null,,,,,,,,,,,,,,,,,,,,,,,
null,,learn_phase(without_color)1,825790,,,,,,,,black_plus_sign,,,null,object_11b.png,object_06a.png,,,,,,,,,,,,,,,,,,,,,
null,,black_cross(without_color)1,826408,,,,,,,,blue,,,null,object_11b.png,object_06a.png,,,,,,,,,,,,,,,,,,,,,
null,,rt_plussign_withcolor1,826909,,,,,,,,blue,,,null,object_11b.png,object_06a.png,,,,,,,,,,,,,,,,,,,,,
1365.699999988079,,rt_thecrossant_black1,828309,,,,,,,,black_plus_sign,,,49,,,1,,,,,,,1,,,,,,,,,,,,,
null,,color_black1,828414,,,,,,,,black_plus_sign,,,null,,,,,,,,,,,,,,,,,,,,,,,
null,,learn_phase(without_color)1,831929,,,,,,,,black_plus_sign,,,null,object_15c.png,object_11a.png,,,,,,,,,,,,,,,,,,,,,
null,,black_cross(without_color)1,832451,,,,,,,,blue,,,null,object_15c.png,object_11a.png,,,,,,,,,,,,,,,,,,,,,
null,,rt_plussign_withcolor1,832953,,,,,,,,blue,,,null,object_15c.png,object_11a.png,,,,,,,,,,,,,,,,,,,,,
1445.1000000238419,,rt_thecrossant_black1,834439,,,,,,,,black_plus_sign,,,50,,,0,,,,,,,0.8888888888888888,,,,,,,,,,,,,
null,,color_black1,834548,,,,,,,,black_plus_sign,,,null,,,,,,,,,,,,,,,,,,,,,,,
null,,learn_phase(without_color)1,838064,,,,,,,,black_plus_sign,,,null,object_10a.png,object_08b.png,,,,,,,,,,,,,,,,,,,,,
null,,black_cross(without_color)1,839000,,,,,,,,green,,,null,object_10a.png,object_08b.png,,,,,,,,,,,,,,,,,,,,,
null,,rt_plussign_withcolor1,839515,,,,,,,,green,,,null,object_10a.png,object_08b.png,,,,,,,,,,,,,,,,,,,,,
672.3999999761581,,rt_thecrossant_black1,840591,,,,,,,,black_plus_sign,,,50,,,1,,,,,,,0.9,,,,,,,,,,,,,
null,,color_black1,840701,,,,,,,,black_plus_sign,,,null,,,,,,,,,,,,,,,,,,,,,,,
null,,learn_phase(without_color)1,844208,,,,,,,,black_plus_sign,,,null,object_13c.png,object_03c.png,,,,,,,,,,,,,,,,,,,,,
null,,black_cross(without_color)1,844822,,,,,,,,blue,,,null,object_13c.png,object_03c.png,,,,,,,,,,,,,,,,,,,,,
null,,rt_plussign_withcolor1,845323,,,,,,,,blue,,,null,object_13c.png,object_03c.png,,,,,,,,,,,,,,,,,,,,,
1431.8999999761581,,rt_thecrossant_black1,846730,,,,,,,,black_plus_sign,,,49,,,1,,,,,,,0.9090909090909091,,,,,,,,,,,,,
null,,color_black1,846843,,,,,,,,black_plus_sign,,,null,,,,,,,,,,,,,,,,,,,,,,,
null,,learn_phase(without_color)1,850355,,,,,,,,black_plus_sign,,,null,object_04b.png,object_07a.png,,,,,,,,,,,,,,,,,,,,,
null,,black_cross(without_color)1,850799,,,,,,,,blue,,,null,object_04b.png,object_07a.png,,,,,,,,,,,,,,,,,,,,,
null,,rt_plussign_withcolor1,851313,,,,,,,,blue,,,null,object_04b.png,object_07a.png,,,,,,,,,,,,,,,,,,,,,
1433.9000000357628,,rt_thecrossant_black1,852901,,,,,,,,black_plus_sign,,,49,,,1,,,,,,,0.9166666666666666,,,,,,,,,,,,,
null,,color_black1,853004,,,,,,,,black_plus_sign,,,null,,,,,,,,,,,,,,,,,,,,,,,
null,,learn_phase(without_color)1,856512,,,,,,,,black_plus_sign,,,null,object_02c.png,object_09a.png,,,,,,,,,,,,,,,,,,,,,
null,,black_cross(without_color)1,857211,,,,,,,,blue,,,null,object_02c.png,object_09a.png,,,,,,,,,,,,,,,,,,,,,
null,,rt_plussign_withcolor1,857718,,,,,,,,blue,,,null,object_02c.png,object_09a.png,,,,,,,,,,,,,,,,,,,,,
null,,rt_thecrossant_black1,859031,,,,,,,,black_plus_sign,,,null,,,,,,,,,,0.9166666666666666,,,,,,,,,,,,,
null,,color_black1,859139,,,,,,,,black_plus_sign,,,null,,,,,,,,,,,,,,,,,,,,,,,
null,,learn_phase(without_color)1,862654,,,,,,,,black_plus_sign,,,null,object_02a.png,object_11c.png,,,,,,,,,,,,,,,,,,,,,
null,,black_cross(without_color)1,863575,,,,,,,,green,,,null,object_02a.png,object_11c.png,,,,,,,,,,,,,,,,,,,,,
499.5,,rt_plussign_withcolor1,864076,,,,,,,,green,,,50,object_02a.png,object_11c.png,,,,,,,,,,,,,,,,,,,,,
null,,rt_thecrossant_black1,865169,,,,,,,,black_plus_sign,,,null,,,1,,,,,,,0.9230769230769231,,,,,,,,,,,,,
null,,color_black1,865278,,,,,,,,black_plus_sign,,,null,,,,,,,,,,,,,,,,,,,,,,,
null,,learn_phase(without_color)1,868794,,,,,,,,black_plus_sign,,,null,object_05b.png,object_09b.png,,,,,,,,,,,,,,,,,,,,,
null,,black_cross(without_color)1,869409,,,,,,,,green,,,null,object_05b.png,object_09b.png,,,,,,,,,,,,,,,,,,,,,
null,,rt_plussign_withcolor1,869917,,,,,,,,green,,,null,object_05b.png,object_09b.png,,,,,,,,,,,,,,,,,,,,,
1458.5,,rt_thecrossant_black1,871328,,,,,,,,black_plus_sign,,,50,,,1,,,,,,,0.9285714285714286,,,,,,,,,,,,,
null,,color_black1,871436,,,,,,,,black_plus_sign,,,null,,,,,,,,,,,,,,,,,,,,,,,
null,,learn_phase(without_color)1,874948,,,,,,,,black_plus_sign,,,null,object_15a.png,object_13c.png,,,,,,,,,,,,,,,,,,,,,
null,,black_cross(without_color)1,875654,,,,,,,,blue,,,null,object_15a.png,object_13c.png,,,,,,,,,,,,,,,,,,,,,
null,,rt_plussign_withcolor1,876158,,,,,,,,blue,,,null,object_15a.png,object_13c.png,,,,,,,,,,,,,,,,,,,,,
1234.300000011921,,rt_thecrossant_black1,877469,,,,,,,,black_plus_sign,,,49,,,1,,,,,,,0.9333333333333333,,,,,,,,,,,,,
null,,color_black1,877572,,,,,,,,black_plus_sign,,,null,,,,,,,,,,,,,,,,,,,,,,,
null,,learn_phase(without_color)1,881084,,,,,,,,black_plus_sign,,,null,object_12a.png,object_07b.png,,,,,,,,,,,,,,,,,,,,,
null,,black_cross(without_color)1,882100,,,,,,,,blue,,,null,object_12a.png,object_07b.png,,,,,,,,,,,,,,,,,,,,,
null,,rt_plussign_withcolor1,882609,,,,,,,,blue,,,null,object_12a.png,object_07b.png,,,,,,,,,,,,,,,,,,,,,
1260.300000011921,,rt_thecrossant_black1,883606,,,,,,,,black_plus_sign,,,49,,,1,,,,,,,0.9375,,,,,,,,,,,,,
null,,color_black1,883715,,,,,,,,black_plus_sign,,,null,,,,,,,,,,,,,,,,,,,,,,,
null,,learn_phase(without_color)1,887231,,,,,,,,black_plus_sign,,,null,object_08b.png,object_03b.png,,,,,,,,,,,,,,,,,,,,,
null,,black_cross(without_color)1,887777,,,,,,,,green,,,null,object_08b.png,object_03b.png,,,,,,,,,,,,,,,,,,,,,
null,,rt_plussign_withcolor1,888286,,,,,,,,green,,,null,object_08b.png,object_03b.png,,,,,,,,,,,,,,,,,,,,,
1527.9000000357628,,rt_thecrossant_black1,889760,,,,,,,,black_plus_sign,,,50,,,1,,,,,,,0.9411764705882353,,,,,,,,,,,,,
null,,color_black1,889873,,,,,,,,black_plus_sign,,,null,,,,,,,,,,,,,,,,,,,,,,,
null,,learn_phase(without_color)1,893389,,,,,,,,black_plus_sign,,,null,object_10c.png,object_14b.png,,,,,,,,,,,,,,,,,,,,,
null,,black_cross(without_color)1,893863,,,,,,,,green,,,null,object_10c.png,object_14b.png,,,,,,,,,,,,,,,,,,,,,
null,,rt_plussign_withcolor1,894374,,,,,,,,green,,,null,object_10c.png,object_14b.png,,,,,,,,,,,,,,,,,,,,,
946,,rt_thecrossant_black1,895920,,,,,,,,black_plus_sign,,,50,,,1,,,,,,,0.9444444444444444,,,,,,,,,,,,,
null,,color_black1,896028,,,,,,,,black_plus_sign,,,null,,,,,,,,,,,,,,,,,,,,,,,
null,,learn_phase(without_color)1,899532,,,,,,,,black_plus_sign,,,null,object_04b.png,object_14c.png,,,,,,,,,,,,,,,,,,,,,
null,,black_cross(without_color)1,900285,,,,,,,,green,,,null,object_04b.png,object_14c.png,,,,,,,,,,,,,,,,,,,,,
null,,rt_plussign_withcolor1,900798,,,,,,,,green,,,null,object_04b.png,object_14c.png,,,,,,,,,,,,,,,,,,,,,
948.1000000238419,,rt_thecrossant_black1,902051,,,,,,,,black_plus_sign,,,50,,,1,,,,,,,0.9473684210526315,,,,,,,,,,,,,
null,,color_black1,902163,,,,,,,,black_plus_sign,,,null,,,,,,,,,,,,,,,,,,,,,,,
null,,learn_phase(without_color)1,905679,,,,,,,,black_plus_sign,,,null,object_13a.png,object_10b.png,,,,,,,,,,,,,,,,,,,,,
null,,black_cross(without_color)1,906516,,,,,,,,blue,,,null,object_13a.png,object_10b.png,,,,,,,,,,,,,,,,,,,,,
null,,rt_plussign_withcolor1,907027,,,,,,,,blue,,,null,object_13a.png,object_10b.png,,,,,,,,,,,,,,,,,,,,,
1327.800000011921,,rt_thecrossant_black1,908207,,,,,,,,black_plus_sign,,,49,,,1,,,,,,,0.95,,,,,,,,,,,,,
null,,color_black1,908324,,,,,,,,black_plus_sign,,,null,,,,,,,,,,,,,,,,,,,,,,,
null,,learn_phase(without_color)1,911831,,,,,,,,black_plus_sign,,,null,object_12c.png,object_12b.png,,,,,,,,,,,,,,,,,,,,,
null,,black_cross(without_color)1,912835,,,,,,,,green,,,null,object_12c.png,object_12b.png,,,,,,,,,,,,,,,,,,,,,
null,,rt_plussign_withcolor1,913340,,,,,,,,green,,,null,object_12c.png,object_12b.png,,,,,,,,,,,,,,,,,,,,,
1147,,rt_thecrossant_black1,914345,,,,,,,,black_plus_sign,,,50,,,1,,,,,,,0.9523809523809523,,,,,,,,,,,,,
null,,color_black1,914456,,,,,,,,black_plus_sign,,,null,,,,,,,,,,,,,,,,,,,,,,,
null,,learn_phase(without_color)1,917959,,,,,,,,black_plus_sign,,,null,object_04c.png,object_09a.png,,,,,,,,,,,,,,,,,,,,,
null,,black_cross(without_color)1,918385,,,,,,,,blue,,,null,object_04c.png,object_09a.png,,,,,,,,,,,,,,,,,,,,,
null,,rt_plussign_withcolor1,918897,,,,,,,,blue,,,null,object_04c.png,object_09a.png,,,,,,,,,,,,,,,,,,,,,
1574.199999988079,,rt_thecrossant_black1,920487,,,,,,,,black_plus_sign,,,49,,,1,,,,,,,0.9545454545454546,,,,,,,,,,,,,
null,,color_black1,920595,,,,,,,,black_plus_sign,,,null,,,,,,,,,,,,,,,,,,,,,,,
null,,learn_phase(without_color)1,924109,,,,,,,,black_plus_sign,,,null,object_05a.png,object_13a.png,,,,,,,,,,,,,,,,,,,,,
null,,black_cross(without_color)1,925029,,,,,,,,green,,,null,object_05a.png,object_13a.png,,,,,,,,,,,,,,,,,,,,,
null,,rt_plussign_withcolor1,925533,,,,,,,,green,,,null,object_05a.png,object_13a.png,,,,,,,,,,,,,,,,,,,,,
1460.5,,rt_thecrossant_black1,926623,,,,,,,,black_plus_sign,,,50,,,1,,,,,,,0.9565217391304348,,,,,,,,,,,,,
null,,color_black1,926730,,,,,,,,black_plus_sign,,,null,,,,,,,,,,,,,,,,,,,,,,,
null,,learn_phase(without_color)1,930241,,,,,,,,black_plus_sign,,,null,object_02b.png,object_12c.png,,,,,,,,,,,,,,,,,,,,,
null,,black_cross(without_color)1,931049,,,,,,,,blue,,,null,object_02b.png,object_12c.png,,,,,,,,,,,,,,,,,,,,,
null,,rt_plussign_withcolor1,931558,,,,,,,,blue,,,null,object_02b.png,object_12c.png,,,,,,,,,,,,,,,,,,,,,
1311,,rt_thecrossant_black1,932764,,,,,,,,black_plus_sign,,,49,,,1,,,,,,,0.9583333333333334,,,,,,,,,,,,,
null,,color_black1,932878,,,,,,,,black_plus_sign,,,null,,,,,,,,,,,,,,,,,,,,,,,
null,,learn_phase(without_color)1,936390,,,,,,,,black_plus_sign,,,null,object_13b.png,object_14a.png,,,,,,,,,,,,,,,,,,,,,
null,,black_cross(without_color)1,937132,,,,,,,,green,,,null,object_13b.png,object_14a.png,,,,,,,,,,,,,,,,,,,,,
null,,rt_plussign_withcolor1,937634,,,,,,,,green,,,null,object_13b.png,object_14a.png,,,,,,,,,,,,,,,,,,,,,
1706.8999999761581,,rt_thecrossant_black1,938919,,,,,,,,black_plus_sign,,,50,,,1,,,,,,,0.96,,,,,,,,,,,,,
null,,color_black1,939021,,,,,,,,black_plus_sign,,,null,,,,,,,,,,,,,,,,,,,,,,,
null,,learn_phase(without_color)1,942527,,,,,,,,black_plus_sign,,,null,object_10c.png,object_07c.png,,,,,,,,,,,,,,,,,,,,,
null,,black_cross(without_color)1,943444,,,,,,,,green,,,null,object_10c.png,object_07c.png,,,,,,,,,,,,,,,,,,,,,
null,,rt_plussign_withcolor1,943947,,,,,,,,green,,,null,object_10c.png,object_07c.png,,,,,,,,,,,,,,,,,,,,,
1374.0999999642372,,rt_thecrossant_black1,945051,,,,,,,,black_plus_sign,,,50,,,1,,,,,,,0.9615384615384616,,,,,,,,,,,,,
null,,color_black1,945159,,,,,,,,black_plus_sign,,,null,,,,,,,,,,,,,,,,,,,,,,,
null,,learn_phase(without_color)1,948663,,,,,,,,black_plus_sign,,,null,object_05c.png,object_08c.png,,,,,,,,,,,,,,,,,,,,,
null,,black_cross(without_color)1,949308,,,,,,,,green,,,null,object_05c.png,object_08c.png,,,,,,,,,,,,,,,,,,,,,
null,,rt_plussign_withcolor1,949817,,,,,,,,green,,,null,object_05c.png,object_08c.png,,,,,,,,,,,,,,,,,,,,,
1389.8999999761581,,rt_thecrossant_black1,951204,,,,,,,,black_plus_sign,,,50,,,1,,,,,,,0.9629629629629629,,,,,,,,,,,,,
null,,color_black1,951312,,,,,,,,black_plus_sign,,,null,,,,,,,,,,,,,,,,,,,,,,,
null,,learn_phase(without_color)1,954822,,,,,,,,black_plus_sign,,,null,object_01c.png,object_15c.png,,,,,,,,,,,,,,,,,,,,,
null,,black_cross(without_color)1,955584,,,,,,,,blue,,,null,object_01c.png,object_15c.png,,,,,,,,,,,,,,,,,,,,,
null,,rt_plussign_withcolor1,956100,,,,,,,,blue,,,null,object_01c.png,object_15c.png,,,,,,,,,,,,,,,,,,,,,
1210.8999999761581,,rt_thecrossant_black1,957353,,,,,,,,black_plus_sign,,,49,,,1,,,,,,,0.9642857142857143,,,,,,,,,,,,,
null,,color_black1,957463,,,,,,,,black_plus_sign,,,null,,,,,,,,,,,,,,,,,,,,,,,
null,,learn_phase(without_color)1,960970,,,,,,,,black_plus_sign,,,null,object_15b.png,object_01b.png,,,,,,,,,,,,,,,,,,,,,
null,,black_cross(without_color)1,962060,,,,,,,,blue,,,null,object_15b.png,object_01b.png,,,,,,,,,,,,,,,,,,,,,
null,,rt_plussign_withcolor1,962569,,,,,,,,blue,,,null,object_15b.png,object_01b.png,,,,,,,,,,,,,,,,,,,,,
1295.699999988079,,rt_thecrossant_black1,963506,,,,,,,,black_plus_sign,,,49,,,1,,,,,,,0.9655172413793104,,,,,,,,,,,,,
null,,color_black1,963616,,,,,,,,black_plus_sign,,,null,,,,,,,,,,,,,,,,,,,,,,,
null,,thebreak,963732,,,,,,,,<p></p>,,,null,,,,,,,,,,,,,,,,,,,,,,,
2916,,intro_0,966649,,,,,,,,instruct,,,32,,,,,,,,,,,,,,,,,,,,,,,
6373.599999964237,,directmemory_phase1,973024,,,,,,,,object_05b.png,,,49,,,0,,object_13c.png,object_06a.png,object_09b.png,object_09b.png,,0,,0,,,,,,,,,,,
3667.699999988079,,directmemory_phase1,976694,,,,,,,,object_04a.png,,,51,,,1,,object_11c.png,object_08c.png,object_09b.png,object_09b.png,,0.5,,1,,,,,,,,,,,
5445.800000011921,,directmemory_phase1,982142,,,,,,,,object_09a.png,,,50,,,0,,object_02c.png,object_14b.png,object_15b.png,object_02c.png,,0.3333333333333333,,0,,,,,,,,,,,
5271,,directmemory_phase1,987415,,,,,,,,object_15a.png,,,49,,,1,,object_13c.png,object_08b.png,object_05a.png,object_13c.png,,0.5,,1,,,,,,,,,,,
3119.600000023842,,directmemory_phase1,990537,,,,,,,,object_06a.png,,,49,,,0,,object_11c.png,object_05b.png,object_11b.png,object_11b.png,,0.4,,0,,,,,,,,,,,
6004.600000023842,,directmemory_phase1,996543,,,,,,,,object_11c.png,,,49,,,0,,object_14a.png,object_02a.png,object_02c.png,object_02a.png,,0.3333333333333333,,0,,,,,,,,,,,
3750.800000011921,,directmemory_phase1,1000296,,,,,,,,object_01a.png,,,51,,,1,,object_09b.png,object_08c.png,object_14a.png,object_14a.png,,0.42857142857142855,,1,,,,,,,,,,,
3098.7000000476837,,directmemory_phase1,1003397,,,,,,,,object_13b.png,,,50,,,0,,object_14a.png,object_15c.png,object_11a.png,object_14a.png,,0.375,,0,,,,,,,,,,,
2326.199999988079,,directmemory_phase1,1005725,,,,,,,,object_14b.png,,,49,,,1,,object_10c.png,object_13a.png,object_01c.png,object_10c.png,,0.4444444444444444,,1,,,,,,,,,,,
3805.300000011921,,directmemory_phase1,1009532,,,,,,,,object_03a.png,,,51,,,1,,object_08b.png,object_15a.png,object_11b.png,object_11b.png,,0.5,,1,,,,,,,,,,,
4723.699999988079,,directmemory_phase1,1014258,,,,,,,,object_11a.png,,,51,,,0,,object_15c.png,object_13a.png,object_12b.png,object_15c.png,,0.45454545454545453,,0,,,,,,,,,,,
3718.400000035763,,directmemory_phase1,1017978,,,,,,,,object_05c.png,,,50,,,0,,object_15a.png,object_15c.png,object_08c.png,object_08c.png,,0.4166666666666667,,0,,,,,,,,,,,
4836.5,,directmemory_phase1,1022817,,,,,,,,object_04b.png,,,49,,,1,,object_14c.png,object_15a.png,object_12c.png,object_14c.png,,0.46153846153846156,,1,,,,,,,,,,,
5116.400000035763,,directmemory_phase1,1027935,,,,,,,,object_04c.png,,,51,,,0,,object_11a.png,object_09a.png,object_15b.png,object_09a.png,,0.42857142857142855,,0,,,,,,,,,,,
5425.5,,directmemory_phase1,1033363,,,,,,,,object_05a.png,,,49,,,0,,object_13c.png,object_02b.png,object_13a.png,object_13a.png,,0.4,,0,,,,,,,,,,,
4648.299999952316,,directmemory_phase1,1038013,,,,,,,,object_15c.png,,,50,,,0,,object_02b.png,object_05c.png,object_01c.png,object_01c.png,,0.375,,0,,,,,,,,,,,
3881.600000023842,,directmemory_phase1,1041896,,,,,,,,object_15b.png,,,49,,,0,,object_03b.png,object_14a.png,object_06b.png,object_06b.png,,0.35294117647058826,,0,,,,,,,,,,,
5128.300000011921,,directmemory_phase1,1047027,,,,,,,,object_10b.png,,,51,,,0,,object_07a.png,object_13a.png,object_11c.png,object_13a.png,,0.3333333333333333,,0,,,,,,,,,,,
4942,,directmemory_phase1,1051971,,,,,,,,object_06c.png,,,49,,,0,,object_08a.png,object_07b.png,object_13c.png,object_07b.png,,0.3157894736842105,,0,,,,,,,,,,,
2628.300000011921,,directmemory_phase1,1054601,,,,,,,,object_12a.png,,,51,,,1,,object_14a.png,object_01c.png,object_07b.png,object_07b.png,,0.35,,1,,,,,,,,,,,
4288.899999976158,,directmemory_phase1,1058892,,,,,,,,object_07a.png,,,51,,,0,,object_04b.png,object_13a.png,object_10b.png,object_04b.png,,0.3333333333333333,,0,,,,,,,,,,,
2933.100000023842,,directmemory_phase1,1061827,,,,,,,,object_03c.png,,,50,,,0,,object_08b.png,object_05b.png,object_13c.png,object_13c.png,,0.3181818181818182,,0,,,,,,,,,,,
3444,,directmemory_phase1,1065273,,,,,,,,object_07c.png,,,49,,,0,,object_04b.png,object_12b.png,object_10c.png,object_10c.png,,0.30434782608695654,,0,,,,,,,,,,,
5648.699999988079,,directmemory_phase1,1070924,,,,,,,,object_12b.png,,,50,,,0,,object_12c.png,object_04b.png,object_06a.png,object_12c.png,,0.2916666666666667,,0,,,,,,,,,,,
1877.0999999642372,,directmemory_phase1,1072803,,,,,,,,object_10a.png,,,51,,,0,,object_12b.png,object_08b.png,object_05c.png,object_08b.png,,0.28,,0,,,,,,,,,,,
5956.399999976158,,directmemory_phase1,1078761,,,,,,,,object_01b.png,,,49,,,1,,object_15b.png,object_09a.png,object_08a.png,object_15b.png,,0.3076923076923077,,1,,,,,,,,,,,
2187.899999976158,,directmemory_phase1,1080951,,,,,,,,object_08a.png,,,51,,,1,,object_14a.png,object_05b.png,object_05c.png,object_05c.png,,0.3333333333333333,,1,,,,,,,,,,,
4463.599999964237,,directmemory_phase1,1085416,,,,,,,,object_02b.png,,,50,,,0,,object_12c.png,object_11c.png,object_15a.png,object_12c.png,,0.32142857142857145,,0,,,,,,,,,,,
3287.5,,directmemory_phase1,1088706,,,,,,,,object_09c.png,,,51,,,0,,object_11c.png,object_09b.png,object_01b.png,object_11c.png,,0.3103448275862069,,0,,,,,,,,,,,
6817.600000023842,,directmemory_phase1,1095526,,,,,,,,object_08b.png,,,51,,,1,,object_05a.png,object_09a.png,object_03b.png,object_03b.png,,0.3333333333333333,,1,,,,,,,,,,,
null,,thebreak,1095642,,,,,,,,<p></p>,,,null,,,,,,,,,,,,,,,,,,,,,,,
2401.199999988079,,intro_0,1098044,,,,,,,,instruct,,,32,,,,,,,,,,,,,,,,,,,,,,,
null,,learn_phase(without_color)2,1101550,,,,,,,,black_plus_sign,,,null,object_02b.png,object_12c.png,,,,,,,,,,,,,,,,,,,,,
null,,black_cross(without_color)2,1102103,,,,,,,,blue,,,null,object_02b.png,object_12c.png,,,,,,,,,,,,,,,,,,,,,
null,,rt_plussign_withcolor2,1102606,,,,,,,,blue,,,null,object_02b.png,object_12c.png,,,,,,,,,,,,,,,,,,,,,
2078.800000011921,,rt_thecrossant_black2,1104060,,,,,,,,black_plus_sign,,,49,,,1,,,,,,,1,,,,,,,,,,,,,
null,,color_black2,1104174,,,,,,,,black_plus_sign,,,null,,,,,,,,,,,,,,,,,,,,,,,
null,,learn_phase(without_color)2,1107680,,,,,,,,black_plus_sign,,,null,object_05b.png,object_09b.png,,,,,,,,,,,,,,,,,,,,,
null,,black_cross(without_color)2,1108173,,,,,,,,blue,,,null,object_05b.png,object_09b.png,,,,,,,,,,,,,,,,,,,,,
null,,rt_plussign_withcolor2,1108687,,,,,,,,blue,,,null,object_05b.png,object_09b.png,,,,,,,,,,,,,,,,,,,,,
1467,,rt_thecrossant_black2,1110223,,,,,,,,black_plus_sign,,,49,,,1,,,,,,,1,,,,,,,,,,,,,
null,,color_black2,1110335,,,,,,,,black_plus_sign,,,null,,,,,,,,,,,,,,,,,,,,,,,
null,,learn_phase(without_color)2,1113842,,,,,,,,black_plus_sign,,,null,object_10c.png,object_14b.png,,,,,,,,,,,,,,,,,,,,,
null,,black_cross(without_color)2,1114423,,,,,,,,blue,,,null,object_10c.png,object_14b.png,,,,,,,,,,,,,,,,,,,,,
null,,rt_plussign_withcolor2,1114939,,,,,,,,blue,,,null,object_10c.png,object_14b.png,,,,,,,,,,,,,,,,,,,,,
1519.800000011921,,rt_thecrossant_black2,1116375,,,,,,,,black_plus_sign,,,49,,,1,,,,,,,1,,,,,,,,,,,,,
null,,color_black2,1116482,,,,,,,,black_plus_sign,,,null,,,,,,,,,,,,,,,,,,,,,,,
null,,learn_phase(without_color)2,1119985,,,,,,,,black_plus_sign,,,null,object_04a.png,object_09b.png,,,,,,,,,,,,,,,,,,,,,
null,,black_cross(without_color)2,1120600,,,,,,,,blue,,,null,object_04a.png,object_09b.png,,,,,,,,,,,,,,,,,,,,,
null,,rt_plussign_withcolor2,1121114,,,,,,,,blue,,,null,object_04a.png,object_09b.png,,,,,,,,,,,,,,,,,,,,,
1019.6999999880791,,rt_thecrossant_black2,1122505,,,,,,,,black_plus_sign,,,49,,,1,,,,,,,1,,,,,,,,,,,,,
null,,color_black2,1122614,,,,,,,,black_plus_sign,,,null,,,,,,,,,,,,,,,,,,,,,,,
null,,learn_phase(without_color)2,1126122,,,,,,,,black_plus_sign,,,null,object_04b.png,object_14c.png,,,,,,,,,,,,,,,,,,,,,
null,,black_cross(without_color)2,1126840,,,,,,,,green,,,null,object_04b.png,object_14c.png,,,,,,,,,,,,,,,,,,,,,
null,,rt_plussign_withcolor2,1127349,,,,,,,,green,,,null,object_04b.png,object_14c.png,,,,,,,,,,,,,,,,,,,,,
1104.800000011921,,rt_thecrossant_black2,1128648,,,,,,,,black_plus_sign,,,50,,,1,,,,,,,1,,,,,,,,,,,,,
null,,color_black2,1128757,,,,,,,,black_plus_sign,,,null,,,,,,,,,,,,,,,,,,,,,,,
null,,learn_phase(without_color)2,1132271,,,,,,,,black_plus_sign,,,null,object_12b.png,object_12c.png,,,,,,,,,,,,,,,,,,,,,
null,,black_cross(without_color)2,1133106,,,,,,,,green,,,null,object_12b.png,object_12c.png,,,,,,,,,,,,,,,,,,,,,
null,,rt_plussign_withcolor2,1133614,,,,,,,,green,,,null,object_12b.png,object_12c.png,,,,,,,,,,,,,,,,,,,,,
1573.6000000238419,,rt_thecrossant_black2,1134786,,,,,,,,black_plus_sign,,,50,,,1,,,,,,,1,,,,,,,,,,,,,
null,,color_black2,1134897,,,,,,,,black_plus_sign,,,null,,,,,,,,,,,,,,,,,,,,,,,
null,,learn_phase(without_color)2,1138410,,,,,,,,black_plus_sign,,,null,object_12a.png,object_07b.png,,,,,,,,,,,,,,,,,,,,,
null,,black_cross(without_color)2,1139419,,,,,,,,green,,,null,object_12a.png,object_07b.png,,,,,,,,,,,,,,,,,,,,,
499.69999998807907,,rt_plussign_withcolor2,1139920,,,,,,,,green,,,50,object_12a.png,object_07b.png,,,,,,,,,,,,,,,,,,,,,
null,,rt_thecrossant_black2,1140935,,,,,,,,black_plus_sign,,,null,,,1,,,,,,,1,,,,,,,,,,,,,
null,,color_black2,1141043,,,,,,,,black_plus_sign,,,null,,,,,,,,,,,,,,,,,,,,,,,
null,,learn_phase(without_color)2,1144557,,,,,,,,black_plus_sign,,,null,object_03a.png,object_11b.png,,,,,,,,,,,,,,,,,,,,,
null,,black_cross(without_color)2,1145072,,,,,,,,blue,,,null,object_03a.png,object_11b.png,,,,,,,,,,,,,,,,,,,,,
null,,rt_plussign_withcolor2,1145576,,,,,,,,blue,,,null,object_03a.png,object_11b.png,,,,,,,,,,,,,,,,,,,,,
1614.0999999642372,,rt_thecrossant_black2,1147089,,,,,,,,black_plus_sign,,,49,,,1,,,,,,,1,,,,,,,,,,,,,
null,,color_black2,1147198,,,,,,,,black_plus_sign,,,null,,,,,,,,,,,,,,,,,,,,,,,
null,,learn_phase(without_color)2,1150712,,,,,,,,black_plus_sign,,,null,object_08c.png,object_05c.png,,,,,,,,,,,,,,,,,,,,,
null,,black_cross(without_color)2,1151224,,,,,,,,green,,,null,object_08c.png,object_05c.png,,,,,,,,,,,,,,,,,,,,,
null,,rt_plussign_withcolor2,1151730,,,,,,,,green,,,null,object_08c.png,object_05c.png,,,,,,,,,,,,,,,,,,,,,
1022.7000000476837,,rt_thecrossant_black2,1153224,,,,,,,,black_plus_sign,,,50,,,1,,,,,,,1,,,,,,,,,,,,,
null,,color_black2,1153338,,,,,,,,black_plus_sign,,,null,,,,,,,,,,,,,,,,,,,,,,,
null,,learn_phase(without_color)2,1156843,,,,,,,,black_plus_sign,,,null,object_04c.png,object_09a.png,,,,,,,,,,,,,,,,,,,,,
null,,black_cross(without_color)2,1157675,,,,,,,,green,,,null,object_04c.png,object_09a.png,,,,,,,,,,,,,,,,,,,,,
null,,rt_plussign_withcolor2,1158190,,,,,,,,green,,,null,object_04c.png,object_09a.png,,,,,,,,,,,,,,,,,,,,,
1292.2999999523163,,rt_thecrossant_black2,1159375,,,,,,,,black_plus_sign,,,50,,,1,,,,,,,1,,,,,,,,,,,,,
null,,color_black2,1159482,,,,,,,,black_plus_sign,,,null,,,,,,,,,,,,,,,,,,,,,,,
null,,learn_phase(without_color)2,1162997,,,,,,,,black_plus_sign,,,null,object_15b.png,object_06b.png,,,,,,,,,,,,,,,,,,,,,
null,,black_cross(without_color)2,1163728,,,,,,,,green,,,null,object_15b.png,object_06b.png,,,,,,,,,,,,,,,,,,,,,
null,,rt_plussign_withcolor2,1164241,,,,,,,,green,,,null,object_15b.png,object_06b.png,,,,,,,,,,,,,,,,,,,,,
1752.8999999761581,,rt_thecrossant_black2,1165520,,,,,,,,black_plus_sign,,,50,,,1,,,,,,,1,,,,,,,,,,,,,
null,,color_black2,1165631,,,,,,,,black_plus_sign,,,null,,,,,,,,,,,,,,,,,,,,,,,
null,,learn_phase(without_color)2,1169146,,,,,,,,black_plus_sign,,,null,object_02c.png,object_09a.png,,,,,,,,,,,,,,,,,,,,,
null,,black_cross(without_color)2,1169738,,,,,,,,green,,,null,object_02c.png,object_09a.png,,,,,,,,,,,,,,,,,,,,,
null,,rt_plussign_withcolor2,1170240,,,,,,,,green,,,null,object_02c.png,object_09a.png,,,,,,,,,,,,,,,,,,,,,
1309.199999988079,,rt_thecrossant_black2,1171659,,,,,,,,black_plus_sign,,,50,,,1,,,,,,,1,,,,,,,,,,,,,
null,,color_black2,1171767,,,,,,,,black_plus_sign,,,null,,,,,,,,,,,,,,,,,,,,,,,
null,,learn_phase(without_color)2,1175273,,,,,,,,black_plus_sign,,,null,object_07a.png,object_04b.png,,,,,,,,,,,,,,,,,,,,,
null,,black_cross(without_color)2,1176361,,,,,,,,blue,,,null,object_07a.png,object_04b.png,,,,,,,,,,,,,,,,,,,,,
null,,rt_plussign_withcolor2,1176869,,,,,,,,blue,,,null,object_07a.png,object_04b.png,,,,,,,,,,,,,,,,,,,,,
984.6999999880791,,rt_thecrossant_black2,1177794,,,,,,,,black_plus_sign,,,49,,,1,,,,,,,1,,,,,,,,,,,,,
null,,color_black2,1177903,,,,,,,,black_plus_sign,,,null,,,,,,,,,,,,,,,,,,,,,,,
null,,learn_phase(without_color)2,1181412,,,,,,,,black_plus_sign,,,null,object_15b.png,object_01b.png,,,,,,,,,,,,,,,,,,,,,
null,,black_cross(without_color)2,1182072,,,,,,,,blue,,,null,object_15b.png,object_01b.png,,,,,,,,,,,,,,,,,,,,,
null,,rt_plussign_withcolor2,1182578,,,,,,,,blue,,,null,object_15b.png,object_01b.png,,,,,,,,,,,,,,,,,,,,,
1744.800000011921,,rt_thecrossant_black2,1183938,,,,,,,,black_plus_sign,,,49,,,1,,,,,,,1,,,,,,,,,,,,,
null,,color_black2,1184047,,,,,,,,black_plus_sign,,,null,,,,,,,,,,,,,,,,,,,,,,,
null,,learn_phase(without_color)2,1187558,,,,,,,,black_plus_sign,,,null,object_08b.png,object_10a.png,,,,,,,,,,,,,,,,,,,,,
null,,black_cross(without_color)2,1188275,,,,,,,,green,,,null,object_08b.png,object_10a.png,,,,,,,,,,,,,,,,,,,,,
null,,rt_plussign_withcolor2,1188788,,,,,,,,green,,,null,object_08b.png,object_10a.png,,,,,,,,,,,,,,,,,,,,,
1148.5,,rt_thecrossant_black2,1190081,,,,,,,,black_plus_sign,,,50,,,1,,,,,,,1,,,,,,,,,,,,,
null,,color_black2,1190194,,,,,,,,black_plus_sign,,,null,,,,,,,,,,,,,,,,,,,,,,,
null,,learn_phase(without_color)2,1193704,,,,,,,,black_plus_sign,,,null,object_07c.png,object_10c.png,,,,,,,,,,,,,,,,,,,,,
null,,black_cross(without_color)2,1194595,,,,,,,,green,,,null,object_07c.png,object_10c.png,,,,,,,,,,,,,,,,,,,,,
null,,rt_plussign_withcolor2,1195106,,,,,,,,green,,,null,object_07c.png,object_10c.png,,,,,,,,,,,,,,,,,,,,,
1375.199999988079,,rt_thecrossant_black2,1196242,,,,,,,,black_plus_sign,,,50,,,1,,,,,,,1,,,,,,,,,,,,,
null,,color_black2,1196355,,,,,,,,black_plus_sign,,,null,,,,,,,,,,,,,,,,,,,,,,,
null,,learn_phase(without_color)2,1199860,,,,,,,,black_plus_sign,,,null,object_07b.png,object_06c.png,,,,,,,,,,,,,,,,,,,,,
null,,black_cross(without_color)2,1200890,,,,,,,,green,,,null,object_07b.png,object_06c.png,,,,,,,,,,,,,,,,,,,,,
null,,rt_plussign_withcolor2,1201401,,,,,,,,green,,,null,object_07b.png,object_06c.png,,,,,,,,,,,,,,,,,,,,,
1483.8999999761581,,rt_thecrossant_black2,1202391,,,,,,,,black_plus_sign,,,50,,,1,,,,,,,1,,,,,,,,,,,,,
null,,color_black2,1202496,,,,,,,,black_plus_sign,,,null,,,,,,,,,,,,,,,,,,,,,,,
null,,learn_phase(without_color)2,1206005,,,,,,,,black_plus_sign,,,null,object_03c.png,object_13c.png,,,,,,,,,,,,,,,,,,,,,
null,,black_cross(without_color)2,1206678,,,,,,,,green,,,null,object_03c.png,object_13c.png,,,,,,,,,,,,,,,,,,,,,
null,,rt_plussign_withcolor2,1207196,,,,,,,,green,,,null,object_03c.png,object_13c.png,,,,,,,,,,,,,,,,,,,,,
1519.9000000357628,,rt_thecrossant_black2,1208527,,,,,,,,black_plus_sign,,,50,,,1,,,,,,,1,,,,,,,,,,,,,
null,,color_black2,1208636,,,,,,,,black_plus_sign,,,null,,,,,,,,,,,,,,,,,,,,,,,
null,,learn_phase(without_color)2,1212143,,,,,,,,black_plus_sign,,,null,object_06a.png,object_11b.png,,,,,,,,,,,,,,,,,,,,,
null,,black_cross(without_color)2,1212925,,,,,,,,blue,,,null,object_06a.png,object_11b.png,,,,,,,,,,,,,,,,,,,,,
null,,rt_plussign_withcolor2,1213431,,,,,,,,blue,,,null,object_06a.png,object_11b.png,,,,,,,,,,,,,,,,,,,,,
1299.2999999523163,,rt_thecrossant_black2,1214672,,,,,,,,black_plus_sign,,,49,,,1,,,,,,,1,,,,,,,,,,,,,
null,,color_black2,1214779,,,,,,,,black_plus_sign,,,null,,,,,,,,,,,,,,,,,,,,,,,
null,,learn_phase(without_color)2,1218294,,,,,,,,black_plus_sign,,,null,object_11c.png,object_02a.png,,,,,,,,,,,,,,,,,,,,,
null,,black_cross(without_color)2,1218746,,,,,,,,blue,,,null,object_11c.png,object_02a.png,,,,,,,,,,,,,,,,,,,,,
null,,rt_plussign_withcolor2,1219263,,,,,,,,blue,,,null,object_11c.png,object_02a.png,,,,,,,,,,,,,,,,,,,,,
1216.699999988079,,rt_thecrossant_black2,1220832,,,,,,,,black_plus_sign,,,49,,,1,,,,,,,1,,,,,,,,,,,,,
null,,color_black2,1220944,,,,,,,,black_plus_sign,,,null,,,,,,,,,,,,,,,,,,,,,,,
null,,learn_phase(without_color)2,1224461,,,,,,,,black_plus_sign,,,null,object_01c.png,object_15c.png,,,,,,,,,,,,,,,,,,,,,
null,,black_cross(without_color)2,1224933,,,,,,,,green,,,null,object_01c.png,object_15c.png,,,,,,,,,,,,,,,,,,,,,
null,,rt_plussign_withcolor2,1225438,,,,,,,,green,,,null,object_01c.png,object_15c.png,,,,,,,,,,,,,,,,,,,,,
1069.0999999642372,,rt_thecrossant_black2,1226990,,,,,,,,black_plus_sign,,,50,,,1,,,,,,,1,,,,,,,,,,,,,
null,,color_black2,1227103,,,,,,,,black_plus_sign,,,null,,,,,,,,,,,,,,,,,,,,,,,
null,,learn_phase(without_color)2,1230608,,,,,,,,black_plus_sign,,,null,object_09c.png,object_11c.png,,,,,,,,,,,,,,,,,,,,,
null,,black_cross(without_color)2,1231132,,,,,,,,blue,,,null,object_09c.png,object_11c.png,,,,,,,,,,,,,,,,,,,,,
null,,rt_plussign_withcolor2,1231637,,,,,,,,blue,,,null,object_09c.png,object_11c.png,,,,,,,,,,,,,,,,,,,,,
1441,,rt_thecrossant_black2,1233126,,,,,,,,black_plus_sign,,,49,,,1,,,,,,,1,,,,,,,,,,,,,
null,,color_black2,1233230,,,,,,,,black_plus_sign,,,null,,,,,,,,,,,,,,,,,,,,,,,
null,,learn_phase(without_color)2,1236736,,,,,,,,black_plus_sign,,,null,object_08a.png,object_05c.png,,,,,,,,,,,,,,,,,,,,,
null,,black_cross(without_color)2,1237440,,,,,,,,blue,,,null,object_08a.png,object_05c.png,,,,,,,,,,,,,,,,,,,,,
null,,rt_plussign_withcolor2,1237942,,,,,,,,blue,,,null,object_08a.png,object_05c.png,,,,,,,,,,,,,,,,,,,,,
948.0999999642372,,rt_thecrossant_black2,1239259,,,,,,,,black_plus_sign,,,49,,,1,,,,,,,1,,,,,,,,,,,,,
null,,color_black2,1239368,,,,,,,,black_plus_sign,,,null,,,,,,,,,,,,,,,,,,,,,,,
null,,learn_phase(without_color)2,1242876,,,,,,,,black_plus_sign,,,null,object_13a.png,object_05a.png,,,,,,,,,,,,,,,,,,,,,
null,,black_cross(without_color)2,1243693,,,,,,,,blue,,,null,object_13a.png,object_05a.png,,,,,,,,,,,,,,,,,,,,,
null,,rt_plussign_withcolor2,1244204,,,,,,,,blue,,,null,object_13a.png,object_05a.png,,,,,,,,,,,,,,,,,,,,,
1077.800000011921,,rt_thecrossant_black2,1245411,,,,,,,,black_plus_sign,,,49,,,1,,,,,,,1,,,,,,,,,,,,,
null,,color_black2,1245522,,,,,,,,black_plus_sign,,,null,,,,,,,,,,,,,,,,,,,,,,,
null,,learn_phase(without_color)2,1249024,,,,,,,,black_plus_sign,,,null,object_13a.png,object_10b.png,,,,,,,,,,,,,,,,,,,,,
null,,black_cross(without_color)2,1249653,,,,,,,,green,,,null,object_13a.png,object_10b.png,,,,,,,,,,,,,,,,,,,,,
null,,rt_plussign_withcolor2,1250158,,,,,,,,green,,,null,object_13a.png,object_10b.png,,,,,,,,,,,,,,,,,,,,,
1495.800000011921,,rt_thecrossant_black2,1251557,,,,,,,,black_plus_sign,,,50,,,1,,,,,,,1,,,,,,,,,,,,,
null,,color_black2,1251673,,,,,,,,black_plus_sign,,,null,,,,,,,,,,,,,,,,,,,,,,,
null,,learn_phase(without_color)2,1255190,,,,,,,,black_plus_sign,,,null,object_15c.png,object_11a.png,,,,,,,,,,,,,,,,,,,,,
null,,black_cross(without_color)2,1255871,,,,,,,,green,,,null,object_15c.png,object_11a.png,,,,,,,,,,,,,,,,,,,,,
null,,rt_plussign_withcolor2,1256388,,,,,,,,green,,,null,object_15c.png,object_11a.png,,,,,,,,,,,,,,,,,,,,,
1282.5,,rt_thecrossant_black2,1257722,,,,,,,,black_plus_sign,,,50,,,1,,,,,,,1,,,,,,,,,,,,,
null,,color_black2,1257838,,,,,,,,black_plus_sign,,,null,,,,,,,,,,,,,,,,,,,,,,,
null,,learn_phase(without_color)2,1261348,,,,,,,,black_plus_sign,,,null,object_14a.png,object_13b.png,,,,,,,,,,,,,,,,,,,,,
null,,black_cross(without_color)2,1262087,,,,,,,,blue,,,null,object_14a.png,object_13b.png,,,,,,,,,,,,,,,,,,,,,
null,,rt_plussign_withcolor2,1262595,,,,,,,,blue,,,null,object_14a.png,object_13b.png,,,,,,,,,,,,,,,,,,,,,
995.1999999880791,,rt_thecrossant_black2,1263871,,,,,,,,black_plus_sign,,,49,,,1,,,,,,,1,,,,,,,,,,,,,
null,,color_black2,1263981,,,,,,,,black_plus_sign,,,null,,,,,,,,,,,,,,,,,,,,,,,
null,,learn_phase(without_color)2,1267498,,,,,,,,black_plus_sign,,,null,object_08b.png,object_03b.png,,,,,,,,,,,,,,,,,,,,,
null,,black_cross(without_color)2,1268373,,,,,,,,green,,,null,object_08b.png,object_03b.png,,,,,,,,,,,,,,,,,,,,,
null,,rt_plussign_withcolor2,1268878,,,,,,,,green,,,null,object_08b.png,object_03b.png,,,,,,,,,,,,,,,,,,,,,
1115.5,,rt_thecrossant_black2,1270017,,,,,,,,black_plus_sign,,,50,,,1,,,,,,,1,,,,,,,,,,,,,
null,,color_black2,1270127,,,,,,,,black_plus_sign,,,null,,,,,,,,,,,,,,,,,,,,,,,
null,,learn_phase(without_color)2,1273633,,,,,,,,black_plus_sign,,,null,object_01a.png,object_14a.png,,,,,,,,,,,,,,,,,,,,,
null,,black_cross(without_color)2,1274069,,,,,,,,blue,,,null,object_01a.png,object_14a.png,,,,,,,,,,,,,,,,,,,,,
null,,rt_plussign_withcolor2,1274583,,,,,,,,blue,,,null,object_01a.png,object_14a.png,,,,,,,,,,,,,,,,,,,,,
1415.699999988079,,rt_thecrossant_black2,1276163,,,,,,,,black_plus_sign,,,49,,,1,,,,,,,1,,,,,,,,,,,,,
null,,color_black2,1276271,,,,,,,,black_plus_sign,,,null,,,,,,,,,,,,,,,,,,,,,,,
null,,learn_phase(without_color)2,1279785,,,,,,,,black_plus_sign,,,null,object_13c.png,object_15a.png,,,,,,,,,,,,,,,,,,,,,
null,,black_cross(without_color)2,1280395,,,,,,,,green,,,null,object_13c.png,object_15a.png,,,,,,,,,,,,,,,,,,,,,
null,,rt_plussign_withcolor2,1280903,,,,,,,,green,,,null,object_13c.png,object_15a.png,,,,,,,,,,,,,,,,,,,,,
1106,,rt_thecrossant_black2,1282309,,,,,,,,black_plus_sign,,,50,,,1,,,,,,,1,,,,,,,,,,,,,
null,,color_black2,1282416,,,,,,,,black_plus_sign,,,null,,,,,,,,,,,,,,,,,,,,,,,
null,,thebreak,1282525,,,,,,,,<p></p>,,,null,,,,,,,,,,,,,,,,,,,,,,,
8612.399999976158,,intro_0,1291138,,,,,,,,instruct,,,32,,,,,,,,,,,,,,,,,,,,,,,
5865.199999988079,,directmemory_phase2,1297005,,,,,,,,object_10b.png,,,50,,,1,,object_08a.png,object_13a.png,object_13c.png,object_13a.png,,0.3548387096774194,,1,,,,,,,,,,,
null,,directmemory_phase2,1312015,,,,,,,,object_01b.png,,,null,,,0,,object_05c.png,object_07a.png,object_15b.png,object_15b.png,,0.34375,,0,,,,,,,,,,,
null,,warning_page,1317025,,,,,,,,warning,,,null,,,,,,,,,,,,,,,,,,,,,,,
6481.699999988079,,directmemory_phase2,1323508,,,,,,,,object_03c.png,,,50,,,0,,object_13c.png,object_08b.png,object_13b.png,object_13c.png,,0.3333333333333333,,0,,,,,,,,,,,
8612.399999976158,,directmemory_phase2,1332123,,,,,,,,object_12c.png,,,51,,,0,,object_02b.png,object_02a.png,object_13a.png,object_02b.png,,0.3235294117647059,,0,,,,,,,,,,,
6226.400000035763,,directmemory_phase2,1338351,,,,,,,,object_13b.png,,,50,,,1,,object_01b.png,object_14a.png,object_15b.png,object_14a.png,,0.34285714285714286,,1,,,,,,,,,,,
2854.900000035763,,directmemory_phase2,1341208,,,,,,,,object_15c.png,,,49,,,1,,object_01c.png,object_14b.png,object_09a.png,object_01c.png,,0.3611111111111111,,1,,,,,,,,,,,
5709.200000047684,,directmemory_phase2,1346920,,,,,,,,object_05b.png,,,51,,,0,,object_12b.png,object_09b.png,object_14a.png,object_09b.png,,0.35135135135135137,,0,,,,,,,,,,,
5191.900000035763,,directmemory_phase2,1352114,,,,,,,,object_13a.png,,,51,,,1,,object_02c.png,object_15c.png,object_05a.png,object_05a.png,,0.3684210526315789,,1,,,,,,,,,,,
6360.699999988079,,directmemory_phase2,1358477,,,,,,,,object_08a.png,,,51,,,0,,object_10a.png,object_05c.png,object_13c.png,object_05c.png,,0.358974358974359,,0,,,,,,,,,,,
5584.299999952316,,directmemory_phase2,1364063,,,,,,,,object_14b.png,,,51,,,1,,object_12c.png,object_01c.png,object_10c.png,object_10c.png,,0.375,,1,,,,,,,,,,,
3902.400000035763,,directmemory_phase2,1367968,,,,,,,,object_12b.png,,,51,,,0,,object_10b.png,object_12c.png,object_08b.png,object_12c.png,,0.36585365853658536,,0,,,,,,,,,,,
3676.099999964237,,directmemory_phase2,1371646,,,,,,,,object_06c.png,,,50,,,1,,object_10b.png,object_07b.png,object_15c.png,object_07b.png,,0.38095238095238093,,1,,,,,,,,,,,
8078.099999964237,,directmemory_phase2,1379726,,,,,,,,object_03b.png,,,51,,,1,,object_15b.png,object_03a.png,object_08b.png,object_08b.png,,0.3953488372093023,,1,,,,,,,,,,,
7366.800000011921,,directmemory_phase2,1387095,,,,,,,,object_06b.png,,,51,,,0,,object_05a.png,object_15b.png,object_13a.png,object_15b.png,,0.38636363636363635,,0,,,,,,,,,,,
6013.199999988079,,directmemory_phase2,1393111,,,,,,,,object_13c.png,,,51,,,0,,object_08b.png,object_15a.png,object_08c.png,object_15a.png,,0.37777777777777777,,0,,,,,,,,,,,
6178.699999988079,,directmemory_phase2,1399292,,,,,,,,object_05c.png,,,50,,,1,,object_10c.png,object_08c.png,object_05a.png,object_08c.png,,0.391304347826087,,1,,,,,,,,,,,
6042.399999976158,,directmemory_phase2,1405336,,,,,,,,object_12a.png,,,51,,,0,,object_07b.png,object_15b.png,object_03a.png,object_07b.png,,0.3829787234042553,,0,,,,,,,,,,,
6334.399999976158,,directmemory_phase2,1411673,,,,,,,,object_11a.png,,,50,,,0,,object_09a.png,object_13b.png,object_15c.png,object_15c.png,,0.375,,0,,,,,,,,,,,
6524.599999964237,,directmemory_phase2,1418200,,,,,,,,object_04c.png,,,49,,,0,,object_01b.png,object_09a.png,object_15b.png,object_09a.png,,0.3673469387755102,,0,,,,,,,,,,,
2526.900000035763,,directmemory_phase2,1420729,,,,,,,,object_09b.png,,,49,,,0,,object_11c.png,object_04a.png,object_14b.png,object_04a.png,,0.36,,0,,,,,,,,,,,
4839.699999988079,,directmemory_phase2,1425570,,,,,,,,object_14a.png,,,50,,,1,,object_11b.png,object_01a.png,object_02c.png,object_01a.png,,0.37254901960784315,,1,,,,,,,,,,,
6545.300000011921,,directmemory_phase2,1432118,,,,,,,,object_11b.png,,,51,,,1,,object_06b.png,object_05c.png,object_03a.png,object_03a.png,,0.38461538461538464,,1,,,,,,,,,,,
5413.699999988079,,directmemory_phase2,1437534,,,,,,,,object_04b.png,,,51,,,1,,object_15a.png,object_11b.png,object_14c.png,object_14c.png,,0.39622641509433965,,1,,,,,,,,,,,
5943.100000023842,,directmemory_phase2,1443479,,,,,,,,object_09a.png,,,49,,,0,,object_10c.png,object_02c.png,object_02b.png,object_02c.png,,0.3888888888888889,,0,,,,,,,,,,,
4427.900000035763,,directmemory_phase2,1447909,,,,,,,,object_07a.png,,,49,,,0,,object_13c.png,object_13b.png,object_04b.png,object_04b.png,,0.38181818181818183,,0,,,,,,,,,,,
8194,,directmemory_phase2,1456105,,,,,,,,object_10a.png,,,50,,,0,,object_08b.png,object_04b.png,object_12b.png,object_08b.png,,0.375,,0,,,,,,,,,,,
4588.699999988079,,directmemory_phase2,1460696,,,,,,,,object_06a.png,,,49,,,1,,object_11b.png,object_13a.png,object_04c.png,object_11b.png,,0.38596491228070173,,1,,,,,,,,,,,
6408.199999988079,,directmemory_phase2,1467107,,,,,,,,object_07c.png,,,50,,,1,,object_09c.png,object_10c.png,object_13a.png,object_10c.png,,0.39655172413793105,,1,,,,,,,,,,,
2116.600000023842,,directmemory_phase2,1469226,,,,,,,,object_09c.png,,,50,,,1,,object_13b.png,object_11c.png,object_09b.png,object_11c.png,,0.4067796610169492,,1,,,,,,,,,,,
5251.599999964237,,directmemory_phase2,1474479,,,,,,,,object_11c.png,,,51,,,0,,object_14a.png,object_02a.png,object_01c.png,object_02a.png,,0.4,,0,,,,,,,,,,,
null,,thebreak,1474595,,,,,,,,<p></p>,,,null,,,,,,,,,,,,,,,,,,,,,,,
2844.100000023842,,intro_0,1477441,,,,,,,,instruct,,,32,,,,,,,,,,,,,,,,,,,,,,,
null,,learn_phase(without_color)3,1480949,,,,,,,,black_plus_sign,,,null,object_15b.png,object_06b.png,,,,,,,,,,,,,,,,,,,,,
null,,black_cross(without_color)3,1481598,,,,,,,,green,,,null,object_15b.png,object_06b.png,,,,,,,,,,,,,,,,,,,,,
null,,rt_plussign_withcolor3,1482112,,,,,,,,green,,,null,object_15b.png,object_06b.png,,,,,,,,,,,,,,,,,,,,,
null,,rt_thecrossant_black3,1483480,,,,,,,,black_plus_sign,,,null,,,,,,,,,,NaN,,,,,,,,,,,,,
null,,color_black3,1483594,,,,,,,,black_plus_sign,,,null,,,,,,,,,,,,,,,,,,,,,,,
null,,learn_phase(without_color)3,1487098,,,,,,,,black_plus_sign,,,null,object_14b.png,object_10c.png,,,,,,,,,,,,,,,,,,,,,
null,,black_cross(without_color)3,1487997,,,,,,,,green,,,null,object_14b.png,object_10c.png,,,,,,,,,,,,,,,,,,,,,
null,,rt_plussign_withcolor3,1488506,,,,,,,,green,,,null,object_14b.png,object_10c.png,,,,,,,,,,,,,,,,,,,,,
1408.300000011921,,rt_thecrossant_black3,1489611,,,,,,,,black_plus_sign,,,50,,,1,,,,,,,1,,,,,,,,,,,,,
null,,color_black3,1489727,,,,,,,,black_plus_sign,,,null,,,,,,,,,,,,,,,,,,,,,,,
null,,learn_phase(without_color)3,1493244,,,,,,,,black_plus_sign,,,null,object_08c.png,object_05c.png,,,,,,,,,,,,,,,,,,,,,
null,,black_cross(without_color)3,1493943,,,,,,,,green,,,null,object_08c.png,object_05c.png,,,,,,,,,,,,,,,,,,,,,
null,,rt_plussign_withcolor3,1494451,,,,,,,,green,,,null,object_08c.png,object_05c.png,,,,,,,,,,,,,,,,,,,,,
1583.7999999523163,,rt_thecrossant_black3,1495773,,,,,,,,black_plus_sign,,,50,,,1,,,,,,,1,,,,,,,,,,,,,
null,,color_black3,1495875,,,,,,,,black_plus_sign,,,null,,,,,,,,,,,,,,,,,,,,,,,
null,,learn_phase(without_color)3,1499391,,,,,,,,black_plus_sign,,,null,object_15a.png,object_13c.png,,,,,,,,,,,,,,,,,,,,,
null,,black_cross(without_color)3,1500200,,,,,,,,green,,,null,object_15a.png,object_13c.png,,,,,,,,,,,,,,,,,,,,,
null,,rt_plussign_withcolor3,1500716,,,,,,,,green,,,null,object_15a.png,object_13c.png,,,,,,,,,,,,,,,,,,,,,
1269.5,,rt_thecrossant_black3,1501929,,,,,,,,black_plus_sign,,,50,,,1,,,,,,,1,,,,,,,,,,,,,
null,,color_black3,1502043,,,,,,,,black_plus_sign,,,null,,,,,,,,,,,,,,,,,,,,,,,
null,,learn_phase(without_color)3,1505548,,,,,,,,black_plus_sign,,,null,object_07b.png,object_06c.png,,,,,,,,,,,,,,,,,,,,,
null,,black_cross(without_color)3,1506091,,,,,,,,green,,,null,object_07b.png,object_06c.png,,,,,,,,,,,,,,,,,,,,,
null,,rt_plussign_withcolor3,1506604,,,,,,,,green,,,null,object_07b.png,object_06c.png,,,,,,,,,,,,,,,,,,,,,
1109.3999999761581,,rt_thecrossant_black3,1508074,,,,,,,,black_plus_sign,,,50,,,1,,,,,,,1,,,,,,,,,,,,,
null,,color_black3,1508184,,,,,,,,black_plus_sign,,,null,,,,,,,,,,,,,,,,,,,,,,,
null,,learn_phase(without_color)3,1511692,,,,,,,,black_plus_sign,,,null,object_03c.png,object_13c.png,,,,,,,,,,,,,,,,,,,,,
null,,black_cross(without_color)3,1512125,,,,,,,,blue,,,null,object_03c.png,object_13c.png,,,,,,,,,,,,,,,,,,,,,
null,,rt_plussign_withcolor3,1512627,,,,,,,,blue,,,null,object_03c.png,object_13c.png,,,,,,,,,,,,,,,,,,,,,
1322.5,,rt_thecrossant_black3,1514212,,,,,,,,black_plus_sign,,,49,,,1,,,,,,,1,,,,,,,,,,,,,
null,,color_black3,1514321,,,,,,,,black_plus_sign,,,null,,,,,,,,,,,,,,,,,,,,,,,
null,,learn_phase(without_color)3,1517831,,,,,,,,black_plus_sign,,,null,object_09a.png,object_04c.png,,,,,,,,,,,,,,,,,,,,,
null,,black_cross(without_color)3,1518793,,,,,,,,green,,,null,object_09a.png,object_04c.png,,,,,,,,,,,,,,,,,,,,,
null,,rt_plussign_withcolor3,1519306,,,,,,,,green,,,null,object_09a.png,object_04c.png,,,,,,,,,,,,,,,,,,,,,
906.8000000119209,,rt_thecrossant_black3,1520369,,,,,,,,black_plus_sign,,,50,,,1,,,,,,,1,,,,,,,,,,,,,
null,,color_black3,1520482,,,,,,,,black_plus_sign,,,null,,,,,,,,,,,,,,,,,,,,,,,
null,,learn_phase(without_color)3,1523990,,,,,,,,black_plus_sign,,,null,object_14a.png,object_13b.png,,,,,,,,,,,,,,,,,,,,,
null,,black_cross(without_color)3,1524442,,,,,,,,blue,,,null,object_14a.png,object_13b.png,,,,,,,,,,,,,,,,,,,,,
null,,rt_plussign_withcolor3,1524952,,,,,,,,blue,,,null,object_14a.png,object_13b.png,,,,,,,,,,,,,,,,,,,,,
1126.7000000476837,,rt_thecrossant_black3,1526521,,,,,,,,black_plus_sign,,,49,,,1,,,,,,,1,,,,,,,,,,,,,
null,,color_black3,1526631,,,,,,,,black_plus_sign,,,null,,,,,,,,,,,,,,,,,,,,,,,
null,,learn_phase(without_color)3,1530143,,,,,,,,black_plus_sign,,,null,object_10c.png,object_07c.png,,,,,,,,,,,,,,,,,,,,,
null,,black_cross(without_color)3,1531172,,,,,,,,blue,,,null,object_10c.png,object_07c.png,,,,,,,,,,,,,,,,,,,,,
null,,rt_plussign_withcolor3,1531687,,,,,,,,blue,,,null,object_10c.png,object_07c.png,,,,,,,,,,,,,,,,,,,,,
910.3999999761581,,rt_thecrossant_black3,1532684,,,,,,,,black_plus_sign,,,50,,,0,,,,,,,0.875,,,,,,,,,,,,,
null,,color_black3,1532790,,,,,,,,black_plus_sign,,,null,,,,,,,,,,,,,,,,,,,,,,,
null,,learn_phase(without_color)3,1536292,,,,,,,,black_plus_sign,,,null,object_08a.png,object_05c.png,,,,,,,,,,,,,,,,,,,,,
null,,black_cross(without_color)3,1537233,,,,,,,,blue,,,null,object_08a.png,object_05c.png,,,,,,,,,,,,,,,,,,,,,
null,,rt_plussign_withcolor3,1537745,,,,,,,,blue,,,null,object_08a.png,object_05c.png,,,,,,,,,,,,,,,,,,,,,
2033,,rt_thecrossant_black3,1538822,,,,,,,,black_plus_sign,,,49,,,1,,,,,,,0.8888888888888888,,,,,,,,,,,,,
null,,color_black3,1538926,,,,,,,,black_plus_sign,,,null,,,,,,,,,,,,,,,,,,,,,,,
null,,learn_phase(without_color)3,1542433,,,,,,,,black_plus_sign,,,null,object_02c.png,object_09a.png,,,,,,,,,,,,,,,,,,,,,
null,,black_cross(without_color)3,1543394,,,,,,,,green,,,null,object_02c.png,object_09a.png,,,,,,,,,,,,,,,,,,,,,
null,,rt_plussign_withcolor3,1543905,,,,,,,,green,,,null,object_02c.png,object_09a.png,,,,,,,,,,,,,,,,,,,,,
1592.699999988079,,rt_thecrossant_black3,1544965,,,,,,,,black_plus_sign,,,50,,,1,,,,,,,0.9,,,,,,,,,,,,,
null,,color_black3,1545073,,,,,,,,black_plus_sign,,,null,,,,,,,,,,,,,,,,,,,,,,,
null,,learn_phase(without_color)3,1548582,,,,,,,,black_plus_sign,,,null,object_11b.png,object_03a.png,,,,,,,,,,,,,,,,,,,,,
null,,black_cross(without_color)3,1549503,,,,,,,,green,,,null,object_11b.png,object_03a.png,,,,,,,,,,,,,,,,,,,,,
null,,rt_plussign_withcolor3,1550018,,,,,,,,green,,,null,object_11b.png,object_03a.png,,,,,,,,,,,,,,,,,,,,,
null,,rt_thecrossant_black3,1551111,,,,,,,,black_plus_sign,,,null,,,,,,,,,,0.9,,,,,,,,,,,,,
null,,color_black3,1551226,,,,,,,,black_plus_sign,,,null,,,,,,,,,,,,,,,,,,,,,,,
null,,learn_phase(without_color)3,1554743,,,,,,,,black_plus_sign,,,null,object_05a.png,object_13a.png,,,,,,,,,,,,,,,,,,,,,
null,,black_cross(without_color)3,1555360,,,,,,,,green,,,null,object_05a.png,object_13a.png,,,,,,,,,,,,,,,,,,,,,
null,,rt_plussign_withcolor3,1555862,,,,,,,,green,,,null,object_05a.png,object_13a.png,,,,,,,,,,,,,,,,,,,,,
null,,rt_thecrossant_black3,1557257,,,,,,,,black_plus_sign,,,null,,,,,,,,,,0.9,,,,,,,,,,,,,
null,,warning_page,1562271,,,,,,,,warning,,,null,,,,,,,,,,,,,,,,,,,,,,,
null,,color_black3,1562381,,,,,,,,black_plus_sign,,,null,,,,,,,,,,,,,,,,,,,,,,,
null,,learn_phase(without_color)3,1565883,,,,,,,,black_plus_sign,,,null,object_11b.png,object_06a.png,,,,,,,,,,,,,,,,,,,,,
null,,black_cross(without_color)3,1566883,,,,,,,,green,,,null,object_11b.png,object_06a.png,,,,,,,,,,,,,,,,,,,,,
null,,rt_plussign_withcolor3,1567395,,,,,,,,green,,,null,object_11b.png,object_06a.png,,,,,,,,,,,,,,,,,,,,,
901.8999999761581,,rt_thecrossant_black3,1568423,,,,,,,,black_plus_sign,,,50,,,1,,,,,,,0.9090909090909091,,,,,,,,,,,,,
null,,color_black3,1568534,,,,,,,,black_plus_sign,,,null,,,,,,,,,,,,,,,,,,,,,,,
null,,learn_phase(without_color)3,1572043,,,,,,,,black_plus_sign,,,null,object_05b.png,object_09b.png,,,,,,,,,,,,,,,,,,,,,
null,,black_cross(without_color)3,1572568,,,,,,,,blue,,,null,object_05b.png,object_09b.png,,,,,,,,,,,,,,,,,,,,,
null,,rt_plussign_withcolor3,1573087,,,,,,,,blue,,,null,object_05b.png,object_09b.png,,,,,,,,,,,,,,,,,,,,,
1973.8999999761581,,rt_thecrossant_black3,1574582,,,,,,,,black_plus_sign,,,49,,,1,,,,,,,0.9166666666666666,,,,,,,,,,,,,
null,,color_black3,1574689,,,,,,,,black_plus_sign,,,null,,,,,,,,,,,,,,,,,,,,,,,
null,,learn_phase(without_color)3,1578202,,,,,,,,black_plus_sign,,,null,object_14a.png,object_01a.png,,,,,,,,,,,,,,,,,,,,,
null,,black_cross(without_color)3,1579221,,,,,,,,green,,,null,object_14a.png,object_01a.png,,,,,,,,,,,,,,,,,,,,,
null,,rt_plussign_withcolor3,1579725,,,,,,,,green,,,null,object_14a.png,object_01a.png,,,,,,,,,,,,,,,,,,,,,
null,,rt_thecrossant_black3,1580732,,,,,,,,black_plus_sign,,,null,,,,,,,,,,0.9166666666666666,,,,,,,,,,,,,
null,,color_black3,1580839,,,,,,,,black_plus_sign,,,null,,,,,,,,,,,,,,,,,,,,,,,
null,,learn_phase(without_color)3,1584354,,,,,,,,black_plus_sign,,,null,object_09c.png,object_11c.png,,,,,,,,,,,,,,,,,,,,,
null,,black_cross(without_color)3,1584981,,,,,,,,green,,,null,object_09c.png,object_11c.png,,,,,,,,,,,,,,,,,,,,,
null,,rt_plussign_withcolor3,1585495,,,,,,,,green,,,null,object_09c.png,object_11c.png,,,,,,,,,,,,,,,,,,,,,
1642.699999988079,,rt_thecrossant_black3,1586884,,,,,,,,black_plus_sign,,,50,,,1,,,,,,,0.9230769230769231,,,,,,,,,,,,,
null,,color_black3,1586987,,,,,,,,black_plus_sign,,,null,,,,,,,,,,,,,,,,,,,,,,,
null,,learn_phase(without_color)3,1590508,,,,,,,,black_plus_sign,,,null,object_09b.png,object_04a.png,,,,,,,,,,,,,,,,,,,,,
null,,black_cross(without_color)3,1591497,,,,,,,,green,,,null,object_09b.png,object_04a.png,,,,,,,,,,,,,,,,,,,,,
null,,rt_plussign_withcolor3,1592004,,,,,,,,green,,,null,object_09b.png,object_04a.png,,,,,,,,,,,,,,,,,,,,,
1310.5999999642372,,rt_thecrossant_black3,1593029,,,,,,,,black_plus_sign,,,50,,,1,,,,,,,0.9285714285714286,,,,,,,,,,,,,
null,,color_black3,1593137,,,,,,,,black_plus_sign,,,null,,,,,,,,,,,,,,,,,,,,,,,
null,,learn_phase(without_color)3,1596648,,,,,,,,black_plus_sign,,,null,object_07b.png,object_12a.png,,,,,,,,,,,,,,,,,,,,,
null,,black_cross(without_color)3,1597110,,,,,,,,green,,,null,object_07b.png,object_12a.png,,,,,,,,,,,,,,,,,,,,,
null,,rt_plussign_withcolor3,1597622,,,,,,,,green,,,null,object_07b.png,object_12a.png,,,,,,,,,,,,,,,,,,,,,
1088.199999988079,,rt_thecrossant_black3,1599173,,,,,,,,black_plus_sign,,,50,,,1,,,,,,,0.9333333333333333,,,,,,,,,,,,,
null,,color_black3,1599281,,,,,,,,black_plus_sign,,,null,,,,,,,,,,,,,,,,,,,,,,,
null,,learn_phase(without_color)3,1602792,,,,,,,,black_plus_sign,,,null,object_11c.png,object_02a.png,,,,,,,,,,,,,,,,,,,,,
null,,black_cross(without_color)3,1603820,,,,,,,,green,,,null,object_11c.png,object_02a.png,,,,,,,,,,,,,,,,,,,,,
null,,rt_plussign_withcolor3,1604323,,,,,,,,green,,,null,object_11c.png,object_02a.png,,,,,,,,,,,,,,,,,,,,,
null,,rt_thecrossant_black3,1605301,,,,,,,,black_plus_sign,,,null,,,,,,,,,,0.9333333333333333,,,,,,,,,,,,,
null,,color_black3,1605412,,,,,,,,black_plus_sign,,,null,,,,,,,,,,,,,,,,,,,,,,,
null,,learn_phase(without_color)3,1608922,,,,,,,,black_plus_sign,,,null,object_01b.png,object_15b.png,,,,,,,,,,,,,,,,,,,,,
null,,black_cross(without_color)3,1609821,,,,,,,,blue,,,null,object_01b.png,object_15b.png,,,,,,,,,,,,,,,,,,,,,
null,,rt_plussign_withcolor3,1610336,,,,,,,,blue,,,null,object_01b.png,object_15b.png,,,,,,,,,,,,,,,,,,,,,
1410.199999988079,,rt_thecrossant_black3,1611456,,,,,,,,black_plus_sign,,,49,,,1,,,,,,,0.9375,,,,,,,,,,,,,
null,,color_black3,1611569,,,,,,,,black_plus_sign,,,null,,,,,,,,,,,,,,,,,,,,,,,
null,,learn_phase(without_color)3,1615076,,,,,,,,black_plus_sign,,,null,object_15c.png,object_01c.png,,,,,,,,,,,,,,,,,,,,,
null,,black_cross(without_color)3,1616110,,,,,,,,blue,,,null,object_15c.png,object_01c.png,,,,,,,,,,,,,,,,,,,,,
null,,rt_plussign_withcolor3,1616623,,,,,,,,blue,,,null,object_15c.png,object_01c.png,,,,,,,,,,,,,,,,,,,,,
1114.5,,rt_thecrossant_black3,1617600,,,,,,,,black_plus_sign,,,49,,,1,,,,,,,0.9411764705882353,,,,,,,,,,,,,
null,,color_black3,1617707,,,,,,,,black_plus_sign,,,null,,,,,,,,,,,,,,,,,,,,,,,
null,,learn_phase(without_color)3,1621213,,,,,,,,black_plus_sign,,,null,object_03b.png,object_08b.png,,,,,,,,,,,,,,,,,,,,,
null,,black_cross(without_color)3,1622194,,,,,,,,green,,,null,object_03b.png,object_08b.png,,,,,,,,,,,,,,,,,,,,,
null,,rt_plussign_withcolor3,1622700,,,,,,,,green,,,null,object_03b.png,object_08b.png,,,,,,,,,,,,,,,,,,,,,
1549.699999988079,,rt_thecrossant_black3,1623748,,,,,,,,black_plus_sign,,,50,,,1,,,,,,,0.9444444444444444,,,,,,,,,,,,,
null,,color_black3,1623856,,,,,,,,black_plus_sign,,,null,,,,,,,,,,,,,,,,,,,,,,,
null,,learn_phase(without_color)3,1627370,,,,,,,,black_plus_sign,,,null,object_10a.png,object_08b.png,,,,,,,,,,,,,,,,,,,,,
null,,black_cross(without_color)3,1628450,,,,,,,,green,,,null,object_10a.png,object_08b.png,,,,,,,,,,,,,,,,,,,,,
null,,rt_plussign_withcolor3,1628958,,,,,,,,green,,,null,object_10a.png,object_08b.png,,,,,,,,,,,,,,,,,,,,,
1437.5,,rt_thecrossant_black3,1629899,,,,,,,,black_plus_sign,,,50,,,1,,,,,,,0.9473684210526315,,,,,,,,,,,,,
null,,color_black3,1630005,,,,,,,,black_plus_sign,,,null,,,,,,,,,,,,,,,,,,,,,,,
null,,learn_phase(without_color)3,1633516,,,,,,,,black_plus_sign,,,null,object_12c.png,object_12b.png,,,,,,,,,,,,,,,,,,,,,
null,,black_cross(without_color)3,1634070,,,,,,,,blue,,,null,object_12c.png,object_12b.png,,,,,,,,,,,,,,,,,,,,,
null,,rt_plussign_withcolor3,1634585,,,,,,,,blue,,,null,object_12c.png,object_12b.png,,,,,,,,,,,,,,,,,,,,,
1676,,rt_thecrossant_black3,1636056,,,,,,,,black_plus_sign,,,49,,,1,,,,,,,0.95,,,,,,,,,,,,,
null,,color_black3,1636167,,,,,,,,black_plus_sign,,,null,,,,,,,,,,,,,,,,,,,,,,,
null,,learn_phase(without_color)3,1639671,,,,,,,,black_plus_sign,,,null,object_04b.png,object_14c.png,,,,,,,,,,,,,,,,,,,,,
null,,black_cross(without_color)3,1640199,,,,,,,,blue,,,null,object_04b.png,object_14c.png,,,,,,,,,,,,,,,,,,,,,
null,,rt_plussign_withcolor3,1640712,,,,,,,,blue,,,null,object_04b.png,object_14c.png,,,,,,,,,,,,,,,,,,,,,
890.1000000238419,,rt_thecrossant_black3,1642208,,,,,,,,black_plus_sign,,,49,,,1,,,,,,,0.9523809523809523,,,,,,,,,,,,,
null,,color_black3,1642316,,,,,,,,black_plus_sign,,,null,,,,,,,,,,,,,,,,,,,,,,,
null,,learn_phase(without_color)3,1645830,,,,,,,,black_plus_sign,,,null,object_02b.png,object_12c.png,,,,,,,,,,,,,,,,,,,,,
null,,black_cross(without_color)3,1646498,,,,,,,,green,,,null,object_02b.png,object_12c.png,,,,,,,,,,,,,,,,,,,,,
null,,rt_plussign_withcolor3,1647013,,,,,,,,green,,,null,object_02b.png,object_12c.png,,,,,,,,,,,,,,,,,,,,,
836,,rt_thecrossant_black3,1648355,,,,,,,,black_plus_sign,,,50,,,1,,,,,,,0.9545454545454546,,,,,,,,,,,,,
null,,color_black3,1648466,,,,,,,,black_plus_sign,,,null,,,,,,,,,,,,,,,,,,,,,,,
null,,learn_phase(without_color)3,1651973,,,,,,,,black_plus_sign,,,null,object_11a.png,object_15c.png,,,,,,,,,,,,,,,,,,,,,
null,,black_cross(without_color)3,1652699,,,,,,,,blue,,,null,object_11a.png,object_15c.png,,,,,,,,,,,,,,,,,,,,,
null,,rt_plussign_withcolor3,1653213,,,,,,,,blue,,,null,object_11a.png,object_15c.png,,,,,,,,,,,,,,,,,,,,,
1069.9000000357628,,rt_thecrossant_black3,1654521,,,,,,,,black_plus_sign,,,49,,,1,,,,,,,0.9565217391304348,,,,,,,,,,,,,
null,,color_black3,1654636,,,,,,,,black_plus_sign,,,null,,,,,,,,,,,,,,,,,,,,,,,
null,,learn_phase(without_color)3,1658149,,,,,,,,black_plus_sign,,,null,object_04b.png,object_07a.png,,,,,,,,,,,,,,,,,,,,,
null,,black_cross(without_color)3,1659237,,,,,,,,blue,,,null,object_04b.png,object_07a.png,,,,,,,,,,,,,,,,,,,,,
null,,rt_plussign_withcolor3,1659739,,,,,,,,blue,,,null,object_04b.png,object_07a.png,,,,,,,,,,,,,,,,,,,,,
926.0999999642372,,rt_thecrossant_black3,1660677,,,,,,,,black_plus_sign,,,50,,,0,,,,,,,0.9166666666666666,,,,,,,,,,,,,
null,,color_black3,1660784,,,,,,,,black_plus_sign,,,null,,,,,,,,,,,,,,,,,,,,,,,
null,,learn_phase(without_color)3,1664287,,,,,,,,black_plus_sign,,,null,object_10b.png,object_13a.png,,,,,,,,,,,,,,,,,,,,,
null,,black_cross(without_color)3,1665144,,,,,,,,green,,,null,object_10b.png,object_13a.png,,,,,,,,,,,,,,,,,,,,,
null,,rt_plussign_withcolor3,1665650,,,,,,,,green,,,null,object_10b.png,object_13a.png,,,,,,,,,,,,,,,,,,,,,
1705.9000000357628,,rt_thecrossant_black3,1666821,,,,,,,,black_plus_sign,,,50,,,1,,,,,,,0.92,,,,,,,,,,,,,
null,,color_black3,1666933,,,,,,,,black_plus_sign,,,null,,,,,,,,,,,,,,,,,,,,,,,
null,,thebreak,1667048,,,,,,,,<p></p>,,,null,,,,,,,,,,,,,,,,,,,,,,,
3979.899999976158,,intro_0,1671029,,,,,,,,instruct,,,32,,,,,,,,,,,,,,,,,,,,,,,
7935.600000023842,,directmemory_phase3,1678966,,,,,,,,object_09c.png,,,49,,,0,,object_04c.png,object_11c.png,object_14a.png,object_11c.png,,0.39344262295081966,,0,,,,,,,,,,,
2368.7000000476837,,directmemory_phase3,1681337,,,,,,,,object_12b.png,,,49,,,0,,object_08b.png,object_05b.png,object_12c.png,object_12c.png,,0.3870967741935484,,0,,,,,,,,,,,
4745.700000047684,,directmemory_phase3,1686085,,,,,,,,object_05b.png,,,50,,,0,,object_09b.png,object_05c.png,object_08a.png,object_09b.png,,0.38095238095238093,,0,,,,,,,,,,,
6469.800000011921,,directmemory_phase3,1692557,,,,,,,,object_06b.png,,,49,,,1,,object_15b.png,object_15c.png,object_01c.png,object_15b.png,,0.390625,,1,,,,,,,,,,,
4605.599999964237,,directmemory_phase3,1697165,,,,,,,,object_07a.png,,,49,,,0,,object_12b.png,object_04b.png,object_13c.png,object_04b.png,,0.38461538461538464,,0,,,,,,,,,,,
5320.100000023842,,directmemory_phase3,1702488,,,,,,,,object_14a.png,,,51,,,0,,object_15b.png,object_01a.png,object_06b.png,object_01a.png,,0.3787878787878788,,0,,,,,,,,,,,
1584,,directmemory_phase3,1704074,,,,,,,,object_02c.png,,,50,,,1,,object_06b.png,object_09a.png,object_14a.png,object_09a.png,,0.3880597014925373,,1,,,,,,,,,,,
4181.700000047684,,directmemory_phase3,1708258,,,,,,,,object_08a.png,,,50,,,1,,object_07c.png,object_05c.png,object_15b.png,object_05c.png,,0.39705882352941174,,1,,,,,,,,,,,
4670.100000023842,,directmemory_phase3,1712931,,,,,,,,object_14c.png,,,50,,,0,,object_05c.png,object_05a.png,object_04b.png,object_04b.png,,0.391304347826087,,0,,,,,,,,,,,
4668.800000011921,,directmemory_phase3,1717602,,,,,,,,object_01b.png,,,51,,,1,,object_15c.png,object_13b.png,object_15b.png,object_15b.png,,0.4,,1,,,,,,,,,,,
1986.699999988079,,directmemory_phase3,1719591,,,,,,,,object_03b.png,,,50,,,1,,object_06b.png,object_08b.png,object_15b.png,object_08b.png,,0.4084507042253521,,1,,,,,,,,,,,
1806.699999988079,,directmemory_phase3,1721400,,,,,,,,object_10a.png,,,50,,,1,,object_06a.png,object_08b.png,object_14a.png,object_08b.png,,0.4166666666666667,,1,,,,,,,,,,,
1548.8999999761581,,directmemory_phase3,1722951,,,,,,,,object_09b.png,,,50,,,1,,object_08b.png,object_04a.png,object_14c.png,object_04a.png,,0.4246575342465753,,1,,,,,,,,,,,
5571.900000035763,,directmemory_phase3,1728526,,,,,,,,object_05c.png,,,51,,,0,,object_04b.png,object_08c.png,object_03a.png,object_08c.png,,0.4189189189189189,,0,,,,,,,,,,,
5201.700000047684,,directmemory_phase3,1733730,,,,,,,,object_07c.png,,,51,,,1,,object_05c.png,object_04c.png,object_10c.png,object_10c.png,,0.4266666666666667,,1,,,,,,,,,,,
2725.199999988079,,directmemory_phase3,1736457,,,,,,,,object_06a.png,,,51,,,1,,object_05c.png,object_09c.png,object_11b.png,object_11b.png,,0.4342105263157895,,1,,,,,,,,,,,
2635.100000023842,,directmemory_phase3,1739095,,,,,,,,object_02a.png,,,51,,,0,,object_11c.png,object_12c.png,object_08c.png,object_11c.png,,0.42857142857142855,,0,,,,,,,,,,,
5029.300000011921,,directmemory_phase3,1744126,,,,,,,,object_04c.png,,,51,,,0,,object_09a.png,object_11c.png,object_05b.png,object_09a.png,,0.4230769230769231,,0,,,,,,,,,,,
3838.199999988079,,directmemory_phase3,1747967,,,,,,,,object_13b.png,,,51,,,0,,object_14a.png,object_13a.png,object_05b.png,object_14a.png,,0.4177215189873418,,0,,,,,,,,,,,
3026.300000011921,,directmemory_phase3,1750996,,,,,,,,object_10c.png,,,50,,,1,,object_04b.png,object_14b.png,object_14c.png,object_14b.png,,0.425,,1,,,,,,,,,,,
2997.199999988079,,directmemory_phase3,1753995,,,,,,,,object_12c.png,,,51,,,1,,object_04a.png,object_05c.png,object_02b.png,object_02b.png,,0.43209876543209874,,1,,,,,,,,,,,
3589.5,,directmemory_phase3,1757587,,,,,,,,object_13a.png,,,49,,,0,,object_11c.png,object_05a.png,object_02c.png,object_05a.png,,0.4268292682926829,,0,,,,,,,,,,,
2621.100000023842,,directmemory_phase3,1760211,,,,,,,,object_07b.png,,,49,,,1,,object_12a.png,object_04a.png,object_15c.png,object_12a.png,,0.43373493975903615,,1,,,,,,,,,,,
2839.400000035763,,directmemory_phase3,1763052,,,,,,,,object_11a.png,,,50,,,1,,object_07c.png,object_15c.png,object_09b.png,object_15c.png,,0.44047619047619047,,1,,,,,,,,,,,
2831.199999988079,,directmemory_phase3,1765886,,,,,,,,object_15c.png,,,50,,,1,,object_04b.png,object_01c.png,object_02a.png,object_01c.png,,0.4470588235294118,,1,,,,,,,,,,,
4398.800000011921,,directmemory_phase3,1770287,,,,,,,,object_06c.png,,,50,,,1,,object_05b.png,object_07b.png,object_13a.png,object_07b.png,,0.45348837209302323,,1,,,,,,,,,,,
3435.5,,directmemory_phase3,1773725,,,,,,,,object_03a.png,,,51,,,0,,object_08c.png,object_11b.png,object_09a.png,object_11b.png,,0.4482758620689655,,0,,,,,,,,,,,
4022.699999988079,,directmemory_phase3,1777750,,,,,,,,object_15a.png,,,50,,,0,,object_15b.png,object_03b.png,object_13c.png,object_13c.png,,0.4431818181818182,,0,,,,,,,,,,,
3346.5,,directmemory_phase3,1781099,,,,,,,,object_03c.png,,,49,,,1,,object_13c.png,object_08b.png,object_01b.png,object_13c.png,,0.449438202247191,,1,,,,,,,,,,,
4232.699999988079,,directmemory_phase3,1785334,,,,,,,,object_10b.png,,,51,,,0,,object_06a.png,object_13a.png,object_10c.png,object_13a.png,,0.4444444444444444,,0,,,,,,,,,,,
null,,thebreak,1785448,,,,,,,,<p></p>,,,null,,,,,,,,,,,,,,,,,,,,,,,
2887.300000011921,,intro_0,1788336,,,,,,,,instruct,,,32,,,,,,,,,,,,,,,,,,,,,,,
null,,learn_phase(without_color)4,1791841,,,,,,,,black_plus_sign,,,null,object_10b.png,object_13a.png,,,,,,,,,,,,,,,,,,,,,
null,,black_cross(without_color)4,1792509,,,,,,,,blue,,,null,object_10b.png,object_13a.png,,,,,,,,,,,,,,,,,,,,,
null,,rt_plussign_withcolor4,1793015,,,,,,,,blue,,,null,object_10b.png,object_13a.png,,,,,,,,,,,,,,,,,,,,,
null,,rt_thecrossant_black4,1794360,,,,,,,,black_plus_sign,,,null,,,,,,,,,,NaN,,,,,,,,,,,,,
null,,warning_page,1799362,,,,,,,,warning,,,null,,,,,,,,,,,,,,,,,,,,,,,
null,,color_black4,1799464,,,,,,,,black_plus_sign,,,null,,,,,,,,,,,,,,,,,,,,,,,
null,,learn_phase(without_color)4,1802974,,,,,,,,black_plus_sign,,,null,object_13c.png,object_03c.png,,,,,,,,,,,,,,,,,,,,,
null,,black_cross(without_color)4,1803983,,,,,,,,blue,,,null,object_13c.png,object_03c.png,,,,,,,,,,,,,,,,,,,,,
null,,rt_plussign_withcolor4,1804497,,,,,,,,blue,,,null,object_13c.png,object_03c.png,,,,,,,,,,,,,,,,,,,,,
1186.2999999523163,,rt_thecrossant_black4,1805513,,,,,,,,black_plus_sign,,,49,,,1,,,,,,,1,,,,,,,,,,,,,
null,,color_black4,1805622,,,,,,,,black_plus_sign,,,null,,,,,,,,,,,,,,,,,,,,,,,
null,,learn_phase(without_color)4,1809135,,,,,,,,black_plus_sign,,,null,object_11a.png,object_15c.png,,,,,,,,,,,,,,,,,,,,,
null,,black_cross(without_color)4,1809631,,,,,,,,green,,,null,object_11a.png,object_15c.png,,,,,,,,,,,,,,,,,,,,,
null,,rt_plussign_withcolor4,1810133,,,,,,,,green,,,null,object_11a.png,object_15c.png,,,,,,,,,,,,,,,,,,,,,
1378.3999999761581,,rt_thecrossant_black4,1811657,,,,,,,,black_plus_sign,,,50,,,1,,,,,,,1,,,,,,,,,,,,,
null,,color_black4,1811769,,,,,,,,black_plus_sign,,,null,,,,,,,,,,,,,,,,,,,,,,,
null,,learn_phase(without_color)4,1815283,,,,,,,,black_plus_sign,,,null,object_11b.png,object_06a.png,,,,,,,,,,,,,,,,,,,,,
null,,black_cross(without_color)4,1816343,,,,,,,,green,,,null,object_11b.png,object_06a.png,,,,,,,,,,,,,,,,,,,,,
null,,rt_plussign_withcolor4,1816859,,,,,,,,green,,,null,object_11b.png,object_06a.png,,,,,,,,,,,,,,,,,,,,,
850,,rt_thecrossant_black4,1817809,,,,,,,,black_plus_sign,,,50,,,1,,,,,,,1,,,,,,,,,,,,,
null,,color_black4,1817918,,,,,,,,black_plus_sign,,,null,,,,,,,,,,,,,,,,,,,,,,,
null,,learn_phase(without_color)4,1821421,,,,,,,,black_plus_sign,,,null,object_07a.png,object_04b.png,,,,,,,,,,,,,,,,,,,,,
null,,black_cross(without_color)4,1822089,,,,,,,,blue,,,null,object_07a.png,object_04b.png,,,,,,,,,,,,,,,,,,,,,
null,,rt_plussign_withcolor4,1822596,,,,,,,,blue,,,null,object_07a.png,object_04b.png,,,,,,,,,,,,,,,,,,,,,
1656.6000000238419,,rt_thecrossant_black4,1823941,,,,,,,,black_plus_sign,,,50,,,0,,,,,,,0.75,,,,,,,,,,,,,
null,,warning_page,1828950,,,,,,,,warning,,,null,,,,,,,,,,,,,,,,,,,,,,,
null,,color_black4,1829054,,,,,,,,black_plus_sign,,,null,,,,,,,,,,,,,,,,,,,,,,,
null,,learn_phase(without_color)4,1832568,,,,,,,,black_plus_sign,,,null,object_07c.png,object_10c.png,,,,,,,,,,,,,,,,,,,,,
null,,black_cross(without_color)4,1833479,,,,,,,,blue,,,null,object_07c.png,object_10c.png,,,,,,,,,,,,,,,,,,,,,
null,,rt_plussign_withcolor4,1833996,,,,,,,,blue,,,null,object_07c.png,object_10c.png,,,,,,,,,,,,,,,,,,,,,
1159.9000000357628,,rt_thecrossant_black4,1835104,,,,,,,,black_plus_sign,,,49,,,1,,,,,,,0.8,,,,,,,,,,,,,
null,,color_black4,1835213,,,,,,,,black_plus_sign,,,null,,,,,,,,,,,,,,,,,,,,,,,
null,,learn_phase(without_color)4,1838724,,,,,,,,black_plus_sign,,,null,object_08a.png,object_05c.png,,,,,,,,,,,,,,,,,,,,,
null,,black_cross(without_color)4,1839353,,,,,,,,green,,,null,object_08a.png,object_05c.png,,,,,,,,,,,,,,,,,,,,,
null,,rt_plussign_withcolor4,1839861,,,,,,,,green,,,null,object_08a.png,object_05c.png,,,,,,,,,,,,,,,,,,,,,
1285.1000000238419,,rt_thecrossant_black4,1841252,,,,,,,,black_plus_sign,,,50,,,1,,,,,,,0.8333333333333334,,,,,,,,,,,,,
null,,color_black4,1841366,,,,,,,,black_plus_sign,,,null,,,,,,,,,,,,,,,,,,,,,,,
null,,learn_phase(without_color)4,1844869,,,,,,,,black_plus_sign,,,null,object_02b.png,object_12c.png,,,,,,,,,,,,,,,,,,,,,
null,,black_cross(without_color)4,1845931,,,,,,,,green,,,null,object_02b.png,object_12c.png,,,,,,,,,,,,,,,,,,,,,
null,,rt_plussign_withcolor4,1846444,,,,,,,,green,,,null,object_02b.png,object_12c.png,,,,,,,,,,,,,,,,,,,,,
785.9000000357628,,rt_thecrossant_black4,1847407,,,,,,,,black_plus_sign,,,50,,,1,,,,,,,0.8571428571428571,,,,,,,,,,,,,
null,,color_black4,1847517,,,,,,,,black_plus_sign,,,null,,,,,,,,,,,,,,,,,,,,,,,
null,,learn_phase(without_color)4,1851020,,,,,,,,black_plus_sign,,,null,object_07b.png,object_12a.png,,,,,,,,,,,,,,,,,,,,,
null,,black_cross(without_color)4,1851616,,,,,,,,green,,,null,object_07b.png,object_12a.png,,,,,,,,,,,,,,,,,,,,,
null,,rt_plussign_withcolor4,1852126,,,,,,,,green,,,null,object_07b.png,object_12a.png,,,,,,,,,,,,,,,,,,,,,
1878.4000000357628,,rt_thecrossant_black4,1853551,,,,,,,,black_plus_sign,,,50,,,1,,,,,,,0.875,,,,,,,,,,,,,
null,,color_black4,1853666,,,,,,,,black_plus_sign,,,null,,,,,,,,,,,,,,,,,,,,,,,
null,,learn_phase(without_color)4,1857174,,,,,,,,black_plus_sign,,,null,object_09b.png,object_05b.png,,,,,,,,,,,,,,,,,,,,,
null,,black_cross(without_color)4,1858187,,,,,,,,blue,,,null,object_09b.png,object_05b.png,,,,,,,,,,,,,,,,,,,,,
null,,rt_plussign_withcolor4,1858692,,,,,,,,blue,,,null,object_09b.png,object_05b.png,,,,,,,,,,,,,,,,,,,,,
1065.9000000357628,,rt_thecrossant_black4,1859698,,,,,,,,black_plus_sign,,,49,,,1,,,,,,,0.8888888888888888,,,,,,,,,,,,,
null,,color_black4,1859813,,,,,,,,black_plus_sign,,,null,,,,,,,,,,,,,,,,,,,,,,,
null,,learn_phase(without_color)4,1863319,,,,,,,,black_plus_sign,,,null,object_13b.png,object_14a.png,,,,,,,,,,,,,,,,,,,,,
null,,black_cross(without_color)4,1864345,,,,,,,,blue,,,null,object_13b.png,object_14a.png,,,,,,,,,,,,,,,,,,,,,
null,,rt_plussign_withcolor4,1864862,,,,,,,,blue,,,null,object_13b.png,object_14a.png,,,,,,,,,,,,,,,,,,,,,
1406.8999999761581,,rt_thecrossant_black4,1865850,,,,,,,,black_plus_sign,,,49,,,1,,,,,,,0.9,,,,,,,,,,,,,
null,,color_black4,1865959,,,,,,,,black_plus_sign,,,null,,,,,,,,,,,,,,,,,,,,,,,
null,,learn_phase(without_color)4,1869473,,,,,,,,black_plus_sign,,,null,object_10c.png,object_14b.png,,,,,,,,,,,,,,,,,,,,,
null,,black_cross(without_color)4,1869982,,,,,,,,green,,,null,object_10c.png,object_14b.png,,,,,,,,,,,,,,,,,,,,,
null,,rt_plussign_withcolor4,1870489,,,,,,,,green,,,null,object_10c.png,object_14b.png,,,,,,,,,,,,,,,,,,,,,
1503.3999999761581,,rt_thecrossant_black4,1871990,,,,,,,,black_plus_sign,,,50,,,1,,,,,,,0.9090909090909091,,,,,,,,,,,,,
null,,color_black4,1872099,,,,,,,,black_plus_sign,,,null,,,,,,,,,,,,,,,,,,,,,,,
null,,learn_phase(without_color)4,1875611,,,,,,,,black_plus_sign,,,null,object_04c.png,object_09a.png,,,,,,,,,,,,,,,,,,,,,
null,,black_cross(without_color)4,1876561,,,,,,,,green,,,null,object_04c.png,object_09a.png,,,,,,,,,,,,,,,,,,,,,
null,,rt_plussign_withcolor4,1877073,,,,,,,,green,,,null,object_04c.png,object_09a.png,,,,,,,,,,,,,,,,,,,,,
1043.3999999761581,,rt_thecrossant_black4,1878139,,,,,,,,black_plus_sign,,,50,,,1,,,,,,,0.9166666666666666,,,,,,,,,,,,,
null,,color_black4,1878248,,,,,,,,black_plus_sign,,,null,,,,,,,,,,,,,,,,,,,,,,,
null,,learn_phase(without_color)4,1881761,,,,,,,,black_plus_sign,,,null,object_02c.png,object_09a.png,,,,,,,,,,,,,,,,,,,,,
null,,black_cross(without_color)4,1882219,,,,,,,,blue,,,null,object_02c.png,object_09a.png,,,,,,,,,,,,,,,,,,,,,
null,,rt_plussign_withcolor4,1882732,,,,,,,,blue,,,null,object_02c.png,object_09a.png,,,,,,,,,,,,,,,,,,,,,
1375.300000011921,,rt_thecrossant_black4,1884307,,,,,,,,black_plus_sign,,,49,,,1,,,,,,,0.9230769230769231,,,,,,,,,,,,,
null,,color_black4,1884422,,,,,,,,black_plus_sign,,,null,,,,,,,,,,,,,,,,,,,,,,,
null,,learn_phase(without_color)4,1887932,,,,,,,,black_plus_sign,,,null,object_13a.png,object_05a.png,,,,,,,,,,,,,,,,,,,,,
null,,black_cross(without_color)4,1888354,,,,,,,,blue,,,null,object_13a.png,object_05a.png,,,,,,,,,,,,,,,,,,,,,
null,,rt_plussign_withcolor4,1888863,,,,,,,,blue,,,null,object_13a.png,object_05a.png,,,,,,,,,,,,,,,,,,,,,
878.1999999880791,,rt_thecrossant_black4,1890470,,,,,,,,black_plus_sign,,,49,,,1,,,,,,,0.9285714285714286,,,,,,,,,,,,,
null,,color_black4,1890585,,,,,,,,black_plus_sign,,,null,,,,,,,,,,,,,,,,,,,,,,,
null,,learn_phase(without_color)4,1894099,,,,,,,,black_plus_sign,,,null,object_06c.png,object_07b.png,,,,,,,,,,,,,,,,,,,,,
null,,black_cross(without_color)4,1894638,,,,,,,,green,,,null,object_06c.png,object_07b.png,,,,,,,,,,,,,,,,,,,,,
null,,rt_plussign_withcolor4,1895152,,,,,,,,green,,,null,object_06c.png,object_07b.png,,,,,,,,,,,,,,,,,,,,,
840.0999999642372,,rt_thecrossant_black4,1896636,,,,,,,,black_plus_sign,,,50,,,1,,,,,,,0.9333333333333333,,,,,,,,,,,,,
null,,color_black4,1896745,,,,,,,,black_plus_sign,,,null,,,,,,,,,,,,,,,,,,,,,,,
null,,learn_phase(without_color)4,1900249,,,,,,,,black_plus_sign,,,null,object_12c.png,object_12b.png,,,,,,,,,,,,,,,,,,,,,
null,,black_cross(without_color)4,1900775,,,,,,,,green,,,null,object_12c.png,object_12b.png,,,,,,,,,,,,,,,,,,,,,
null,,rt_plussign_withcolor4,1901282,,,,,,,,green,,,null,object_12c.png,object_12b.png,,,,,,,,,,,,,,,,,,,,,
1382.8999999761581,,rt_thecrossant_black4,1902777,,,,,,,,black_plus_sign,,,50,,,1,,,,,,,0.9375,,,,,,,,,,,,,
null,,color_black4,1902891,,,,,,,,black_plus_sign,,,null,,,,,,,,,,,,,,,,,,,,,,,
null,,learn_phase(without_color)4,1906401,,,,,,,,black_plus_sign,,,null,object_08b.png,object_03b.png,,,,,,,,,,,,,,,,,,,,,
null,,black_cross(without_color)4,1907456,,,,,,,,green,,,null,object_08b.png,object_03b.png,,,,,,,,,,,,,,,,,,,,,
489.80000001192093,,rt_plussign_withcolor4,1907958,,,,,,,,green,,,50,object_08b.png,object_03b.png,,,,,,,,,,,,,,,,,,,,,
null,,rt_thecrossant_black4,1908912,,,,,,,,black_plus_sign,,,null,,,1,,,,,,,0.9411764705882353,,,,,,,,,,,,,
null,,color_black4,1909022,,,,,,,,black_plus_sign,,,null,,,,,,,,,,,,,,,,,,,,,,,
null,,learn_phase(without_color)4,1912530,,,,,,,,black_plus_sign,,,null,object_11b.png,object_03a.png,,,,,,,,,,,,,,,,,,,,,
null,,black_cross(without_color)4,1913435,,,,,,,,green,,,null,object_11b.png,object_03a.png,,,,,,,,,,,,,,,,,,,,,
483,,rt_plussign_withcolor4,1913938,,,,,,,,green,,,50,object_11b.png,object_03a.png,,,,,,,,,,,,,,,,,,,,,
null,,rt_thecrossant_black4,1915060,,,,,,,,black_plus_sign,,,null,,,1,,,,,,,0.9444444444444444,,,,,,,,,,,,,
null,,color_black4,1915168,,,,,,,,black_plus_sign,,,null,,,,,,,,,,,,,,,,,,,,,,,
null,,learn_phase(without_color)4,1918677,,,,,,,,black_plus_sign,,,null,object_09c.png,object_11c.png,,,,,,,,,,,,,,,,,,,,,
null,,black_cross(without_color)4,1919477,,,,,,,,blue,,,null,object_09c.png,object_11c.png,,,,,,,,,,,,,,,,,,,,,
null,,rt_plussign_withcolor4,1919984,,,,,,,,blue,,,null,object_09c.png,object_11c.png,,,,,,,,,,,,,,,,,,,,,
1488.5999999642372,,rt_thecrossant_black4,1921197,,,,,,,,black_plus_sign,,,49,,,1,,,,,,,0.9473684210526315,,,,,,,,,,,,,
null,,color_black4,1921304,,,,,,,,black_plus_sign,,,null,,,,,,,,,,,,,,,,,,,,,,,
null,,learn_phase(without_color)4,1924815,,,,,,,,black_plus_sign,,,null,object_04b.png,object_14c.png,,,,,,,,,,,,,,,,,,,,,
null,,black_cross(without_color)4,1925369,,,,,,,,green,,,null,object_04b.png,object_14c.png,,,,,,,,,,,,,,,,,,,,,
null,,rt_plussign_withcolor4,1925882,,,,,,,,green,,,null,object_04b.png,object_14c.png,,,,,,,,,,,,,,,,,,,,,
1025.199999988079,,rt_thecrossant_black4,1927344,,,,,,,,black_plus_sign,,,50,,,1,,,,,,,0.95,,,,,,,,,,,,,
null,,color_black4,1927454,,,,,,,,black_plus_sign,,,null,,,,,,,,,,,,,,,,,,,,,,,
null,,learn_phase(without_color)4,1930972,,,,,,,,black_plus_sign,,,null,object_10a.png,object_08b.png,,,,,,,,,,,,,,,,,,,,,
null,,black_cross(without_color)4,1931547,,,,,,,,blue,,,null,object_10a.png,object_08b.png,,,,,,,,,,,,,,,,,,,,,
null,,rt_plussign_withcolor4,1932058,,,,,,,,blue,,,null,object_10a.png,object_08b.png,,,,,,,,,,,,,,,,,,,,,
837,,rt_thecrossant_black4,1933491,,,,,,,,black_plus_sign,,,49,,,1,,,,,,,0.9523809523809523,,,,,,,,,,,,,
null,,color_black4,1933601,,,,,,,,black_plus_sign,,,null,,,,,,,,,,,,,,,,,,,,,,,
null,,learn_phase(without_color)4,1937111,,,,,,,,black_plus_sign,,,null,object_05c.png,object_08c.png,,,,,,,,,,,,,,,,,,,,,
null,,black_cross(without_color)4,1938051,,,,,,,,blue,,,null,object_05c.png,object_08c.png,,,,,,,,,,,,,,,,,,,,,
null,,rt_plussign_withcolor4,1938565,,,,,,,,blue,,,null,object_05c.png,object_08c.png,,,,,,,,,,,,,,,,,,,,,
836.5,,rt_thecrossant_black4,1939649,,,,,,,,black_plus_sign,,,49,,,1,,,,,,,0.9545454545454546,,,,,,,,,,,,,
null,,color_black4,1939752,,,,,,,,black_plus_sign,,,null,,,,,,,,,,,,,,,,,,,,,,,
null,,learn_phase(without_color)4,1943262,,,,,,,,black_plus_sign,,,null,object_02a.png,object_11c.png,,,,,,,,,,,,,,,,,,,,,
null,,black_cross(without_color)4,1944256,,,,,,,,blue,,,null,object_02a.png,object_11c.png,,,,,,,,,,,,,,,,,,,,,
null,,rt_plussign_withcolor4,1944759,,,,,,,,blue,,,null,object_02a.png,object_11c.png,,,,,,,,,,,,,,,,,,,,,
1205,,rt_thecrossant_black4,1945789,,,,,,,,black_plus_sign,,,49,,,1,,,,,,,0.9565217391304348,,,,,,,,,,,,,
null,,color_black4,1945897,,,,,,,,black_plus_sign,,,null,,,,,,,,,,,,,,,,,,,,,,,
null,,learn_phase(without_color)4,1949400,,,,,,,,black_plus_sign,,,null,object_04a.png,object_09b.png,,,,,,,,,,,,,,,,,,,,,
null,,black_cross(without_color)4,1950429,,,,,,,,green,,,null,object_04a.png,object_09b.png,,,,,,,,,,,,,,,,,,,,,
458.89999997615814,,rt_plussign_withcolor4,1950930,,,,,,,,green,,,50,object_04a.png,object_09b.png,,,,,,,,,,,,,,,,,,,,,
null,,rt_thecrossant_black4,1951922,,,,,,,,black_plus_sign,,,null,,,1,,,,,,,0.9583333333333334,,,,,,,,,,,,,
null,,color_black4,1952030,,,,,,,,black_plus_sign,,,null,,,,,,,,,,,,,,,,,,,,,,,
null,,learn_phase(without_color)4,1955534,,,,,,,,black_plus_sign,,,null,object_13c.png,object_15a.png,,,,,,,,,,,,,,,,,,,,,
null,,black_cross(without_color)4,1955962,,,,,,,,green,,,null,object_13c.png,object_15a.png,,,,,,,,,,,,,,,,,,,,,
null,,rt_plussign_withcolor4,1956477,,,,,,,,green,,,null,object_13c.png,object_15a.png,,,,,,,,,,,,,,,,,,,,,
null,,rt_thecrossant_black4,1958071,,,,,,,,black_plus_sign,,,null,,,,,,,,,,0.9583333333333334,,,,,,,,,,,,,
null,,warning_page,1963073,,,,,,,,warning,,,null,,,,,,,,,,,,,,,,,,,,,,,
null,,color_black4,1963187,,,,,,,,black_plus_sign,,,null,,,,,,,,,,,,,,,,,,,,,,,
null,,learn_phase(without_color)4,1966705,,,,,,,,black_plus_sign,,,null,object_01b.png,object_15b.png,,,,,,,,,,,,,,,,,,,,,
null,,black_cross(without_color)4,1967751,,,,,,,,blue,,,null,object_01b.png,object_15b.png,,,,,,,,,,,,,,,,,,,,,
null,,rt_plussign_withcolor4,1968265,,,,,,,,blue,,,null,object_01b.png,object_15b.png,,,,,,,,,,,,,,,,,,,,,
936.8000000119209,,rt_thecrossant_black4,1969240,,,,,,,,black_plus_sign,,,49,,,1,,,,,,,0.96,,,,,,,,,,,,,
null,,color_black4,1969347,,,,,,,,black_plus_sign,,,null,,,,,,,,,,,,,,,,,,,,,,,
null,,learn_phase(without_color)4,1972861,,,,,,,,black_plus_sign,,,null,object_01a.png,object_14a.png,,,,,,,,,,,,,,,,,,,,,
null,,black_cross(without_color)4,1973443,,,,,,,,green,,,null,object_01a.png,object_14a.png,,,,,,,,,,,,,,,,,,,,,
null,,rt_plussign_withcolor4,1973946,,,,,,,,green,,,null,object_01a.png,object_14a.png,,,,,,,,,,,,,,,,,,,,,
1503.8999999761581,,rt_thecrossant_black4,1975390,,,,,,,,black_plus_sign,,,50,,,1,,,,,,,0.9615384615384616,,,,,,,,,,,,,
null,,color_black4,1975505,,,,,,,,black_plus_sign,,,null,,,,,,,,,,,,,,,,,,,,,,,
null,,learn_phase(without_color)4,1979011,,,,,,,,black_plus_sign,,,null,object_15b.png,object_06b.png,,,,,,,,,,,,,,,,,,,,,
null,,black_cross(without_color)4,1979593,,,,,,,,green,,,null,object_15b.png,object_06b.png,,,,,,,,,,,,,,,,,,,,,
null,,rt_plussign_withcolor4,1980101,,,,,,,,green,,,null,object_15b.png,object_06b.png,,,,,,,,,,,,,,,,,,,,,
933.3000000119209,,rt_thecrossant_black4,1981542,,,,,,,,black_plus_sign,,,50,,,1,,,,,,,0.9629629629629629,,,,,,,,,,,,,
null,,color_black4,1981653,,,,,,,,black_plus_sign,,,null,,,,,,,,,,,,,,,,,,,,,,,
null,,learn_phase(without_color)4,1985165,,,,,,,,black_plus_sign,,,null,object_01c.png,object_15c.png,,,,,,,,,,,,,,,,,,,,,
null,,black_cross(without_color)4,1985714,,,,,,,,blue,,,null,object_01c.png,object_15c.png,,,,,,,,,,,,,,,,,,,,,
null,,rt_plussign_withcolor4,1986221,,,,,,,,blue,,,null,object_01c.png,object_15c.png,,,,,,,,,,,,,,,,,,,,,
902.8999999761581,,rt_thecrossant_black4,1987685,,,,,,,,black_plus_sign,,,49,,,1,,,,,,,0.9642857142857143,,,,,,,,,,,,,
null,,color_black4,1987799,,,,,,,,black_plus_sign,,,null,,,,,,,,,,,,,,,,,,,,,,,
null,,thebreak,1987908,,,,,,,,<p></p>,,,null,,,,,,,,,,,,,,,,,,,,,,,
1935.8999999761581,,intro_0,1989845,,,,,,,,instruct,,,32,,,,,,,,,,,,,,,,,,,,,,,
6330.400000035763,,directmemory_phase4,1996177,,,,,,,,object_15c.png,,,49,,,0,,object_13c.png,object_01c.png,object_08c.png,object_01c.png,,0.43956043956043955,,0,,,,,,,,,,,
2560.5,,directmemory_phase4,1998740,,,,,,,,object_01b.png,,,49,,,1,,object_15b.png,object_11c.png,object_07a.png,object_15b.png,,0.44565217391304346,,1,,,,,,,,,,,
3210.300000011921,,directmemory_phase4,2001953,,,,,,,,object_02a.png,,,50,,,1,,object_14c.png,object_11c.png,object_09b.png,object_11c.png,,0.45161290322580644,,1,,,,,,,,,,,
4660.699999988079,,directmemory_phase4,2006616,,,,,,,,object_03c.png,,,51,,,0,,object_13c.png,object_09b.png,object_10b.png,object_13c.png,,0.44680851063829785,,0,,,,,,,,,,,
2981.5,,directmemory_phase4,2009600,,,,,,,,object_12b.png,,,50,,,1,,object_03c.png,object_12c.png,object_13c.png,object_12c.png,,0.45263157894736844,,1,,,,,,,,,,,
4218.099999964237,,directmemory_phase4,2013821,,,,,,,,object_09a.png,,,50,,,0,,object_02c.png,object_03a.png,object_15c.png,object_02c.png,,0.4479166666666667,,0,,,,,,,,,,,
3988,,directmemory_phase4,2017811,,,,,,,,object_07a.png,,,50,,,1,,object_10a.png,object_04b.png,object_08b.png,object_04b.png,,0.4536082474226804,,1,,,,,,,,,,,
5419.699999988079,,directmemory_phase4,2023234,,,,,,,,object_14c.png,,,49,,,1,,object_04b.png,object_14a.png,object_03b.png,object_04b.png,,0.45918367346938777,,1,,,,,,,,,,,
2000.5,,directmemory_phase4,2025237,,,,,,,,object_06c.png,,,50,,,0,,object_07b.png,object_04b.png,object_04c.png,object_07b.png,,0.45454545454545453,,0,,,,,,,,,,,
3033.199999988079,,directmemory_phase4,2028273,,,,,,,,object_13b.png,,,50,,,0,,object_08b.png,object_01b.png,object_14a.png,object_14a.png,,0.45,,0,,,,,,,,,,,
2037.6000000238419,,directmemory_phase4,2030313,,,,,,,,object_14b.png,,,51,,,1,,object_11c.png,object_01a.png,object_10c.png,object_10c.png,,0.45544554455445546,,1,,,,,,,,,,,
3251.5,,directmemory_phase4,2033567,,,,,,,,object_12c.png,,,49,,,0,,object_04b.png,object_02b.png,object_15a.png,object_02b.png,,0.45098039215686275,,0,,,,,,,,,,,
3235.099999964237,,directmemory_phase4,2036805,,,,,,,,object_08b.png,,,49,,,1,,object_03b.png,object_08c.png,object_09b.png,object_03b.png,,0.4563106796116505,,1,,,,,,,,,,,
4407.600000023842,,directmemory_phase4,2041215,,,,,,,,object_07c.png,,,50,,,0,,object_12c.png,object_08a.png,object_10c.png,object_10c.png,,0.4519230769230769,,0,,,,,,,,,,,
5201.799999952316,,directmemory_phase4,2046420,,,,,,,,object_13c.png,,,51,,,0,,object_15a.png,object_05a.png,object_12c.png,object_15a.png,,0.44761904761904764,,0,,,,,,,,,,,
4320.399999976158,,directmemory_phase4,2050743,,,,,,,,object_08a.png,,,50,,,0,,object_11b.png,object_07c.png,object_05c.png,object_05c.png,,0.44339622641509435,,0,,,,,,,,,,,
