rt,responses,trial_type,time_elapsed,identifier_a,identifier_b,identifier_c,tasktype,browser_type,local_time,UTC_time,stimulus,button_pressed,response,key_press,stimulus_left,stimulus_right,accuracy,practice_cumulative_accuracy,stimulus_down_left,stimulus_down_mid,stimulus_down_right,stimulus_correct,prac_weighted_accuracy,cumulative_accuracy,weighted_accuracy,stimulus_middle,problems,smooth,distraction,strategies,easier,similar,comments,detectfocus,breakfocus,completion_code
202238.30000000075,{worker_id:6578ae6e6457e054e58a7c2d},id_enter,204014,object_06a.png; object_13b.png; object_03a.png; object_03b.png; object_14b.png; object_05b.png; object_10a.png; object_03c.png; object_07b.png; object_14a.png; object_15c.png; object_12c.png; object_12a.png; object_11b.png; object_02b.png,object_04b.png; object_07c.png; object_01a.png; object_09a.png; object_08a.png; object_08b.png; object_04c.png; object_09c.png; object_14c.png; object_07a.png; object_05c.png; object_11c.png; object_13a.png; object_06b.png; object_02c.png,object_15b.png; object_11a.png; object_02a.png; object_15a.png; object_10b.png; object_04a.png; object_01b.png; object_05a.png; object_08c.png; object_12b.png; object_06c.png; object_01c.png; object_09b.png; object_10c.png; object_13c.png,blocked,Mozilla/5.0 (Windows NT 10.0; Win64; x64) AppleWebKit/537.36 (KHTML, like Gecko) Chrome/136.0.0.0 Safari/537.36,5/8/2025, 7:50:55 PM,2025-05-09 00:50:55.651,,,,,,,,,,,,,,,,,,,,,,,,,,
44721.700000000186,,make_fullscreen,248766,,,,,,,,fullscreen,0,,,,,,,,,,,,,,,,,,,,,,,,
131501.2999999998,,instruct_1,380269,,,,,,,,instruct,0,Next,,,,,,,,,,,,,,,,,,,,,,,
167966.40000000037,,instruct_2,548237,,,,,,,,instruct,1,Next,,,,,,,,,,,,,,,,,,,,,,,
44623.300000000745,,instruct_3,592861,,,,,,,,instruct,1,Next,,,,,,,,,,,,,,,,,,,,,,,
786141.6999999993,,instruct_4,1379004,,,,,,,,instruct,1,Next,,,,,,,,,,,,,,,,,,,,,,,
29030.400000000373,,instruct_5,1408036,,,,,,,,instruct,1,Next,,,,,,,,,,,,,,,,,,,,,,,
2062.7000000011176,,instruct_6,1410100,,,,,,,,instruct,1,Next,,,,,,,,,,,,,,,,,,,,,,,
14414.900000000373,,instruct_7,1424515,,,,,,,,instruct,1,Next,,,,,,,,,,,,,,,,,,,,,,,
null,,prac_atten_color_black,1425042,,,,,,,,black_plus_sign,,,null,,,,,,,,,,,,,,,,,,,,,,
787.4000000003725,,prac_atten_color,1425924,,,,,,,,<p style='position:absolute;top: 50%;right: 50%;transform: translate(50%, -50%);font-size: 125px;color: blue;'>+</p>,,,49,,,,,,,,,,,,,,,,,,,,,,
null,,prac_atten_color_black,1427926,,,,,,,,black_plus_sign,,,null,,,,,,,,,,,,,,,,,,,,,,
null,,prac_atten_color_black,1428454,,,,,,,,black_plus_sign,,,null,,,,,,,,,,,,,,,,,,,,,,
562.7000000011176,,prac_atten_color,1429287,,,,,,,,<p style='position:absolute;top: 50%;right: 50%;transform: translate(50%, -50%);font-size: 125px;color: green;'>+</p>,,,50,,,,,,,,,,,,,,,,,,,,,,
null,,prac_atten_color_black,1431289,,,,,,,,black_plus_sign,,,null,,,,,,,,,,,,,,,,,,,,,,
null,,prac_atten_color_black,1431863,,,,,,,,black_plus_sign,,,null,,,,,,,,,,,,,,,,,,,,,,
615.4000000003725,,prac_atten_color,1432783,,,,,,,,<p style='position:absolute;top: 50%;right: 50%;transform: translate(50%, -50%);font-size: 125px;color: green;'>+</p>,,,50,,,,,,,,,,,,,,,,,,,,,,
null,,prac_atten_color_black,1434785,,,,,,,,black_plus_sign,,,null,,,,,,,,,,,,,,,,,,,,,,
null,,prac_atten_color_black,1435270,,,,,,,,black_plus_sign,,,null,,,,,,,,,,,,,,,,,,,,,,
null,,prac_atten_color,1436031,,,,,,,,<p style='position:absolute;top: 50%;right: 50%;transform: translate(50%, -50%);font-size: 125px;color: blue;'>+</p>,,,null,,,,,,,,,,,,,,,,,,,,,,
240.30000000074506,,prac_atten_color_black,1438033,,,,,,,,black_plus_sign,,,49,,,,,,,,,,,,,,,,,,,,,,
null,,prac_atten_color_black,1438677,,,,,,,,black_plus_sign,,,null,,,,,,,,,,,,,,,,,,,,,,
null,,prac_atten_color,1439288,,,,,,,,<p style='position:absolute;top: 50%;right: 50%;transform: translate(50%, -50%);font-size: 125px;color: green;'>+</p>,,,null,,,,,,,,,,,,,,,,,,,,,,
98.30000000074506,,prac_atten_color_black,1441290,,,,,,,,black_plus_sign,,,50,,,,,,,,,,,,,,,,,,,,,,
null,,prac_atten_color_black,1442094,,,,,,,,black_plus_sign,,,null,,,,,,,,,,,,,,,,,,,,,,
493.09999999962747,,prac_atten_color,1442937,,,,,,,,<p style='position:absolute;top: 50%;right: 50%;transform: translate(50%, -50%);font-size: 125px;color: green;'>+</p>,,,49,,,,,,,,,,,,,,,,,,,,,,
77.09999999962747,,prac_atten_color_black,1444948,,,,,,,,black_plus_sign,,,50,,,,,,,,,,,,,,,,,,,,,,
null,,prac_atten_color_black,1445515,,,,,,,,black_plus_sign,,,null,,,,,,,,,,,,,,,,,,,,,,
590.2000000011176,,prac_atten_color,1446602,,,,,,,,<p style='position:absolute;top: 50%;right: 50%;transform: translate(50%, -50%);font-size: 125px;color: blue;'>+</p>,,,49,,,,,,,,,,,,,,,,,,,,,,
466.5,,prac_atten_color_black,1448604,,,,,,,,black_plus_sign,,,49,,,,,,,,,,,,,,,,,,,,,,
null,,prac_atten_color_black,1448923,,,,,,,,black_plus_sign,,,null,,,,,,,,,,,,,,,,,,,,,,
399.09999999962747,,prac_atten_color,1449390,,,,,,,,<p style='position:absolute;top: 50%;right: 50%;transform: translate(50%, -50%);font-size: 125px;color: green;'>+</p>,,,50,,,,,,,,,,,,,,,,,,,,,,
162.40000000037253,,prac_atten_color_black,1451393,,,,,,,,black_plus_sign,,,50,,,,,,,,,,,,,,,,,,,,,,
null,,prac_atten_color_black,1452339,,,,,,,,black_plus_sign,,,null,,,,,,,,,,,,,,,,,,,,,,
364.90000000037253,,prac_atten_color,1453360,,,,,,,,<p style='position:absolute;top: 50%;right: 50%;transform: translate(50%, -50%);font-size: 125px;color: blue;'>+</p>,,,49,,,,,,,,,,,,,,,,,,,,,,
null,,prac_atten_color_black,1455362,,,,,,,,black_plus_sign,,,null,,,,,,,,,,,,,,,,,,,,,,
null,,prac_atten_color_black,1455746,,,,,,,,black_plus_sign,,,null,,,,,,,,,,,,,,,,,,,,,,
549.7000000011176,,prac_atten_color,1456818,,,,,,,,<p style='position:absolute;top: 50%;right: 50%;transform: translate(50%, -50%);font-size: 125px;color: blue;'>+</p>,,,50,,,,,,,,,,,,,,,,,,,,,,
12.699999999254942,,prac_atten_color_black,1458820,,,,,,,,black_plus_sign,,,49,,,,,,,,,,,,,,,,,,,,,,
6981.4000000003725,,attentioncheck_feedback,1465804,,,,,,,,cross_check_feedback,0,,,,,,,,,,,,,,,,,,,,,,,,
8386.800000000745,,last_instruct,1474192,,,,,,,,instruct,,,32,,,,,,,,,,,,,,,,,,,,,,
null,,prac_learn_phase(without_color),1477693,,,,,,,,black_plus_sign,,,null,object_03a.png,object_01a.png,,,,,,,,,,,,,,,,,,,,
null,,prac_black_cross(without_color),1478744,,,,,,,,blue,,,null,object_03a.png,object_01a.png,,,,,,,,,,,,,,,,,,,,
null,,prac_rt_plussign_withcolor,1479246,,,,,,,,blue,,,null,object_03a.png,object_01a.png,,,,,,,,,,,,,,,,,,,,
1603.9000000003725,,prac_rt_thecrossant_black,1480201,,,,,,,,black_plus_sign,,,49,,,1,1,,,,,,,,,,,,,,,,,,
null,,prac_color_black,1480305,,,,,,,,black_plus_sign,,,null,,,,,,,,,,,,,,,,,,,,,,
null,,prac_learn_phase(without_color),1483808,,,,,,,,black_plus_sign,,,null,object_02b.png,object_02c.png,,,,,,,,,,,,,,,,,,,,
null,,black_cross(without_color)1,1484464,,,,,,,,blue,,,null,object_03a.png,object_01a.png,,,,,,,,,,,,,,,,,,,,
null,,prac_rt_plussign_withcolor,1484967,,,,,,,,blue,,,null,object_02b.png,object_02c.png,,,,,,,,,,,,,,,,,,,,
783.0999999996275,,prac_rt_thecrossant_black,1486472,,,,,,,,black_plus_sign,,,49,,,1,1,,,,,,,,,,,,,,,,,,
null,,prac_color_black,1486575,,,,,,,,black_plus_sign,,,null,,,,,,,,,,,,,,,,,,,,,,
null,,prac_learn_phase(without_color),1490079,,,,,,,,black_plus_sign,,,null,object_04b.png,object_06a.png,,,,,,,,,,,,,,,,,,,,
null,,black_cross(without_color)1,1490735,,,,,,,,blue,,,null,object_03a.png,object_01a.png,,,,,,,,,,,,,,,,,,,,
null,,prac_rt_plussign_withcolor,1491237,,,,,,,,blue,,,null,object_04b.png,object_06a.png,,,,,,,,,,,,,,,,,,,,
685.8000000007451,,prac_rt_thecrossant_black,1492165,,,,,,,,black_plus_sign,,,49,,,1,1,,,,,,,,,,,,,,,,,,
null,,prac_color_black,1492268,,,,,,,,black_plus_sign,,,null,,,,,,,,,,,,,,,,,,,,,,
null,,prac_learn_phase(without_color),1495769,,,,,,,,black_plus_sign,,,null,object_09a.png,object_03b.png,,,,,,,,,,,,,,,,,,,,
null,,black_cross(without_color)1,1496424,,,,,,,,blue,,,null,object_03a.png,object_01a.png,,,,,,,,,,,,,,,,,,,,
463.09999999962747,,prac_rt_plussign_withcolor,1496927,,,,,,,,blue,,,49,object_09a.png,object_03b.png,,,,,,,,,,,,,,,,,,,,
null,,prac_rt_thecrossant_black,1498439,,,,,,,,black_plus_sign,,,49,,,1,1,,,,,,,,,,,,,,,,,,
null,,prac_color_black,1498542,,,,,,,,black_plus_sign,,,null,,,,,,,,,,,,,,,,,,,,,,
6635.5999999996275,,instruct_dir_01,1505180,,,,,,,,instruct,0,Next,,,,,,,,,,,,,,,,,,,,,,,
6158.4000000003725,,instruct_dir_2,1511339,,,,,,,,instruct,1,Next,,,,,,,,,,,,,,,,,,,,,,,
3502.89999999851,,instruct_dir_3,1514844,,,,,,,,instruct,1,Next,,,,,,,,,,,,,,,,,,,,,,,
7415,,instruct_dir_4,1522259,,,,,,,,instruct,1,Start,,,,,,,,,,,,,,,,,,,,,,,
null,,thebreak,1522362,,,,,,,,<p></p>,,,null,,,,,,,,,,,,,,,,,,,,,,
1312.8999999985099,,intro_0,1523676,,,,,,,,instruct,,,32,,,,,,,,,,,,,,,,,,,,,,
3909.4000000003725,,prac_directmemory_phase,1527587,,,,,,,,practice/object_04a.png,,,51,,,1,,practice/object_01b.png,practice/object_01a.png,practice/object_04b.png,practice/object_04b.png,1,1,,,,,,,,,,,,
4034.7999999988824,,prac_directmemory_phase,1531625,,,,,,,,practice/object_03a.png,,,51,,,1,,practice/object_01b.png,practice/object_04a.png,practice/object_03b.png,practice/object_03b.png,1,1,,,,,,,,,,,,
2495.699999999255,,prac_directmemory_phase,1534124,,,,,,,,practice/object_02a.png,,,49,,,1,,practice/object_02b.png,practice/object_01b.png,practice/object_01a.png,practice/object_02b.png,1,1,,,,,,,,,,,,
3196.199999999255,,prac_directmemory_phase,1537321,,,,,,,,practice/object_01a.png,,,50,,,1,,practice/object_02a.png,practice/object_01b.png,practice/object_04b.png,practice/object_01b.png,1,1,,,,,,,,,,,,
7489.5999999996275,,practice_feedback,1544812,,,,,,,,practice_feedback,1,,,,,,,,,,,,,,,,,,,,,,,,
9414.799999998882,,proceed_actualTask,1554227,,,,,,,,proceed_actualTask,1,Continue,,,,,,,,,,,,,,,,,,,,,,,
8103.800000000745,,last_inst,1562332,,,,,,,,last_inst,,,32,,,,,,,,,,,,,,,,,,,,,,
null,,learn_phase(without_color)1,1565834,,,,,,,,black_plus_sign,,,null,object_03a.png,object_01a.png,,,,,,,,,,,,,,,,,,,,
null,,black_cross(without_color)1,1566490,,,,,,,,blue,,,null,object_03a.png,object_01a.png,,,,,,,,,,,,,,,,,,,,
null,,rt_plussign_withcolor1,1566993,,,,,,,,blue,,,null,object_03a.png,object_01a.png,,,,,,,,,,,,,,,,,,,,
594.8000000007451,,rt_thecrossant_black1,1568345,,,,,,,,black_plus_sign,,,49,,,1,,,,,,,1,,,,,,,,,,,,
null,,color_black1,1568449,,,,,,,,black_plus_sign,,,null,,,,,,,,,,,,,,,,,,,,,,
null,,learn_phase(without_color)1,1571952,,,,,,,,black_plus_sign,,,null,object_02b.png,object_02c.png,,,,,,,,,,,,,,,,,,,,
null,,black_cross(without_color)1,1573051,,,,,,,,blue,,,null,object_02b.png,object_02c.png,,,,,,,,,,,,,,,,,,,,
null,,rt_plussign_withcolor1,1573554,,,,,,,,blue,,,null,object_02b.png,object_02c.png,,,,,,,,,,,,,,,,,,,,
999.2000000011176,,rt_thecrossant_black1,1574460,,,,,,,,black_plus_sign,,,49,,,1,,,,,,,1,,,,,,,,,,,,
null,,color_black1,1574568,,,,,,,,black_plus_sign,,,null,,,,,,,,,,,,,,,,,,,,,,
null,,learn_phase(without_color)1,1578071,,,,,,,,black_plus_sign,,,null,object_04b.png,object_06a.png,,,,,,,,,,,,,,,,,,,,
null,,black_cross(without_color)1,1578997,,,,,,,,green,,,null,object_04b.png,object_06a.png,,,,,,,,,,,,,,,,,,,,
null,,rt_plussign_withcolor1,1579500,,,,,,,,green,,,null,object_04b.png,object_06a.png,,,,,,,,,,,,,,,,,,,,
1820.4000000003725,,rt_thecrossant_black1,1580579,,,,,,,,black_plus_sign,,,50,,,1,,,,,,,1,,,,,,,,,,,,
null,,color_black1,1580682,,,,,,,,black_plus_sign,,,null,,,,,,,,,,,,,,,,,,,,,,
null,,learn_phase(without_color)1,1584185,,,,,,,,black_plus_sign,,,null,object_09a.png,object_03b.png,,,,,,,,,,,,,,,,,,,,
null,,black_cross(without_color)1,1585123,,,,,,,,green,,,null,object_09a.png,object_03b.png,,,,,,,,,,,,,,,,,,,,
null,,rt_plussign_withcolor1,1585625,,,,,,,,green,,,null,object_09a.png,object_03b.png,,,,,,,,,,,,,,,,,,,,
1319.4000000003725,,rt_thecrossant_black1,1586692,,,,,,,,black_plus_sign,,,50,,,1,,,,,,,1,,,,,,,,,,,,
null,,color_black1,1586803,,,,,,,,black_plus_sign,,,null,,,,,,,,,,,,,,,,,,,,,,
null,,learn_phase(without_color)1,1590306,,,,,,,,black_plus_sign,,,null,object_14a.png,object_07a.png,,,,,,,,,,,,,,,,,,,,
null,,black_cross(without_color)1,1590732,,,,,,,,blue,,,null,object_14a.png,object_07a.png,,,,,,,,,,,,,,,,,,,,
null,,rt_plussign_withcolor1,1591234,,,,,,,,blue,,,null,object_14a.png,object_07a.png,,,,,,,,,,,,,,,,,,,,
1381,,rt_thecrossant_black1,1592813,,,,,,,,black_plus_sign,,,50,,,0,,,,,,,0.8,,,,,,,,,,,,
null,,color_black1,1592916,,,,,,,,black_plus_sign,,,null,,,,,,,,,,,,,,,,,,,,,,
null,,learn_phase(without_color)1,1596418,,,,,,,,black_plus_sign,,,null,object_10a.png,object_04c.png,,,,,,,,,,,,,,,,,,,,
null,,black_cross(without_color)1,1597152,,,,,,,,green,,,null,object_10a.png,object_04c.png,,,,,,,,,,,,,,,,,,,,
null,,rt_plussign_withcolor1,1597655,,,,,,,,green,,,null,object_10a.png,object_04c.png,,,,,,,,,,,,,,,,,,,,
685.6999999992549,,rt_thecrossant_black1,1598926,,,,,,,,black_plus_sign,,,50,,,1,,,,,,,0.8333333333333334,,,,,,,,,,,,
null,,color_black1,1599028,,,,,,,,black_plus_sign,,,null,,,,,,,,,,,,,,,,,,,,,,
null,,learn_phase(without_color)1,1602531,,,,,,,,black_plus_sign,,,null,object_11b.png,object_06b.png,,,,,,,,,,,,,,,,,,,,
null,,black_cross(without_color)1,1603227,,,,,,,,blue,,,null,object_11b.png,object_06b.png,,,,,,,,,,,,,,,,,,,,
null,,rt_plussign_withcolor1,1603730,,,,,,,,blue,,,null,object_11b.png,object_06b.png,,,,,,,,,,,,,,,,,,,,
1175.5,,rt_thecrossant_black1,1605039,,,,,,,,black_plus_sign,,,49,,,1,,,,,,,0.8571428571428571,,,,,,,,,,,,
null,,color_black1,1605141,,,,,,,,black_plus_sign,,,null,,,,,,,,,,,,,,,,,,,,,,
null,,learn_phase(without_color)1,1608644,,,,,,,,black_plus_sign,,,null,object_07c.png,object_13b.png,,,,,,,,,,,,,,,,,,,,
null,,black_cross(without_color)1,1609406,,,,,,,,blue,,,null,object_07c.png,object_13b.png,,,,,,,,,,,,,,,,,,,,
null,,rt_plussign_withcolor1,1609908,,,,,,,,blue,,,null,object_07c.png,object_13b.png,,,,,,,,,,,,,,,,,,,,
1288.4000000003725,,rt_thecrossant_black1,1611164,,,,,,,,black_plus_sign,,,49,,,1,,,,,,,0.875,,,,,,,,,,,,
null,,color_black1,1611267,,,,,,,,black_plus_sign,,,null,,,,,,,,,,,,,,,,,,,,,,
null,,learn_phase(without_color)1,1614770,,,,,,,,black_plus_sign,,,null,object_05c.png,object_15c.png,,,,,,,,,,,,,,,,,,,,
null,,black_cross(without_color)1,1615328,,,,,,,,blue,,,null,object_05c.png,object_15c.png,,,,,,,,,,,,,,,,,,,,
null,,rt_plussign_withcolor1,1615831,,,,,,,,blue,,,null,object_05c.png,object_15c.png,,,,,,,,,,,,,,,,,,,,
1066.1000000014901,,rt_thecrossant_black1,1617278,,,,,,,,black_plus_sign,,,49,,,1,,,,,,,0.8888888888888888,,,,,,,,,,,,
null,,color_black1,1617380,,,,,,,,black_plus_sign,,,null,,,,,,,,,,,,,,,,,,,,,,
null,,learn_phase(without_color)1,1620882,,,,,,,,black_plus_sign,,,null,object_07b.png,object_14c.png,,,,,,,,,,,,,,,,,,,,
null,,black_cross(without_color)1,1621447,,,,,,,,blue,,,null,object_07b.png,object_14c.png,,,,,,,,,,,,,,,,,,,,
null,,rt_plussign_withcolor1,1621950,,,,,,,,blue,,,null,object_07b.png,object_14c.png,,,,,,,,,,,,,,,,,,,,
733.6999999992549,,rt_thecrossant_black1,1623390,,,,,,,,black_plus_sign,,,49,,,1,,,,,,,0.9,,,,,,,,,,,,
null,,color_black1,1623493,,,,,,,,black_plus_sign,,,null,,,,,,,,,,,,,,,,,,,,,,
null,,learn_phase(without_color)1,1626995,,,,,,,,black_plus_sign,,,null,object_09c.png,object_03c.png,,,,,,,,,,,,,,,,,,,,
null,,black_cross(without_color)1,1627762,,,,,,,,blue,,,null,object_09c.png,object_03c.png,,,,,,,,,,,,,,,,,,,,
null,,rt_plussign_withcolor1,1628265,,,,,,,,blue,,,null,object_09c.png,object_03c.png,,,,,,,,,,,,,,,,,,,,
720.2000000011176,,rt_thecrossant_black1,1629505,,,,,,,,black_plus_sign,,,49,,,1,,,,,,,0.9090909090909091,,,,,,,,,,,,
null,,color_black1,1629608,,,,,,,,black_plus_sign,,,null,,,,,,,,,,,,,,,,,,,,,,
null,,learn_phase(without_color)1,1633112,,,,,,,,black_plus_sign,,,null,object_08a.png,object_14b.png,,,,,,,,,,,,,,,,,,,,
null,,black_cross(without_color)1,1633768,,,,,,,,green,,,null,object_08a.png,object_14b.png,,,,,,,,,,,,,,,,,,,,
null,,rt_plussign_withcolor1,1634271,,,,,,,,green,,,null,object_08a.png,object_14b.png,,,,,,,,,,,,,,,,,,,,
973.8000000007451,,rt_thecrossant_black1,1635619,,,,,,,,black_plus_sign,,,50,,,1,,,,,,,0.9166666666666666,,,,,,,,,,,,
null,,color_black1,1635721,,,,,,,,black_plus_sign,,,null,,,,,,,,,,,,,,,,,,,,,,
null,,learn_phase(without_color)1,1639223,,,,,,,,black_plus_sign,,,null,object_12c.png,object_11c.png,,,,,,,,,,,,,,,,,,,,
null,,black_cross(without_color)1,1639937,,,,,,,,green,,,null,object_12c.png,object_11c.png,,,,,,,,,,,,,,,,,,,,
null,,rt_plussign_withcolor1,1640439,,,,,,,,green,,,null,object_12c.png,object_11c.png,,,,,,,,,,,,,,,,,,,,
1052.300000000745,,rt_thecrossant_black1,1641730,,,,,,,,black_plus_sign,,,50,,,1,,,,,,,0.9230769230769231,,,,,,,,,,,,
null,,color_black1,1641832,,,,,,,,black_plus_sign,,,null,,,,,,,,,,,,,,,,,,,,,,
null,,learn_phase(without_color)1,1645335,,,,,,,,black_plus_sign,,,null,object_13a.png,object_12a.png,,,,,,,,,,,,,,,,,,,,
null,,black_cross(without_color)1,1646193,,,,,,,,green,,,null,object_13a.png,object_12a.png,,,,,,,,,,,,,,,,,,,,
null,,rt_plussign_withcolor1,1646700,,,,,,,,green,,,null,object_13a.png,object_12a.png,,,,,,,,,,,,,,,,,,,,
971.3000000007451,,rt_thecrossant_black1,1647848,,,,,,,,black_plus_sign,,,50,,,1,,,,,,,0.9285714285714286,,,,,,,,,,,,
null,,color_black1,1647950,,,,,,,,black_plus_sign,,,null,,,,,,,,,,,,,,,,,,,,,,
null,,learn_phase(without_color)1,1651453,,,,,,,,black_plus_sign,,,null,object_08b.png,object_05b.png,,,,,,,,,,,,,,,,,,,,
null,,black_cross(without_color)1,1652079,,,,,,,,green,,,null,object_08b.png,object_05b.png,,,,,,,,,,,,,,,,,,,,
null,,rt_plussign_withcolor1,1652587,,,,,,,,green,,,null,object_08b.png,object_05b.png,,,,,,,,,,,,,,,,,,,,
1213.5,,rt_thecrossant_black1,1653973,,,,,,,,black_plus_sign,,,50,,,1,,,,,,,0.9333333333333333,,,,,,,,,,,,
null,,color_black1,1654074,,,,,,,,black_plus_sign,,,null,,,,,,,,,,,,,,,,,,,,,,
null,,thebreak,1654180,,,,,,,,<p></p>,,,null,,,,,,,,,,,,,,,,,,,,,,
3289.4000000003725,,intro_0,1657471,,,,,,,,instruct,,,32,,,,,,,,,,,,,,,,,,,,,,
3038.699999999255,,directmemory_phase1,1660511,,,,,,,,object_03b.png,,,49,,,1,,object_09a.png,object_04c.png,object_12c.png,object_09a.png,,1,1,,,,,,,,,,,
null,,directmemory_phase1,1675514,,,,,,,,object_15c.png,,,null,,,0,,object_14c.png,object_14a.png,object_05c.png,object_05c.png,,0.5,0,,,,,,,,,,,
null,,warning_page,1680517,,,,,,,,warning,,,null,,,,,,,,,,,,,,,,,,,,,,
5138.0999999996275,,directmemory_phase1,1685656,,,,,,,,object_05b.png,,,50,,,0,,object_05c.png,object_11b.png,object_08b.png,object_08b.png,,0.3333333333333333,0,,,,,,,,,,,
2249.800000000745,,directmemory_phase1,1687907,,,,,,,,object_12a.png,,,49,,,0,,object_05c.png,object_10a.png,object_13a.png,object_13a.png,,0.25,0,,,,,,,,,,,
8049.9000000003725,,directmemory_phase1,1695958,,,,,,,,object_02b.png,,,50,,,0,,object_02c.png,object_07c.png,object_10a.png,object_02c.png,,0.2,0,,,,,,,,,,,
7547.699999999255,,directmemory_phase1,1703508,,,,,,,,object_06a.png,,,49,,,1,,object_04b.png,object_01a.png,object_13b.png,object_04b.png,,0.3333333333333333,1,,,,,,,,,,,
4755.700000001118,,directmemory_phase1,1708268,,,,,,,,object_14b.png,,,51,,,1,,object_13a.png,object_15c.png,object_08a.png,object_08a.png,,0.42857142857142855,1,,,,,,,,,,,
3987.300000000745,,directmemory_phase1,1712257,,,,,,,,object_07b.png,,,50,,,1,,object_03a.png,object_14c.png,object_07a.png,object_14c.png,,0.5,1,,,,,,,,,,,
3328.5999999996275,,directmemory_phase1,1715588,,,,,,,,object_03c.png,,,50,,,1,,object_15c.png,object_09c.png,object_08b.png,object_09c.png,,0.5555555555555556,1,,,,,,,,,,,
7878.799999998882,,directmemory_phase1,1723468,,,,,,,,object_10a.png,,,49,,,0,,object_06a.png,object_04c.png,object_13a.png,object_04c.png,,0.5,0,,,,,,,,,,,
5898.299999998882,,directmemory_phase1,1729369,,,,,,,,object_03a.png,,,50,,,1,,object_03c.png,object_01a.png,object_07c.png,object_01a.png,,0.5454545454545454,1,,,,,,,,,,,
3786.5,,directmemory_phase1,1733157,,,,,,,,object_12c.png,,,50,,,1,,object_11b.png,object_11c.png,object_01a.png,object_11c.png,,0.5833333333333334,1,,,,,,,,,,,
1951.2999999988824,,directmemory_phase1,1735109,,,,,,,,object_14a.png,,,50,,,0,,object_07a.png,object_09a.png,object_03a.png,object_07a.png,,0.5384615384615384,0,,,,,,,,,,,
6679.0999999996275,,directmemory_phase1,1741789,,,,,,,,object_11b.png,,,50,,,0,,object_01a.png,object_13b.png,object_06b.png,object_06b.png,,0.5,0,,,,,,,,,,,
2552.4000000003725,,directmemory_phase1,1744343,,,,,,,,object_13b.png,,,51,,,0,,object_12c.png,object_07c.png,object_06b.png,object_07c.png,,0.4666666666666667,0,,,,,,,,,,,
null,,thebreak,1744445,,,,,,,,<p></p>,,,null,,,,,,,,,,,,,,,,,,,,,,
4595.39999999851,,intro_0,1749042,,,,,,,,instruct,,,32,,,,,,,,,,,,,,,,,,,,,,
null,,learn_phase(without_color)2,1752546,,,,,,,,black_plus_sign,,,null,object_15c.png,object_05c.png,,,,,,,,,,,,,,,,,,,,
null,,black_cross(without_color)2,1753247,,,,,,,,blue,,,null,object_15c.png,object_05c.png,,,,,,,,,,,,,,,,,,,,
null,,rt_plussign_withcolor2,1753749,,,,,,,,blue,,,null,object_15c.png,object_05c.png,,,,,,,,,,,,,,,,,,,,
997,,rt_thecrossant_black2,1755053,,,,,,,,black_plus_sign,,,49,,,1,,,,,,,1,,,,,,,,,,,,
null,,color_black2,1755156,,,,,,,,black_plus_sign,,,null,,,,,,,,,,,,,,,,,,,,,,
null,,learn_phase(without_color)2,1758659,,,,,,,,black_plus_sign,,,null,object_06a.png,object_04b.png,,,,,,,,,,,,,,,,,,,,
null,,black_cross(without_color)2,1759354,,,,,,,,blue,,,null,object_06a.png,object_04b.png,,,,,,,,,,,,,,,,,,,,
null,,rt_plussign_withcolor2,1759856,,,,,,,,blue,,,null,object_06a.png,object_04b.png,,,,,,,,,,,,,,,,,,,,
1078.699999999255,,rt_thecrossant_black2,1761167,,,,,,,,black_plus_sign,,,49,,,1,,,,,,,1,,,,,,,,,,,,
null,,color_black2,1761269,,,,,,,,black_plus_sign,,,null,,,,,,,,,,,,,,,,,,,,,,
null,,learn_phase(without_color)2,1764773,,,,,,,,black_plus_sign,,,null,object_03b.png,object_09a.png,,,,,,,,,,,,,,,,,,,,
null,,black_cross(without_color)2,1765583,,,,,,,,green,,,null,object_03b.png,object_09a.png,,,,,,,,,,,,,,,,,,,,
null,,rt_plussign_withcolor2,1766085,,,,,,,,green,,,null,object_03b.png,object_09a.png,,,,,,,,,,,,,,,,,,,,
1102,,rt_thecrossant_black2,1767280,,,,,,,,black_plus_sign,,,50,,,1,,,,,,,1,,,,,,,,,,,,
null,,color_black2,1767381,,,,,,,,black_plus_sign,,,null,,,,,,,,,,,,,,,,,,,,,,
null,,learn_phase(without_color)2,1770885,,,,,,,,black_plus_sign,,,null,object_10a.png,object_04c.png,,,,,,,,,,,,,,,,,,,,
null,,black_cross(without_color)2,1771939,,,,,,,,blue,,,null,object_10a.png,object_04c.png,,,,,,,,,,,,,,,,,,,,
null,,rt_plussign_withcolor2,1772442,,,,,,,,blue,,,null,object_10a.png,object_04c.png,,,,,,,,,,,,,,,,,,,,
1193.300000000745,,rt_thecrossant_black2,1773394,,,,,,,,black_plus_sign,,,49,,,1,,,,,,,1,,,,,,,,,,,,
null,,color_black2,1773496,,,,,,,,black_plus_sign,,,null,,,,,,,,,,,,,,,,,,,,,,
null,,learn_phase(without_color)2,1776999,,,,,,,,black_plus_sign,,,null,object_14b.png,object_08a.png,,,,,,,,,,,,,,,,,,,,
null,,black_cross(without_color)2,1777872,,,,,,,,green,,,null,object_14b.png,object_08a.png,,,,,,,,,,,,,,,,,,,,
null,,rt_plussign_withcolor2,1778376,,,,,,,,green,,,null,object_14b.png,object_08a.png,,,,,,,,,,,,,,,,,,,,
1341.6000000014901,,rt_thecrossant_black2,1779509,,,,,,,,black_plus_sign,,,50,,,1,,,,,,,1,,,,,,,,,,,,
null,,color_black2,1779613,,,,,,,,black_plus_sign,,,null,,,,,,,,,,,,,,,,,,,,,,
null,,learn_phase(without_color)2,1783115,,,,,,,,black_plus_sign,,,null,object_09c.png,object_03c.png,,,,,,,,,,,,,,,,,,,,
null,,black_cross(without_color)2,1783739,,,,,,,,blue,,,null,object_09c.png,object_03c.png,,,,,,,,,,,,,,,,,,,,
null,,rt_plussign_withcolor2,1784255,,,,,,,,blue,,,null,object_09c.png,object_03c.png,,,,,,,,,,,,,,,,,,,,
1430,,rt_thecrossant_black2,1785649,,,,,,,,black_plus_sign,,,49,,,1,,,,,,,1,,,,,,,,,,,,
null,,color_black2,1785751,,,,,,,,black_plus_sign,,,null,,,,,,,,,,,,,,,,,,,,,,
null,,learn_phase(without_color)2,1789254,,,,,,,,black_plus_sign,,,null,object_14c.png,object_07b.png,,,,,,,,,,,,,,,,,,,,
null,,black_cross(without_color)2,1789755,,,,,,,,blue,,,null,object_14c.png,object_07b.png,,,,,,,,,,,,,,,,,,,,
null,,rt_plussign_withcolor2,1790257,,,,,,,,blue,,,null,object_14c.png,object_07b.png,,,,,,,,,,,,,,,,,,,,
1045.9000000003725,,rt_thecrossant_black2,1791762,,,,,,,,black_plus_sign,,,49,,,1,,,,,,,1,,,,,,,,,,,,
null,,color_black2,1791865,,,,,,,,black_plus_sign,,,null,,,,,,,,,,,,,,,,,,,,,,
null,,learn_phase(without_color)2,1795368,,,,,,,,black_plus_sign,,,null,object_13b.png,object_07c.png,,,,,,,,,,,,,,,,,,,,
null,,black_cross(without_color)2,1796014,,,,,,,,green,,,null,object_13b.png,object_07c.png,,,,,,,,,,,,,,,,,,,,
null,,rt_plussign_withcolor2,1796523,,,,,,,,green,,,null,object_13b.png,object_07c.png,,,,,,,,,,,,,,,,,,,,
null,,rt_thecrossant_black2,1797883,,,,,,,,black_plus_sign,,,null,,,,,,,,,,1,,,,,,,,,,,,
null,,color_black2,1797986,,,,,,,,black_plus_sign,,,null,,,,,,,,,,,,,,,,,,,,,,
null,,learn_phase(without_color)2,1801489,,,,,,,,black_plus_sign,,,null,object_12c.png,object_11c.png,,,,,,,,,,,,,,,,,,,,
null,,black_cross(without_color)2,1802492,,,,,,,,green,,,null,object_12c.png,object_11c.png,,,,,,,,,,,,,,,,,,,,
null,,rt_plussign_withcolor2,1802994,,,,,,,,green,,,null,object_12c.png,object_11c.png,,,,,,,,,,,,,,,,,,,,
843.6999999992549,,rt_thecrossant_black2,1803996,,,,,,,,black_plus_sign,,,50,,,1,,,,,,,1,,,,,,,,,,,,
null,,color_black2,1804099,,,,,,,,black_plus_sign,,,null,,,,,,,,,,,,,,,,,,,,,,
null,,learn_phase(without_color)2,1807601,,,,,,,,black_plus_sign,,,null,object_02c.png,object_02b.png,,,,,,,,,,,,,,,,,,,,
null,,black_cross(without_color)2,1808186,,,,,,,,blue,,,null,object_02c.png,object_02b.png,,,,,,,,,,,,,,,,,,,,
null,,rt_plussign_withcolor2,1808688,,,,,,,,blue,,,null,object_02c.png,object_02b.png,,,,,,,,,,,,,,,,,,,,
1435.0999999996275,,rt_thecrossant_black2,1810110,,,,,,,,black_plus_sign,,,49,,,1,,,,,,,1,,,,,,,,,,,,
null,,color_black2,1810212,,,,,,,,black_plus_sign,,,null,,,,,,,,,,,,,,,,,,,,,,
null,,learn_phase(without_color)2,1813715,,,,,,,,black_plus_sign,,,null,object_12a.png,object_13a.png,,,,,,,,,,,,,,,,,,,,
null,,black_cross(without_color)2,1814709,,,,,,,,blue,,,null,object_12a.png,object_13a.png,,,,,,,,,,,,,,,,,,,,
null,,rt_plussign_withcolor2,1815211,,,,,,,,blue,,,null,object_12a.png,object_13a.png,,,,,,,,,,,,,,,,,,,,
989,,rt_thecrossant_black2,1816222,,,,,,,,black_plus_sign,,,49,,,1,,,,,,,1,,,,,,,,,,,,
null,,color_black2,1816324,,,,,,,,black_plus_sign,,,null,,,,,,,,,,,,,,,,,,,,,,
null,,learn_phase(without_color)2,1819828,,,,,,,,black_plus_sign,,,null,object_06b.png,object_11b.png,,,,,,,,,,,,,,,,,,,,
null,,black_cross(without_color)2,1820288,,,,,,,,blue,,,null,object_06b.png,object_11b.png,,,,,,,,,,,,,,,,,,,,
null,,rt_plussign_withcolor2,1820790,,,,,,,,blue,,,null,object_06b.png,object_11b.png,,,,,,,,,,,,,,,,,,,,
1423.2999999988824,,rt_thecrossant_black2,1822336,,,,,,,,black_plus_sign,,,49,,,1,,,,,,,1,,,,,,,,,,,,
null,,color_black2,1822439,,,,,,,,black_plus_sign,,,null,,,,,,,,,,,,,,,,,,,,,,
null,,learn_phase(without_color)2,1825942,,,,,,,,black_plus_sign,,,null,object_14a.png,object_07a.png,,,,,,,,,,,,,,,,,,,,
null,,black_cross(without_color)2,1826383,,,,,,,,green,,,null,object_14a.png,object_07a.png,,,,,,,,,,,,,,,,,,,,
null,,rt_plussign_withcolor2,1826886,,,,,,,,green,,,null,object_14a.png,object_07a.png,,,,,,,,,,,,,,,,,,,,
1865.0999999996275,,rt_thecrossant_black2,1828451,,,,,,,,black_plus_sign,,,49,,,0,,,,,,,0.9166666666666666,,,,,,,,,,,,
null,,color_black2,1828554,,,,,,,,black_plus_sign,,,null,,,,,,,,,,,,,,,,,,,,,,
null,,learn_phase(without_color)2,1832057,,,,,,,,black_plus_sign,,,null,object_08b.png,object_05b.png,,,,,,,,,,,,,,,,,,,,
null,,black_cross(without_color)2,1832897,,,,,,,,blue,,,null,object_08b.png,object_05b.png,,,,,,,,,,,,,,,,,,,,
null,,rt_plussign_withcolor2,1833400,,,,,,,,blue,,,null,object_08b.png,object_05b.png,,,,,,,,,,,,,,,,,,,,
631.8999999985099,,rt_thecrossant_black2,1834565,,,,,,,,black_plus_sign,,,49,,,1,,,,,,,0.9230769230769231,,,,,,,,,,,,
null,,color_black2,1834668,,,,,,,,black_plus_sign,,,null,,,,,,,,,,,,,,,,,,,,,,
null,,learn_phase(without_color)2,1838172,,,,,,,,black_plus_sign,,,null,object_01a.png,object_03a.png,,,,,,,,,,,,,,,,,,,,
null,,black_cross(without_color)2,1838935,,,,,,,,blue,,,null,object_01a.png,object_03a.png,,,,,,,,,,,,,,,,,,,,
475.59999999962747,,rt_plussign_withcolor2,1839436,,,,,,,,blue,,,49,object_01a.png,object_03a.png,,,,,,,,,,,,,,,,,,,,
null,,rt_thecrossant_black2,1840679,,,,,,,,black_plus_sign,,,49,,,1,,,,,,,0.9285714285714286,,,,,,,,,,,,
null,,color_black2,1840780,,,,,,,,black_plus_sign,,,null,,,,,,,,,,,,,,,,,,,,,,
null,,thebreak,1840893,,,,,,,,<p></p>,,,null,,,,,,,,,,,,,,,,,,,,,,
9713.799999998882,,intro_0,1850608,,,,,,,,instruct,,,32,,,,,,,,,,,,,,,,,,,,,,
2976.2000000011176,,directmemory_phase2,1853585,,,,,,,,object_14a.png,,,50,,,1,,object_14b.png,object_07a.png,object_13a.png,object_07a.png,,0.5,1,,,,,,,,,,,
6164,,directmemory_phase2,1859750,,,,,,,,object_03b.png,,,50,,,1,,object_07b.png,object_09a.png,object_07a.png,object_09a.png,,0.5294117647058824,1,,,,,,,,,,,
1635.300000000745,,directmemory_phase2,1861387,,,,,,,,object_03a.png,,,51,,,1,,object_13a.png,object_11b.png,object_01a.png,object_01a.png,,0.5555555555555556,1,,,,,,,,,,,
5433.4000000003725,,directmemory_phase2,1866823,,,,,,,,object_03c.png,,,50,,,1,,object_03b.png,object_09c.png,object_04b.png,object_09c.png,,0.5789473684210527,1,,,,,,,,,,,
6142.0999999996275,,directmemory_phase2,1872968,,,,,,,,object_15c.png,,,50,,,0,,object_05c.png,object_11c.png,object_03a.png,object_05c.png,,0.55,0,,,,,,,,,,,
7135,,directmemory_phase2,1880106,,,,,,,,object_10a.png,,,51,,,1,,object_08b.png,object_14a.png,object_04c.png,object_04c.png,,0.5714285714285714,1,,,,,,,,,,,
5303.5,,directmemory_phase2,1885412,,,,,,,,object_06a.png,,,51,,,1,,object_14c.png,object_10a.png,object_04b.png,object_04b.png,,0.5909090909090909,1,,,,,,,,,,,
2620.300000000745,,directmemory_phase2,1888034,,,,,,,,object_05b.png,,,49,,,1,,object_08b.png,object_13a.png,object_03a.png,object_08b.png,,0.6086956521739131,1,,,,,,,,,,,
3298.5999999996275,,directmemory_phase2,1891334,,,,,,,,object_12a.png,,,49,,,1,,object_13a.png,object_09a.png,object_07b.png,object_13a.png,,0.625,1,,,,,,,,,,,
1297.5999999996275,,directmemory_phase2,1892633,,,,,,,,object_14b.png,,,49,,,1,,object_08a.png,object_11c.png,object_15c.png,object_08a.png,,0.64,1,,,,,,,,,,,
1559.300000000745,,directmemory_phase2,1894194,,,,,,,,object_13b.png,,,50,,,1,,object_11b.png,object_07c.png,object_09c.png,object_07c.png,,0.6538461538461539,1,,,,,,,,,,,
5835.9000000003725,,directmemory_phase2,1900031,,,,,,,,object_11b.png,,,49,,,0,,object_12c.png,object_06b.png,object_14c.png,object_06b.png,,0.6296296296296297,0,,,,,,,,,,,
8366.400000000373,,directmemory_phase2,1908401,,,,,,,,object_07b.png,,,50,,,1,,object_03b.png,object_14c.png,object_13a.png,object_14c.png,,0.6428571428571429,1,,,,,,,,,,,
3430.0999999996275,,directmemory_phase2,1911833,,,,,,,,object_12c.png,,,49,,,1,,object_11c.png,object_13a.png,object_06a.png,object_11c.png,,0.6551724137931034,1,,,,,,,,,,,
2243.10000000149,,directmemory_phase2,1914079,,,,,,,,object_02b.png,,,51,,,1,,object_07c.png,object_11b.png,object_02c.png,object_02c.png,,0.6666666666666666,1,,,,,,,,,,,
null,,thebreak,1914181,,,,,,,,<p></p>,,,null,,,,,,,,,,,,,,,,,,,,,,
46639.300000000745,,intro_0,1960822,,,,,,,,instruct,,,32,,,,,,,,,,,,,,,,,,,,,,
null,,learn_phase(without_color)3,1964323,,,,,,,,black_plus_sign,,,null,object_09a.png,object_03b.png,,,,,,,,,,,,,,,,,,,,
null,,black_cross(without_color)3,1964881,,,,,,,,green,,,null,object_09a.png,object_03b.png,,,,,,,,,,,,,,,,,,,,
null,,rt_plussign_withcolor3,1965384,,,,,,,,green,,,null,object_09a.png,object_03b.png,,,,,,,,,,,,,,,,,,,,
1107.3999999985099,,rt_thecrossant_black3,1966834,,,,,,,,black_plus_sign,,,50,,,1,,,,,,,1,,,,,,,,,,,,
null,,color_black3,1966937,,,,,,,,black_plus_sign,,,null,,,,,,,,,,,,,,,,,,,,,,
null,,learn_phase(without_color)3,1970441,,,,,,,,black_plus_sign,,,null,object_14a.png,object_07a.png,,,,,,,,,,,,,,,,,,,,
null,,black_cross(without_color)3,1971454,,,,,,,,blue,,,null,object_14a.png,object_07a.png,,,,,,,,,,,,,,,,,,,,
null,,rt_plussign_withcolor3,1971971,,,,,,,,blue,,,null,object_14a.png,object_07a.png,,,,,,,,,,,,,,,,,,,,
815.1000000014901,,rt_thecrossant_black3,1972962,,,,,,,,black_plus_sign,,,49,,,1,,,,,,,1,,,,,,,,,,,,
null,,color_black3,1973065,,,,,,,,black_plus_sign,,,null,,,,,,,,,,,,,,,,,,,,,,
null,,learn_phase(without_color)3,1976568,,,,,,,,black_plus_sign,,,null,object_14c.png,object_07b.png,,,,,,,,,,,,,,,,,,,,
null,,black_cross(without_color)3,1977505,,,,,,,,green,,,null,object_14c.png,object_07b.png,,,,,,,,,,,,,,,,,,,,
null,,rt_plussign_withcolor3,1978008,,,,,,,,green,,,null,object_14c.png,object_07b.png,,,,,,,,,,,,,,,,,,,,
1409.5,,rt_thecrossant_black3,1979075,,,,,,,,black_plus_sign,,,50,,,1,,,,,,,1,,,,,,,,,,,,
null,,color_black3,1979177,,,,,,,,black_plus_sign,,,null,,,,,,,,,,,,,,,,,,,,,,
null,,learn_phase(without_color)3,1982680,,,,,,,,black_plus_sign,,,null,object_10a.png,object_04c.png,,,,,,,,,,,,,,,,,,,,
null,,black_cross(without_color)3,1983332,,,,,,,,green,,,null,object_10a.png,object_04c.png,,,,,,,,,,,,,,,,,,,,
null,,rt_plussign_withcolor3,1983835,,,,,,,,green,,,null,object_10a.png,object_04c.png,,,,,,,,,,,,,,,,,,,,
1668.199999999255,,rt_thecrossant_black3,1985188,,,,,,,,black_plus_sign,,,50,,,1,,,,,,,1,,,,,,,,,,,,
null,,color_black3,1985290,,,,,,,,black_plus_sign,,,null,,,,,,,,,,,,,,,,,,,,,,
null,,learn_phase(without_color)3,1988793,,,,,,,,black_plus_sign,,,null,object_15c.png,object_05c.png,,,,,,,,,,,,,,,,,,,,
null,,black_cross(without_color)3,1989264,,,,,,,,green,,,null,object_15c.png,object_05c.png,,,,,,,,,,,,,,,,,,,,
null,,rt_plussign_withcolor3,1989776,,,,,,,,green,,,null,object_15c.png,object_05c.png,,,,,,,,,,,,,,,,,,,,
952.3000000007451,,rt_thecrossant_black3,1991310,,,,,,,,black_plus_sign,,,50,,,1,,,,,,,1,,,,,,,,,,,,
null,,color_black3,1991413,,,,,,,,black_plus_sign,,,null,,,,,,,,,,,,,,,,,,,,,,
null,,learn_phase(without_color)3,1994916,,,,,,,,black_plus_sign,,,null,object_01a.png,object_03a.png,,,,,,,,,,,,,,,,,,,,
null,,black_cross(without_color)3,1995741,,,,,,,,green,,,null,object_01a.png,object_03a.png,,,,,,,,,,,,,,,,,,,,
null,,rt_plussign_withcolor3,1996244,,,,,,,,green,,,null,object_01a.png,object_03a.png,,,,,,,,,,,,,,,,,,,,
660.9000000003725,,rt_thecrossant_black3,1997425,,,,,,,,black_plus_sign,,,50,,,1,,,,,,,1,,,,,,,,,,,,
null,,color_black3,1997529,,,,,,,,black_plus_sign,,,null,,,,,,,,,,,,,,,,,,,,,,
null,,learn_phase(without_color)3,2001046,,,,,,,,black_plus_sign,,,null,object_13a.png,object_12a.png,,,,,,,,,,,,,,,,,,,,
null,,black_cross(without_color)3,2001764,,,,,,,,green,,,null,object_13a.png,object_12a.png,,,,,,,,,,,,,,,,,,,,
null,,rt_plussign_withcolor3,2002281,,,,,,,,green,,,null,object_13a.png,object_12a.png,,,,,,,,,,,,,,,,,,,,
1171.2000000011176,,rt_thecrossant_black3,2003568,,,,,,,,black_plus_sign,,,50,,,1,,,,,,,1,,,,,,,,,,,,
null,,color_black3,2003672,,,,,,,,black_plus_sign,,,null,,,,,,,,,,,,,,,,,,,,,,
null,,learn_phase(without_color)3,2007176,,,,,,,,black_plus_sign,,,null,object_08a.png,object_14b.png,,,,,,,,,,,,,,,,,,,,
null,,black_cross(without_color)3,2007608,,,,,,,,blue,,,null,object_08a.png,object_14b.png,,,,,,,,,,,,,,,,,,,,
null,,rt_plussign_withcolor3,2008111,,,,,,,,blue,,,null,object_08a.png,object_14b.png,,,,,,,,,,,,,,,,,,,,
978.6000000014901,,rt_thecrossant_black3,2009685,,,,,,,,black_plus_sign,,,49,,,1,,,,,,,1,,,,,,,,,,,,
null,,color_black3,2009788,,,,,,,,black_plus_sign,,,null,,,,,,,,,,,,,,,,,,,,,,
null,,learn_phase(without_color)3,2013292,,,,,,,,black_plus_sign,,,null,object_06b.png,object_11b.png,,,,,,,,,,,,,,,,,,,,
null,,black_cross(without_color)3,2014378,,,,,,,,green,,,null,object_06b.png,object_11b.png,,,,,,,,,,,,,,,,,,,,
null,,rt_plussign_withcolor3,2014880,,,,,,,,green,,,null,object_06b.png,object_11b.png,,,,,,,,,,,,,,,,,,,,
634,,rt_thecrossant_black3,2015801,,,,,,,,black_plus_sign,,,50,,,1,,,,,,,1,,,,,,,,,,,,
null,,color_black3,2015904,,,,,,,,black_plus_sign,,,null,,,,,,,,,,,,,,,,,,,,,,
null,,learn_phase(without_color)3,2019408,,,,,,,,black_plus_sign,,,null,object_09c.png,object_03c.png,,,,,,,,,,,,,,,,,,,,
null,,black_cross(without_color)3,2020400,,,,,,,,blue,,,null,object_09c.png,object_03c.png,,,,,,,,,,,,,,,,,,,,
null,,rt_plussign_withcolor3,2020903,,,,,,,,blue,,,null,object_09c.png,object_03c.png,,,,,,,,,,,,,,,,,,,,
1334.0999999996275,,rt_thecrossant_black3,2021916,,,,,,,,black_plus_sign,,,49,,,1,,,,,,,1,,,,,,,,,,,,
null,,color_black3,2022020,,,,,,,,black_plus_sign,,,null,,,,,,,,,,,,,,,,,,,,,,
null,,learn_phase(without_color)3,2025524,,,,,,,,black_plus_sign,,,null,object_06a.png,object_04b.png,,,,,,,,,,,,,,,,,,,,
null,,black_cross(without_color)3,2026012,,,,,,,,green,,,null,object_06a.png,object_04b.png,,,,,,,,,,,,,,,,,,,,
null,,rt_plussign_withcolor3,2026515,,,,,,,,green,,,null,object_06a.png,object_04b.png,,,,,,,,,,,,,,,,,,,,
1312.8999999985099,,rt_thecrossant_black3,2028032,,,,,,,,black_plus_sign,,,50,,,1,,,,,,,1,,,,,,,,,,,,
null,,color_black3,2028136,,,,,,,,black_plus_sign,,,null,,,,,,,,,,,,,,,,,,,,,,
null,,learn_phase(without_color)3,2031640,,,,,,,,black_plus_sign,,,null,object_11c.png,object_12c.png,,,,,,,,,,,,,,,,,,,,
null,,black_cross(without_color)3,2032739,,,,,,,,green,,,null,object_11c.png,object_12c.png,,,,,,,,,,,,,,,,,,,,
null,,rt_plussign_withcolor3,2033242,,,,,,,,green,,,null,object_11c.png,object_12c.png,,,,,,,,,,,,,,,,,,,,
1009.8999999985099,,rt_thecrossant_black3,2034149,,,,,,,,black_plus_sign,,,50,,,1,,,,,,,1,,,,,,,,,,,,
null,,color_black3,2034252,,,,,,,,black_plus_sign,,,null,,,,,,,,,,,,,,,,,,,,,,
null,,learn_phase(without_color)3,2037756,,,,,,,,black_plus_sign,,,null,object_05b.png,object_08b.png,,,,,,,,,,,,,,,,,,,,
null,,black_cross(without_color)3,2038536,,,,,,,,blue,,,null,object_05b.png,object_08b.png,,,,,,,,,,,,,,,,,,,,
null,,rt_plussign_withcolor3,2039039,,,,,,,,blue,,,null,object_05b.png,object_08b.png,,,,,,,,,,,,,,,,,,,,
1361.0999999996275,,rt_thecrossant_black3,2040265,,,,,,,,black_plus_sign,,,49,,,1,,,,,,,1,,,,,,,,,,,,
null,,color_black3,2040368,,,,,,,,black_plus_sign,,,null,,,,,,,,,,,,,,,,,,,,,,
null,,learn_phase(without_color)3,2043882,,,,,,,,black_plus_sign,,,null,object_02b.png,object_02c.png,,,,,,,,,,,,,,,,,,,,
null,,black_cross(without_color)3,2044543,,,,,,,,green,,,null,object_02b.png,object_02c.png,,,,,,,,,,,,,,,,,,,,
null,,rt_plussign_withcolor3,2045054,,,,,,,,green,,,null,object_02b.png,object_02c.png,,,,,,,,,,,,,,,,,,,,
1206.699999999255,,rt_thecrossant_black3,2046399,,,,,,,,black_plus_sign,,,50,,,1,,,,,,,1,,,,,,,,,,,,
null,,color_black3,2046502,,,,,,,,black_plus_sign,,,null,,,,,,,,,,,,,,,,,,,,,,
null,,learn_phase(without_color)3,2050006,,,,,,,,black_plus_sign,,,null,object_13b.png,object_07c.png,,,,,,,,,,,,,,,,,,,,
null,,black_cross(without_color)3,2050776,,,,,,,,green,,,null,object_13b.png,object_07c.png,,,,,,,,,,,,,,,,,,,,
null,,rt_plussign_withcolor3,2051278,,,,,,,,green,,,null,object_13b.png,object_07c.png,,,,,,,,,,,,,,,,,,,,
952.2999999988824,,rt_thecrossant_black3,2052514,,,,,,,,black_plus_sign,,,50,,,1,,,,,,,1,,,,,,,,,,,,
null,,color_black3,2052617,,,,,,,,black_plus_sign,,,null,,,,,,,,,,,,,,,,,,,,,,
null,,thebreak,2052721,,,,,,,,<p></p>,,,null,,,,,,,,,,,,,,,,,,,,,,
1431,,intro_0,2054154,,,,,,,,instruct,,,32,,,,,,,,,,,,,,,,,,,,,,
9568.299999998882,,directmemory_phase3,2063723,,,,,,,,object_15c.png,,,49,,,0,,object_14a.png,object_05c.png,object_13a.png,object_05c.png,,0.6451612903225806,0,,,,,,,,,,,
3345.199999999255,,directmemory_phase3,2067070,,,,,,,,object_03a.png,,,49,,,1,,object_01a.png,object_09a.png,object_10a.png,object_01a.png,,0.65625,1,,,,,,,,,,,
2427.0999999996275,,directmemory_phase3,2069501,,,,,,,,object_03c.png,,,49,,,1,,object_09c.png,object_04c.png,object_15c.png,object_09c.png,,0.6666666666666666,1,,,,,,,,,,,
1555.7000000011176,,directmemory_phase3,2071059,,,,,,,,object_12c.png,,,49,,,1,,object_11c.png,object_07a.png,object_11b.png,object_11c.png,,0.6764705882352942,1,,,,,,,,,,,
1971.5,,directmemory_phase3,2073034,,,,,,,,object_14b.png,,,49,,,1,,object_08a.png,object_09a.png,object_12a.png,object_08a.png,,0.6857142857142857,1,,,,,,,,,,,
2020.0999999996275,,directmemory_phase3,2075057,,,,,,,,object_06a.png,,,49,,,1,,object_04b.png,object_09c.png,object_13b.png,object_04b.png,,0.6944444444444444,1,,,,,,,,,,,
3539.7999999988824,,directmemory_phase3,2078600,,,,,,,,object_14a.png,,,49,,,0,,object_11b.png,object_07a.png,object_14c.png,object_07a.png,,0.6756756756756757,0,,,,,,,,,,,
2557.5999999996275,,directmemory_phase3,2081162,,,,,,,,object_10a.png,,,51,,,1,,object_07c.png,object_12c.png,object_04c.png,object_04c.png,,0.6842105263157895,1,,,,,,,,,,,
3355.9000000003725,,directmemory_phase3,2084519,,,,,,,,object_05b.png,,,50,,,1,,object_06a.png,object_08b.png,object_08a.png,object_08b.png,,0.6923076923076923,1,,,,,,,,,,,
1919.6000000014901,,directmemory_phase3,2086440,,,,,,,,object_02b.png,,,49,,,1,,object_02c.png,object_13a.png,object_03b.png,object_02c.png,,0.7,1,,,,,,,,,,,
1575,,directmemory_phase3,2088016,,,,,,,,object_07b.png,,,49,,,1,,object_14c.png,object_11c.png,object_03a.png,object_14c.png,,0.7073170731707317,1,,,,,,,,,,,
1370.5999999996275,,directmemory_phase3,2089388,,,,,,,,object_13b.png,,,51,,,1,,object_04c.png,object_11b.png,object_07c.png,object_07c.png,,0.7142857142857143,1,,,,,,,,,,,
1412,,directmemory_phase3,2090801,,,,,,,,object_03b.png,,,49,,,1,,object_09a.png,object_04b.png,object_03c.png,object_09a.png,,0.7209302325581395,1,,,,,,,,,,,
7043.299999998882,,directmemory_phase3,2097846,,,,,,,,object_11b.png,,,50,,,1,,object_05b.png,object_06b.png,object_13a.png,object_06b.png,,0.7272727272727273,1,,,,,,,,,,,
2581.800000000745,,directmemory_phase3,2100430,,,,,,,,object_12a.png,,,51,,,1,,object_11c.png,object_11b.png,object_13a.png,object_13a.png,,0.7333333333333333,1,,,,,,,,,,,
null,,thebreak,2100532,,,,,,,,<p></p>,,,null,,,,,,,,,,,,,,,,,,,,,,
19543.099999999627,,intro_0,2120076,,,,,,,,instruct,,,32,,,,,,,,,,,,,,,,,,,,,,
null,,learn_phase(without_color)4,2123578,,,,,,,,black_plus_sign,,,null,object_08b.png,object_05b.png,,,,,,,,,,,,,,,,,,,,
null,,black_cross(without_color)4,2124560,,,,,,,,green,,,null,object_08b.png,object_05b.png,,,,,,,,,,,,,,,,,,,,
null,,rt_plussign_withcolor4,2125063,,,,,,,,green,,,null,object_08b.png,object_05b.png,,,,,,,,,,,,,,,,,,,,
1351.7000000011176,,rt_thecrossant_black4,2126088,,,,,,,,black_plus_sign,,,50,,,1,,,,,,,1,,,,,,,,,,,,
null,,color_black4,2126191,,,,,,,,black_plus_sign,,,null,,,,,,,,,,,,,,,,,,,,,,
null,,learn_phase(without_color)4,2129695,,,,,,,,black_plus_sign,,,null,object_03c.png,object_09c.png,,,,,,,,,,,,,,,,,,,,
null,,black_cross(without_color)4,2130349,,,,,,,,green,,,null,object_03c.png,object_09c.png,,,,,,,,,,,,,,,,,,,,
null,,rt_plussign_withcolor4,2130851,,,,,,,,green,,,null,object_03c.png,object_09c.png,,,,,,,,,,,,,,,,,,,,
1392.9000000003725,,rt_thecrossant_black4,2132209,,,,,,,,black_plus_sign,,,50,,,1,,,,,,,1,,,,,,,,,,,,
null,,color_black4,2132311,,,,,,,,black_plus_sign,,,null,,,,,,,,,,,,,,,,,,,,,,
null,,learn_phase(without_color)4,2135815,,,,,,,,black_plus_sign,,,null,object_03b.png,object_09a.png,,,,,,,,,,,,,,,,,,,,
null,,black_cross(without_color)4,2136221,,,,,,,,green,,,null,object_03b.png,object_09a.png,,,,,,,,,,,,,,,,,,,,
null,,rt_plussign_withcolor4,2136724,,,,,,,,green,,,null,object_03b.png,object_09a.png,,,,,,,,,,,,,,,,,,,,
959.3999999985099,,rt_thecrossant_black4,2138324,,,,,,,,black_plus_sign,,,50,,,1,,,,,,,1,,,,,,,,,,,,
null,,color_black4,2138427,,,,,,,,black_plus_sign,,,null,,,,,,,,,,,,,,,,,,,,,,
null,,learn_phase(without_color)4,2141930,,,,,,,,black_plus_sign,,,null,object_07b.png,object_14c.png,,,,,,,,,,,,,,,,,,,,
null,,black_cross(without_color)4,2142413,,,,,,,,green,,,null,object_07b.png,object_14c.png,,,,,,,,,,,,,,,,,,,,
null,,rt_plussign_withcolor4,2142916,,,,,,,,green,,,null,object_07b.png,object_14c.png,,,,,,,,,,,,,,,,,,,,
539.7000000011176,,rt_thecrossant_black4,2144438,,,,,,,,black_plus_sign,,,50,,,1,,,,,,,1,,,,,,,,,,,,
null,,color_black4,2144541,,,,,,,,black_plus_sign,,,null,,,,,,,,,,,,,,,,,,,,,,
null,,learn_phase(without_color)4,2148044,,,,,,,,black_plus_sign,,,null,object_13a.png,object_12a.png,,,,,,,,,,,,,,,,,,,,
null,,black_cross(without_color)4,2148840,,,,,,,,blue,,,null,object_13a.png,object_12a.png,,,,,,,,,,,,,,,,,,,,
null,,rt_plussign_withcolor4,2149343,,,,,,,,blue,,,null,object_13a.png,object_12a.png,,,,,,,,,,,,,,,,,,,,
785.4000000003725,,rt_thecrossant_black4,2150563,,,,,,,,black_plus_sign,,,49,,,1,,,,,,,1,,,,,,,,,,,,
null,,color_black4,2150666,,,,,,,,black_plus_sign,,,null,,,,,,,,,,,,,,,,,,,,,,
null,,learn_phase(without_color)4,2154168,,,,,,,,black_plus_sign,,,null,object_14a.png,object_07a.png,,,,,,,,,,,,,,,,,,,,
null,,black_cross(without_color)4,2155056,,,,,,,,blue,,,null,object_14a.png,object_07a.png,,,,,,,,,,,,,,,,,,,,
null,,rt_plussign_withcolor4,2155559,,,,,,,,blue,,,null,object_14a.png,object_07a.png,,,,,,,,,,,,,,,,,,,,
957.5,,rt_thecrossant_black4,2156676,,,,,,,,black_plus_sign,,,49,,,1,,,,,,,1,,,,,,,,,,,,
null,,color_black4,2156779,,,,,,,,black_plus_sign,,,null,,,,,,,,,,,,,,,,,,,,,,
null,,learn_phase(without_color)4,2160281,,,,,,,,black_plus_sign,,,null,object_15c.png,object_05c.png,,,,,,,,,,,,,,,,,,,,
null,,black_cross(without_color)4,2161277,,,,,,,,green,,,null,object_15c.png,object_05c.png,,,,,,,,,,,,,,,,,,,,
null,,rt_plussign_withcolor4,2161779,,,,,,,,green,,,null,object_15c.png,object_05c.png,,,,,,,,,,,,,,,,,,,,
1081.8999999985099,,rt_thecrossant_black4,2162790,,,,,,,,black_plus_sign,,,49,,,0,,,,,,,0.8571428571428571,,,,,,,,,,,,
null,,color_black4,2162893,,,,,,,,black_plus_sign,,,null,,,,,,,,,,,,,,,,,,,,,,
null,,learn_phase(without_color)4,2166397,,,,,,,,black_plus_sign,,,null,object_02b.png,object_02c.png,,,,,,,,,,,,,,,,,,,,
null,,black_cross(without_color)4,2167447,,,,,,,,blue,,,null,object_02b.png,object_02c.png,,,,,,,,,,,,,,,,,,,,
null,,rt_plussign_withcolor4,2167949,,,,,,,,blue,,,null,object_02b.png,object_02c.png,,,,,,,,,,,,,,,,,,,,
1403,,rt_thecrossant_black4,2168906,,,,,,,,black_plus_sign,,,49,,,1,,,,,,,0.875,,,,,,,,,,,,
null,,color_black4,2169009,,,,,,,,black_plus_sign,,,null,,,,,,,,,,,,,,,,,,,,,,
null,,learn_phase(without_color)4,2172513,,,,,,,,black_plus_sign,,,null,object_03a.png,object_01a.png,,,,,,,,,,,,,,,,,,,,
null,,black_cross(without_color)4,2173027,,,,,,,,green,,,null,object_03a.png,object_01a.png,,,,,,,,,,,,,,,,,,,,
null,,rt_plussign_withcolor4,2173533,,,,,,,,green,,,null,object_03a.png,object_01a.png,,,,,,,,,,,,,,,,,,,,
1643,,rt_thecrossant_black4,2175026,,,,,,,,black_plus_sign,,,50,,,1,,,,,,,0.8888888888888888,,,,,,,,,,,,
null,,color_black4,2175129,,,,,,,,black_plus_sign,,,null,,,,,,,,,,,,,,,,,,,,,,
null,,learn_phase(without_color)4,2178633,,,,,,,,black_plus_sign,,,null,object_14b.png,object_08a.png,,,,,,,,,,,,,,,,,,,,
null,,black_cross(without_color)4,2179310,,,,,,,,green,,,null,object_14b.png,object_08a.png,,,,,,,,,,,,,,,,,,,,
null,,rt_plussign_withcolor4,2179813,,,,,,,,green,,,null,object_14b.png,object_08a.png,,,,,,,,,,,,,,,,,,,,
877,,rt_thecrossant_black4,2181141,,,,,,,,black_plus_sign,,,50,,,1,,,,,,,0.9,,,,,,,,,,,,
null,,color_black4,2181244,,,,,,,,black_plus_sign,,,null,,,,,,,,,,,,,,,,,,,,,,
null,,learn_phase(without_color)4,2184747,,,,,,,,black_plus_sign,,,null,object_12c.png,object_11c.png,,,,,,,,,,,,,,,,,,,,
null,,black_cross(without_color)4,2185441,,,,,,,,blue,,,null,object_12c.png,object_11c.png,,,,,,,,,,,,,,,,,,,,
null,,rt_plussign_withcolor4,2185943,,,,,,,,blue,,,null,object_12c.png,object_11c.png,,,,,,,,,,,,,,,,,,,,
1094.699999999255,,rt_thecrossant_black4,2187256,,,,,,,,black_plus_sign,,,49,,,1,,,,,,,0.9090909090909091,,,,,,,,,,,,
null,,color_black4,2187359,,,,,,,,black_plus_sign,,,null,,,,,,,,,,,,,,,,,,,,,,
null,,learn_phase(without_color)4,2190863,,,,,,,,black_plus_sign,,,null,object_04c.png,object_10a.png,,,,,,,,,,,,,,,,,,,,
null,,black_cross(without_color)4,2191938,,,,,,,,blue,,,null,object_04c.png,object_10a.png,,,,,,,,,,,,,,,,,,,,
null,,rt_plussign_withcolor4,2192441,,,,,,,,blue,,,null,object_04c.png,object_10a.png,,,,,,,,,,,,,,,,,,,,
821.8000000007451,,rt_thecrossant_black4,2193370,,,,,,,,black_plus_sign,,,49,,,1,,,,,,,0.9166666666666666,,,,,,,,,,,,
null,,color_black4,2193473,,,,,,,,black_plus_sign,,,null,,,,,,,,,,,,,,,,,,,,,,
null,,learn_phase(without_color)4,2196977,,,,,,,,black_plus_sign,,,null,object_06a.png,object_04b.png,,,,,,,,,,,,,,,,,,,,
null,,black_cross(without_color)4,2197863,,,,,,,,green,,,null,object_06a.png,object_04b.png,,,,,,,,,,,,,,,,,,,,
null,,rt_plussign_withcolor4,2198377,,,,,,,,green,,,null,object_06a.png,object_04b.png,,,,,,,,,,,,,,,,,,,,
1881.2999999988824,,rt_thecrossant_black4,2199496,,,,,,,,black_plus_sign,,,50,,,1,,,,,,,0.9230769230769231,,,,,,,,,,,,
null,,color_black4,2199599,,,,,,,,black_plus_sign,,,null,,,,,,,,,,,,,,,,,,,,,,
null,,learn_phase(without_color)4,2203102,,,,,,,,black_plus_sign,,,null,object_07c.png,object_13b.png,,,,,,,,,,,,,,,,,,,,
null,,black_cross(without_color)4,2203957,,,,,,,,green,,,null,object_07c.png,object_13b.png,,,,,,,,,,,,,,,,,,,,
null,,rt_plussign_withcolor4,2204460,,,,,,,,green,,,null,object_07c.png,object_13b.png,,,,,,,,,,,,,,,,,,,,
1929,,rt_thecrossant_black4,2205623,,,,,,,,black_plus_sign,,,50,,,1,,,,,,,0.9285714285714286,,,,,,,,,,,,
null,,color_black4,2205726,,,,,,,,black_plus_sign,,,null,,,,,,,,,,,,,,,,,,,,,,
null,,learn_phase(without_color)4,2209231,,,,,,,,black_plus_sign,,,null,object_06b.png,object_11b.png,,,,,,,,,,,,,,,,,,,,
null,,black_cross(without_color)4,2210156,,,,,,,,green,,,null,object_06b.png,object_11b.png,,,,,,,,,,,,,,,,,,,,
null,,rt_plussign_withcolor4,2210659,,,,,,,,green,,,null,object_06b.png,object_11b.png,,,,,,,,,,,,,,,,,,,,
1111.199999999255,,rt_thecrossant_black4,2211739,,,,,,,,black_plus_sign,,,50,,,1,,,,,,,0.9333333333333333,,,,,,,,,,,,
null,,color_black4,2211841,,,,,,,,black_plus_sign,,,null,,,,,,,,,,,,,,,,,,,,,,
null,,thebreak,2211949,,,,,,,,<p></p>,,,null,,,,,,,,,,,,,,,,,,,,,,
1307.7999999988824,,intro_0,2213258,,,,,,,,instruct,,,32,,,,,,,,,,,,,,,,,,,,,,
3546.7999999988824,,directmemory_phase4,2216807,,,,,,,,object_03c.png,,,49,,,1,,object_09c.png,object_07c.png,object_14b.png,object_09c.png,,0.7391304347826086,1,,,,,,,,,,,
2882.199999999255,,directmemory_phase4,2219692,,,,,,,,object_07b.png,,,51,,,1,,object_05c.png,object_03c.png,object_14c.png,object_14c.png,,0.7446808510638298,1,,,,,,,,,,,
3123.7999999988824,,directmemory_phase4,2222817,,,,,,,,object_15c.png,,,51,,,1,,object_08b.png,object_14a.png,object_05c.png,object_05c.png,,0.75,1,,,,,,,,,,,
1309.199999999255,,directmemory_phase4,2224128,,,,,,,,object_03b.png,,,49,,,1,,object_09a.png,object_08a.png,object_13b.png,object_09a.png,,0.7551020408163265,1,,,,,,,,,,,
1237.800000000745,,directmemory_phase4,2225367,,,,,,,,object_12a.png,,,50,,,1,,object_14a.png,object_13a.png,object_01a.png,object_13a.png,,0.76,1,,,,,,,,,,,
1102.9000000003725,,directmemory_phase4,2226472,,,,,,,,object_03a.png,,,51,,,1,,object_09a.png,object_15c.png,object_01a.png,object_01a.png,,0.7647058823529411,1,,,,,,,,,,,
2804.199999999255,,directmemory_phase4,2229277,,,,,,,,object_10a.png,,,49,,,1,,object_04c.png,object_09a.png,object_12c.png,object_04c.png,,0.7692307692307693,1,,,,,,,,,,,
4218,,directmemory_phase4,2233497,,,,,,,,object_05b.png,,,51,,,1,,object_07c.png,object_14a.png,object_08b.png,object_08b.png,,0.7735849056603774,1,,,,,,,,,,,
1215.800000000745,,directmemory_phase4,2234714,,,,,,,,object_02b.png,,,50,,,1,,object_11b.png,object_02c.png,object_04b.png,object_02c.png,,0.7777777777777778,1,,,,,,,,,,,
4335.199999999255,,directmemory_phase4,2239051,,,,,,,,object_11b.png,,,49,,,1,,object_06b.png,object_09c.png,object_03a.png,object_06b.png,,0.7818181818181819,1,,,,,,,,,,,
1324.2000000011176,,directmemory_phase4,2240378,,,,,,,,object_12c.png,,,50,,,1,,object_06a.png,object_11c.png,object_04b.png,object_11c.png,,0.7857142857142857,1,,,,,,,,,,,
1193.0999999996275,,directmemory_phase4,2241574,,,,,,,,object_14b.png,,,49,,,1,,object_08a.png,object_14c.png,object_15c.png,object_08a.png,,0.7894736842105263,1,,,,,,,,,,,
1837.5,,directmemory_phase4,2243415,,,,,,,,object_14a.png,,,51,,,1,,object_09a.png,object_03c.png,object_07a.png,object_07a.png,,0.7931034482758621,1,,,,,,,,,,,
1097.5999999996275,,directmemory_phase4,2244515,,,,,,,,object_13b.png,,,50,,,1,,object_03b.png,object_07c.png,object_09c.png,object_07c.png,,0.7966101694915254,1,,,,,,,,,,,
2284,,directmemory_phase4,2246800,,,,,,,,object_06a.png,,,51,,,1,,object_08b.png,object_13b.png,object_04b.png,object_04b.png,,0.8,1,,,,,,,,,,,
null,,thebreak,2246903,,,,,,,,<p></p>,,,null,,,,,,,,,,,,,,,,,,,,,,
891.9000000003725,,intro_0,2247797,,,,,,,,instruct,,,32,,,,,,,,,,,,,,,,,,,,,,
null,,learn_phase(without_color)5,2251299,,,,,,,,black_plus_sign,,,null,object_02c.png,object_13c.png,,,,,,,,,,,,,,,,,,,,
null,,black_cross(without_color)5,2252251,,,,,,,,blue,,,null,object_02c.png,object_13c.png,,,,,,,,,,,,,,,,,,,,
null,,rt_plussign_withcolor5,2252753,,,,,,,,blue,,,null,object_02c.png,object_13c.png,,,,,,,,,,,,,,,,,,,,
null,,rt_thecrossant_black5,2253809,,,,,,,,black_plus_sign,,,null,,,,,,,,,,NaN,,,,,,,,,,,,
null,,color_black5,2253912,,,,,,,,black_plus_sign,,,null,,,,,,,,,,,,,,,,,,,,,,
null,,learn_phase(without_color)5,2257416,,,,,,,,black_plus_sign,,,null,object_08a.png,object_10b.png,,,,,,,,,,,,,,,,,,,,
null,,black_cross(without_color)5,2258284,,,,,,,,blue,,,null,object_08a.png,object_10b.png,,,,,,,,,,,,,,,,,,,,
null,,rt_plussign_withcolor5,2258786,,,,,,,,blue,,,null,object_08a.png,object_10b.png,,,,,,,,,,,,,,,,,,,,
1130.7000000011176,,rt_thecrossant_black5,2259924,,,,,,,,black_plus_sign,,,49,,,1,,,,,,,1,,,,,,,,,,,,
null,,color_black5,2260027,,,,,,,,black_plus_sign,,,null,,,,,,,,,,,,,,,,,,,,,,
null,,learn_phase(without_color)5,2263530,,,,,,,,black_plus_sign,,,null,object_11a.png,object_07c.png,,,,,,,,,,,,,,,,,,,,
null,,black_cross(without_color)5,2264194,,,,,,,,blue,,,null,object_11a.png,object_07c.png,,,,,,,,,,,,,,,,,,,,
null,,rt_plussign_withcolor5,2264696,,,,,,,,blue,,,null,object_11a.png,object_07c.png,,,,,,,,,,,,,,,,,,,,
1172.2000000011176,,rt_thecrossant_black5,2266052,,,,,,,,black_plus_sign,,,49,,,1,,,,,,,1,,,,,,,,,,,,
null,,color_black5,2266155,,,,,,,,black_plus_sign,,,null,,,,,,,,,,,,,,,,,,,,,,
null,,learn_phase(without_color)5,2269658,,,,,,,,black_plus_sign,,,null,object_09b.png,object_13a.png,,,,,,,,,,,,,,,,,,,,
null,,black_cross(without_color)5,2270458,,,,,,,,blue,,,null,object_09b.png,object_13a.png,,,,,,,,,,,,,,,,,,,,
null,,rt_plussign_withcolor5,2270960,,,,,,,,blue,,,null,object_09b.png,object_13a.png,,,,,,,,,,,,,,,,,,,,
919.3000000007451,,rt_thecrossant_black5,2272164,,,,,,,,black_plus_sign,,,49,,,1,,,,,,,1,,,,,,,,,,,,
null,,color_black5,2272267,,,,,,,,black_plus_sign,,,null,,,,,,,,,,,,,,,,,,,,,,
null,,learn_phase(without_color)5,2275772,,,,,,,,black_plus_sign,,,null,object_07a.png,object_12b.png,,,,,,,,,,,,,,,,,,,,
null,,black_cross(without_color)5,2276488,,,,,,,,green,,,null,object_07a.png,object_12b.png,,,,,,,,,,,,,,,,,,,,
null,,rt_plussign_withcolor5,2276991,,,,,,,,green,,,null,object_07a.png,object_12b.png,,,,,,,,,,,,,,,,,,,,
1054.5999999996275,,rt_thecrossant_black5,2278287,,,,,,,,black_plus_sign,,,50,,,1,,,,,,,1,,,,,,,,,,,,
null,,color_black5,2278398,,,,,,,,black_plus_sign,,,null,,,,,,,,,,,,,,,,,,,,,,
null,,learn_phase(without_color)5,2281903,,,,,,,,black_plus_sign,,,null,object_09c.png,object_05a.png,,,,,,,,,,,,,,,,,,,,
null,,black_cross(without_color)5,2282788,,,,,,,,green,,,null,object_09c.png,object_05a.png,,,,,,,,,,,,,,,,,,,,
null,,rt_plussign_withcolor5,2283291,,,,,,,,green,,,null,object_09c.png,object_05a.png,,,,,,,,,,,,,,,,,,,,
1064.5999999996275,,rt_thecrossant_black5,2284417,,,,,,,,black_plus_sign,,,50,,,1,,,,,,,1,,,,,,,,,,,,
null,,color_black5,2284520,,,,,,,,black_plus_sign,,,null,,,,,,,,,,,,,,,,,,,,,,
null,,learn_phase(without_color)5,2288025,,,,,,,,black_plus_sign,,,null,object_06b.png,object_10c.png,,,,,,,,,,,,,,,,,,,,
null,,black_cross(without_color)5,2288844,,,,,,,,green,,,null,object_06b.png,object_10c.png,,,,,,,,,,,,,,,,,,,,
null,,rt_plussign_withcolor5,2289350,,,,,,,,green,,,null,object_06b.png,object_10c.png,,,,,,,,,,,,,,,,,,,,
1161.4000000003725,,rt_thecrossant_black5,2290537,,,,,,,,black_plus_sign,,,50,,,1,,,,,,,1,,,,,,,,,,,,
null,,color_black5,2290640,,,,,,,,black_plus_sign,,,null,,,,,,,,,,,,,,,,,,,,,,
null,,learn_phase(without_color)5,2294144,,,,,,,,black_plus_sign,,,null,object_01b.png,object_04c.png,,,,,,,,,,,,,,,,,,,,
null,,black_cross(without_color)5,2295027,,,,,,,,blue,,,null,object_01b.png,object_04c.png,,,,,,,,,,,,,,,,,,,,
458.1000000014901,,rt_plussign_withcolor5,2295529,,,,,,,,blue,,,49,object_01b.png,object_04c.png,,,,,,,,,,,,,,,,,,,,
null,,rt_thecrossant_black5,2296652,,,,,,,,black_plus_sign,,,49,,,1,,,,,,,1,,,,,,,,,,,,
null,,color_black5,2296756,,,,,,,,black_plus_sign,,,null,,,,,,,,,,,,,,,,,,,,,,
null,,learn_phase(without_color)5,2300260,,,,,,,,black_plus_sign,,,null,object_08b.png,object_04a.png,,,,,,,,,,,,,,,,,,,,
null,,black_cross(without_color)5,2300860,,,,,,,,green,,,null,object_08b.png,object_04a.png,,,,,,,,,,,,,,,,,,,,
null,,rt_plussign_withcolor5,2301363,,,,,,,,green,,,null,object_08b.png,object_04a.png,,,,,,,,,,,,,,,,,,,,
1231,,rt_thecrossant_black5,2302769,,,,,,,,black_plus_sign,,,50,,,1,,,,,,,1,,,,,,,,,,,,
null,,color_black5,2302873,,,,,,,,black_plus_sign,,,null,,,,,,,,,,,,,,,,,,,,,,
null,,learn_phase(without_color)5,2306376,,,,,,,,black_plus_sign,,,null,object_11c.png,object_01c.png,,,,,,,,,,,,,,,,,,,,
null,,black_cross(without_color)5,2307057,,,,,,,,green,,,null,object_11c.png,object_01c.png,,,,,,,,,,,,,,,,,,,,
null,,rt_plussign_withcolor5,2307560,,,,,,,,green,,,null,object_11c.png,object_01c.png,,,,,,,,,,,,,,,,,,,,
1302.5,,rt_thecrossant_black5,2308886,,,,,,,,black_plus_sign,,,50,,,1,,,,,,,1,,,,,,,,,,,,
null,,color_black5,2308989,,,,,,,,black_plus_sign,,,null,,,,,,,,,,,,,,,,,,,,,,
null,,learn_phase(without_color)5,2312493,,,,,,,,black_plus_sign,,,null,object_04b.png,object_15b.png,,,,,,,,,,,,,,,,,,,,
null,,black_cross(without_color)5,2313159,,,,,,,,green,,,null,object_04b.png,object_15b.png,,,,,,,,,,,,,,,,,,,,
null,,rt_plussign_withcolor5,2313662,,,,,,,,green,,,null,object_04b.png,object_15b.png,,,,,,,,,,,,,,,,,,,,
944.2999999988824,,rt_thecrossant_black5,2315001,,,,,,,,black_plus_sign,,,50,,,1,,,,,,,1,,,,,,,,,,,,
null,,color_black5,2315108,,,,,,,,black_plus_sign,,,null,,,,,,,,,,,,,,,,,,,,,,
null,,learn_phase(without_color)5,2318613,,,,,,,,black_plus_sign,,,null,object_01a.png,object_02a.png,,,,,,,,,,,,,,,,,,,,
null,,black_cross(without_color)5,2319666,,,,,,,,green,,,null,object_01a.png,object_02a.png,,,,,,,,,,,,,,,,,,,,
null,,rt_plussign_withcolor5,2320168,,,,,,,,green,,,null,object_01a.png,object_02a.png,,,,,,,,,,,,,,,,,,,,
1099.9000000003725,,rt_thecrossant_black5,2321121,,,,,,,,black_plus_sign,,,50,,,1,,,,,,,1,,,,,,,,,,,,
null,,color_black5,2321223,,,,,,,,black_plus_sign,,,null,,,,,,,,,,,,,,,,,,,,,,
null,,learn_phase(without_color)5,2324726,,,,,,,,black_plus_sign,,,null,object_09a.png,object_15a.png,,,,,,,,,,,,,,,,,,,,
null,,black_cross(without_color)5,2325611,,,,,,,,green,,,null,object_09a.png,object_15a.png,,,,,,,,,,,,,,,,,,,,
null,,rt_plussign_withcolor5,2326114,,,,,,,,green,,,null,object_09a.png,object_15a.png,,,,,,,,,,,,,,,,,,,,
1520.8999999985099,,rt_thecrossant_black5,2327235,,,,,,,,black_plus_sign,,,50,,,1,,,,,,,1,,,,,,,,,,,,
null,,color_black5,2327341,,,,,,,,black_plus_sign,,,null,,,,,,,,,,,,,,,,,,,,,,
null,,learn_phase(without_color)5,2330844,,,,,,,,black_plus_sign,,,null,object_06c.png,object_05c.png,,,,,,,,,,,,,,,,,,,,
null,,black_cross(without_color)5,2331372,,,,,,,,blue,,,null,object_06c.png,object_05c.png,,,,,,,,,,,,,,,,,,,,
null,,rt_plussign_withcolor5,2331875,,,,,,,,blue,,,null,object_06c.png,object_05c.png,,,,,,,,,,,,,,,,,,,,
null,,rt_thecrossant_black5,2333366,,,,,,,,black_plus_sign,,,null,,,,,,,,,,1,,,,,,,,,,,,
null,,color_black5,2333470,,,,,,,,black_plus_sign,,,null,,,,,,,,,,,,,,,,,,,,,,
null,,learn_phase(without_color)5,2336973,,,,,,,,black_plus_sign,,,null,object_08c.png,object_14c.png,,,,,,,,,,,,,,,,,,,,
null,,black_cross(without_color)5,2337533,,,,,,,,green,,,null,object_08c.png,object_14c.png,,,,,,,,,,,,,,,,,,,,
null,,rt_plussign_withcolor5,2338036,,,,,,,,green,,,null,object_08c.png,object_14c.png,,,,,,,,,,,,,,,,,,,,
893.0999999996275,,rt_thecrossant_black5,2339483,,,,,,,,black_plus_sign,,,50,,,1,,,,,,,1,,,,,,,,,,,,
null,,color_black5,2339586,,,,,,,,black_plus_sign,,,null,,,,,,,,,,,,,,,,,,,,,,
null,,thebreak,2339690,,,,,,,,<p></p>,,,null,,,,,,,,,,,,,,,,,,,,,,
1095.699999999255,,intro_0,2340788,,,,,,,,instruct,,,32,,,,,,,,,,,,,,,,,,,,,,
1208.300000000745,,directmemory_phase5,2341998,,,,,,,,object_07c.png,,,49,,,1,,object_11a.png,object_01c.png,object_04b.png,object_11a.png,,0.8032786885245902,1,,,,,,,,,,,
3889,,directmemory_phase5,2345889,,,,,,,,object_04c.png,,,50,,,0,,object_01b.png,object_01c.png,object_13a.png,object_01b.png,,0.7903225806451613,0,,,,,,,,,,,
3797.5,,directmemory_phase5,2349689,,,,,,,,object_12b.png,,,51,,,0,,object_07a.png,object_08b.png,object_06c.png,object_07a.png,,0.7777777777777778,0,,,,,,,,,,,
3703,,directmemory_phase5,2353394,,,,,,,,object_08b.png,,,50,,,0,,object_04a.png,object_12b.png,object_09a.png,object_04a.png,,0.765625,0,,,,,,,,,,,
2956.9000000003725,,directmemory_phase5,2356355,,,,,,,,object_06b.png,,,50,,,1,,object_09a.png,object_10c.png,object_08c.png,object_10c.png,,0.7692307692307693,1,,,,,,,,,,,
2823.89999999851,,directmemory_phase5,2359183,,,,,,,,object_05a.png,,,49,,,1,,object_09c.png,object_04c.png,object_10c.png,object_09c.png,,0.7727272727272727,1,,,,,,,,,,,
2236.300000000745,,directmemory_phase5,2361422,,,,,,,,object_15a.png,,,49,,,0,,object_01b.png,object_09a.png,object_13a.png,object_09a.png,,0.7611940298507462,0,,,,,,,,,,,
4719.5999999996275,,directmemory_phase5,2366146,,,,,,,,object_08a.png,,,51,,,1,,object_08c.png,object_04b.png,object_10b.png,object_10b.png,,0.7647058823529411,1,,,,,,,,,,,
2782.7999999988824,,directmemory_phase5,2368932,,,,,,,,object_02c.png,,,50,,,1,,object_04b.png,object_13c.png,object_06c.png,object_13c.png,,0.7681159420289855,1,,,,,,,,,,,
3206,,directmemory_phase5,2372139,,,,,,,,object_05c.png,,,51,,,0,,object_06c.png,object_01c.png,object_07c.png,object_06c.png,,0.7571428571428571,0,,,,,,,,,,,
2199.5999999996275,,directmemory_phase5,2374340,,,,,,,,object_15b.png,,,51,,,0,,object_15a.png,object_04b.png,object_06b.png,object_04b.png,,0.7464788732394366,0,,,,,,,,,,,
3172.5,,directmemory_phase5,2377515,,,,,,,,object_14c.png,,,49,,,1,,object_08c.png,object_02a.png,object_04b.png,object_08c.png,,0.75,1,,,,,,,,,,,
3190,,directmemory_phase5,2380709,,,,,,,,object_09b.png,,,51,,,0,,object_11a.png,object_13a.png,object_01a.png,object_13a.png,,0.7397260273972602,0,,,,,,,,,,,
2822.5999999996275,,directmemory_phase5,2383533,,,,,,,,object_11c.png,,,51,,,1,,object_01b.png,object_07a.png,object_01c.png,object_01c.png,,0.7432432432432432,1,,,,,,,,,,,
1968.2000000011176,,directmemory_phase5,2385503,,,,,,,,object_01a.png,,,50,,,0,,object_02a.png,object_05a.png,object_04c.png,object_02a.png,,0.7333333333333333,0,,,,,,,,,,,
null,,thebreak,2385607,,,,,,,,<p></p>,,,null,,,,,,,,,,,,,,,,,,,,,,
77321.40000000037,,intro_0,2462930,,,,,,,,instruct,,,32,,,,,,,,,,,,,,,,,,,,,,
null,,learn_phase(without_color)6,2466432,,,,,,,,black_plus_sign,,,null,object_14c.png,object_08c.png,,,,,,,,,,,,,,,,,,,,
null,,black_cross(without_color)6,2466889,,,,,,,,blue,,,null,object_14c.png,object_08c.png,,,,,,,,,,,,,,,,,,,,
null,,rt_plussign_withcolor6,2467391,,,,,,,,blue,,,null,object_14c.png,object_08c.png,,,,,,,,,,,,,,,,,,,,
null,,rt_thecrossant_black6,2468952,,,,,,,,black_plus_sign,,,null,,,,,,,,,,NaN,,,,,,,,,,,,
null,,color_black6,2469056,,,,,,,,black_plus_sign,,,null,,,,,,,,,,,,,,,,,,,,,,
null,,learn_phase(without_color)6,2472560,,,,,,,,black_plus_sign,,,null,object_01c.png,object_11c.png,,,,,,,,,,,,,,,,,,,,
null,,black_cross(without_color)6,2473470,,,,,,,,blue,,,null,object_01c.png,object_11c.png,,,,,,,,,,,,,,,,,,,,
null,,rt_plussign_withcolor6,2473979,,,,,,,,blue,,,null,object_01c.png,object_11c.png,,,,,,,,,,,,,,,,,,,,
668.3000000007451,,rt_thecrossant_black6,2475075,,,,,,,,black_plus_sign,,,49,,,1,,,,,,,1,,,,,,,,,,,,
null,,color_black6,2475178,,,,,,,,black_plus_sign,,,null,,,,,,,,,,,,,,,,,,,,,,
null,,learn_phase(without_color)6,2478693,,,,,,,,black_plus_sign,,,null,object_10c.png,object_06b.png,,,,,,,,,,,,,,,,,,,,
null,,black_cross(without_color)6,2479324,,,,,,,,blue,,,null,object_10c.png,object_06b.png,,,,,,,,,,,,,,,,,,,,
null,,rt_plussign_withcolor6,2479827,,,,,,,,blue,,,null,object_10c.png,object_06b.png,,,,,,,,,,,,,,,,,,,,
1088.9000000003725,,rt_thecrossant_black6,2481207,,,,,,,,black_plus_sign,,,49,,,1,,,,,,,1,,,,,,,,,,,,
null,,color_black6,2481310,,,,,,,,black_plus_sign,,,null,,,,,,,,,,,,,,,,,,,,,,
null,,learn_phase(without_color)6,2484818,,,,,,,,black_plus_sign,,,null,object_11a.png,object_07c.png,,,,,,,,,,,,,,,,,,,,
null,,black_cross(without_color)6,2485916,,,,,,,,blue,,,null,object_11a.png,object_07c.png,,,,,,,,,,,,,,,,,,,,
493.30000000074506,,rt_plussign_withcolor6,2486418,,,,,,,,blue,,,49,object_11a.png,object_07c.png,,,,,,,,,,,,,,,,,,,,
null,,rt_thecrossant_black6,2487326,,,,,,,,black_plus_sign,,,49,,,1,,,,,,,1,,,,,,,,,,,,
null,,color_black6,2487428,,,,,,,,black_plus_sign,,,null,,,,,,,,,,,,,,,,,,,,,,
null,,learn_phase(without_color)6,2490932,,,,,,,,black_plus_sign,,,null,object_05c.png,object_06c.png,,,,,,,,,,,,,,,,,,,,
null,,black_cross(without_color)6,2491610,,,,,,,,blue,,,null,object_05c.png,object_06c.png,,,,,,,,,,,,,,,,,,,,
null,,rt_plussign_withcolor6,2492113,,,,,,,,blue,,,null,object_05c.png,object_06c.png,,,,,,,,,,,,,,,,,,,,
2088.2999999988824,,rt_thecrossant_black6,2493441,,,,,,,,black_plus_sign,,,50,,,0,,,,,,,0.75,,,,,,,,,,,,
null,,color_black6,2493544,,,,,,,,black_plus_sign,,,null,,,,,,,,,,,,,,,,,,,,,,
null,,learn_phase(without_color)6,2497047,,,,,,,,black_plus_sign,,,null,object_08a.png,object_10b.png,,,,,,,,,,,,,,,,,,,,
null,,black_cross(without_color)6,2497568,,,,,,,,green,,,null,object_08a.png,object_10b.png,,,,,,,,,,,,,,,,,,,,
null,,rt_plussign_withcolor6,2498071,,,,,,,,green,,,null,object_08a.png,object_10b.png,,,,,,,,,,,,,,,,,,,,
925.3000000007451,,rt_thecrossant_black6,2499554,,,,,,,,black_plus_sign,,,50,,,1,,,,,,,0.8,,,,,,,,,,,,
null,,color_black6,2499658,,,,,,,,black_plus_sign,,,null,,,,,,,,,,,,,,,,,,,,,,
null,,learn_phase(without_color)6,2503162,,,,,,,,black_plus_sign,,,null,object_04c.png,object_01b.png,,,,,,,,,,,,,,,,,,,,
null,,black_cross(without_color)6,2503902,,,,,,,,green,,,null,object_04c.png,object_01b.png,,,,,,,,,,,,,,,,,,,,
null,,rt_plussign_withcolor6,2504405,,,,,,,,green,,,null,object_04c.png,object_01b.png,,,,,,,,,,,,,,,,,,,,
744.9000000003725,,rt_thecrossant_black6,2505670,,,,,,,,black_plus_sign,,,50,,,1,,,,,,,0.8333333333333334,,,,,,,,,,,,
null,,color_black6,2505773,,,,,,,,black_plus_sign,,,null,,,,,,,,,,,,,,,,,,,,,,
null,,learn_phase(without_color)6,2509277,,,,,,,,black_plus_sign,,,null,object_13c.png,object_02c.png,,,,,,,,,,,,,,,,,,,,
null,,black_cross(without_color)6,2510134,,,,,,,,blue,,,null,object_13c.png,object_02c.png,,,,,,,,,,,,,,,,,,,,
null,,rt_plussign_withcolor6,2510637,,,,,,,,blue,,,null,object_13c.png,object_02c.png,,,,,,,,,,,,,,,,,,,,
1164.199999999255,,rt_thecrossant_black6,2511786,,,,,,,,black_plus_sign,,,49,,,1,,,,,,,0.8571428571428571,,,,,,,,,,,,
null,,color_black6,2511889,,,,,,,,black_plus_sign,,,null,,,,,,,,,,,,,,,,,,,,,,
null,,learn_phase(without_color)6,2515406,,,,,,,,black_plus_sign,,,null,object_04a.png,object_08b.png,,,,,,,,,,,,,,,,,,,,
null,,black_cross(without_color)6,2515923,,,,,,,,blue,,,null,object_04a.png,object_08b.png,,,,,,,,,,,,,,,,,,,,
null,,rt_plussign_withcolor6,2516426,,,,,,,,blue,,,null,object_04a.png,object_08b.png,,,,,,,,,,,,,,,,,,,,
1275,,rt_thecrossant_black6,2517915,,,,,,,,black_plus_sign,,,49,,,1,,,,,,,0.875,,,,,,,,,,,,
null,,color_black6,2518018,,,,,,,,black_plus_sign,,,null,,,,,,,,,,,,,,,,,,,,,,
null,,learn_phase(without_color)6,2521521,,,,,,,,black_plus_sign,,,null,object_12b.png,object_07a.png,,,,,,,,,,,,,,,,,,,,
null,,black_cross(without_color)6,2522275,,,,,,,,green,,,null,object_12b.png,object_07a.png,,,,,,,,,,,,,,,,,,,,
406.40000000037253,,rt_plussign_withcolor6,2522780,,,,,,,,green,,,50,object_12b.png,object_07a.png,,,,,,,,,,,,,,,,,,,,
null,,rt_thecrossant_black6,2524030,,,,,,,,black_plus_sign,,,50,,,1,,,,,,,0.8888888888888888,,,,,,,,,,,,
null,,color_black6,2524135,,,,,,,,black_plus_sign,,,null,,,,,,,,,,,,,,,,,,,,,,
null,,learn_phase(without_color)6,2527638,,,,,,,,black_plus_sign,,,null,object_01a.png,object_02a.png,,,,,,,,,,,,,,,,,,,,
null,,black_cross(without_color)6,2528593,,,,,,,,blue,,,null,object_01a.png,object_02a.png,,,,,,,,,,,,,,,,,,,,
null,,rt_plussign_withcolor6,2529100,,,,,,,,blue,,,null,object_01a.png,object_02a.png,,,,,,,,,,,,,,,,,,,,
868.2999999988824,,rt_thecrossant_black6,2530174,,,,,,,,black_plus_sign,,,49,,,1,,,,,,,0.9,,,,,,,,,,,,
null,,color_black6,2530277,,,,,,,,black_plus_sign,,,null,,,,,,,,,,,,,,,,,,,,,,
null,,learn_phase(without_color)6,2533779,,,,,,,,black_plus_sign,,,null,object_09b.png,object_13a.png,,,,,,,,,,,,,,,,,,,,
null,,black_cross(without_color)6,2534243,,,,,,,,blue,,,null,object_09b.png,object_13a.png,,,,,,,,,,,,,,,,,,,,
null,,rt_plussign_withcolor6,2534747,,,,,,,,blue,,,null,object_09b.png,object_13a.png,,,,,,,,,,,,,,,,,,,,
1195.199999999255,,rt_thecrossant_black6,2536290,,,,,,,,black_plus_sign,,,49,,,1,,,,,,,0.9090909090909091,,,,,,,,,,,,
null,,color_black6,2536392,,,,,,,,black_plus_sign,,,null,,,,,,,,,,,,,,,,,,,,,,
null,,learn_phase(without_color)6,2539894,,,,,,,,black_plus_sign,,,null,object_15b.png,object_04b.png,,,,,,,,,,,,,,,,,,,,
null,,black_cross(without_color)6,2540827,,,,,,,,green,,,null,object_15b.png,object_04b.png,,,,,,,,,,,,,,,,,,,,
null,,rt_plussign_withcolor6,2541330,,,,,,,,green,,,null,object_15b.png,object_04b.png,,,,,,,,,,,,,,,,,,,,
681.5999999996275,,rt_thecrossant_black6,2542404,,,,,,,,black_plus_sign,,,50,,,1,,,,,,,0.9166666666666666,,,,,,,,,,,,
null,,color_black6,2542507,,,,,,,,black_plus_sign,,,null,,,,,,,,,,,,,,,,,,,,,,
null,,learn_phase(without_color)6,2546009,,,,,,,,black_plus_sign,,,null,object_09c.png,object_05a.png,,,,,,,,,,,,,,,,,,,,
null,,black_cross(without_color)6,2546769,,,,,,,,blue,,,null,object_09c.png,object_05a.png,,,,,,,,,,,,,,,,,,,,
null,,rt_plussign_withcolor6,2547275,,,,,,,,blue,,,null,object_09c.png,object_05a.png,,,,,,,,,,,,,,,,,,,,
1167.0999999996275,,rt_thecrossant_black6,2548520,,,,,,,,black_plus_sign,,,49,,,1,,,,,,,0.9230769230769231,,,,,,,,,,,,
null,,color_black6,2548622,,,,,,,,black_plus_sign,,,null,,,,,,,,,,,,,,,,,,,,,,
null,,learn_phase(without_color)6,2552129,,,,,,,,black_plus_sign,,,null,object_09a.png,object_15a.png,,,,,,,,,,,,,,,,,,,,
null,,black_cross(without_color)6,2552829,,,,,,,,green,,,null,object_09a.png,object_15a.png,,,,,,,,,,,,,,,,,,,,
null,,rt_plussign_withcolor6,2553332,,,,,,,,green,,,null,object_09a.png,object_15a.png,,,,,,,,,,,,,,,,,,,,
1071.699999999255,,rt_thecrossant_black6,2554638,,,,,,,,black_plus_sign,,,50,,,1,,,,,,,0.9285714285714286,,,,,,,,,,,,
null,,color_black6,2554741,,,,,,,,black_plus_sign,,,null,,,,,,,,,,,,,,,,,,,,,,
null,,thebreak,2554853,,,,,,,,<p></p>,,,null,,,,,,,,,,,,,,,,,,,,,,
1692.0999999996275,,intro_0,2556547,,,,,,,,instruct,,,32,,,,,,,,,,,,,,,,,,,,,,
5530.800000000745,,directmemory_phase6,2562081,,,,,,,,object_08a.png,,,51,,,1,,object_09b.png,object_05c.png,object_10b.png,object_10b.png,,0.7368421052631579,1,,,,,,,,,,,
1651,,directmemory_phase6,2563734,,,,,,,,object_02c.png,,,49,,,1,,object_13c.png,object_01c.png,object_04b.png,object_13c.png,,0.7402597402597403,1,,,,,,,,,,,
2339.199999999255,,directmemory_phase6,2566077,,,,,,,,object_09a.png,,,51,,,1,,object_11a.png,object_13a.png,object_15a.png,object_15a.png,,0.7435897435897436,1,,,,,,,,,,,
2007.3999999985099,,directmemory_phase6,2568087,,,,,,,,object_08c.png,,,50,,,1,,object_15a.png,object_14c.png,object_04b.png,object_14c.png,,0.7468354430379747,1,,,,,,,,,,,
4677.800000000745,,directmemory_phase6,2572768,,,,,,,,object_12b.png,,,50,,,1,,object_02a.png,object_07a.png,object_07c.png,object_07a.png,,0.75,1,,,,,,,,,,,
4142.39999999851,,directmemory_phase6,2576914,,,,,,,,object_04b.png,,,49,,,1,,object_15b.png,object_15a.png,object_09c.png,object_15b.png,,0.7530864197530864,1,,,,,,,,,,,
2578.800000000745,,directmemory_phase6,2579495,,,,,,,,object_06b.png,,,49,,,1,,object_10c.png,object_15b.png,object_08a.png,object_10c.png,,0.7560975609756098,1,,,,,,,,,,,
2536.0999999996275,,directmemory_phase6,2582033,,,,,,,,object_05a.png,,,49,,,1,,object_09c.png,object_13a.png,object_06c.png,object_09c.png,,0.7590361445783133,1,,,,,,,,,,,
6889.199999999255,,directmemory_phase6,2588924,,,,,,,,object_08b.png,,,50,,,1,,object_04b.png,object_04a.png,object_01b.png,object_04a.png,,0.7619047619047619,1,,,,,,,,,,,
4409.10000000149,,directmemory_phase6,2593337,,,,,,,,object_07c.png,,,50,,,1,,object_08a.png,object_11a.png,object_15b.png,object_11a.png,,0.7647058823529411,1,,,,,,,,,,,
4571.299999998882,,directmemory_phase6,2597913,,,,,,,,object_04c.png,,,49,,,1,,object_01b.png,object_09b.png,object_07a.png,object_01b.png,,0.7674418604651163,1,,,,,,,,,,,
4202.0999999996275,,directmemory_phase6,2602119,,,,,,,,object_11c.png,,,49,,,0,,object_02a.png,object_06b.png,object_01c.png,object_01c.png,,0.7586206896551724,0,,,,,,,,,,,
3730.199999999255,,directmemory_phase6,2605850,,,,,,,,object_13a.png,,,50,,,1,,object_06b.png,object_09b.png,object_01c.png,object_09b.png,,0.7613636363636364,1,,,,,,,,,,,
3810,,directmemory_phase6,2609662,,,,,,,,object_05c.png,,,49,,,1,,object_06c.png,object_01b.png,object_09a.png,object_06c.png,,0.7640449438202247,1,,,,,,,,,,,
3584.300000000745,,directmemory_phase6,2613248,,,,,,,,object_01a.png,,,49,,,1,,object_02a.png,object_15a.png,object_09c.png,object_02a.png,,0.7666666666666667,1,,,,,,,,,,,
null,,thebreak,2613353,,,,,,,,<p></p>,,,null,,,,,,,,,,,,,,,,,,,,,,
1212.5,,intro_0,2614568,,,,,,,,instruct,,,32,,,,,,,,,,,,,,,,,,,,,,
null,,learn_phase(without_color)7,2618071,,,,,,,,black_plus_sign,,,null,object_02a.png,object_01a.png,,,,,,,,,,,,,,,,,,,,
null,,black_cross(without_color)7,2618790,,,,,,,,green,,,null,object_02a.png,object_01a.png,,,,,,,,,,,,,,,,,,,,
null,,rt_plussign_withcolor7,2619293,,,,,,,,green,,,null,object_02a.png,object_01a.png,,,,,,,,,,,,,,,,,,,,
1487.5999999996275,,rt_thecrossant_black7,2620580,,,,,,,,black_plus_sign,,,50,,,1,,,,,,,1,,,,,,,,,,,,
null,,color_black7,2620683,,,,,,,,black_plus_sign,,,null,,,,,,,,,,,,,,,,,,,,,,
null,,learn_phase(without_color)7,2624186,,,,,,,,black_plus_sign,,,null,object_09b.png,object_13a.png,,,,,,,,,,,,,,,,,,,,
null,,black_cross(without_color)7,2625243,,,,,,,,blue,,,null,object_09b.png,object_13a.png,,,,,,,,,,,,,,,,,,,,
null,,rt_plussign_withcolor7,2625746,,,,,,,,blue,,,null,object_09b.png,object_13a.png,,,,,,,,,,,,,,,,,,,,
927.7999999988824,,rt_thecrossant_black7,2626695,,,,,,,,black_plus_sign,,,49,,,1,,,,,,,1,,,,,,,,,,,,
null,,color_black7,2626797,,,,,,,,black_plus_sign,,,null,,,,,,,,,,,,,,,,,,,,,,
null,,learn_phase(without_color)7,2630302,,,,,,,,black_plus_sign,,,null,object_07c.png,object_11a.png,,,,,,,,,,,,,,,,,,,,
null,,black_cross(without_color)7,2631345,,,,,,,,green,,,null,object_07c.png,object_11a.png,,,,,,,,,,,,,,,,,,,,
null,,rt_plussign_withcolor7,2631857,,,,,,,,green,,,null,object_07c.png,object_11a.png,,,,,,,,,,,,,,,,,,,,
1231.5999999996275,,rt_thecrossant_black7,2632819,,,,,,,,black_plus_sign,,,50,,,1,,,,,,,1,,,,,,,,,,,,
null,,color_black7,2632922,,,,,,,,black_plus_sign,,,null,,,,,,,,,,,,,,,,,,,,,,
null,,learn_phase(without_color)7,2636426,,,,,,,,black_plus_sign,,,null,object_10b.png,object_08a.png,,,,,,,,,,,,,,,,,,,,
null,,black_cross(without_color)7,2636931,,,,,,,,blue,,,null,object_10b.png,object_08a.png,,,,,,,,,,,,,,,,,,,,
null,,rt_plussign_withcolor7,2637434,,,,,,,,blue,,,null,object_10b.png,object_08a.png,,,,,,,,,,,,,,,,,,,,
1278.5,,rt_thecrossant_black7,2638942,,,,,,,,black_plus_sign,,,49,,,1,,,,,,,1,,,,,,,,,,,,
null,,color_black7,2639052,,,,,,,,black_plus_sign,,,null,,,,,,,,,,,,,,,,,,,,,,
null,,learn_phase(without_color)7,2642556,,,,,,,,black_plus_sign,,,null,object_04c.png,object_01b.png,,,,,,,,,,,,,,,,,,,,
null,,black_cross(without_color)7,2643155,,,,,,,,green,,,null,object_04c.png,object_01b.png,,,,,,,,,,,,,,,,,,,,
null,,rt_plussign_withcolor7,2643658,,,,,,,,green,,,null,object_04c.png,object_01b.png,,,,,,,,,,,,,,,,,,,,
713.1999999992549,,rt_thecrossant_black7,2645065,,,,,,,,black_plus_sign,,,50,,,1,,,,,,,1,,,,,,,,,,,,
null,,color_black7,2645168,,,,,,,,black_plus_sign,,,null,,,,,,,,,,,,,,,,,,,,,,
null,,learn_phase(without_color)7,2648674,,,,,,,,black_plus_sign,,,null,object_10c.png,object_06b.png,,,,,,,,,,,,,,,,,,,,
null,,black_cross(without_color)7,2649290,,,,,,,,blue,,,null,object_10c.png,object_06b.png,,,,,,,,,,,,,,,,,,,,
455.5,,rt_plussign_withcolor7,2649792,,,,,,,,blue,,,49,object_10c.png,object_06b.png,,,,,,,,,,,,,,,,,,,,
null,,rt_thecrossant_black7,2651183,,,,,,,,black_plus_sign,,,49,,,1,,,,,,,1,,,,,,,,,,,,
null,,color_black7,2651287,,,,,,,,black_plus_sign,,,null,,,,,,,,,,,,,,,,,,,,,,
null,,learn_phase(without_color)7,2654791,,,,,,,,black_plus_sign,,,null,object_04b.png,object_15b.png,,,,,,,,,,,,,,,,,,,,
null,,black_cross(without_color)7,2655811,,,,,,,,green,,,null,object_04b.png,object_15b.png,,,,,,,,,,,,,,,,,,,,
null,,rt_plussign_withcolor7,2656314,,,,,,,,green,,,null,object_04b.png,object_15b.png,,,,,,,,,,,,,,,,,,,,
825.8999999985099,,rt_thecrossant_black7,2657300,,,,,,,,black_plus_sign,,,50,,,1,,,,,,,1,,,,,,,,,,,,
null,,color_black7,2657403,,,,,,,,black_plus_sign,,,null,,,,,,,,,,,,,,,,,,,,,,
null,,learn_phase(without_color)7,2660908,,,,,,,,black_plus_sign,,,null,object_05a.png,object_09c.png,,,,,,,,,,,,,,,,,,,,
null,,black_cross(without_color)7,2661733,,,,,,,,green,,,null,object_05a.png,object_09c.png,,,,,,,,,,,,,,,,,,,,
491.40000000037253,,rt_plussign_withcolor7,2662236,,,,,,,,green,,,50,object_05a.png,object_09c.png,,,,,,,,,,,,,,,,,,,,
null,,rt_thecrossant_black7,2663417,,,,,,,,black_plus_sign,,,50,,,1,,,,,,,1,,,,,,,,,,,,
null,,color_black7,2663519,,,,,,,,black_plus_sign,,,null,,,,,,,,,,,,,,,,,,,,,,
null,,learn_phase(without_color)7,2667022,,,,,,,,black_plus_sign,,,null,object_15a.png,object_09a.png,,,,,,,,,,,,,,,,,,,,
null,,black_cross(without_color)7,2668081,,,,,,,,green,,,null,object_15a.png,object_09a.png,,,,,,,,,,,,,,,,,,,,
494,,rt_plussign_withcolor7,2668584,,,,,,,,green,,,50,object_15a.png,object_09a.png,,,,,,,,,,,,,,,,,,,,
null,,rt_thecrossant_black7,2669530,,,,,,,,black_plus_sign,,,50,,,1,,,,,,,1,,,,,,,,,,,,
null,,color_black7,2669633,,,,,,,,black_plus_sign,,,null,,,,,,,,,,,,,,,,,,,,,,
null,,learn_phase(without_color)7,2673137,,,,,,,,black_plus_sign,,,null,object_05c.png,object_06c.png,,,,,,,,,,,,,,,,,,,,
null,,black_cross(without_color)7,2673634,,,,,,,,blue,,,null,object_05c.png,object_06c.png,,,,,,,,,,,,,,,,,,,,
null,,rt_plussign_withcolor7,2674136,,,,,,,,blue,,,null,object_05c.png,object_06c.png,,,,,,,,,,,,,,,,,,,,
1233.300000000745,,rt_thecrossant_black7,2675646,,,,,,,,black_plus_sign,,,50,,,0,,,,,,,0.9,,,,,,,,,,,,
null,,color_black7,2675749,,,,,,,,black_plus_sign,,,null,,,,,,,,,,,,,,,,,,,,,,
null,,learn_phase(without_color)7,2679254,,,,,,,,black_plus_sign,,,null,object_07a.png,object_12b.png,,,,,,,,,,,,,,,,,,,,
null,,black_cross(without_color)7,2679778,,,,,,,,green,,,null,object_07a.png,object_12b.png,,,,,,,,,,,,,,,,,,,,
null,,rt_plussign_withcolor7,2680281,,,,,,,,green,,,null,object_07a.png,object_12b.png,,,,,,,,,,,,,,,,,,,,
637.3000000007451,,rt_thecrossant_black7,2681766,,,,,,,,black_plus_sign,,,50,,,1,,,,,,,0.9090909090909091,,,,,,,,,,,,
null,,color_black7,2681870,,,,,,,,black_plus_sign,,,null,,,,,,,,,,,,,,,,,,,,,,
null,,learn_phase(without_color)7,2685374,,,,,,,,black_plus_sign,,,null,object_11c.png,object_01c.png,,,,,,,,,,,,,,,,,,,,
null,,black_cross(without_color)7,2686141,,,,,,,,green,,,null,object_11c.png,object_01c.png,,,,,,,,,,,,,,,,,,,,
null,,rt_plussign_withcolor7,2686650,,,,,,,,green,,,null,object_11c.png,object_01c.png,,,,,,,,,,,,,,,,,,,,
698.6999999992549,,rt_thecrossant_black7,2687888,,,,,,,,black_plus_sign,,,50,,,1,,,,,,,0.9166666666666666,,,,,,,,,,,,
null,,color_black7,2687990,,,,,,,,black_plus_sign,,,null,,,,,,,,,,,,,,,,,,,,,,
null,,learn_phase(without_color)7,2691494,,,,,,,,black_plus_sign,,,null,object_08c.png,object_14c.png,,,,,,,,,,,,,,,,,,,,
null,,black_cross(without_color)7,2692261,,,,,,,,green,,,null,object_08c.png,object_14c.png,,,,,,,,,,,,,,,,,,,,
null,,rt_plussign_withcolor7,2692764,,,,,,,,green,,,null,object_08c.png,object_14c.png,,,,,,,,,,,,,,,,,,,,
1042.199999999255,,rt_thecrossant_black7,2694021,,,,,,,,black_plus_sign,,,50,,,1,,,,,,,0.9230769230769231,,,,,,,,,,,,
null,,color_black7,2694124,,,,,,,,black_plus_sign,,,null,,,,,,,,,,,,,,,,,,,,,,
null,,learn_phase(without_color)7,2697629,,,,,,,,black_plus_sign,,,null,object_02c.png,object_13c.png,,,,,,,,,,,,,,,,,,,,
null,,black_cross(without_color)7,2698503,,,,,,,,green,,,null,object_02c.png,object_13c.png,,,,,,,,,,,,,,,,,,,,
null,,rt_plussign_withcolor7,2699006,,,,,,,,green,,,null,object_02c.png,object_13c.png,,,,,,,,,,,,,,,,,,,,
893.1999999992549,,rt_thecrossant_black7,2700146,,,,,,,,black_plus_sign,,,50,,,1,,,,,,,0.9285714285714286,,,,,,,,,,,,
null,,color_black7,2700249,,,,,,,,black_plus_sign,,,null,,,,,,,,,,,,,,,,,,,,,,
null,,learn_phase(without_color)7,2703752,,,,,,,,black_plus_sign,,,null,object_08b.png,object_04a.png,,,,,,,,,,,,,,,,,,,,
null,,black_cross(without_color)7,2704596,,,,,,,,blue,,,null,object_08b.png,object_04a.png,,,,,,,,,,,,,,,,,,,,
null,,rt_plussign_withcolor7,2705098,,,,,,,,blue,,,null,object_08b.png,object_04a.png,,,,,,,,,,,,,,,,,,,,
1121.0999999996275,,rt_thecrossant_black7,2706261,,,,,,,,black_plus_sign,,,49,,,1,,,,,,,0.9333333333333333,,,,,,,,,,,,
null,,color_black7,2706365,,,,,,,,black_plus_sign,,,null,,,,,,,,,,,,,,,,,,,,,,
null,,thebreak,2706469,,,,,,,,<p></p>,,,null,,,,,,,,,,,,,,,,,,,,,,
1437.300000000745,,intro_0,2707908,,,,,,,,instruct,,,32,,,,,,,,,,,,,,,,,,,,,,
2003.9000000003725,,directmemory_phase7,2709913,,,,,,,,object_11a.png,,,49,,,0,,object_13a.png,object_10b.png,object_07c.png,object_07c.png,,0.7582417582417582,0,,,,,,,,,,,
2773.5,,directmemory_phase7,2712692,,,,,,,,object_09b.png,,,51,,,1,,object_04b.png,object_12b.png,object_13a.png,object_13a.png,,0.7608695652173914,1,,,,,,,,,,,
4240,,directmemory_phase7,2716935,,,,,,,,object_04a.png,,,51,,,0,,object_05a.png,object_08b.png,object_09a.png,object_08b.png,,0.7526881720430108,0,,,,,,,,,,,
5050.300000000745,,directmemory_phase7,2721989,,,,,,,,object_05c.png,,,49,,,1,,object_06c.png,object_04a.png,object_08b.png,object_06c.png,,0.7553191489361702,1,,,,,,,,,,,
1404,,directmemory_phase7,2723394,,,,,,,,object_10c.png,,,49,,,1,,object_06b.png,object_01a.png,object_09b.png,object_06b.png,,0.7578947368421053,1,,,,,,,,,,,
1630.699999999255,,directmemory_phase7,2725027,,,,,,,,object_08c.png,,,50,,,1,,object_05a.png,object_14c.png,object_07c.png,object_14c.png,,0.7604166666666666,1,,,,,,,,,,,
1358.5999999996275,,directmemory_phase7,2726390,,,,,,,,object_13c.png,,,51,,,1,,object_09c.png,object_12b.png,object_02c.png,object_02c.png,,0.7628865979381443,1,,,,,,,,,,,
1613.5999999996275,,directmemory_phase7,2728005,,,,,,,,object_10b.png,,,49,,,1,,object_08a.png,object_07c.png,object_06c.png,object_08a.png,,0.7653061224489796,1,,,,,,,,,,,
2307.699999999255,,directmemory_phase7,2730316,,,,,,,,object_04b.png,,,50,,,1,,object_09c.png,object_15b.png,object_06c.png,object_15b.png,,0.7676767676767676,1,,,,,,,,,,,
3723.0999999996275,,directmemory_phase7,2734042,,,,,,,,object_02a.png,,,51,,,1,,object_09c.png,object_01c.png,object_01a.png,object_01a.png,,0.77,1,,,,,,,,,,,
1775.5999999996275,,directmemory_phase7,2735821,,,,,,,,object_05a.png,,,50,,,1,,object_04a.png,object_09c.png,object_13a.png,object_09c.png,,0.7722772277227723,1,,,,,,,,,,,
3579.800000000745,,directmemory_phase7,2739403,,,,,,,,object_01b.png,,,51,,,1,,object_07c.png,object_05a.png,object_04c.png,object_04c.png,,0.7745098039215687,1,,,,,,,,,,,
4982.89999999851,,directmemory_phase7,2744388,,,,,,,,object_11c.png,,,49,,,1,,object_01c.png,object_11a.png,object_08a.png,object_01c.png,,0.7766990291262136,1,,,,,,,,,,,
2637.5,,directmemory_phase7,2747028,,,,,,,,object_09a.png,,,49,,,1,,object_15a.png,object_09b.png,object_13a.png,object_15a.png,,0.7788461538461539,1,,,,,,,,,,,
1951.5,,directmemory_phase7,2748981,,,,,,,,object_07a.png,,,51,,,1,,object_10c.png,object_04c.png,object_12b.png,object_12b.png,,0.780952380952381,1,,,,,,,,,,,
null,,thebreak,2749085,,,,,,,,<p></p>,,,null,,,,,,,,,,,,,,,,,,,,,,
1160.1000000014901,,intro_0,2750247,,,,,,,,instruct,,,32,,,,,,,,,,,,,,,,,,,,,,
null,,learn_phase(without_color)8,2753748,,,,,,,,black_plus_sign,,,null,object_09a.png,object_15a.png,,,,,,,,,,,,,,,,,,,,
null,,black_cross(without_color)8,2754722,,,,,,,,green,,,null,object_09a.png,object_15a.png,,,,,,,,,,,,,,,,,,,,
null,,rt_plussign_withcolor8,2755224,,,,,,,,green,,,null,object_09a.png,object_15a.png,,,,,,,,,,,,,,,,,,,,
1156.5999999996275,,rt_thecrossant_black8,2756257,,,,,,,,black_plus_sign,,,50,,,1,,,,,,,1,,,,,,,,,,,,
null,,color_black8,2756359,,,,,,,,black_plus_sign,,,null,,,,,,,,,,,,,,,,,,,,,,
null,,learn_phase(without_color)8,2759862,,,,,,,,black_plus_sign,,,null,object_05a.png,object_09c.png,,,,,,,,,,,,,,,,,,,,
null,,black_cross(without_color)8,2760710,,,,,,,,blue,,,null,object_05a.png,object_09c.png,,,,,,,,,,,,,,,,,,,,
null,,rt_plussign_withcolor8,2761213,,,,,,,,blue,,,null,object_05a.png,object_09c.png,,,,,,,,,,,,,,,,,,,,
1132,,rt_thecrossant_black8,2762370,,,,,,,,black_plus_sign,,,49,,,1,,,,,,,1,,,,,,,,,,,,
null,,color_black8,2762482,,,,,,,,black_plus_sign,,,null,,,,,,,,,,,,,,,,,,,,,,
null,,learn_phase(without_color)8,2765985,,,,,,,,black_plus_sign,,,null,object_13a.png,object_09b.png,,,,,,,,,,,,,,,,,,,,
null,,black_cross(without_color)8,2766652,,,,,,,,green,,,null,object_13a.png,object_09b.png,,,,,,,,,,,,,,,,,,,,
null,,rt_plussign_withcolor8,2767155,,,,,,,,green,,,null,object_13a.png,object_09b.png,,,,,,,,,,,,,,,,,,,,
1103.7000000011176,,rt_thecrossant_black8,2768494,,,,,,,,black_plus_sign,,,50,,,1,,,,,,,1,,,,,,,,,,,,
null,,color_black8,2768598,,,,,,,,black_plus_sign,,,null,,,,,,,,,,,,,,,,,,,,,,
null,,learn_phase(without_color)8,2772103,,,,,,,,black_plus_sign,,,null,object_06c.png,object_05c.png,,,,,,,,,,,,,,,,,,,,
null,,black_cross(without_color)8,2773076,,,,,,,,blue,,,null,object_06c.png,object_05c.png,,,,,,,,,,,,,,,,,,,,
null,,rt_plussign_withcolor8,2773579,,,,,,,,blue,,,null,object_06c.png,object_05c.png,,,,,,,,,,,,,,,,,,,,
903.1999999992549,,rt_thecrossant_black8,2774626,,,,,,,,black_plus_sign,,,49,,,1,,,,,,,1,,,,,,,,,,,,
null,,color_black8,2774730,,,,,,,,black_plus_sign,,,null,,,,,,,,,,,,,,,,,,,,,,
null,,learn_phase(without_color)8,2778234,,,,,,,,black_plus_sign,,,null,object_06b.png,object_10c.png,,,,,,,,,,,,,,,,,,,,
null,,black_cross(without_color)8,2778803,,,,,,,,green,,,null,object_06b.png,object_10c.png,,,,,,,,,,,,,,,,,,,,
null,,rt_plussign_withcolor8,2779309,,,,,,,,green,,,null,object_06b.png,object_10c.png,,,,,,,,,,,,,,,,,,,,
1226.199999999255,,rt_thecrossant_black8,2780746,,,,,,,,black_plus_sign,,,50,,,1,,,,,,,1,,,,,,,,,,,,
null,,color_black8,2780850,,,,,,,,black_plus_sign,,,null,,,,,,,,,,,,,,,,,,,,,,
null,,learn_phase(without_color)8,2784354,,,,,,,,black_plus_sign,,,null,object_07a.png,object_12b.png,,,,,,,,,,,,,,,,,,,,
null,,black_cross(without_color)8,2785093,,,,,,,,green,,,null,object_07a.png,object_12b.png,,,,,,,,,,,,,,,,,,,,
null,,rt_plussign_withcolor8,2785595,,,,,,,,green,,,null,object_07a.png,object_12b.png,,,,,,,,,,,,,,,,,,,,
763.2000000011176,,rt_thecrossant_black8,2786865,,,,,,,,black_plus_sign,,,50,,,1,,,,,,,1,,,,,,,,,,,,
null,,color_black8,2786969,,,,,,,,black_plus_sign,,,null,,,,,,,,,,,,,,,,,,,,,,
null,,learn_phase(without_color)8,2790473,,,,,,,,black_plus_sign,,,null,object_07c.png,object_11a.png,,,,,,,,,,,,,,,,,,,,
null,,black_cross(without_color)8,2791265,,,,,,,,blue,,,null,object_07c.png,object_11a.png,,,,,,,,,,,,,,,,,,,,
null,,rt_plussign_withcolor8,2791769,,,,,,,,blue,,,null,object_07c.png,object_11a.png,,,,,,,,,,,,,,,,,,,,
896.5,,rt_thecrossant_black8,2792983,,,,,,,,black_plus_sign,,,49,,,1,,,,,,,1,,,,,,,,,,,,
null,,color_black8,2793088,,,,,,,,black_plus_sign,,,null,,,,,,,,,,,,,,,,,,,,,,
null,,learn_phase(without_color)8,2796592,,,,,,,,black_plus_sign,,,null,object_01c.png,object_11c.png,,,,,,,,,,,,,,,,,,,,
null,,black_cross(without_color)8,2797126,,,,,,,,green,,,null,object_01c.png,object_11c.png,,,,,,,,,,,,,,,,,,,,
null,,rt_plussign_withcolor8,2797629,,,,,,,,green,,,null,object_01c.png,object_11c.png,,,,,,,,,,,,,,,,,,,,
934.5999999996275,,rt_thecrossant_black8,2799101,,,,,,,,black_plus_sign,,,50,,,1,,,,,,,1,,,,,,,,,,,,
null,,color_black8,2799204,,,,,,,,black_plus_sign,,,null,,,,,,,,,,,,,,,,,,,,,,
null,,learn_phase(without_color)8,2802708,,,,,,,,black_plus_sign,,,null,object_13c.png,object_02c.png,,,,,,,,,,,,,,,,,,,,
null,,black_cross(without_color)8,2803421,,,,,,,,green,,,null,object_13c.png,object_02c.png,,,,,,,,,,,,,,,,,,,,
null,,rt_plussign_withcolor8,2803924,,,,,,,,green,,,null,object_13c.png,object_02c.png,,,,,,,,,,,,,,,,,,,,
1181.5,,rt_thecrossant_black8,2805217,,,,,,,,black_plus_sign,,,50,,,1,,,,,,,1,,,,,,,,,,,,
null,,color_black8,2805320,,,,,,,,black_plus_sign,,,null,,,,,,,,,,,,,,,,,,,,,,
null,,learn_phase(without_color)8,2808826,,,,,,,,black_plus_sign,,,null,object_15b.png,object_04b.png,,,,,,,,,,,,,,,,,,,,
null,,black_cross(without_color)8,2809367,,,,,,,,green,,,null,object_15b.png,object_04b.png,,,,,,,,,,,,,,,,,,,,
null,,rt_plussign_withcolor8,2809870,,,,,,,,green,,,null,object_15b.png,object_04b.png,,,,,,,,,,,,,,,,,,,,
826.6999999992549,,rt_thecrossant_black8,2811335,,,,,,,,black_plus_sign,,,50,,,1,,,,,,,1,,,,,,,,,,,,
null,,color_black8,2811439,,,,,,,,black_plus_sign,,,null,,,,,,,,,,,,,,,,,,,,,,
null,,learn_phase(without_color)8,2814945,,,,,,,,black_plus_sign,,,null,object_08a.png,object_10b.png,,,,,,,,,,,,,,,,,,,,
null,,black_cross(without_color)8,2815812,,,,,,,,green,,,null,object_08a.png,object_10b.png,,,,,,,,,,,,,,,,,,,,
null,,rt_plussign_withcolor8,2816315,,,,,,,,green,,,null,object_08a.png,object_10b.png,,,,,,,,,,,,,,,,,,,,
737.0999999996275,,rt_thecrossant_black8,2817455,,,,,,,,black_plus_sign,,,50,,,1,,,,,,,1,,,,,,,,,,,,
null,,color_black8,2817558,,,,,,,,black_plus_sign,,,null,,,,,,,,,,,,,,,,,,,,,,
null,,learn_phase(without_color)8,2821063,,,,,,,,black_plus_sign,,,null,object_04a.png,object_08b.png,,,,,,,,,,,,,,,,,,,,
null,,black_cross(without_color)8,2821942,,,,,,,,green,,,null,object_04a.png,object_08b.png,,,,,,,,,,,,,,,,,,,,
null,,rt_plussign_withcolor8,2822445,,,,,,,,green,,,null,object_04a.png,object_08b.png,,,,,,,,,,,,,,,,,,,,
1103,,rt_thecrossant_black8,2823573,,,,,,,,black_plus_sign,,,50,,,1,,,,,,,1,,,,,,,,,,,,
null,,color_black8,2823675,,,,,,,,black_plus_sign,,,null,,,,,,,,,,,,,,,,,,,,,,
null,,learn_phase(without_color)8,2827179,,,,,,,,black_plus_sign,,,null,object_04c.png,object_01b.png,,,,,,,,,,,,,,,,,,,,
null,,black_cross(without_color)8,2827601,,,,,,,,green,,,null,object_04c.png,object_01b.png,,,,,,,,,,,,,,,,,,,,
null,,rt_plussign_withcolor8,2828103,,,,,,,,green,,,null,object_04c.png,object_01b.png,,,,,,,,,,,,,,,,,,,,
1284.800000000745,,rt_thecrossant_black8,2829688,,,,,,,,black_plus_sign,,,50,,,1,,,,,,,1,,,,,,,,,,,,
null,,color_black8,2829792,,,,,,,,black_plus_sign,,,null,,,,,,,,,,,,,,,,,,,,,,
null,,learn_phase(without_color)8,2833297,,,,,,,,black_plus_sign,,,null,object_14c.png,object_08c.png,,,,,,,,,,,,,,,,,,,,
null,,black_cross(without_color)8,2833943,,,,,,,,blue,,,null,object_14c.png,object_08c.png,,,,,,,,,,,,,,,,,,,,
null,,rt_plussign_withcolor8,2834447,,,,,,,,blue,,,null,object_14c.png,object_08c.png,,,,,,,,,,,,,,,,,,,,
613,,rt_thecrossant_black8,2835808,,,,,,,,black_plus_sign,,,49,,,1,,,,,,,1,,,,,,,,,,,,
null,,color_black8,2835922,,,,,,,,black_plus_sign,,,null,,,,,,,,,,,,,,,,,,,,,,
null,,learn_phase(without_color)8,2839427,,,,,,,,black_plus_sign,,,null,object_02a.png,object_01a.png,,,,,,,,,,,,,,,,,,,,
null,,black_cross(without_color)8,2840446,,,,,,,,green,,,null,object_02a.png,object_01a.png,,,,,,,,,,,,,,,,,,,,
null,,rt_plussign_withcolor8,2840950,,,,,,,,green,,,null,object_02a.png,object_01a.png,,,,,,,,,,,,,,,,,,,,
878.6999999992549,,rt_thecrossant_black8,2841937,,,,,,,,black_plus_sign,,,50,,,1,,,,,,,1,,,,,,,,,,,,
null,,color_black8,2842041,,,,,,,,black_plus_sign,,,null,,,,,,,,,,,,,,,,,,,,,,
null,,thebreak,2842146,,,,,,,,<p></p>,,,null,,,,,,,,,,,,,,,,,,,,,,
1176.4000000003725,,intro_0,2843325,,,,,,,,instruct,,,32,,,,,,,,,,,,,,,,,,,,,,
2395.199999999255,,directmemory_phase8,2845721,,,,,,,,object_13a.png,,,50,,,1,,object_07c.png,object_09b.png,object_08c.png,object_09b.png,,0.7830188679245284,1,,,,,,,,,,,
2301.699999999255,,directmemory_phase8,2848025,,,,,,,,object_07a.png,,,50,,,1,,object_08b.png,object_12b.png,object_04a.png,object_12b.png,,0.7850467289719626,1,,,,,,,,,,,
2450.800000000745,,directmemory_phase8,2850481,,,,,,,,object_06b.png,,,51,,,1,,object_12b.png,object_05c.png,object_10c.png,object_10c.png,,0.7870370370370371,1,,,,,,,,,,,
1168.699999999255,,directmemory_phase8,2851655,,,,,,,,object_13c.png,,,49,,,1,,object_02c.png,object_06b.png,object_06c.png,object_02c.png,,0.7889908256880734,1,,,,,,,,,,,
1436,,directmemory_phase8,2853096,,,,,,,,object_09c.png,,,49,,,1,,object_05a.png,object_01b.png,object_05c.png,object_05a.png,,0.7909090909090909,1,,,,,,,,,,,
3112.5999999996275,,directmemory_phase8,2856213,,,,,,,,object_05c.png,,,50,,,1,,object_14c.png,object_06c.png,object_01b.png,object_06c.png,,0.7927927927927928,1,,,,,,,,,,,
2119.5,,directmemory_phase8,2858335,,,,,,,,object_04c.png,,,51,,,1,,object_10b.png,object_08a.png,object_01b.png,object_01b.png,,0.7946428571428571,1,,,,,,,,,,,
1183,,directmemory_phase8,2859520,,,,,,,,object_01c.png,,,50,,,1,,object_10b.png,object_11c.png,object_06b.png,object_11c.png,,0.7964601769911505,1,,,,,,,,,,,
2147.5999999996275,,directmemory_phase8,2861669,,,,,,,,object_01a.png,,,49,,,1,,object_02a.png,object_12b.png,object_09a.png,object_02a.png,,0.7982456140350878,1,,,,,,,,,,,
2153,,directmemory_phase8,2863824,,,,,,,,object_08b.png,,,51,,,1,,object_06c.png,object_07c.png,object_04a.png,object_04a.png,,0.8,1,,,,,,,,,,,
2397.300000000745,,directmemory_phase8,2866225,,,,,,,,object_11a.png,,,49,,,1,,object_07c.png,object_08a.png,object_12b.png,object_07c.png,,0.8017241379310345,1,,,,,,,,,,,
2600,,directmemory_phase8,2868827,,,,,,,,object_08a.png,,,51,,,1,,object_09b.png,object_05c.png,object_10b.png,object_10b.png,,0.8034188034188035,1,,,,,,,,,,,
4392.200000001118,,directmemory_phase8,2873222,,,,,,,,object_14c.png,,,50,,,1,,object_11c.png,object_08c.png,object_11a.png,object_08c.png,,0.8050847457627118,1,,,,,,,,,,,
2905.300000000745,,directmemory_phase8,2876129,,,,,,,,object_04b.png,,,50,,,1,,object_08b.png,object_15b.png,object_15a.png,object_15b.png,,0.8067226890756303,1,,,,,,,,,,,
3030.5999999996275,,directmemory_phase8,2879162,,,,,,,,object_09a.png,,,50,,,1,,object_05c.png,object_15a.png,object_06c.png,object_15a.png,,0.8083333333333333,1,,,,,,,,,,,
null,,thebreak,2879267,,,,,,,,<p></p>,,,null,,,,,,,,,,,,,,,,,,,,,,
3155.0999999996275,,intro_0,2882425,,,,,,,,instruct,,,32,,,,,,,,,,,,,,,,,,,,,,
6547.800000000745,,intro_1,2888974,,,,,,,,instruct,,,32,,,,,,,,,,,,,,,,,,,,,,
3081.4000000003725,,intro_2,2892057,,,,,,,,instruct,,,32,,,,,,,,,,,,,,,,,,,,,,
,,intro_3,2922138,,,,,,,,instruct,,,,,,,,,,,,,,,,,,,,,,,,,
7888.5,,intro_4,2930028,,,,,,,,instruct,,,32,,,,,,,,,,,,,,,,,,,,,,
5015,,inference_phase,2935044,,,,,,,,object_07b.png,,,50,object_07c.png,object_05a.png,1,,,,,object_08c.png,,1,,object_08c.png,,,,,,,,,,
5547.89999999851,,inference_phase,2940594,,,,,,,,object_05b.png,,,49,object_07c.png,object_06c.png,0,,,,,object_04a.png,,0.5,,object_04a.png,,,,,,,,,,
4226.89999999851,,inference_phase,2944822,,,,,,,,object_15b.png,,,51,object_06a.png,object_14b.png,0,,,,,object_06a.png,,0.3333333333333333,,object_04c.png,,,,,,,,,,
3384.89999999851,,inference_phase,2948210,,,,,,,,object_11a.png,,,49,object_14b.png,object_08a.png,0,,,,,object_13b.png,,0.25,,object_13b.png,,,,,,,,,,
7190.5,,inference_phase,2955404,,,,,,,,object_02a.png,,,49,object_12c.png,object_03a.png,0,,,,,object_03a.png,,0.2,,object_08b.png,,,,,,,,,,
5658.39999999851,,inference_phase,2961065,,,,,,,,object_11b.png,,,49,object_08b.png,object_02a.png,0,,,,,object_10c.png,,0.16666666666666666,,object_10c.png,,,,,,,,,,
7796.60000000149,,inference_phase,2968863,,,,,,,,object_12b.png,,,50,object_14a.png,object_05b.png,0,,,,,object_14a.png,,0.14285714285714285,,object_07c.png,,,,,,,,,,
3512.300000000745,,inference_phase,2972378,,,,,,,,object_15a.png,,,51,object_03c.png,object_04c.png,0,,,,,object_03b.png,,0.125,,object_03b.png,,,,,,,,,,
5659.5,,inference_phase,2978040,,,,,,,,object_02b.png,,,49,object_13c.png,object_05a.png,1,,,,,object_13c.png,,0.2222222222222222,,object_09a.png,,,,,,,,,,
6457.299999998882,,inference_phase,2984502,,,,,,,,object_10a.png,,,50,object_01b.png,object_15a.png,0,,,,,object_01b.png,,0.2,,object_13a.png,,,,,,,,,,
5976.0999999996275,,inference_phase,2990480,,,,,,,,object_10b.png,,,49,object_11b.png,object_13a.png,0,,,,,object_14b.png,,0.18181818181818182,,object_14b.png,,,,,,,,,,
1471.0999999996275,,inference_phase,2991954,,,,,,,,object_06c.png,,,49,object_15c.png,object_03b.png,1,,,,,object_15c.png,,0.25,,object_04b.png,,,,,,,,,,
6426.299999998882,,inference_phase,2998384,,,,,,,,object_09b.png,,,51,object_11b.png,object_12a.png,1,,,,,object_12a.png,,0.3076923076923077,,object_04b.png,,,,,,,,,,
3797.800000000745,,inference_phase,3002185,,,,,,,,object_01c.png,,,49,object_10a.png,object_08b.png,0,,,,,object_12c.png,,0.2857142857142857,,object_12c.png,,,,,,,,,,
3245.5999999996275,,inference_phase,3005433,,,,,,,,object_03c.png,,,49,object_05a.png,object_06c.png,1,,,,,object_05a.png,,0.3333333333333333,,object_07c.png,,,,,,,,,,
,,survey,3127690,,,,,,,,survey-questions,,,,,,,,,,,,,,,,none,high,No,I first learned the easy ones noticing some similarites between the thwo objects and put them together, example is both shapes having complex block drawing or both shapes having a ball like feature in them.,All were on equal level,No,N/A,,,
16606.599999999627,,thank_you,3144345,,,,,,,,<p> Congratulations, you are all done!</p><p> <strong>Please click space on your keyboard to end the experiment!</strong> The secret code to enter at the beginning screen is: <strong>CIMBPENS</strong></p><p> Please make sure to submit the HIT and email uciccnl@gmail.com if you had any issues! </p><br><p>Please remember to submit this data by clicking space after copying the code. Failure of submission will lead to in-complete payment</p>,,,32,,,,,,,,,,,,,,,,,,,,12,3,C78LSMTN
