rt,responses,trial_type,time_elapsed,identifier_a,identifier_b,identifier_c,tasktype,browser_type,local_time,UTC_time,stimulus,button_pressed,response,key_press,stimulus_left,stimulus_right,accuracy,practice_cumulative_accuracy,stimulus_down_left,stimulus_down_mid,stimulus_down_right,stimulus_correct,prac_weighted_accuracy,cumulative_accuracy,failed_practice,weighted_accuracy,stimulus_middle,problems,smooth,distraction,strategies,easier,similar,comments,detectfocus,breakfocus,completion_code
20151.000000000004,{worker_id:613e157ccd6af6049001ce25},id_enter,20153,object_01a.png; object_11c.png; object_03b.png; object_12a.png; object_01b.png; object_15a.png; object_14b.png; object_05c.png; object_03c.png; object_04c.png; object_06c.png; object_08a.png; object_08c.png; object_09c.png; object_11a.png,object_04a.png; object_14a.png; object_05a.png; object_13b.png; object_12b.png; object_01c.png; object_14c.png; object_02a.png; object_05b.png; object_04b.png; object_06b.png; object_07c.png; object_09b.png; object_10a.png; object_11b.png,object_02b.png; object_13a.png; object_13c.png; object_12c.png; object_15c.png; object_02c.png; object_15b.png; object_03a.png; object_06a.png; object_07b.png; object_07a.png; object_08b.png; object_09a.png; object_10c.png; object_10b.png,interleaved,Mozilla/5.0 (Macintosh; Intel Mac OS X 10_15_7) AppleWebKit/605.1.15 (KHTML, like Gecko) Version/18.4 Safari/605.1.15,5/8/2025, 5:38:30 PM,2025-05-09 00:38:30.871,,,,,,,,,,,,,,,,,,,,,,,,,,,
11935.000000000007,,make_fullscreen,32118,,,,,,,,fullscreen,0,,,,,,,,,,,,,,,,,,,,,,,,,
2741,,instruct_1,34868,,,,,,,,instruct,0,Next,,,,,,,,,,,,,,,,,,,,,,,,
9295.999999999993,,instruct_2,44166,,,,,,,,instruct,1,Next,,,,,,,,,,,,,,,,,,,,,,,,
6347,,instruct_3,50514,,,,,,,,instruct,1,Next,,,,,,,,,,,,,,,,,,,,,,,,
16749,,instruct_4,67266,,,,,,,,instruct,1,Next,,,,,,,,,,,,,,,,,,,,,,,,
9615,,instruct_5,76883,,,,,,,,instruct,1,Next,,,,,,,,,,,,,,,,,,,,,,,,
3382,,instruct_6,80266,,,,,,,,instruct,1,Next,,,,,,,,,,,,,,,,,,,,,,,,
23348,,instruct_7,103616,,,,,,,,instruct,1,Next,,,,,,,,,,,,,,,,,,,,,,,,
null,,prac_atten_color_black,104254,,,,,,,,black_plus_sign,,,null,,,,,,,,,,,,,,,,,,,,,,,
null,,prac_atten_color,105028,,,,,,,,<p style='position:absolute;top: 50%;right: 50%;transform: translate(50%, -50%);font-size: 125px;color: blue;'>+</p>,,,null,,,,,,,,,,,,,,,,,,,,,,,
1302,,prac_atten_color_black,107031,,,,,,,,black_plus_sign,,,49,,,,,,,,,,,,,,,,,,,,,,,
null,,prac_atten_color_black,107673,,,,,,,,black_plus_sign,,,null,,,,,,,,,,,,,,,,,,,,,,,
493,,prac_atten_color,108480,,,,,,,,<p style='position:absolute;top: 50%;right: 50%;transform: translate(50%, -50%);font-size: 125px;color: green;'>+</p>,,,50,,,,,,,,,,,,,,,,,,,,,,,
null,,prac_atten_color_black,110483,,,,,,,,black_plus_sign,,,null,,,,,,,,,,,,,,,,,,,,,,,
null,,prac_atten_color_black,111090,,,,,,,,black_plus_sign,,,null,,,,,,,,,,,,,,,,,,,,,,,
null,,prac_atten_color,111925,,,,,,,,<p style='position:absolute;top: 50%;right: 50%;transform: translate(50%, -50%);font-size: 125px;color: green;'>+</p>,,,null,,,,,,,,,,,,,,,,,,,,,,,
240,,prac_atten_color_black,113928,,,,,,,,black_plus_sign,,,50,,,,,,,,,,,,,,,,,,,,,,,
null,,prac_atten_color_black,114511,,,,,,,,black_plus_sign,,,null,,,,,,,,,,,,,,,,,,,,,,,
614.0000000000146,,prac_atten_color,115567,,,,,,,,<p style='position:absolute;top: 50%;right: 50%;transform: translate(50%, -50%);font-size: 125px;color: blue;'>+</p>,,,49,,,,,,,,,,,,,,,,,,,,,,,
null,,prac_atten_color_black,117570,,,,,,,,black_plus_sign,,,null,,,,,,,,,,,,,,,,,,,,,,,
null,,prac_atten_color_black,117930,,,,,,,,black_plus_sign,,,null,,,,,,,,,,,,,,,,,,,,,,,
673,,prac_atten_color,118635,,,,,,,,<p style='position:absolute;top: 50%;right: 50%;transform: translate(50%, -50%);font-size: 125px;color: green;'>+</p>,,,50,,,,,,,,,,,,,,,,,,,,,,,
null,,prac_atten_color_black,120638,,,,,,,,black_plus_sign,,,null,,,,,,,,,,,,,,,,,,,,,,,
null,,prac_atten_color_black,121350,,,,,,,,black_plus_sign,,,null,,,,,,,,,,,,,,,,,,,,,,,
606,,prac_atten_color,122034,,,,,,,,<p style='position:absolute;top: 50%;right: 50%;transform: translate(50%, -50%);font-size: 125px;color: green;'>+</p>,,,50,,,,,,,,,,,,,,,,,,,,,,,
null,,prac_atten_color_black,124037,,,,,,,,black_plus_sign,,,null,,,,,,,,,,,,,,,,,,,,,,,
null,,prac_atten_color_black,124768,,,,,,,,black_plus_sign,,,null,,,,,,,,,,,,,,,,,,,,,,,
514,,prac_atten_color,125548,,,,,,,,<p style='position:absolute;top: 50%;right: 50%;transform: translate(50%, -50%);font-size: 125px;color: blue;'>+</p>,,,49,,,,,,,,,,,,,,,,,,,,,,,
null,,prac_atten_color_black,127551,,,,,,,,black_plus_sign,,,null,,,,,,,,,,,,,,,,,,,,,,,
null,,prac_atten_color_black,128189,,,,,,,,black_plus_sign,,,null,,,,,,,,,,,,,,,,,,,,,,,
711,,prac_atten_color,129133,,,,,,,,<p style='position:absolute;top: 50%;right: 50%;transform: translate(50%, -50%);font-size: 125px;color: green;'>+</p>,,,50,,,,,,,,,,,,,,,,,,,,,,,
null,,prac_atten_color_black,131136,,,,,,,,black_plus_sign,,,null,,,,,,,,,,,,,,,,,,,,,,,
null,,prac_atten_color_black,131610,,,,,,,,black_plus_sign,,,null,,,,,,,,,,,,,,,,,,,,,,,
null,,prac_atten_color,132432,,,,,,,,<p style='position:absolute;top: 50%;right: 50%;transform: translate(50%, -50%);font-size: 125px;color: blue;'>+</p>,,,null,,,,,,,,,,,,,,,,,,,,,,,
76,,prac_atten_color_black,134435,,,,,,,,black_plus_sign,,,49,,,,,,,,,,,,,,,,,,,,,,,
null,,prac_atten_color_black,135031,,,,,,,,black_plus_sign,,,null,,,,,,,,,,,,,,,,,,,,,,,
null,,prac_atten_color,135586,,,,,,,,<p style='position:absolute;top: 50%;right: 50%;transform: translate(50%, -50%);font-size: 125px;color: blue;'>+</p>,,,null,,,,,,,,,,,,,,,,,,,,,,,
435,,prac_atten_color_black,137589,,,,,,,,black_plus_sign,,,49,,,,,,,,,,,,,,,,,,,,,,,
142444.00000000006,,attentioncheck_feedback,292073,,,,,,,,cross_check_feedback,0,,,,,,,,,,,,,,,,,,,,,,,,,
7427,,last_instruct,299505,,,,,,,,instruct,,,32,,,,,,,,,,,,,,,,,,,,,,,
null,,prac_learn_phase(without_color),303015,,,,,,,,black_plus_sign,,,null,object_09b.png,object_09a.png,,,,,,,,,,,,,,,,,,,,,
null,,prac_black_cross(without_color),303946,,,,,,,,green,,,null,object_09b.png,object_09a.png,,,,,,,,,,,,,,,,,,,,,
null,,prac_rt_plussign_withcolor,304450,,,,,,,,green,,,null,object_09b.png,object_09a.png,,,,,,,,,,,,,,,,,,,,,
907,,prac_rt_thecrossant_black,305534,,,,,,,,black_plus_sign,,,50,,,1,1,,,,,,,,,,,,,,,,,,,
null,,prac_color_black,305642,,,,,,,,black_plus_sign,,,null,,,,,,,,,,,,,,,,,,,,,,,
null,,prac_learn_phase(without_color),309152,,,,,,,,black_plus_sign,,,null,object_02c.png,object_01c.png,,,,,,,,,,,,,,,,,,,,,
null,,black_cross(without_color)1,309672,,,,,,,,blue,,,null,object_09b.png,object_09a.png,,,,,,,,,,,,,,,,,,,,,
null,,prac_rt_plussign_withcolor,310175,,,,,,,,blue,,,null,object_02c.png,object_01c.png,,,,,,,,,,,,,,,,,,,,,
914,,prac_rt_thecrossant_black,311654,,,,,,,,black_plus_sign,,,49,,,1,1,,,,,,,,,,,,,,,,,,,
null,,prac_color_black,311762,,,,,,,,black_plus_sign,,,null,,,,,,,,,,,,,,,,,,,,,,,
null,,prac_learn_phase(without_color),315271,,,,,,,,black_plus_sign,,,null,object_04b.png,object_07b.png,,,,,,,,,,,,,,,,,,,,,
null,,black_cross(without_color)1,315791,,,,,,,,blue,,,null,object_09b.png,object_09a.png,,,,,,,,,,,,,,,,,,,,,
null,,prac_rt_plussign_withcolor,316293,,,,,,,,green,,,null,object_04b.png,object_07b.png,,,,,,,,,,,,,,,,,,,,,
835.0000000000582,,prac_rt_thecrossant_black,317233,,,,,,,,black_plus_sign,,,50,,,1,1,,,,,,,,,,,,,,,,,,,
null,,prac_color_black,317340,,,,,,,,black_plus_sign,,,null,,,,,,,,,,,,,,,,,,,,,,,
null,,prac_learn_phase(without_color),320846,,,,,,,,black_plus_sign,,,null,object_06b.png,object_07a.png,,,,,,,,,,,,,,,,,,,,,
null,,black_cross(without_color)1,321366,,,,,,,,blue,,,null,object_09b.png,object_09a.png,,,,,,,,,,,,,,,,,,,,,
null,,prac_rt_plussign_withcolor,321869,,,,,,,,green,,,null,object_06b.png,object_07a.png,,,,,,,,,,,,,,,,,,,,,
1248,,prac_rt_thecrossant_black,323470,,,,,,,,black_plus_sign,,,50,,,1,1,,,,,,,,,,,,,,,,,,,
null,,prac_color_black,323577,,,,,,,,black_plus_sign,,,null,,,,,,,,,,,,,,,,,,,,,,,
16967,,instruct_dir_01,340553,,,,,,,,instruct,0,Next,,,,,,,,,,,,,,,,,,,,,,,,
10613,,instruct_dir_2,351169,,,,,,,,instruct,1,Next,,,,,,,,,,,,,,,,,,,,,,,,
6380.000000000058,,instruct_dir_3,357551,,,,,,,,instruct,1,Next,,,,,,,,,,,,,,,,,,,,,,,,
15566,,instruct_dir_4,373119,,,,,,,,instruct,1,Start,,,,,,,,,,,,,,,,,,,,,,,,
null,,thebreak,373222,,,,,,,,<p></p>,,,null,,,,,,,,,,,,,,,,,,,,,,,
1517,,intro_0,374741,,,,,,,,instruct,,,32,,,,,,,,,,,,,,,,,,,,,,,
3418,,prac_directmemory_phase,378161,,,,,,,,practice/object_03a.png,,,49,,,0,,practice/object_02a.png,practice/object_03b.png,practice/object_04b.png,practice/object_03b.png,0,0,,,,,,,,,,,,,
4291,,prac_directmemory_phase,382460,,,,,,,,practice/object_01a.png,,,51,,,1,,practice/object_02b.png,practice/object_04a.png,practice/object_01b.png,practice/object_01b.png,1,0.5,,,,,,,,,,,,,
2293.999999999942,,prac_directmemory_phase,384761,,,,,,,,practice/object_04a.png,,,50,,,0,,practice/object_04b.png,practice/object_03b.png,practice/object_02a.png,practice/object_04b.png,0,0.3333333333333333,,,,,,,,,,,,,
2319,,prac_directmemory_phase,387086,,,,,,,,practice/object_02a.png,,,51,,,1,,practice/object_03b.png,practice/object_03a.png,practice/object_02b.png,practice/object_02b.png,1,0.5,,,,,,,,,,,,,
6060.999999999942,,practice_feedback_force_restart,393154,,,,,,,,practice_feedback,0,,,,,,,,,,,,,1,,,,,,,,,,,,
5210,,last_instruct,398365,,,,,,,,instruct,,,32,,,,,,,,,,,,,,,,,,,,,,,
null,,prac_learn_phase(without_color),401869,,,,,,,,black_plus_sign,,,null,object_09b.png,object_09a.png,,,,,,,,,,,,,,,,,,,,,
null,,prac_black_cross(without_color),402415,,,,,,,,green,,,null,object_09b.png,object_09a.png,,,,,,,,,,,,,,,,,,,,,
null,,prac_rt_plussign_withcolor,402918,,,,,,,,green,,,null,object_09b.png,object_09a.png,,,,,,,,,,,,,,,,,,,,,
2162,,prac_rt_thecrossant_black,404387,,,,,,,,black_plus_sign,,,50,,,1,1,,,,,,,,,,,,,,,,,,,
null,,prac_color_black,404495,,,,,,,,black_plus_sign,,,null,,,,,,,,,,,,,,,,,,,,,,,
null,,prac_learn_phase(without_color),408003,,,,,,,,black_plus_sign,,,null,object_02c.png,object_01c.png,,,,,,,,,,,,,,,,,,,,,
null,,black_cross(without_color)1,408523,,,,,,,,blue,,,null,object_09b.png,object_09a.png,,,,,,,,,,,,,,,,,,,,,
null,,prac_rt_plussign_withcolor,409026,,,,,,,,blue,,,null,object_02c.png,object_01c.png,,,,,,,,,,,,,,,,,,,,,
925.0000000000582,,prac_rt_thecrossant_black,410527,,,,,,,,black_plus_sign,,,49,,,1,1,,,,,,,,,,,,,,,,,,,
null,,prac_color_black,410633,,,,,,,,black_plus_sign,,,null,,,,,,,,,,,,,,,,,,,,,,,
null,,prac_learn_phase(without_color),414140,,,,,,,,black_plus_sign,,,null,object_04b.png,object_07b.png,,,,,,,,,,,,,,,,,,,,,
null,,black_cross(without_color)1,414660,,,,,,,,blue,,,null,object_09b.png,object_09a.png,,,,,,,,,,,,,,,,,,,,,
null,,prac_rt_plussign_withcolor,415163,,,,,,,,green,,,null,object_04b.png,object_07b.png,,,,,,,,,,,,,,,,,,,,,
1233,,prac_rt_thecrossant_black,416153,,,,,,,,black_plus_sign,,,50,,,1,1,,,,,,,,,,,,,,,,,,,
null,,prac_color_black,416260,,,,,,,,black_plus_sign,,,null,,,,,,,,,,,,,,,,,,,,,,,
null,,prac_learn_phase(without_color),419768,,,,,,,,black_plus_sign,,,null,object_06b.png,object_07a.png,,,,,,,,,,,,,,,,,,,,,
null,,black_cross(without_color)1,420288,,,,,,,,blue,,,null,object_09b.png,object_09a.png,,,,,,,,,,,,,,,,,,,,,
null,,prac_rt_plussign_withcolor,420792,,,,,,,,green,,,null,object_06b.png,object_07a.png,,,,,,,,,,,,,,,,,,,,,
1399.0000000000582,,prac_rt_thecrossant_black,421873,,,,,,,,black_plus_sign,,,50,,,1,1,,,,,,,,,,,,,,,,,,,
null,,prac_color_black,421980,,,,,,,,black_plus_sign,,,null,,,,,,,,,,,,,,,,,,,,,,,
3531.999999999942,,instruct_dir_01,425518,,,,,,,,instruct,0,Next,,,,,,,,,,,,,,,,,,,,,,,,
2130,,instruct_dir_2,427650,,,,,,,,instruct,1,Next,,,,,,,,,,,,,,,,,,,,,,,,
3400.999999999942,,instruct_dir_3,431053,,,,,,,,instruct,1,Next,,,,,,,,,,,,,,,,,,,,,,,,
5096,,instruct_dir_4,436151,,,,,,,,instruct,1,Start,,,,,,,,,,,,,,,,,,,,,,,,
null,,thebreak,436254,,,,,,,,<p></p>,,,null,,,,,,,,,,,,,,,,,,,,,,,
1733,,intro_0,437990,,,,,,,,instruct,,,32,,,,,,,,,,,,,,,,,,,,,,,
5369.000000000058,,prac_directmemory_phase,443362,,,,,,,,practice/object_03a.png,,,50,,,1,,practice/object_02a.png,practice/object_03b.png,practice/object_04b.png,practice/object_03b.png,1,1,,,,,,,,,,,,,
2972,,prac_directmemory_phase,446341,,,,,,,,practice/object_01a.png,,,51,,,1,,practice/object_02b.png,practice/object_04a.png,practice/object_01b.png,practice/object_01b.png,1,1,,,,,,,,,,,,,
3271,,prac_directmemory_phase,449620,,,,,,,,practice/object_04a.png,,,49,,,1,,practice/object_04b.png,practice/object_03b.png,practice/object_02a.png,practice/object_04b.png,1,1,,,,,,,,,,,,,
4104,,prac_directmemory_phase,453731,,,,,,,,practice/object_02a.png,,,51,,,1,,practice/object_03b.png,practice/object_03a.png,practice/object_02b.png,practice/object_02b.png,1,1,,,,,,,,,,,,,
4881,,practice_feedback,458619,,,,,,,,practice_feedback,1,,,,,,,,,,,,,,,,,,,,,,,,,
7833,,proceed_actualTask,466453,,,,,,,,proceed_actualTask,1,Continue,,,,,,,,,,,,,,,,,,,,,,,,
7557.999999999942,,last_inst,474013,,,,,,,,last_inst,,,32,,,,,,,,,,,,,,,,,,,,,,,
null,,learn_phase(without_color)1,477517,,,,,,,,black_plus_sign,,,null,object_09b.png,object_09a.png,,,,,,,,,,,,,,,,,,,,,
null,,black_cross(without_color)1,478038,,,,,,,,blue,,,null,object_09b.png,object_09a.png,,,,,,,,,,,,,,,,,,,,,
null,,rt_plussign_withcolor1,478541,,,,,,,,blue,,,null,object_09b.png,object_09a.png,,,,,,,,,,,,,,,,,,,,,
2444,,rt_thecrossant_black1,480036,,,,,,,,black_plus_sign,,,49,,,1,,,,,,,1,,,,,,,,,,,,,
null,,color_black1,480143,,,,,,,,black_plus_sign,,,null,,,,,,,,,,,,,,,,,,,,,,,
null,,learn_phase(without_color)1,483651,,,,,,,,black_plus_sign,,,null,object_02c.png,object_01c.png,,,,,,,,,,,,,,,,,,,,,
null,,black_cross(without_color)1,484254,,,,,,,,green,,,null,object_02c.png,object_01c.png,,,,,,,,,,,,,,,,,,,,,
null,,rt_plussign_withcolor1,484758,,,,,,,,green,,,null,object_02c.png,object_01c.png,,,,,,,,,,,,,,,,,,,,,
1238.0000000000582,,rt_thecrossant_black1,486169,,,,,,,,black_plus_sign,,,50,,,1,,,,,,,1,,,,,,,,,,,,,
null,,color_black1,486276,,,,,,,,black_plus_sign,,,null,,,,,,,,,,,,,,,,,,,,,,,
null,,learn_phase(without_color)1,489783,,,,,,,,black_plus_sign,,,null,object_04b.png,object_07b.png,,,,,,,,,,,,,,,,,,,,,
null,,black_cross(without_color)1,490300,,,,,,,,blue,,,null,object_04b.png,object_07b.png,,,,,,,,,,,,,,,,,,,,,
null,,rt_plussign_withcolor1,490803,,,,,,,,blue,,,null,object_04b.png,object_07b.png,,,,,,,,,,,,,,,,,,,,,
1054,,rt_thecrossant_black1,492300,,,,,,,,black_plus_sign,,,49,,,1,,,,,,,1,,,,,,,,,,,,,
null,,color_black1,492408,,,,,,,,black_plus_sign,,,null,,,,,,,,,,,,,,,,,,,,,,,
null,,learn_phase(without_color)1,495916,,,,,,,,black_plus_sign,,,null,object_06b.png,object_07a.png,,,,,,,,,,,,,,,,,,,,,
null,,black_cross(without_color)1,496579,,,,,,,,blue,,,null,object_06b.png,object_07a.png,,,,,,,,,,,,,,,,,,,,,
null,,rt_plussign_withcolor1,497082,,,,,,,,blue,,,null,object_06b.png,object_07a.png,,,,,,,,,,,,,,,,,,,,,
1104,,rt_thecrossant_black1,498434,,,,,,,,black_plus_sign,,,49,,,1,,,,,,,1,,,,,,,,,,,,,
null,,color_black1,498541,,,,,,,,black_plus_sign,,,null,,,,,,,,,,,,,,,,,,,,,,,
null,,learn_phase(without_color)1,502048,,,,,,,,black_plus_sign,,,null,object_04a.png,object_01a.png,,,,,,,,,,,,,,,,,,,,,
null,,black_cross(without_color)1,503079,,,,,,,,blue,,,null,object_04a.png,object_01a.png,,,,,,,,,,,,,,,,,,,,,
null,,rt_plussign_withcolor1,503582,,,,,,,,blue,,,null,object_04a.png,object_01a.png,,,,,,,,,,,,,,,,,,,,,
null,,rt_thecrossant_black1,504566,,,,,,,,black_plus_sign,,,null,,,,,,,,,,1,,,,,,,,,,,,,
null,,color_black1,504673,,,,,,,,black_plus_sign,,,null,,,,,,,,,,,,,,,,,,,,,,,
null,,learn_phase(without_color)1,508181,,,,,,,,black_plus_sign,,,null,object_05b.png,object_03c.png,,,,,,,,,,,,,,,,,,,,,
null,,black_cross(without_color)1,509272,,,,,,,,green,,,null,object_05b.png,object_03c.png,,,,,,,,,,,,,,,,,,,,,
null,,rt_plussign_withcolor1,509775,,,,,,,,green,,,null,object_05b.png,object_03c.png,,,,,,,,,,,,,,,,,,,,,
1360,,rt_thecrossant_black1,510699,,,,,,,,black_plus_sign,,,50,,,1,,,,,,,1,,,,,,,,,,,,,
null,,color_black1,510805,,,,,,,,black_plus_sign,,,null,,,,,,,,,,,,,,,,,,,,,,,
null,,learn_phase(without_color)1,514313,,,,,,,,black_plus_sign,,,null,object_04b.png,object_04c.png,,,,,,,,,,,,,,,,,,,,,
null,,black_cross(without_color)1,514813,,,,,,,,green,,,null,object_04b.png,object_04c.png,,,,,,,,,,,,,,,,,,,,,
null,,rt_plussign_withcolor1,515316,,,,,,,,green,,,null,object_04b.png,object_04c.png,,,,,,,,,,,,,,,,,,,,,
1561.9999999999418,,rt_thecrossant_black1,516831,,,,,,,,black_plus_sign,,,50,,,1,,,,,,,1,,,,,,,,,,,,,
null,,color_black1,516937,,,,,,,,black_plus_sign,,,null,,,,,,,,,,,,,,,,,,,,,,,
null,,learn_phase(without_color)1,520444,,,,,,,,black_plus_sign,,,null,object_05a.png,object_13c.png,,,,,,,,,,,,,,,,,,,,,
null,,black_cross(without_color)1,521085,,,,,,,,green,,,null,object_05a.png,object_13c.png,,,,,,,,,,,,,,,,,,,,,
null,,rt_plussign_withcolor1,521587,,,,,,,,green,,,null,object_05a.png,object_13c.png,,,,,,,,,,,,,,,,,,,,,
910,,rt_thecrossant_black1,522960,,,,,,,,black_plus_sign,,,50,,,1,,,,,,,1,,,,,,,,,,,,,
null,,color_black1,523067,,,,,,,,black_plus_sign,,,null,,,,,,,,,,,,,,,,,,,,,,,
null,,learn_phase(without_color)1,526574,,,,,,,,black_plus_sign,,,null,object_03a.png,object_02a.png,,,,,,,,,,,,,,,,,,,,,
null,,black_cross(without_color)1,527302,,,,,,,,blue,,,null,object_03a.png,object_02a.png,,,,,,,,,,,,,,,,,,,,,
null,,rt_plussign_withcolor1,527805,,,,,,,,blue,,,null,object_03a.png,object_02a.png,,,,,,,,,,,,,,,,,,,,,
1033.0000000001164,,rt_thecrossant_black1,529090,,,,,,,,black_plus_sign,,,49,,,1,,,,,,,1,,,,,,,,,,,,,
null,,color_black1,529197,,,,,,,,black_plus_sign,,,null,,,,,,,,,,,,,,,,,,,,,,,
null,,learn_phase(without_color)1,532705,,,,,,,,black_plus_sign,,,null,object_12a.png,object_13b.png,,,,,,,,,,,,,,,,,,,,,
null,,black_cross(without_color)1,533253,,,,,,,,green,,,null,object_12a.png,object_13b.png,,,,,,,,,,,,,,,,,,,,,
null,,rt_plussign_withcolor1,533756,,,,,,,,green,,,null,object_12a.png,object_13b.png,,,,,,,,,,,,,,,,,,,,,
1026,,rt_thecrossant_black1,535222,,,,,,,,black_plus_sign,,,50,,,1,,,,,,,1,,,,,,,,,,,,,
null,,color_black1,535330,,,,,,,,black_plus_sign,,,null,,,,,,,,,,,,,,,,,,,,,,,
null,,learn_phase(without_color)1,538837,,,,,,,,black_plus_sign,,,null,object_06a.png,object_05b.png,,,,,,,,,,,,,,,,,,,,,
null,,black_cross(without_color)1,539550,,,,,,,,blue,,,null,object_06a.png,object_05b.png,,,,,,,,,,,,,,,,,,,,,
null,,rt_plussign_withcolor1,540052,,,,,,,,blue,,,null,object_06a.png,object_05b.png,,,,,,,,,,,,,,,,,,,,,
779,,rt_thecrossant_black1,541352,,,,,,,,black_plus_sign,,,49,,,1,,,,,,,1,,,,,,,,,,,,,
null,,color_black1,541459,,,,,,,,black_plus_sign,,,null,,,,,,,,,,,,,,,,,,,,,,,
null,,learn_phase(without_color)1,544967,,,,,,,,black_plus_sign,,,null,object_02a.png,object_05c.png,,,,,,,,,,,,,,,,,,,,,
null,,black_cross(without_color)1,545620,,,,,,,,green,,,null,object_02a.png,object_05c.png,,,,,,,,,,,,,,,,,,,,,
null,,rt_plussign_withcolor1,546123,,,,,,,,green,,,null,object_02a.png,object_05c.png,,,,,,,,,,,,,,,,,,,,,
869.9999999998836,,rt_thecrossant_black1,547483,,,,,,,,black_plus_sign,,,50,,,1,,,,,,,1,,,,,,,,,,,,,
null,,color_black1,547591,,,,,,,,black_plus_sign,,,null,,,,,,,,,,,,,,,,,,,,,,,
null,,learn_phase(without_color)1,551099,,,,,,,,black_plus_sign,,,null,object_01c.png,object_15a.png,,,,,,,,,,,,,,,,,,,,,
null,,black_cross(without_color)1,551770,,,,,,,,blue,,,null,object_01c.png,object_15a.png,,,,,,,,,,,,,,,,,,,,,
null,,rt_plussign_withcolor1,552274,,,,,,,,blue,,,null,object_01c.png,object_15a.png,,,,,,,,,,,,,,,,,,,,,
1057,,rt_thecrossant_black1,553618,,,,,,,,black_plus_sign,,,49,,,1,,,,,,,1,,,,,,,,,,,,,
null,,color_black1,553725,,,,,,,,black_plus_sign,,,null,,,,,,,,,,,,,,,,,,,,,,,
null,,learn_phase(without_color)1,557233,,,,,,,,black_plus_sign,,,null,object_04a.png,object_02b.png,,,,,,,,,,,,,,,,,,,,,
null,,black_cross(without_color)1,558329,,,,,,,,green,,,null,object_04a.png,object_02b.png,,,,,,,,,,,,,,,,,,,,,
null,,rt_plussign_withcolor1,558832,,,,,,,,green,,,null,object_04a.png,object_02b.png,,,,,,,,,,,,,,,,,,,,,
898,,rt_thecrossant_black1,559751,,,,,,,,black_plus_sign,,,50,,,1,,,,,,,1,,,,,,,,,,,,,
null,,color_black1,559858,,,,,,,,black_plus_sign,,,null,,,,,,,,,,,,,,,,,,,,,,,
null,,learn_phase(without_color)1,563367,,,,,,,,black_plus_sign,,,null,object_14a.png,object_11c.png,,,,,,,,,,,,,,,,,,,,,
null,,black_cross(without_color)1,564224,,,,,,,,blue,,,null,object_14a.png,object_11c.png,,,,,,,,,,,,,,,,,,,,,
null,,rt_plussign_withcolor1,564727,,,,,,,,blue,,,null,object_14a.png,object_11c.png,,,,,,,,,,,,,,,,,,,,,
1747,,rt_thecrossant_black1,565885,,,,,,,,black_plus_sign,,,49,,,1,,,,,,,1,,,,,,,,,,,,,
null,,color_black1,565992,,,,,,,,black_plus_sign,,,null,,,,,,,,,,,,,,,,,,,,,,,
null,,learn_phase(without_color)1,569501,,,,,,,,black_plus_sign,,,null,object_10a.png,object_09c.png,,,,,,,,,,,,,,,,,,,,,
null,,black_cross(without_color)1,569981,,,,,,,,blue,,,null,object_10a.png,object_09c.png,,,,,,,,,,,,,,,,,,,,,
null,,rt_plussign_withcolor1,570484,,,,,,,,blue,,,null,object_10a.png,object_09c.png,,,,,,,,,,,,,,,,,,,,,
1544,,rt_thecrossant_black1,572018,,,,,,,,black_plus_sign,,,49,,,1,,,,,,,1,,,,,,,,,,,,,
null,,color_black1,572125,,,,,,,,black_plus_sign,,,null,,,,,,,,,,,,,,,,,,,,,,,
null,,learn_phase(without_color)1,575633,,,,,,,,black_plus_sign,,,null,object_13b.png,object_12c.png,,,,,,,,,,,,,,,,,,,,,
null,,black_cross(without_color)1,576643,,,,,,,,green,,,null,object_13b.png,object_12c.png,,,,,,,,,,,,,,,,,,,,,
null,,rt_plussign_withcolor1,577146,,,,,,,,green,,,null,object_13b.png,object_12c.png,,,,,,,,,,,,,,,,,,,,,
null,,rt_thecrossant_black1,578150,,,,,,,,black_plus_sign,,,null,,,,,,,,,,1,,,,,,,,,,,,,
null,,color_black1,578257,,,,,,,,black_plus_sign,,,null,,,,,,,,,,,,,,,,,,,,,,,
null,,learn_phase(without_color)1,581765,,,,,,,,black_plus_sign,,,null,object_10c.png,object_10a.png,,,,,,,,,,,,,,,,,,,,,
null,,black_cross(without_color)1,582425,,,,,,,,green,,,null,object_10c.png,object_10a.png,,,,,,,,,,,,,,,,,,,,,
null,,rt_plussign_withcolor1,582927,,,,,,,,green,,,null,object_10c.png,object_10a.png,,,,,,,,,,,,,,,,,,,,,
1192,,rt_thecrossant_black1,584282,,,,,,,,black_plus_sign,,,50,,,1,,,,,,,1,,,,,,,,,,,,,
null,,color_black1,584389,,,,,,,,black_plus_sign,,,null,,,,,,,,,,,,,,,,,,,,,,,
null,,learn_phase(without_color)1,587897,,,,,,,,black_plus_sign,,,null,object_03b.png,object_05a.png,,,,,,,,,,,,,,,,,,,,,
null,,black_cross(without_color)1,588998,,,,,,,,green,,,null,object_03b.png,object_05a.png,,,,,,,,,,,,,,,,,,,,,
null,,rt_plussign_withcolor1,589502,,,,,,,,green,,,null,object_03b.png,object_05a.png,,,,,,,,,,,,,,,,,,,,,
1042,,rt_thecrossant_black1,590416,,,,,,,,black_plus_sign,,,50,,,1,,,,,,,1,,,,,,,,,,,,,
null,,color_black1,590524,,,,,,,,black_plus_sign,,,null,,,,,,,,,,,,,,,,,,,,,,,
null,,learn_phase(without_color)1,594032,,,,,,,,black_plus_sign,,,null,object_13a.png,object_14a.png,,,,,,,,,,,,,,,,,,,,,
null,,black_cross(without_color)1,594847,,,,,,,,blue,,,null,object_13a.png,object_14a.png,,,,,,,,,,,,,,,,,,,,,
null,,rt_plussign_withcolor1,595351,,,,,,,,blue,,,null,object_13a.png,object_14a.png,,,,,,,,,,,,,,,,,,,,,
1493,,rt_thecrossant_black1,596550,,,,,,,,black_plus_sign,,,49,,,1,,,,,,,1,,,,,,,,,,,,,
null,,color_black1,596656,,,,,,,,black_plus_sign,,,null,,,,,,,,,,,,,,,,,,,,,,,
null,,learn_phase(without_color)1,600164,,,,,,,,black_plus_sign,,,null,object_11a.png,object_11b.png,,,,,,,,,,,,,,,,,,,,,
null,,black_cross(without_color)1,600841,,,,,,,,green,,,null,object_11a.png,object_11b.png,,,,,,,,,,,,,,,,,,,,,
null,,rt_plussign_withcolor1,601345,,,,,,,,green,,,null,object_11a.png,object_11b.png,,,,,,,,,,,,,,,,,,,,,
1328,,rt_thecrossant_black1,602682,,,,,,,,black_plus_sign,,,50,,,1,,,,,,,1,,,,,,,,,,,,,
null,,color_black1,602790,,,,,,,,black_plus_sign,,,null,,,,,,,,,,,,,,,,,,,,,,,
null,,learn_phase(without_color)1,606298,,,,,,,,black_plus_sign,,,null,object_01b.png,object_12b.png,,,,,,,,,,,,,,,,,,,,,
null,,black_cross(without_color)1,606911,,,,,,,,blue,,,null,object_01b.png,object_12b.png,,,,,,,,,,,,,,,,,,,,,
null,,rt_plussign_withcolor1,607413,,,,,,,,blue,,,null,object_01b.png,object_12b.png,,,,,,,,,,,,,,,,,,,,,
1387,,rt_thecrossant_black1,608813,,,,,,,,black_plus_sign,,,49,,,1,,,,,,,1,,,,,,,,,,,,,
null,,color_black1,608920,,,,,,,,black_plus_sign,,,null,,,,,,,,,,,,,,,,,,,,,,,
null,,learn_phase(without_color)1,612427,,,,,,,,black_plus_sign,,,null,object_08b.png,object_07c.png,,,,,,,,,,,,,,,,,,,,,
null,,black_cross(without_color)1,612928,,,,,,,,green,,,null,object_08b.png,object_07c.png,,,,,,,,,,,,,,,,,,,,,
null,,rt_plussign_withcolor1,613432,,,,,,,,green,,,null,object_08b.png,object_07c.png,,,,,,,,,,,,,,,,,,,,,
1019,,rt_thecrossant_black1,614946,,,,,,,,black_plus_sign,,,50,,,1,,,,,,,1,,,,,,,,,,,,,
null,,color_black1,615052,,,,,,,,black_plus_sign,,,null,,,,,,,,,,,,,,,,,,,,,,,
null,,learn_phase(without_color)1,618560,,,,,,,,black_plus_sign,,,null,object_11b.png,object_10b.png,,,,,,,,,,,,,,,,,,,,,
null,,black_cross(without_color)1,619050,,,,,,,,blue,,,null,object_11b.png,object_10b.png,,,,,,,,,,,,,,,,,,,,,
null,,rt_plussign_withcolor1,619553,,,,,,,,blue,,,null,object_11b.png,object_10b.png,,,,,,,,,,,,,,,,,,,,,
622,,rt_thecrossant_black1,621077,,,,,,,,black_plus_sign,,,49,,,1,,,,,,,1,,,,,,,,,,,,,
null,,color_black1,621184,,,,,,,,black_plus_sign,,,null,,,,,,,,,,,,,,,,,,,,,,,
null,,learn_phase(without_color)1,624692,,,,,,,,black_plus_sign,,,null,object_14c.png,object_15b.png,,,,,,,,,,,,,,,,,,,,,
null,,black_cross(without_color)1,625419,,,,,,,,blue,,,null,object_14c.png,object_15b.png,,,,,,,,,,,,,,,,,,,,,
null,,rt_plussign_withcolor1,625922,,,,,,,,blue,,,null,object_14c.png,object_15b.png,,,,,,,,,,,,,,,,,,,,,
1131,,rt_thecrossant_black1,627209,,,,,,,,black_plus_sign,,,50,,,0,,,,,,,0.9565217391304348,,,,,,,,,,,,,
null,,color_black1,627316,,,,,,,,black_plus_sign,,,null,,,,,,,,,,,,,,,,,,,,,,,
null,,learn_phase(without_color)1,630823,,,,,,,,black_plus_sign,,,null,object_08c.png,object_09b.png,,,,,,,,,,,,,,,,,,,,,
null,,black_cross(without_color)1,631658,,,,,,,,blue,,,null,object_08c.png,object_09b.png,,,,,,,,,,,,,,,,,,,,,
null,,rt_plussign_withcolor1,632162,,,,,,,,blue,,,null,object_08c.png,object_09b.png,,,,,,,,,,,,,,,,,,,,,
1360,,rt_thecrossant_black1,633339,,,,,,,,black_plus_sign,,,49,,,1,,,,,,,0.9583333333333334,,,,,,,,,,,,,
null,,color_black1,633447,,,,,,,,black_plus_sign,,,null,,,,,,,,,,,,,,,,,,,,,,,
null,,learn_phase(without_color)1,636955,,,,,,,,black_plus_sign,,,null,object_12b.png,object_15c.png,,,,,,,,,,,,,,,,,,,,,
null,,black_cross(without_color)1,637815,,,,,,,,green,,,null,object_12b.png,object_15c.png,,,,,,,,,,,,,,,,,,,,,
null,,rt_plussign_withcolor1,638318,,,,,,,,green,,,null,object_12b.png,object_15c.png,,,,,,,,,,,,,,,,,,,,,
975,,rt_thecrossant_black1,639472,,,,,,,,black_plus_sign,,,50,,,1,,,,,,,0.96,,,,,,,,,,,,,
null,,color_black1,639579,,,,,,,,black_plus_sign,,,null,,,,,,,,,,,,,,,,,,,,,,,
null,,learn_phase(without_color)1,643087,,,,,,,,black_plus_sign,,,null,object_06c.png,object_06b.png,,,,,,,,,,,,,,,,,,,,,
null,,black_cross(without_color)1,644101,,,,,,,,green,,,null,object_06c.png,object_06b.png,,,,,,,,,,,,,,,,,,,,,
null,,rt_plussign_withcolor1,644604,,,,,,,,green,,,null,object_06c.png,object_06b.png,,,,,,,,,,,,,,,,,,,,,
null,,rt_thecrossant_black1,645599,,,,,,,,black_plus_sign,,,null,,,,,,,,,,0.96,,,,,,,,,,,,,
null,,color_black1,645706,,,,,,,,black_plus_sign,,,null,,,,,,,,,,,,,,,,,,,,,,,
null,,learn_phase(without_color)1,649213,,,,,,,,black_plus_sign,,,null,object_07c.png,object_08a.png,,,,,,,,,,,,,,,,,,,,,
null,,black_cross(without_color)1,649705,,,,,,,,blue,,,null,object_07c.png,object_08a.png,,,,,,,,,,,,,,,,,,,,,
null,,rt_plussign_withcolor1,650208,,,,,,,,blue,,,null,object_07c.png,object_08a.png,,,,,,,,,,,,,,,,,,,,,
1795,,rt_thecrossant_black1,651730,,,,,,,,black_plus_sign,,,49,,,1,,,,,,,0.9615384615384616,,,,,,,,,,,,,
null,,color_black1,651837,,,,,,,,black_plus_sign,,,null,,,,,,,,,,,,,,,,,,,,,,,
null,,learn_phase(without_color)1,655345,,,,,,,,black_plus_sign,,,null,object_14b.png,object_14c.png,,,,,,,,,,,,,,,,,,,,,
null,,black_cross(without_color)1,656041,,,,,,,,blue,,,null,object_14b.png,object_14c.png,,,,,,,,,,,,,,,,,,,,,
null,,rt_plussign_withcolor1,656544,,,,,,,,blue,,,null,object_14b.png,object_14c.png,,,,,,,,,,,,,,,,,,,,,
892,,rt_thecrossant_black1,657861,,,,,,,,black_plus_sign,,,49,,,1,,,,,,,0.9629629629629629,,,,,,,,,,,,,
null,,color_black1,657968,,,,,,,,black_plus_sign,,,null,,,,,,,,,,,,,,,,,,,,,,,
null,,thebreak,658077,,,,,,,,<p></p>,,,null,,,,,,,,,,,,,,,,,,,,,,,
1329,,intro_0,659409,,,,,,,,instruct,,,32,,,,,,,,,,,,,,,,,,,,,,,
8599,,directmemory_phase1,668011,,,,,,,,object_10b.png,,,49,,,0,,object_06a.png,object_11b.png,object_01c.png,object_11b.png,,0,,0,,,,,,,,,,,
4133.000000000116,,directmemory_phase1,672153,,,,,,,,object_06c.png,,,50,,,0,,object_12b.png,object_08a.png,object_06b.png,object_06b.png,,0,,0,,,,,,,,,,,
6273,,directmemory_phase1,678434,,,,,,,,object_12a.png,,,49,,,0,,object_09c.png,object_13b.png,object_05a.png,object_13b.png,,0,,0,,,,,,,,,,,
6685,,directmemory_phase1,685125,,,,,,,,object_09b.png,,,51,,,1,,object_07b.png,object_12b.png,object_09a.png,object_09a.png,,0.25,,1,,,,,,,,,,,
6386,,directmemory_phase1,691517,,,,,,,,object_13b.png,,,51,,,0,,object_12b.png,object_12c.png,object_07b.png,object_12c.png,,0.2,,0,,,,,,,,,,,
6066.000000000116,,directmemory_phase1,697586,,,,,,,,object_04a.png,,,51,,,0,,object_01c.png,object_02b.png,object_15b.png,object_02b.png,,0.16666666666666666,,0,,,,,,,,,,,
3339.0000000001164,,directmemory_phase1,700932,,,,,,,,object_05c.png,,,49,,,1,,object_02a.png,object_01c.png,object_01a.png,object_02a.png,,0.2857142857142857,,1,,,,,,,,,,,
2858,,directmemory_phase1,703797,,,,,,,,object_07b.png,,,51,,,1,,object_14a.png,object_13c.png,object_04b.png,object_04b.png,,0.375,,1,,,,,,,,,,,
3448,,directmemory_phase1,707251,,,,,,,,object_11c.png,,,50,,,1,,object_05c.png,object_14a.png,object_09b.png,object_14a.png,,0.4444444444444444,,1,,,,,,,,,,,
3472.0000000001164,,directmemory_phase1,710730,,,,,,,,object_01b.png,,,51,,,1,,object_02a.png,object_01a.png,object_12b.png,object_12b.png,,0.5,,1,,,,,,,,,,,
4186,,directmemory_phase1,714923,,,,,,,,object_14b.png,,,49,,,1,,object_14c.png,object_01c.png,object_03b.png,object_14c.png,,0.5454545454545454,,1,,,,,,,,,,,
3852.0000000001164,,directmemory_phase1,718783,,,,,,,,object_07a.png,,,49,,,0,,object_06a.png,object_06b.png,object_07c.png,object_06b.png,,0.5,,0,,,,,,,,,,,
1654,,directmemory_phase1,720440,,,,,,,,object_08c.png,,,49,,,0,,object_13b.png,object_03b.png,object_09b.png,object_09b.png,,0.46153846153846156,,0,,,,,,,,,,,
5301,,directmemory_phase1,725748,,,,,,,,object_01c.png,,,50,,,1,,object_02a.png,object_02c.png,object_09a.png,object_02c.png,,0.5,,1,,,,,,,,,,,
7033.999999999884,,directmemory_phase1,732788,,,,,,,,object_04c.png,,,49,,,1,,object_04b.png,object_13b.png,object_09c.png,object_04b.png,,0.5333333333333333,,1,,,,,,,,,,,
5082,,directmemory_phase1,737877,,,,,,,,object_14a.png,,,51,,,1,,object_02c.png,object_04b.png,object_13a.png,object_13a.png,,0.5625,,1,,,,,,,,,,,
5515.000000000116,,directmemory_phase1,743398,,,,,,,,object_12b.png,,,50,,,0,,object_15c.png,object_06a.png,object_01c.png,object_15c.png,,0.5294117647058824,,0,,,,,,,,,,,
4422,,directmemory_phase1,747822,,,,,,,,object_11a.png,,,49,,,0,,object_06b.png,object_01a.png,object_11b.png,object_11b.png,,0.5,,0,,,,,,,,,,,
4576,,directmemory_phase1,752405,,,,,,,,object_15a.png,,,49,,,1,,object_01c.png,object_04b.png,object_08a.png,object_01c.png,,0.5263157894736842,,1,,,,,,,,,,,
3217,,directmemory_phase1,755630,,,,,,,,object_07c.png,,,51,,,1,,object_12c.png,object_01c.png,object_08b.png,object_08b.png,,0.55,,1,,,,,,,,,,,
5630,,directmemory_phase1,761267,,,,,,,,object_14c.png,,,51,,,1,,object_08b.png,object_09b.png,object_15b.png,object_15b.png,,0.5714285714285714,,1,,,,,,,,,,,
5062,,directmemory_phase1,766337,,,,,,,,object_08a.png,,,49,,,0,,object_04b.png,object_11c.png,object_07c.png,object_07c.png,,0.5454545454545454,,0,,,,,,,,,,,
4334,,directmemory_phase1,770679,,,,,,,,object_09c.png,,,49,,,1,,object_10a.png,object_02a.png,object_04c.png,object_10a.png,,0.5652173913043478,,1,,,,,,,,,,,
3855,,directmemory_phase1,774542,,,,,,,,object_03a.png,,,49,,,1,,object_02a.png,object_04b.png,object_07b.png,object_02a.png,,0.5833333333333334,,1,,,,,,,,,,,
2869,,directmemory_phase1,777418,,,,,,,,object_03c.png,,,50,,,1,,object_06c.png,object_05b.png,object_14a.png,object_05b.png,,0.6,,1,,,,,,,,,,,
2440,,directmemory_phase1,779865,,,,,,,,object_01a.png,,,49,,,1,,object_04a.png,object_02a.png,object_11c.png,object_04a.png,,0.6153846153846154,,1,,,,,,,,,,,
5335,,directmemory_phase1,785207,,,,,,,,object_13c.png,,,51,,,1,,object_10a.png,object_02c.png,object_05a.png,object_05a.png,,0.6296296296296297,,1,,,,,,,,,,,
4079,,directmemory_phase1,789293,,,,,,,,object_06a.png,,,50,,,1,,object_12c.png,object_05b.png,object_04b.png,object_05b.png,,0.6428571428571429,,1,,,,,,,,,,,
4901,,directmemory_phase1,794202,,,,,,,,object_10c.png,,,50,,,0,,object_07c.png,object_03a.png,object_10a.png,object_10a.png,,0.6206896551724138,,0,,,,,,,,,,,
4523,,directmemory_phase1,798732,,,,,,,,object_03b.png,,,50,,,0,,object_05a.png,object_04b.png,object_01a.png,object_05a.png,,0.6,,0,,,,,,,,,,,
null,,thebreak,798841,,,,,,,,<p></p>,,,null,,,,,,,,,,,,,,,,,,,,,,,
2046,,intro_0,800890,,,,,,,,instruct,,,32,,,,,,,,,,,,,,,,,,,,,,,
null,,learn_phase(without_color)2,804393,,,,,,,,black_plus_sign,,,null,object_01b.png,object_12b.png,,,,,,,,,,,,,,,,,,,,,
null,,black_cross(without_color)2,805211,,,,,,,,blue,,,null,object_01b.png,object_12b.png,,,,,,,,,,,,,,,,,,,,,
null,,rt_plussign_withcolor2,805715,,,,,,,,blue,,,null,object_01b.png,object_12b.png,,,,,,,,,,,,,,,,,,,,,
1281,,rt_thecrossant_black2,806911,,,,,,,,black_plus_sign,,,49,,,1,,,,,,,1,,,,,,,,,,,,,
null,,color_black2,807017,,,,,,,,black_plus_sign,,,null,,,,,,,,,,,,,,,,,,,,,,,
null,,learn_phase(without_color)2,810524,,,,,,,,black_plus_sign,,,null,object_13b.png,object_12c.png,,,,,,,,,,,,,,,,,,,,,
null,,black_cross(without_color)2,811579,,,,,,,,blue,,,null,object_13b.png,object_12c.png,,,,,,,,,,,,,,,,,,,,,
null,,rt_plussign_withcolor2,812082,,,,,,,,blue,,,null,object_13b.png,object_12c.png,,,,,,,,,,,,,,,,,,,,,
1164,,rt_thecrossant_black2,813043,,,,,,,,black_plus_sign,,,49,,,1,,,,,,,1,,,,,,,,,,,,,
null,,color_black2,813149,,,,,,,,black_plus_sign,,,null,,,,,,,,,,,,,,,,,,,,,,,
null,,learn_phase(without_color)2,816657,,,,,,,,black_plus_sign,,,null,object_05a.png,object_13c.png,,,,,,,,,,,,,,,,,,,,,
null,,black_cross(without_color)2,817144,,,,,,,,blue,,,null,object_05a.png,object_13c.png,,,,,,,,,,,,,,,,,,,,,
null,,rt_plussign_withcolor2,817647,,,,,,,,blue,,,null,object_05a.png,object_13c.png,,,,,,,,,,,,,,,,,,,,,
1373,,rt_thecrossant_black2,819175,,,,,,,,black_plus_sign,,,49,,,1,,,,,,,1,,,,,,,,,,,,,
null,,color_black2,819282,,,,,,,,black_plus_sign,,,null,,,,,,,,,,,,,,,,,,,,,,,
null,,learn_phase(without_color)2,822790,,,,,,,,black_plus_sign,,,null,object_06b.png,object_07a.png,,,,,,,,,,,,,,,,,,,,,
null,,black_cross(without_color)2,823650,,,,,,,,blue,,,null,object_06b.png,object_07a.png,,,,,,,,,,,,,,,,,,,,,
null,,rt_plussign_withcolor2,824153,,,,,,,,blue,,,null,object_06b.png,object_07a.png,,,,,,,,,,,,,,,,,,,,,
1182,,rt_thecrossant_black2,825307,,,,,,,,black_plus_sign,,,49,,,1,,,,,,,1,,,,,,,,,,,,,
null,,color_black2,825414,,,,,,,,black_plus_sign,,,null,,,,,,,,,,,,,,,,,,,,,,,
null,,learn_phase(without_color)2,828923,,,,,,,,black_plus_sign,,,null,object_02b.png,object_04a.png,,,,,,,,,,,,,,,,,,,,,
null,,black_cross(without_color)2,829622,,,,,,,,blue,,,null,object_02b.png,object_04a.png,,,,,,,,,,,,,,,,,,,,,
null,,rt_plussign_withcolor2,830125,,,,,,,,blue,,,null,object_02b.png,object_04a.png,,,,,,,,,,,,,,,,,,,,,
1293,,rt_thecrossant_black2,831441,,,,,,,,black_plus_sign,,,49,,,1,,,,,,,1,,,,,,,,,,,,,
null,,color_black2,831548,,,,,,,,black_plus_sign,,,null,,,,,,,,,,,,,,,,,,,,,,,
null,,learn_phase(without_color)2,835056,,,,,,,,black_plus_sign,,,null,object_09c.png,object_10a.png,,,,,,,,,,,,,,,,,,,,,
null,,black_cross(without_color)2,835858,,,,,,,,green,,,null,object_09c.png,object_10a.png,,,,,,,,,,,,,,,,,,,,,
null,,rt_plussign_withcolor2,836361,,,,,,,,green,,,null,object_09c.png,object_10a.png,,,,,,,,,,,,,,,,,,,,,
819,,rt_thecrossant_black2,837572,,,,,,,,black_plus_sign,,,50,,,1,,,,,,,1,,,,,,,,,,,,,
null,,color_black2,837679,,,,,,,,black_plus_sign,,,null,,,,,,,,,,,,,,,,,,,,,,,
null,,learn_phase(without_color)2,841187,,,,,,,,black_plus_sign,,,null,object_06b.png,object_06c.png,,,,,,,,,,,,,,,,,,,,,
null,,black_cross(without_color)2,841943,,,,,,,,green,,,null,object_06b.png,object_06c.png,,,,,,,,,,,,,,,,,,,,,
null,,rt_plussign_withcolor2,842446,,,,,,,,green,,,null,object_06b.png,object_06c.png,,,,,,,,,,,,,,,,,,,,,
1724,,rt_thecrossant_black2,843705,,,,,,,,black_plus_sign,,,50,,,1,,,,,,,1,,,,,,,,,,,,,
null,,color_black2,843811,,,,,,,,black_plus_sign,,,null,,,,,,,,,,,,,,,,,,,,,,,
null,,learn_phase(without_color)2,847320,,,,,,,,black_plus_sign,,,null,object_03a.png,object_02a.png,,,,,,,,,,,,,,,,,,,,,
null,,black_cross(without_color)2,848142,,,,,,,,blue,,,null,object_03a.png,object_02a.png,,,,,,,,,,,,,,,,,,,,,
null,,rt_plussign_withcolor2,848645,,,,,,,,blue,,,null,object_03a.png,object_02a.png,,,,,,,,,,,,,,,,,,,,,
904,,rt_thecrossant_black2,849836,,,,,,,,black_plus_sign,,,49,,,1,,,,,,,1,,,,,,,,,,,,,
null,,color_black2,849944,,,,,,,,black_plus_sign,,,null,,,,,,,,,,,,,,,,,,,,,,,
null,,learn_phase(without_color)2,853452,,,,,,,,black_plus_sign,,,null,object_05b.png,object_06a.png,,,,,,,,,,,,,,,,,,,,,
null,,black_cross(without_color)2,854052,,,,,,,,blue,,,null,object_05b.png,object_06a.png,,,,,,,,,,,,,,,,,,,,,
null,,rt_plussign_withcolor2,854555,,,,,,,,blue,,,null,object_05b.png,object_06a.png,,,,,,,,,,,,,,,,,,,,,
1116,,rt_thecrossant_black2,855971,,,,,,,,black_plus_sign,,,49,,,1,,,,,,,1,,,,,,,,,,,,,
null,,color_black2,856077,,,,,,,,black_plus_sign,,,null,,,,,,,,,,,,,,,,,,,,,,,
null,,learn_phase(without_color)2,859585,,,,,,,,black_plus_sign,,,null,object_04b.png,object_07b.png,,,,,,,,,,,,,,,,,,,,,
null,,black_cross(without_color)2,860678,,,,,,,,blue,,,null,object_04b.png,object_07b.png,,,,,,,,,,,,,,,,,,,,,
null,,rt_plussign_withcolor2,861181,,,,,,,,blue,,,null,object_04b.png,object_07b.png,,,,,,,,,,,,,,,,,,,,,
893,,rt_thecrossant_black2,862102,,,,,,,,black_plus_sign,,,49,,,1,,,,,,,1,,,,,,,,,,,,,
null,,color_black2,862209,,,,,,,,black_plus_sign,,,null,,,,,,,,,,,,,,,,,,,,,,,
null,,learn_phase(without_color)2,865716,,,,,,,,black_plus_sign,,,null,object_07c.png,object_08a.png,,,,,,,,,,,,,,,,,,,,,
null,,black_cross(without_color)2,866164,,,,,,,,green,,,null,object_07c.png,object_08a.png,,,,,,,,,,,,,,,,,,,,,
null,,rt_plussign_withcolor2,866668,,,,,,,,green,,,null,object_07c.png,object_08a.png,,,,,,,,,,,,,,,,,,,,,
null,,rt_thecrossant_black2,868233,,,,,,,,black_plus_sign,,,null,,,,,,,,,,1,,,,,,,,,,,,,
null,,color_black2,868341,,,,,,,,black_plus_sign,,,null,,,,,,,,,,,,,,,,,,,,,,,
null,,learn_phase(without_color)2,871848,,,,,,,,black_plus_sign,,,null,object_12a.png,object_13b.png,,,,,,,,,,,,,,,,,,,,,
null,,black_cross(without_color)2,872292,,,,,,,,green,,,null,object_12a.png,object_13b.png,,,,,,,,,,,,,,,,,,,,,
null,,rt_plussign_withcolor2,872796,,,,,,,,green,,,null,object_12a.png,object_13b.png,,,,,,,,,,,,,,,,,,,,,
683.9999999998836,,rt_thecrossant_black2,874366,,,,,,,,black_plus_sign,,,50,,,1,,,,,,,1,,,,,,,,,,,,,
null,,color_black2,874472,,,,,,,,black_plus_sign,,,null,,,,,,,,,,,,,,,,,,,,,,,
null,,learn_phase(without_color)2,877980,,,,,,,,black_plus_sign,,,null,object_01c.png,object_15a.png,,,,,,,,,,,,,,,,,,,,,
null,,black_cross(without_color)2,878980,,,,,,,,blue,,,null,object_01c.png,object_15a.png,,,,,,,,,,,,,,,,,,,,,
null,,rt_plussign_withcolor2,879483,,,,,,,,blue,,,null,object_01c.png,object_15a.png,,,,,,,,,,,,,,,,,,,,,
1291,,rt_thecrossant_black2,880498,,,,,,,,black_plus_sign,,,49,,,1,,,,,,,1,,,,,,,,,,,,,
null,,color_black2,880604,,,,,,,,black_plus_sign,,,null,,,,,,,,,,,,,,,,,,,,,,,
null,,learn_phase(without_color)2,884114,,,,,,,,black_plus_sign,,,null,object_05c.png,object_02a.png,,,,,,,,,,,,,,,,,,,,,
null,,black_cross(without_color)2,884976,,,,,,,,green,,,null,object_05c.png,object_02a.png,,,,,,,,,,,,,,,,,,,,,
null,,rt_plussign_withcolor2,885480,,,,,,,,green,,,null,object_05c.png,object_02a.png,,,,,,,,,,,,,,,,,,,,,
1696,,rt_thecrossant_black2,886632,,,,,,,,black_plus_sign,,,50,,,1,,,,,,,1,,,,,,,,,,,,,
null,,color_black2,886740,,,,,,,,black_plus_sign,,,null,,,,,,,,,,,,,,,,,,,,,,,
null,,learn_phase(without_color)2,890250,,,,,,,,black_plus_sign,,,null,object_11c.png,object_14a.png,,,,,,,,,,,,,,,,,,,,,
null,,black_cross(without_color)2,891266,,,,,,,,blue,,,null,object_11c.png,object_14a.png,,,,,,,,,,,,,,,,,,,,,
null,,rt_plussign_withcolor2,891769,,,,,,,,blue,,,null,object_11c.png,object_14a.png,,,,,,,,,,,,,,,,,,,,,
1382.0000000001164,,rt_thecrossant_black2,892767,,,,,,,,black_plus_sign,,,49,,,1,,,,,,,1,,,,,,,,,,,,,
null,,color_black2,892875,,,,,,,,black_plus_sign,,,null,,,,,,,,,,,,,,,,,,,,,,,
null,,learn_phase(without_color)2,896384,,,,,,,,black_plus_sign,,,null,object_11b.png,object_10b.png,,,,,,,,,,,,,,,,,,,,,
null,,black_cross(without_color)2,897164,,,,,,,,blue,,,null,object_11b.png,object_10b.png,,,,,,,,,,,,,,,,,,,,,
null,,rt_plussign_withcolor2,897667,,,,,,,,blue,,,null,object_11b.png,object_10b.png,,,,,,,,,,,,,,,,,,,,,
null,,rt_thecrossant_black2,898902,,,,,,,,black_plus_sign,,,null,,,,,,,,,,1,,,,,,,,,,,,,
null,,color_black2,899009,,,,,,,,black_plus_sign,,,null,,,,,,,,,,,,,,,,,,,,,,,
null,,learn_phase(without_color)2,902517,,,,,,,,black_plus_sign,,,null,object_14a.png,object_13a.png,,,,,,,,,,,,,,,,,,,,,
null,,black_cross(without_color)2,903217,,,,,,,,blue,,,null,object_14a.png,object_13a.png,,,,,,,,,,,,,,,,,,,,,
null,,rt_plussign_withcolor2,903720,,,,,,,,blue,,,null,object_14a.png,object_13a.png,,,,,,,,,,,,,,,,,,,,,
1097,,rt_thecrossant_black2,905036,,,,,,,,black_plus_sign,,,49,,,1,,,,,,,1,,,,,,,,,,,,,
null,,color_black2,905143,,,,,,,,black_plus_sign,,,null,,,,,,,,,,,,,,,,,,,,,,,
null,,learn_phase(without_color)2,908651,,,,,,,,black_plus_sign,,,null,object_04b.png,object_04c.png,,,,,,,,,,,,,,,,,,,,,
null,,black_cross(without_color)2,909110,,,,,,,,green,,,null,object_04b.png,object_04c.png,,,,,,,,,,,,,,,,,,,,,
null,,rt_plussign_withcolor2,909613,,,,,,,,green,,,null,object_04b.png,object_04c.png,,,,,,,,,,,,,,,,,,,,,
998.0000000001164,,rt_thecrossant_black2,911170,,,,,,,,black_plus_sign,,,50,,,1,,,,,,,1,,,,,,,,,,,,,
null,,color_black2,911278,,,,,,,,black_plus_sign,,,null,,,,,,,,,,,,,,,,,,,,,,,
null,,learn_phase(without_color)2,914787,,,,,,,,black_plus_sign,,,null,object_07c.png,object_08b.png,,,,,,,,,,,,,,,,,,,,,
null,,black_cross(without_color)2,915766,,,,,,,,blue,,,null,object_07c.png,object_08b.png,,,,,,,,,,,,,,,,,,,,,
null,,rt_plussign_withcolor2,916270,,,,,,,,blue,,,null,object_07c.png,object_08b.png,,,,,,,,,,,,,,,,,,,,,
1003,,rt_thecrossant_black2,917305,,,,,,,,black_plus_sign,,,49,,,1,,,,,,,1,,,,,,,,,,,,,
null,,color_black2,917411,,,,,,,,black_plus_sign,,,null,,,,,,,,,,,,,,,,,,,,,,,
null,,learn_phase(without_color)2,920919,,,,,,,,black_plus_sign,,,null,object_09b.png,object_08c.png,,,,,,,,,,,,,,,,,,,,,
null,,black_cross(without_color)2,921787,,,,,,,,green,,,null,object_09b.png,object_08c.png,,,,,,,,,,,,,,,,,,,,,
null,,rt_plussign_withcolor2,922290,,,,,,,,green,,,null,object_09b.png,object_08c.png,,,,,,,,,,,,,,,,,,,,,
1091,,rt_thecrossant_black2,923436,,,,,,,,black_plus_sign,,,50,,,1,,,,,,,1,,,,,,,,,,,,,
null,,color_black2,923542,,,,,,,,black_plus_sign,,,null,,,,,,,,,,,,,,,,,,,,,,,
null,,learn_phase(without_color)2,927049,,,,,,,,black_plus_sign,,,null,object_01a.png,object_04a.png,,,,,,,,,,,,,,,,,,,,,
null,,black_cross(without_color)2,927841,,,,,,,,green,,,null,object_01a.png,object_04a.png,,,,,,,,,,,,,,,,,,,,,
null,,rt_plussign_withcolor2,928345,,,,,,,,green,,,null,object_01a.png,object_04a.png,,,,,,,,,,,,,,,,,,,,,
1501,,rt_thecrossant_black2,929567,,,,,,,,black_plus_sign,,,50,,,1,,,,,,,1,,,,,,,,,,,,,
null,,color_black2,929674,,,,,,,,black_plus_sign,,,null,,,,,,,,,,,,,,,,,,,,,,,
null,,learn_phase(without_color)2,933182,,,,,,,,black_plus_sign,,,null,object_11b.png,object_11a.png,,,,,,,,,,,,,,,,,,,,,
null,,black_cross(without_color)2,934118,,,,,,,,blue,,,null,object_11b.png,object_11a.png,,,,,,,,,,,,,,,,,,,,,
478,,rt_plussign_withcolor2,934621,,,,,,,,blue,,,49,object_11b.png,object_11a.png,,,,,,,,,,,,,,,,,,,,,
null,,rt_thecrossant_black2,935700,,,,,,,,black_plus_sign,,,null,,,1,,,,,,,1,,,,,,,,,,,,,
null,,color_black2,935806,,,,,,,,black_plus_sign,,,null,,,,,,,,,,,,,,,,,,,,,,,
null,,learn_phase(without_color)2,939315,,,,,,,,black_plus_sign,,,null,object_15b.png,object_14c.png,,,,,,,,,,,,,,,,,,,,,
null,,black_cross(without_color)2,939863,,,,,,,,blue,,,null,object_15b.png,object_14c.png,,,,,,,,,,,,,,,,,,,,,
null,,rt_plussign_withcolor2,940366,,,,,,,,blue,,,null,object_15b.png,object_14c.png,,,,,,,,,,,,,,,,,,,,,
1500,,rt_thecrossant_black2,941832,,,,,,,,black_plus_sign,,,49,,,1,,,,,,,1,,,,,,,,,,,,,
null,,color_black2,941938,,,,,,,,black_plus_sign,,,null,,,,,,,,,,,,,,,,,,,,,,,
null,,learn_phase(without_color)2,945446,,,,,,,,black_plus_sign,,,null,object_10a.png,object_10c.png,,,,,,,,,,,,,,,,,,,,,
null,,black_cross(without_color)2,946374,,,,,,,,blue,,,null,object_10a.png,object_10c.png,,,,,,,,,,,,,,,,,,,,,
null,,rt_plussign_withcolor2,946878,,,,,,,,blue,,,null,object_10a.png,object_10c.png,,,,,,,,,,,,,,,,,,,,,
1066.9999999998836,,rt_thecrossant_black2,947964,,,,,,,,black_plus_sign,,,49,,,1,,,,,,,1,,,,,,,,,,,,,
null,,color_black2,948070,,,,,,,,black_plus_sign,,,null,,,,,,,,,,,,,,,,,,,,,,,
null,,learn_phase(without_color)2,951578,,,,,,,,black_plus_sign,,,null,object_02c.png,object_01c.png,,,,,,,,,,,,,,,,,,,,,
null,,black_cross(without_color)2,952521,,,,,,,,green,,,null,object_02c.png,object_01c.png,,,,,,,,,,,,,,,,,,,,,
null,,rt_plussign_withcolor2,953024,,,,,,,,green,,,null,object_02c.png,object_01c.png,,,,,,,,,,,,,,,,,,,,,
1069,,rt_thecrossant_black2,954095,,,,,,,,black_plus_sign,,,50,,,1,,,,,,,1,,,,,,,,,,,,,
null,,color_black2,954201,,,,,,,,black_plus_sign,,,null,,,,,,,,,,,,,,,,,,,,,,,
null,,learn_phase(without_color)2,957709,,,,,,,,black_plus_sign,,,null,object_12b.png,object_15c.png,,,,,,,,,,,,,,,,,,,,,
null,,black_cross(without_color)2,958760,,,,,,,,green,,,null,object_12b.png,object_15c.png,,,,,,,,,,,,,,,,,,,,,
null,,rt_plussign_withcolor2,959263,,,,,,,,green,,,null,object_12b.png,object_15c.png,,,,,,,,,,,,,,,,,,,,,
1074,,rt_thecrossant_black2,960227,,,,,,,,black_plus_sign,,,50,,,1,,,,,,,1,,,,,,,,,,,,,
null,,color_black2,960334,,,,,,,,black_plus_sign,,,null,,,,,,,,,,,,,,,,,,,,,,,
null,,learn_phase(without_color)2,963842,,,,,,,,black_plus_sign,,,null,object_14b.png,object_14c.png,,,,,,,,,,,,,,,,,,,,,
null,,black_cross(without_color)2,964512,,,,,,,,blue,,,null,object_14b.png,object_14c.png,,,,,,,,,,,,,,,,,,,,,
null,,rt_plussign_withcolor2,965015,,,,,,,,blue,,,null,object_14b.png,object_14c.png,,,,,,,,,,,,,,,,,,,,,
1674.0000000001164,,rt_thecrossant_black2,966360,,,,,,,,black_plus_sign,,,49,,,1,,,,,,,1,,,,,,,,,,,,,
null,,color_black2,966467,,,,,,,,black_plus_sign,,,null,,,,,,,,,,,,,,,,,,,,,,,
null,,learn_phase(without_color)2,969976,,,,,,,,black_plus_sign,,,null,object_05b.png,object_03c.png,,,,,,,,,,,,,,,,,,,,,
null,,black_cross(without_color)2,970735,,,,,,,,blue,,,null,object_05b.png,object_03c.png,,,,,,,,,,,,,,,,,,,,,
null,,rt_plussign_withcolor2,971239,,,,,,,,blue,,,null,object_05b.png,object_03c.png,,,,,,,,,,,,,,,,,,,,,
961,,rt_thecrossant_black2,972494,,,,,,,,black_plus_sign,,,49,,,1,,,,,,,1,,,,,,,,,,,,,
null,,color_black2,972600,,,,,,,,black_plus_sign,,,null,,,,,,,,,,,,,,,,,,,,,,,
null,,learn_phase(without_color)2,976108,,,,,,,,black_plus_sign,,,null,object_05a.png,object_03b.png,,,,,,,,,,,,,,,,,,,,,
null,,black_cross(without_color)2,976990,,,,,,,,blue,,,null,object_05a.png,object_03b.png,,,,,,,,,,,,,,,,,,,,,
null,,rt_plussign_withcolor2,977494,,,,,,,,blue,,,null,object_05a.png,object_03b.png,,,,,,,,,,,,,,,,,,,,,
1063.0000000001164,,rt_thecrossant_black2,978626,,,,,,,,black_plus_sign,,,49,,,1,,,,,,,1,,,,,,,,,,,,,
null,,color_black2,978733,,,,,,,,black_plus_sign,,,null,,,,,,,,,,,,,,,,,,,,,,,
null,,learn_phase(without_color)2,982241,,,,,,,,black_plus_sign,,,null,object_09a.png,object_09b.png,,,,,,,,,,,,,,,,,,,,,
null,,black_cross(without_color)2,983254,,,,,,,,blue,,,null,object_09a.png,object_09b.png,,,,,,,,,,,,,,,,,,,,,
null,,rt_plussign_withcolor2,983757,,,,,,,,blue,,,null,object_09a.png,object_09b.png,,,,,,,,,,,,,,,,,,,,,
1383.0000000001164,,rt_thecrossant_black2,984757,,,,,,,,black_plus_sign,,,49,,,1,,,,,,,1,,,,,,,,,,,,,
null,,color_black2,984864,,,,,,,,black_plus_sign,,,null,,,,,,,,,,,,,,,,,,,,,,,
null,,thebreak,984971,,,,,,,,<p></p>,,,null,,,,,,,,,,,,,,,,,,,,,,,
1661,,intro_0,986635,,,,,,,,instruct,,,32,,,,,,,,,,,,,,,,,,,,,,,
5518,,directmemory_phase2,992156,,,,,,,,object_02b.png,,,49,,,0,,object_10c.png,object_04a.png,object_02a.png,object_04a.png,,0.5806451612903226,,0,,,,,,,,,,,
4064,,directmemory_phase2,996228,,,,,,,,object_13a.png,,,51,,,1,,object_06b.png,object_15b.png,object_14a.png,object_14a.png,,0.59375,,1,,,,,,,,,,,
4519,,directmemory_phase2,1000754,,,,,,,,object_06b.png,,,50,,,1,,object_04a.png,object_07a.png,object_08b.png,object_07a.png,,0.6060606060606061,,1,,,,,,,,,,,
6446,,directmemory_phase2,1007208,,,,,,,,object_10c.png,,,50,,,1,,object_07b.png,object_10a.png,object_14a.png,object_10a.png,,0.6176470588235294,,1,,,,,,,,,,,
3675,,directmemory_phase2,1010891,,,,,,,,object_03c.png,,,49,,,0,,object_09c.png,object_05b.png,object_04a.png,object_05b.png,,0.6,,0,,,,,,,,,,,
2448.9999999998836,,directmemory_phase2,1013346,,,,,,,,object_11c.png,,,49,,,1,,object_14a.png,object_13b.png,object_15a.png,object_14a.png,,0.6111111111111112,,1,,,,,,,,,,,
2045.0000000001164,,directmemory_phase2,1015397,,,,,,,,object_08b.png,,,50,,,1,,object_07b.png,object_07c.png,object_04b.png,object_07c.png,,0.6216216216216216,,1,,,,,,,,,,,
2013.0000000001164,,directmemory_phase2,1017416,,,,,,,,object_09b.png,,,49,,,1,,object_09a.png,object_10c.png,object_04b.png,object_09a.png,,0.631578947368421,,1,,,,,,,,,,,
2806.0000000001164,,directmemory_phase2,1020229,,,,,,,,object_06a.png,,,49,,,1,,object_05b.png,object_12b.png,object_13a.png,object_05b.png,,0.6410256410256411,,1,,,,,,,,,,,
3075,,directmemory_phase2,1023312,,,,,,,,object_01b.png,,,51,,,1,,object_04a.png,object_14b.png,object_12b.png,object_12b.png,,0.65,,1,,,,,,,,,,,
2523,,directmemory_phase2,1025843,,,,,,,,object_07b.png,,,51,,,1,,object_13b.png,object_15c.png,object_04b.png,object_04b.png,,0.6585365853658537,,1,,,,,,,,,,,
4783,,directmemory_phase2,1030633,,,,,,,,object_04c.png,,,51,,,0,,object_09c.png,object_04b.png,object_13b.png,object_04b.png,,0.6428571428571429,,0,,,,,,,,,,,
6381.000000000116,,directmemory_phase2,1037023,,,,,,,,object_05a.png,,,51,,,1,,object_02c.png,object_02a.png,object_13c.png,object_13c.png,,0.6511627906976745,,1,,,,,,,,,,,
6294.999999999884,,directmemory_phase2,1043325,,,,,,,,object_09c.png,,,50,,,1,,object_08a.png,object_10a.png,object_04b.png,object_10a.png,,0.6590909090909091,,1,,,,,,,,,,,
3640.0000000001164,,directmemory_phase2,1046973,,,,,,,,object_10b.png,,,50,,,0,,object_09b.png,object_12c.png,object_11b.png,object_11b.png,,0.6444444444444445,,0,,,,,,,,,,,
3277.0000000001164,,directmemory_phase2,1050258,,,,,,,,object_05c.png,,,49,,,0,,object_13b.png,object_15a.png,object_02a.png,object_02a.png,,0.6304347826086957,,0,,,,,,,,,,,
4146,,directmemory_phase2,1054411,,,,,,,,object_12a.png,,,49,,,0,,object_05c.png,object_13b.png,object_01c.png,object_13b.png,,0.6170212765957447,,0,,,,,,,,,,,
2451,,directmemory_phase2,1056870,,,,,,,,object_15b.png,,,49,,,0,,object_07a.png,object_14c.png,object_04b.png,object_14c.png,,0.6041666666666666,,0,,,,,,,,,,,
2361,,directmemory_phase2,1059239,,,,,,,,object_02c.png,,,50,,,1,,object_10c.png,object_01c.png,object_14a.png,object_01c.png,,0.6122448979591837,,1,,,,,,,,,,,
6603,,directmemory_phase2,1065848,,,,,,,,object_08a.png,,,51,,,0,,object_07c.png,object_12b.png,object_05c.png,object_07c.png,,0.6,,0,,,,,,,,,,,
3484,,directmemory_phase2,1069339,,,,,,,,object_14b.png,,,50,,,1,,object_11c.png,object_14c.png,object_02a.png,object_14c.png,,0.6078431372549019,,1,,,,,,,,,,,
3005,,directmemory_phase2,1072351,,,,,,,,object_06c.png,,,51,,,0,,object_06b.png,object_10a.png,object_04c.png,object_06b.png,,0.5961538461538461,,0,,,,,,,,,,,
1994,,directmemory_phase2,1074352,,,,,,,,object_01a.png,,,49,,,1,,object_04a.png,object_10a.png,object_05c.png,object_04a.png,,0.6037735849056604,,1,,,,,,,,,,,
3519,,directmemory_phase2,1077878,,,,,,,,object_15c.png,,,50,,,0,,object_01c.png,object_02b.png,object_12b.png,object_12b.png,,0.5925925925925926,,0,,,,,,,,,,,
3487.999999999767,,directmemory_phase2,1081374,,,,,,,,object_13b.png,,,49,,,1,,object_12c.png,object_13a.png,object_10a.png,object_12c.png,,0.6,,1,,,,,,,,,,,
3278,,directmemory_phase2,1084660,,,,,,,,object_15a.png,,,50,,,0,,object_07c.png,object_06c.png,object_01c.png,object_01c.png,,0.5892857142857143,,0,,,,,,,,,,,
3284,,directmemory_phase2,1087952,,,,,,,,object_11a.png,,,51,,,1,,object_06b.png,object_14b.png,object_11b.png,object_11b.png,,0.5964912280701754,,1,,,,,,,,,,,
3275,,directmemory_phase2,1091235,,,,,,,,object_08c.png,,,49,,,1,,object_09b.png,object_06b.png,object_09c.png,object_09b.png,,0.603448275862069,,1,,,,,,,,,,,
2469,,directmemory_phase2,1093712,,,,,,,,object_03b.png,,,51,,,1,,object_14a.png,object_15a.png,object_05a.png,object_05a.png,,0.6101694915254238,,1,,,,,,,,,,,
4171,,directmemory_phase2,1097890,,,,,,,,object_03a.png,,,51,,,1,,object_04a.png,object_02c.png,object_02a.png,object_02a.png,,0.6166666666666667,,1,,,,,,,,,,,
null,,thebreak,1097999,,,,,,,,<p></p>,,,null,,,,,,,,,,,,,,,,,,,,,,,
1758.0000000002328,,intro_0,1099761,,,,,,,,instruct,,,32,,,,,,,,,,,,,,,,,,,,,,,
null,,learn_phase(without_color)3,1103265,,,,,,,,black_plus_sign,,,null,object_04b.png,object_07b.png,,,,,,,,,,,,,,,,,,,,,
null,,black_cross(without_color)3,1103983,,,,,,,,blue,,,null,object_04b.png,object_07b.png,,,,,,,,,,,,,,,,,,,,,
null,,rt_plussign_withcolor3,1104487,,,,,,,,blue,,,null,object_04b.png,object_07b.png,,,,,,,,,,,,,,,,,,,,,
1015,,rt_thecrossant_black3,1105785,,,,,,,,black_plus_sign,,,49,,,1,,,,,,,1,,,,,,,,,,,,,
null,,color_black3,1105893,,,,,,,,black_plus_sign,,,null,,,,,,,,,,,,,,,,,,,,,,,
null,,learn_phase(without_color)3,1109401,,,,,,,,black_plus_sign,,,null,object_12a.png,object_13b.png,,,,,,,,,,,,,,,,,,,,,
null,,black_cross(without_color)3,1110205,,,,,,,,blue,,,null,object_12a.png,object_13b.png,,,,,,,,,,,,,,,,,,,,,
null,,rt_plussign_withcolor3,1110709,,,,,,,,blue,,,null,object_12a.png,object_13b.png,,,,,,,,,,,,,,,,,,,,,
1079,,rt_thecrossant_black3,1111920,,,,,,,,black_plus_sign,,,49,,,1,,,,,,,1,,,,,,,,,,,,,
null,,color_black3,1112027,,,,,,,,black_plus_sign,,,null,,,,,,,,,,,,,,,,,,,,,,,
null,,learn_phase(without_color)3,1115535,,,,,,,,black_plus_sign,,,null,object_05b.png,object_03c.png,,,,,,,,,,,,,,,,,,,,,
null,,black_cross(without_color)3,1116290,,,,,,,,blue,,,null,object_05b.png,object_03c.png,,,,,,,,,,,,,,,,,,,,,
null,,rt_plussign_withcolor3,1116794,,,,,,,,blue,,,null,object_05b.png,object_03c.png,,,,,,,,,,,,,,,,,,,,,
1061,,rt_thecrossant_black3,1118054,,,,,,,,black_plus_sign,,,49,,,1,,,,,,,1,,,,,,,,,,,,,
null,,color_black3,1118162,,,,,,,,black_plus_sign,,,null,,,,,,,,,,,,,,,,,,,,,,,
null,,learn_phase(without_color)3,1121671,,,,,,,,black_plus_sign,,,null,object_13b.png,object_12c.png,,,,,,,,,,,,,,,,,,,,,
null,,black_cross(without_color)3,1122771,,,,,,,,green,,,null,object_13b.png,object_12c.png,,,,,,,,,,,,,,,,,,,,,
null,,rt_plussign_withcolor3,1123274,,,,,,,,green,,,null,object_13b.png,object_12c.png,,,,,,,,,,,,,,,,,,,,,
909,,rt_thecrossant_black3,1124188,,,,,,,,black_plus_sign,,,50,,,1,,,,,,,1,,,,,,,,,,,,,
null,,color_black3,1124295,,,,,,,,black_plus_sign,,,null,,,,,,,,,,,,,,,,,,,,,,,
null,,learn_phase(without_color)3,1127802,,,,,,,,black_plus_sign,,,null,object_10c.png,object_10a.png,,,,,,,,,,,,,,,,,,,,,
null,,black_cross(without_color)3,1128900,,,,,,,,blue,,,null,object_10c.png,object_10a.png,,,,,,,,,,,,,,,,,,,,,
null,,rt_plussign_withcolor3,1129404,,,,,,,,blue,,,null,object_10c.png,object_10a.png,,,,,,,,,,,,,,,,,,,,,
1313.0000000002328,,rt_thecrossant_black3,1130320,,,,,,,,black_plus_sign,,,49,,,1,,,,,,,1,,,,,,,,,,,,,
null,,color_black3,1130426,,,,,,,,black_plus_sign,,,null,,,,,,,,,,,,,,,,,,,,,,,
null,,learn_phase(without_color)3,1133933,,,,,,,,black_plus_sign,,,null,object_03a.png,object_02a.png,,,,,,,,,,,,,,,,,,,,,
null,,black_cross(without_color)3,1134804,,,,,,,,green,,,null,object_03a.png,object_02a.png,,,,,,,,,,,,,,,,,,,,,
null,,rt_plussign_withcolor3,1135308,,,,,,,,green,,,null,object_03a.png,object_02a.png,,,,,,,,,,,,,,,,,,,,,
1268,,rt_thecrossant_black3,1136451,,,,,,,,black_plus_sign,,,50,,,1,,,,,,,1,,,,,,,,,,,,,
null,,color_black3,1136558,,,,,,,,black_plus_sign,,,null,,,,,,,,,,,,,,,,,,,,,,,
null,,learn_phase(without_color)3,1140067,,,,,,,,black_plus_sign,,,null,object_09b.png,object_08c.png,,,,,,,,,,,,,,,,,,,,,
null,,black_cross(without_color)3,1141075,,,,,,,,blue,,,null,object_09b.png,object_08c.png,,,,,,,,,,,,,,,,,,,,,
null,,rt_plussign_withcolor3,1141578,,,,,,,,blue,,,null,object_09b.png,object_08c.png,,,,,,,,,,,,,,,,,,,,,
1168,,rt_thecrossant_black3,1142583,,,,,,,,black_plus_sign,,,49,,,1,,,,,,,1,,,,,,,,,,,,,
null,,color_black3,1142689,,,,,,,,black_plus_sign,,,null,,,,,,,,,,,,,,,,,,,,,,,
null,,learn_phase(without_color)3,1146198,,,,,,,,black_plus_sign,,,null,object_05a.png,object_13c.png,,,,,,,,,,,,,,,,,,,,,
null,,black_cross(without_color)3,1146648,,,,,,,,green,,,null,object_05a.png,object_13c.png,,,,,,,,,,,,,,,,,,,,,
null,,rt_plussign_withcolor3,1147152,,,,,,,,green,,,null,object_05a.png,object_13c.png,,,,,,,,,,,,,,,,,,,,,
1429,,rt_thecrossant_black3,1148715,,,,,,,,black_plus_sign,,,50,,,1,,,,,,,1,,,,,,,,,,,,,
null,,color_black3,1148823,,,,,,,,black_plus_sign,,,null,,,,,,,,,,,,,,,,,,,,,,,
null,,learn_phase(without_color)3,1152330,,,,,,,,black_plus_sign,,,null,object_06b.png,object_07a.png,,,,,,,,,,,,,,,,,,,,,
null,,black_cross(without_color)3,1153080,,,,,,,,green,,,null,object_06b.png,object_07a.png,,,,,,,,,,,,,,,,,,,,,
null,,rt_plussign_withcolor3,1153583,,,,,,,,green,,,null,object_06b.png,object_07a.png,,,,,,,,,,,,,,,,,,,,,
816,,rt_thecrossant_black3,1154848,,,,,,,,black_plus_sign,,,50,,,1,,,,,,,1,,,,,,,,,,,,,
null,,color_black3,1154955,,,,,,,,black_plus_sign,,,null,,,,,,,,,,,,,,,,,,,,,,,
null,,learn_phase(without_color)3,1158463,,,,,,,,black_plus_sign,,,null,object_12b.png,object_01b.png,,,,,,,,,,,,,,,,,,,,,
null,,black_cross(without_color)3,1158930,,,,,,,,green,,,null,object_12b.png,object_01b.png,,,,,,,,,,,,,,,,,,,,,
null,,rt_plussign_withcolor3,1159433,,,,,,,,green,,,null,object_12b.png,object_01b.png,,,,,,,,,,,,,,,,,,,,,
1058.0000000002328,,rt_thecrossant_black3,1160980,,,,,,,,black_plus_sign,,,50,,,1,,,,,,,1,,,,,,,,,,,,,
null,,color_black3,1161088,,,,,,,,black_plus_sign,,,null,,,,,,,,,,,,,,,,,,,,,,,
null,,learn_phase(without_color)3,1164599,,,,,,,,black_plus_sign,,,null,object_06b.png,object_06c.png,,,,,,,,,,,,,,,,,,,,,
null,,black_cross(without_color)3,1165114,,,,,,,,blue,,,null,object_06b.png,object_06c.png,,,,,,,,,,,,,,,,,,,,,
null,,rt_plussign_withcolor3,1165617,,,,,,,,blue,,,null,object_06b.png,object_06c.png,,,,,,,,,,,,,,,,,,,,,
789,,rt_thecrossant_black3,1167118,,,,,,,,black_plus_sign,,,49,,,1,,,,,,,1,,,,,,,,,,,,,
null,,color_black3,1167227,,,,,,,,black_plus_sign,,,null,,,,,,,,,,,,,,,,,,,,,,,
null,,learn_phase(without_color)3,1170736,,,,,,,,black_plus_sign,,,null,object_08a.png,object_07c.png,,,,,,,,,,,,,,,,,,,,,
null,,black_cross(without_color)3,1171578,,,,,,,,blue,,,null,object_08a.png,object_07c.png,,,,,,,,,,,,,,,,,,,,,
null,,rt_plussign_withcolor3,1172082,,,,,,,,blue,,,null,object_08a.png,object_07c.png,,,,,,,,,,,,,,,,,,,,,
1008.9999999997672,,rt_thecrossant_black3,1173254,,,,,,,,black_plus_sign,,,49,,,1,,,,,,,1,,,,,,,,,,,,,
null,,color_black3,1173362,,,,,,,,black_plus_sign,,,null,,,,,,,,,,,,,,,,,,,,,,,
null,,learn_phase(without_color)3,1176871,,,,,,,,black_plus_sign,,,null,object_15a.png,object_01c.png,,,,,,,,,,,,,,,,,,,,,
null,,black_cross(without_color)3,1177845,,,,,,,,blue,,,null,object_15a.png,object_01c.png,,,,,,,,,,,,,,,,,,,,,
null,,rt_plussign_withcolor3,1178349,,,,,,,,blue,,,null,object_15a.png,object_01c.png,,,,,,,,,,,,,,,,,,,,,
1458,,rt_thecrossant_black3,1179389,,,,,,,,black_plus_sign,,,49,,,1,,,,,,,1,,,,,,,,,,,,,
null,,color_black3,1179497,,,,,,,,black_plus_sign,,,null,,,,,,,,,,,,,,,,,,,,,,,
null,,learn_phase(without_color)3,1183005,,,,,,,,black_plus_sign,,,null,object_02b.png,object_04a.png,,,,,,,,,,,,,,,,,,,,,
null,,black_cross(without_color)3,1183557,,,,,,,,green,,,null,object_02b.png,object_04a.png,,,,,,,,,,,,,,,,,,,,,
null,,rt_plussign_withcolor3,1184060,,,,,,,,green,,,null,object_02b.png,object_04a.png,,,,,,,,,,,,,,,,,,,,,
1203,,rt_thecrossant_black3,1185523,,,,,,,,black_plus_sign,,,50,,,1,,,,,,,1,,,,,,,,,,,,,
null,,color_black3,1185630,,,,,,,,black_plus_sign,,,null,,,,,,,,,,,,,,,,,,,,,,,
null,,learn_phase(without_color)3,1189138,,,,,,,,black_plus_sign,,,null,object_05c.png,object_02a.png,,,,,,,,,,,,,,,,,,,,,
null,,black_cross(without_color)3,1189944,,,,,,,,green,,,null,object_05c.png,object_02a.png,,,,,,,,,,,,,,,,,,,,,
null,,rt_plussign_withcolor3,1190447,,,,,,,,green,,,null,object_05c.png,object_02a.png,,,,,,,,,,,,,,,,,,,,,
799.9999999997672,,rt_thecrossant_black3,1191653,,,,,,,,black_plus_sign,,,50,,,1,,,,,,,1,,,,,,,,,,,,,
null,,color_black3,1191760,,,,,,,,black_plus_sign,,,null,,,,,,,,,,,,,,,,,,,,,,,
null,,learn_phase(without_color)3,1195270,,,,,,,,black_plus_sign,,,null,object_13a.png,object_14a.png,,,,,,,,,,,,,,,,,,,,,
null,,black_cross(without_color)3,1196224,,,,,,,,green,,,null,object_13a.png,object_14a.png,,,,,,,,,,,,,,,,,,,,,
null,,rt_plussign_withcolor3,1196728,,,,,,,,green,,,null,object_13a.png,object_14a.png,,,,,,,,,,,,,,,,,,,,,
955.0000000002328,,rt_thecrossant_black3,1197789,,,,,,,,black_plus_sign,,,50,,,1,,,,,,,1,,,,,,,,,,,,,
null,,color_black3,1197894,,,,,,,,black_plus_sign,,,null,,,,,,,,,,,,,,,,,,,,,,,
null,,learn_phase(without_color)3,1201402,,,,,,,,black_plus_sign,,,null,object_09a.png,object_09b.png,,,,,,,,,,,,,,,,,,,,,
null,,black_cross(without_color)3,1201920,,,,,,,,green,,,null,object_09a.png,object_09b.png,,,,,,,,,,,,,,,,,,,,,
null,,rt_plussign_withcolor3,1202424,,,,,,,,green,,,null,object_09a.png,object_09b.png,,,,,,,,,,,,,,,,,,,,,
1299.0000000002328,,rt_thecrossant_black3,1203922,,,,,,,,black_plus_sign,,,50,,,1,,,,,,,1,,,,,,,,,,,,,
null,,color_black3,1204031,,,,,,,,black_plus_sign,,,null,,,,,,,,,,,,,,,,,,,,,,,
null,,learn_phase(without_color)3,1207539,,,,,,,,black_plus_sign,,,null,object_11b.png,object_11a.png,,,,,,,,,,,,,,,,,,,,,
null,,black_cross(without_color)3,1208040,,,,,,,,green,,,null,object_11b.png,object_11a.png,,,,,,,,,,,,,,,,,,,,,
null,,rt_plussign_withcolor3,1208542,,,,,,,,green,,,null,object_11b.png,object_11a.png,,,,,,,,,,,,,,,,,,,,,
944,,rt_thecrossant_black3,1210056,,,,,,,,black_plus_sign,,,50,,,1,,,,,,,1,,,,,,,,,,,,,
null,,color_black3,1210164,,,,,,,,black_plus_sign,,,null,,,,,,,,,,,,,,,,,,,,,,,
null,,learn_phase(without_color)3,1213673,,,,,,,,black_plus_sign,,,null,object_01c.png,object_02c.png,,,,,,,,,,,,,,,,,,,,,
null,,black_cross(without_color)3,1214276,,,,,,,,blue,,,null,object_01c.png,object_02c.png,,,,,,,,,,,,,,,,,,,,,
null,,rt_plussign_withcolor3,1214780,,,,,,,,blue,,,null,object_01c.png,object_02c.png,,,,,,,,,,,,,,,,,,,,,
825,,rt_thecrossant_black3,1216193,,,,,,,,black_plus_sign,,,49,,,1,,,,,,,1,,,,,,,,,,,,,
null,,color_black3,1216300,,,,,,,,black_plus_sign,,,null,,,,,,,,,,,,,,,,,,,,,,,
null,,learn_phase(without_color)3,1219809,,,,,,,,black_plus_sign,,,null,object_11b.png,object_10b.png,,,,,,,,,,,,,,,,,,,,,
null,,black_cross(without_color)3,1220663,,,,,,,,green,,,null,object_11b.png,object_10b.png,,,,,,,,,,,,,,,,,,,,,
null,,rt_plussign_withcolor3,1221166,,,,,,,,green,,,null,object_11b.png,object_10b.png,,,,,,,,,,,,,,,,,,,,,
1834,,rt_thecrossant_black3,1222327,,,,,,,,black_plus_sign,,,50,,,1,,,,,,,1,,,,,,,,,,,,,
null,,color_black3,1222434,,,,,,,,black_plus_sign,,,null,,,,,,,,,,,,,,,,,,,,,,,
null,,learn_phase(without_color)3,1225943,,,,,,,,black_plus_sign,,,null,object_11c.png,object_14a.png,,,,,,,,,,,,,,,,,,,,,
null,,black_cross(without_color)3,1226923,,,,,,,,green,,,null,object_11c.png,object_14a.png,,,,,,,,,,,,,,,,,,,,,
null,,rt_plussign_withcolor3,1227426,,,,,,,,green,,,null,object_11c.png,object_14a.png,,,,,,,,,,,,,,,,,,,,,
1152,,rt_thecrossant_black3,1228460,,,,,,,,black_plus_sign,,,50,,,1,,,,,,,1,,,,,,,,,,,,,
null,,color_black3,1228567,,,,,,,,black_plus_sign,,,null,,,,,,,,,,,,,,,,,,,,,,,
null,,learn_phase(without_color)3,1232077,,,,,,,,black_plus_sign,,,null,object_07c.png,object_08b.png,,,,,,,,,,,,,,,,,,,,,
null,,black_cross(without_color)3,1232860,,,,,,,,green,,,null,object_07c.png,object_08b.png,,,,,,,,,,,,,,,,,,,,,
null,,rt_plussign_withcolor3,1233363,,,,,,,,green,,,null,object_07c.png,object_08b.png,,,,,,,,,,,,,,,,,,,,,
1696,,rt_thecrossant_black3,1234595,,,,,,,,black_plus_sign,,,50,,,1,,,,,,,1,,,,,,,,,,,,,
null,,color_black3,1234702,,,,,,,,black_plus_sign,,,null,,,,,,,,,,,,,,,,,,,,,,,
null,,learn_phase(without_color)3,1238210,,,,,,,,black_plus_sign,,,null,object_04b.png,object_04c.png,,,,,,,,,,,,,,,,,,,,,
null,,black_cross(without_color)3,1238815,,,,,,,,blue,,,null,object_04b.png,object_04c.png,,,,,,,,,,,,,,,,,,,,,
358,,rt_plussign_withcolor3,1239318,,,,,,,,blue,,,50,object_04b.png,object_04c.png,,,,,,,,,,,,,,,,,,,,,
null,,rt_thecrossant_black3,1240728,,,,,,,,black_plus_sign,,,null,,,0,,,,,,,0.9565217391304348,,,,,,,,,,,,,
null,,color_black3,1240835,,,,,,,,black_plus_sign,,,null,,,,,,,,,,,,,,,,,,,,,,,
null,,learn_phase(without_color)3,1244344,,,,,,,,black_plus_sign,,,null,object_14b.png,object_14c.png,,,,,,,,,,,,,,,,,,,,,
null,,black_cross(without_color)3,1245338,,,,,,,,green,,,null,object_14b.png,object_14c.png,,,,,,,,,,,,,,,,,,,,,
null,,rt_plussign_withcolor3,1245842,,,,,,,,green,,,null,object_14b.png,object_14c.png,,,,,,,,,,,,,,,,,,,,,
960,,rt_thecrossant_black3,1246862,,,,,,,,black_plus_sign,,,50,,,1,,,,,,,0.9583333333333334,,,,,,,,,,,,,
null,,color_black3,1246969,,,,,,,,black_plus_sign,,,null,,,,,,,,,,,,,,,,,,,,,,,
null,,learn_phase(without_color)3,1250477,,,,,,,,black_plus_sign,,,null,object_01a.png,object_04a.png,,,,,,,,,,,,,,,,,,,,,
null,,black_cross(without_color)3,1251299,,,,,,,,green,,,null,object_01a.png,object_04a.png,,,,,,,,,,,,,,,,,,,,,
null,,rt_plussign_withcolor3,1251802,,,,,,,,green,,,null,object_01a.png,object_04a.png,,,,,,,,,,,,,,,,,,,,,
null,,rt_thecrossant_black3,1252996,,,,,,,,black_plus_sign,,,null,,,,,,,,,,0.9583333333333334,,,,,,,,,,,,,
null,,color_black3,1253103,,,,,,,,black_plus_sign,,,null,,,,,,,,,,,,,,,,,,,,,,,
null,,learn_phase(without_color)3,1256612,,,,,,,,black_plus_sign,,,null,object_05a.png,object_03b.png,,,,,,,,,,,,,,,,,,,,,
null,,black_cross(without_color)3,1257093,,,,,,,,blue,,,null,object_05a.png,object_03b.png,,,,,,,,,,,,,,,,,,,,,
null,,rt_plussign_withcolor3,1257596,,,,,,,,blue,,,null,object_05a.png,object_03b.png,,,,,,,,,,,,,,,,,,,,,
1811.0000000002328,,rt_thecrossant_black3,1259132,,,,,,,,black_plus_sign,,,49,,,1,,,,,,,0.96,,,,,,,,,,,,,
null,,color_black3,1259239,,,,,,,,black_plus_sign,,,null,,,,,,,,,,,,,,,,,,,,,,,
null,,learn_phase(without_color)3,1262748,,,,,,,,black_plus_sign,,,null,object_15b.png,object_14c.png,,,,,,,,,,,,,,,,,,,,,
null,,black_cross(without_color)3,1263701,,,,,,,,blue,,,null,object_15b.png,object_14c.png,,,,,,,,,,,,,,,,,,,,,
null,,rt_plussign_withcolor3,1264205,,,,,,,,blue,,,null,object_15b.png,object_14c.png,,,,,,,,,,,,,,,,,,,,,
null,,rt_thecrossant_black3,1265269,,,,,,,,black_plus_sign,,,null,,,,,,,,,,0.96,,,,,,,,,,,,,
null,,color_black3,1265375,,,,,,,,black_plus_sign,,,null,,,,,,,,,,,,,,,,,,,,,,,
null,,learn_phase(without_color)3,1268884,,,,,,,,black_plus_sign,,,null,object_12b.png,object_15c.png,,,,,,,,,,,,,,,,,,,,,
null,,black_cross(without_color)3,1269570,,,,,,,,blue,,,null,object_12b.png,object_15c.png,,,,,,,,,,,,,,,,,,,,,
null,,rt_plussign_withcolor3,1270073,,,,,,,,blue,,,null,object_12b.png,object_15c.png,,,,,,,,,,,,,,,,,,,,,
1310,,rt_thecrossant_black3,1271403,,,,,,,,black_plus_sign,,,49,,,1,,,,,,,0.9615384615384616,,,,,,,,,,,,,
null,,color_black3,1271511,,,,,,,,black_plus_sign,,,null,,,,,,,,,,,,,,,,,,,,,,,
null,,learn_phase(without_color)3,1275019,,,,,,,,black_plus_sign,,,null,object_10a.png,object_09c.png,,,,,,,,,,,,,,,,,,,,,
null,,black_cross(without_color)3,1275882,,,,,,,,blue,,,null,object_10a.png,object_09c.png,,,,,,,,,,,,,,,,,,,,,
null,,rt_plussign_withcolor3,1276385,,,,,,,,blue,,,null,object_10a.png,object_09c.png,,,,,,,,,,,,,,,,,,,,,
870,,rt_thecrossant_black3,1277537,,,,,,,,black_plus_sign,,,49,,,1,,,,,,,0.9629629629629629,,,,,,,,,,,,,
null,,color_black3,1277644,,,,,,,,black_plus_sign,,,null,,,,,,,,,,,,,,,,,,,,,,,
null,,learn_phase(without_color)3,1281153,,,,,,,,black_plus_sign,,,null,object_06a.png,object_05b.png,,,,,,,,,,,,,,,,,,,,,
null,,black_cross(without_color)3,1282190,,,,,,,,green,,,null,object_06a.png,object_05b.png,,,,,,,,,,,,,,,,,,,,,
null,,rt_plussign_withcolor3,1282693,,,,,,,,green,,,null,object_06a.png,object_05b.png,,,,,,,,,,,,,,,,,,,,,
1535,,rt_thecrossant_black3,1283672,,,,,,,,black_plus_sign,,,50,,,1,,,,,,,0.9642857142857143,,,,,,,,,,,,,
null,,color_black3,1283779,,,,,,,,black_plus_sign,,,null,,,,,,,,,,,,,,,,,,,,,,,
null,,thebreak,1283888,,,,,,,,<p></p>,,,null,,,,,,,,,,,,,,,,,,,,,,,
1288,,intro_0,1285179,,,,,,,,instruct,,,32,,,,,,,,,,,,,,,,,,,,,,,
6480,,directmemory_phase3,1291661,,,,,,,,object_08c.png,,,50,,,0,,object_13b.png,object_14b.png,object_09b.png,object_09b.png,,0.6065573770491803,,0,,,,,,,,,,,
4300,,directmemory_phase3,1295969,,,,,,,,object_04c.png,,,51,,,1,,object_05a.png,object_01a.png,object_04b.png,object_04b.png,,0.6129032258064516,,1,,,,,,,,,,,
3168.000000000233,,directmemory_phase3,1299145,,,,,,,,object_12a.png,,,51,,,0,,object_13b.png,object_09b.png,object_03b.png,object_13b.png,,0.6031746031746031,,0,,,,,,,,,,,
4022,,directmemory_phase3,1303175,,,,,,,,object_05a.png,,,51,,,1,,object_07b.png,object_10a.png,object_13c.png,object_13c.png,,0.609375,,1,,,,,,,,,,,
4904.999999999767,,directmemory_phase3,1308089,,,,,,,,object_11c.png,,,49,,,1,,object_14a.png,object_04a.png,object_03b.png,object_14a.png,,0.6153846153846154,,1,,,,,,,,,,,
3816,,directmemory_phase3,1311914,,,,,,,,object_03b.png,,,50,,,1,,object_03c.png,object_05a.png,object_09b.png,object_05a.png,,0.6212121212121212,,1,,,,,,,,,,,
3531.000000000233,,directmemory_phase3,1315453,,,,,,,,object_15a.png,,,51,,,1,,object_04b.png,object_12a.png,object_01c.png,object_01c.png,,0.6268656716417911,,1,,,,,,,,,,,
3349,,directmemory_phase3,1318810,,,,,,,,object_01c.png,,,51,,,1,,object_06a.png,object_07c.png,object_02c.png,object_02c.png,,0.6323529411764706,,1,,,,,,,,,,,
4449.999999999767,,directmemory_phase3,1323269,,,,,,,,object_10b.png,,,49,,,1,,object_11b.png,object_05b.png,object_07b.png,object_11b.png,,0.6376811594202898,,1,,,,,,,,,,,
2921,,directmemory_phase3,1326196,,,,,,,,object_02b.png,,,50,,,0,,object_05a.png,object_03a.png,object_04a.png,object_04a.png,,0.6285714285714286,,0,,,,,,,,,,,
3965,,directmemory_phase3,1330168,,,,,,,,object_08a.png,,,50,,,1,,object_04c.png,object_07c.png,object_13b.png,object_07c.png,,0.6338028169014085,,1,,,,,,,,,,,
1855,,directmemory_phase3,1332032,,,,,,,,object_05c.png,,,49,,,1,,object_02a.png,object_06b.png,object_11c.png,object_02a.png,,0.6388888888888888,,1,,,,,,,,,,,
3693.999999999767,,directmemory_phase3,1335733,,,,,,,,object_13b.png,,,50,,,1,,object_14a.png,object_12c.png,object_02c.png,object_12c.png,,0.6438356164383562,,1,,,,,,,,,,,
3321.999999999767,,directmemory_phase3,1339064,,,,,,,,object_07b.png,,,49,,,1,,object_04b.png,object_10a.png,object_02c.png,object_04b.png,,0.6486486486486487,,1,,,,,,,,,,,
3308,,directmemory_phase3,1342381,,,,,,,,object_06c.png,,,50,,,1,,object_01a.png,object_06b.png,object_02a.png,object_06b.png,,0.6533333333333333,,1,,,,,,,,,,,
4075,,directmemory_phase3,1346463,,,,,,,,object_03a.png,,,50,,,0,,object_13b.png,object_07a.png,object_02a.png,object_02a.png,,0.6447368421052632,,0,,,,,,,,,,,
2519,,directmemory_phase3,1348988,,,,,,,,object_07a.png,,,50,,,1,,object_03a.png,object_06b.png,object_13b.png,object_06b.png,,0.6493506493506493,,1,,,,,,,,,,,
2019,,directmemory_phase3,1351015,,,,,,,,object_01b.png,,,50,,,1,,object_04c.png,object_12b.png,object_05a.png,object_12b.png,,0.6538461538461539,,1,,,,,,,,,,,
2329,,directmemory_phase3,1353354,,,,,,,,object_11a.png,,,51,,,0,,object_11b.png,object_09b.png,object_06c.png,object_11b.png,,0.6455696202531646,,0,,,,,,,,,,,
4416.999999999767,,directmemory_phase3,1357792,,,,,,,,object_15b.png,,,51,,,1,,object_14a.png,object_10c.png,object_14c.png,object_14c.png,,0.65,,1,,,,,,,,,,,
4683,,directmemory_phase3,1362484,,,,,,,,object_08b.png,,,50,,,1,,object_10c.png,object_07c.png,object_09b.png,object_07c.png,,0.654320987654321,,1,,,,,,,,,,,
3922,,directmemory_phase3,1366411,,,,,,,,object_03c.png,,,50,,,1,,object_11c.png,object_05b.png,object_14a.png,object_05b.png,,0.6585365853658537,,1,,,,,,,,,,,
3633,,directmemory_phase3,1370050,,,,,,,,object_01a.png,,,50,,,1,,object_08a.png,object_04a.png,object_02a.png,object_04a.png,,0.6626506024096386,,1,,,,,,,,,,,
4119.999999999767,,directmemory_phase3,1374179,,,,,,,,object_12b.png,,,49,,,0,,object_13c.png,object_13b.png,object_15c.png,object_15c.png,,0.6547619047619048,,0,,,,,,,,,,,
2580,,directmemory_phase3,1376766,,,,,,,,object_14b.png,,,50,,,1,,object_08a.png,object_14c.png,object_10a.png,object_14c.png,,0.6588235294117647,,1,,,,,,,,,,,
3724,,directmemory_phase3,1380498,,,,,,,,object_09b.png,,,49,,,1,,object_09a.png,object_15b.png,object_02a.png,object_09a.png,,0.6627906976744186,,1,,,,,,,,,,,
3120,,directmemory_phase3,1383626,,,,,,,,object_13a.png,,,51,,,1,,object_14c.png,object_09a.png,object_14a.png,object_14a.png,,0.6666666666666666,,1,,,,,,,,,,,
2750,,directmemory_phase3,1386385,,,,,,,,object_09c.png,,,49,,,0,,object_01c.png,object_06c.png,object_10a.png,object_10a.png,,0.6590909090909091,,0,,,,,,,,,,,
5283,,directmemory_phase3,1391676,,,,,,,,object_10a.png,,,50,,,1,,object_14c.png,object_10c.png,object_07a.png,object_10c.png,,0.6629213483146067,,1,,,,,,,,,,,
2291.999999999767,,directmemory_phase3,1393976,,,,,,,,object_06a.png,,,49,,,1,,object_05b.png,object_12b.png,object_03a.png,object_05b.png,,0.6666666666666666,,1,,,,,,,,,,,
null,,thebreak,1394085,,,,,,,,<p></p>,,,null,,,,,,,,,,,,,,,,,,,,,,,
2444,,intro_0,1396532,,,,,,,,instruct,,,32,,,,,,,,,,,,,,,,,,,,,,,
null,,learn_phase(without_color)4,1400037,,,,,,,,black_plus_sign,,,null,object_12a.png,object_13b.png,,,,,,,,,,,,,,,,,,,,,
null,,black_cross(without_color)4,1400878,,,,,,,,blue,,,null,object_12a.png,object_13b.png,,,,,,,,,,,,,,,,,,,,,
null,,rt_plussign_withcolor4,1401382,,,,,,,,blue,,,null,object_12a.png,object_13b.png,,,,,,,,,,,,,,,,,,,,,
1396,,rt_thecrossant_black4,1402557,,,,,,,,black_plus_sign,,,49,,,1,,,,,,,1,,,,,,,,,,,,,
null,,color_black4,1402665,,,,,,,,black_plus_sign,,,null,,,,,,,,,,,,,,,,,,,,,,,
null,,learn_phase(without_color)4,1406173,,,,,,,,black_plus_sign,,,null,object_07a.png,object_06b.png,,,,,,,,,,,,,,,,,,,,,
null,,black_cross(without_color)4,1407191,,,,,,,,blue,,,null,object_07a.png,object_06b.png,,,,,,,,,,,,,,,,,,,,,
null,,rt_plussign_withcolor4,1407694,,,,,,,,blue,,,null,object_07a.png,object_06b.png,,,,,,,,,,,,,,,,,,,,,
1174,,rt_thecrossant_black4,1408692,,,,,,,,black_plus_sign,,,49,,,1,,,,,,,1,,,,,,,,,,,,,
null,,color_black4,1408800,,,,,,,,black_plus_sign,,,null,,,,,,,,,,,,,,,,,,,,,,,
null,,learn_phase(without_color)4,1412309,,,,,,,,black_plus_sign,,,null,object_09c.png,object_10a.png,,,,,,,,,,,,,,,,,,,,,
null,,black_cross(without_color)4,1413068,,,,,,,,blue,,,null,object_09c.png,object_10a.png,,,,,,,,,,,,,,,,,,,,,
null,,rt_plussign_withcolor4,1413571,,,,,,,,blue,,,null,object_09c.png,object_10a.png,,,,,,,,,,,,,,,,,,,,,
1274,,rt_thecrossant_black4,1414827,,,,,,,,black_plus_sign,,,49,,,1,,,,,,,1,,,,,,,,,,,,,
null,,color_black4,1414935,,,,,,,,black_plus_sign,,,null,,,,,,,,,,,,,,,,,,,,,,,
null,,learn_phase(without_color)4,1418444,,,,,,,,black_plus_sign,,,null,object_02a.png,object_05c.png,,,,,,,,,,,,,,,,,,,,,
null,,black_cross(without_color)4,1419202,,,,,,,,green,,,null,object_02a.png,object_05c.png,,,,,,,,,,,,,,,,,,,,,
null,,rt_plussign_withcolor4,1419706,,,,,,,,green,,,null,object_02a.png,object_05c.png,,,,,,,,,,,,,,,,,,,,,
null,,rt_thecrossant_black4,1420964,,,,,,,,black_plus_sign,,,null,,,,,,,,,,1,,,,,,,,,,,,,
null,,warning_page,1425974,,,,,,,,warning,,,null,,,,,,,,,,,,,,,,,,,,,,,
null,,color_black4,1426077,,,,,,,,black_plus_sign,,,null,,,,,,,,,,,,,,,,,,,,,,,
null,,learn_phase(without_color)4,1429586,,,,,,,,black_plus_sign,,,null,object_01b.png,object_12b.png,,,,,,,,,,,,,,,,,,,,,
null,,black_cross(without_color)4,1430543,,,,,,,,green,,,null,object_01b.png,object_12b.png,,,,,,,,,,,,,,,,,,,,,
null,,rt_plussign_withcolor4,1431047,,,,,,,,green,,,null,object_01b.png,object_12b.png,,,,,,,,,,,,,,,,,,,,,
1082,,rt_thecrossant_black4,1432105,,,,,,,,black_plus_sign,,,50,,,1,,,,,,,1,,,,,,,,,,,,,
null,,color_black4,1432211,,,,,,,,black_plus_sign,,,null,,,,,,,,,,,,,,,,,,,,,,,
null,,learn_phase(without_color)4,1435719,,,,,,,,black_plus_sign,,,null,object_11c.png,object_14a.png,,,,,,,,,,,,,,,,,,,,,
null,,black_cross(without_color)4,1436587,,,,,,,,blue,,,null,object_11c.png,object_14a.png,,,,,,,,,,,,,,,,,,,,,
null,,rt_plussign_withcolor4,1437091,,,,,,,,blue,,,null,object_11c.png,object_14a.png,,,,,,,,,,,,,,,,,,,,,
1281.9999999997672,,rt_thecrossant_black4,1438237,,,,,,,,black_plus_sign,,,49,,,1,,,,,,,1,,,,,,,,,,,,,
null,,color_black4,1438345,,,,,,,,black_plus_sign,,,null,,,,,,,,,,,,,,,,,,,,,,,
null,,learn_phase(without_color)4,1441852,,,,,,,,black_plus_sign,,,null,object_08a.png,object_07c.png,,,,,,,,,,,,,,,,,,,,,
null,,black_cross(without_color)4,1442566,,,,,,,,green,,,null,object_08a.png,object_07c.png,,,,,,,,,,,,,,,,,,,,,
null,,rt_plussign_withcolor4,1443069,,,,,,,,green,,,null,object_08a.png,object_07c.png,,,,,,,,,,,,,,,,,,,,,
1063,,rt_thecrossant_black4,1444371,,,,,,,,black_plus_sign,,,50,,,1,,,,,,,1,,,,,,,,,,,,,
null,,color_black4,1444478,,,,,,,,black_plus_sign,,,null,,,,,,,,,,,,,,,,,,,,,,,
null,,learn_phase(without_color)4,1447987,,,,,,,,black_plus_sign,,,null,object_06c.png,object_06b.png,,,,,,,,,,,,,,,,,,,,,
null,,black_cross(without_color)4,1449060,,,,,,,,green,,,null,object_06c.png,object_06b.png,,,,,,,,,,,,,,,,,,,,,
null,,rt_plussign_withcolor4,1449563,,,,,,,,green,,,null,object_06c.png,object_06b.png,,,,,,,,,,,,,,,,,,,,,
1014,,rt_thecrossant_black4,1450505,,,,,,,,black_plus_sign,,,50,,,1,,,,,,,1,,,,,,,,,,,,,
null,,color_black4,1450612,,,,,,,,black_plus_sign,,,null,,,,,,,,,,,,,,,,,,,,,,,
null,,learn_phase(without_color)4,1454121,,,,,,,,black_plus_sign,,,null,object_04a.png,object_02b.png,,,,,,,,,,,,,,,,,,,,,
null,,black_cross(without_color)4,1455067,,,,,,,,green,,,null,object_04a.png,object_02b.png,,,,,,,,,,,,,,,,,,,,,
null,,rt_plussign_withcolor4,1455570,,,,,,,,green,,,null,object_04a.png,object_02b.png,,,,,,,,,,,,,,,,,,,,,
1447.9999999997672,,rt_thecrossant_black4,1456640,,,,,,,,black_plus_sign,,,50,,,1,,,,,,,1,,,,,,,,,,,,,
null,,color_black4,1456748,,,,,,,,black_plus_sign,,,null,,,,,,,,,,,,,,,,,,,,,,,
null,,learn_phase(without_color)4,1460256,,,,,,,,black_plus_sign,,,null,object_03a.png,object_02a.png,,,,,,,,,,,,,,,,,,,,,
null,,black_cross(without_color)4,1461208,,,,,,,,green,,,null,object_03a.png,object_02a.png,,,,,,,,,,,,,,,,,,,,,
null,,rt_plussign_withcolor4,1461711,,,,,,,,green,,,null,object_03a.png,object_02a.png,,,,,,,,,,,,,,,,,,,,,
1359.0000000002328,,rt_thecrossant_black4,1462774,,,,,,,,black_plus_sign,,,50,,,1,,,,,,,1,,,,,,,,,,,,,
null,,color_black4,1462881,,,,,,,,black_plus_sign,,,null,,,,,,,,,,,,,,,,,,,,,,,
null,,learn_phase(without_color)4,1466389,,,,,,,,black_plus_sign,,,null,object_08c.png,object_09b.png,,,,,,,,,,,,,,,,,,,,,
null,,black_cross(without_color)4,1466930,,,,,,,,green,,,null,object_08c.png,object_09b.png,,,,,,,,,,,,,,,,,,,,,
null,,rt_plussign_withcolor4,1467433,,,,,,,,green,,,null,object_08c.png,object_09b.png,,,,,,,,,,,,,,,,,,,,,
1255,,rt_thecrossant_black4,1468909,,,,,,,,black_plus_sign,,,50,,,1,,,,,,,1,,,,,,,,,,,,,
null,,color_black4,1469016,,,,,,,,black_plus_sign,,,null,,,,,,,,,,,,,,,,,,,,,,,
null,,learn_phase(without_color)4,1472526,,,,,,,,black_plus_sign,,,null,object_07c.png,object_08b.png,,,,,,,,,,,,,,,,,,,,,
null,,black_cross(without_color)4,1473019,,,,,,,,green,,,null,object_07c.png,object_08b.png,,,,,,,,,,,,,,,,,,,,,
null,,rt_plussign_withcolor4,1473523,,,,,,,,green,,,null,object_07c.png,object_08b.png,,,,,,,,,,,,,,,,,,,,,
840.9999999997672,,rt_thecrossant_black4,1475044,,,,,,,,black_plus_sign,,,50,,,1,,,,,,,1,,,,,,,,,,,,,
null,,color_black4,1475152,,,,,,,,black_plus_sign,,,null,,,,,,,,,,,,,,,,,,,,,,,
null,,learn_phase(without_color)4,1478660,,,,,,,,black_plus_sign,,,null,object_05b.png,object_03c.png,,,,,,,,,,,,,,,,,,,,,
null,,black_cross(without_color)4,1479558,,,,,,,,green,,,null,object_05b.png,object_03c.png,,,,,,,,,,,,,,,,,,,,,
null,,rt_plussign_withcolor4,1480061,,,,,,,,green,,,null,object_05b.png,object_03c.png,,,,,,,,,,,,,,,,,,,,,
1097.9999999997672,,rt_thecrossant_black4,1481179,,,,,,,,black_plus_sign,,,50,,,1,,,,,,,1,,,,,,,,,,,,,
null,,color_black4,1481286,,,,,,,,black_plus_sign,,,null,,,,,,,,,,,,,,,,,,,,,,,
null,,learn_phase(without_color)4,1484796,,,,,,,,black_plus_sign,,,null,object_14c.png,object_14b.png,,,,,,,,,,,,,,,,,,,,,
null,,black_cross(without_color)4,1485429,,,,,,,,green,,,null,object_14c.png,object_14b.png,,,,,,,,,,,,,,,,,,,,,
null,,rt_plussign_withcolor4,1485932,,,,,,,,green,,,null,object_14c.png,object_14b.png,,,,,,,,,,,,,,,,,,,,,
1707,,rt_thecrossant_black4,1487314,,,,,,,,black_plus_sign,,,50,,,1,,,,,,,1,,,,,,,,,,,,,
null,,color_black4,1487422,,,,,,,,black_plus_sign,,,null,,,,,,,,,,,,,,,,,,,,,,,
null,,learn_phase(without_color)4,1490931,,,,,,,,black_plus_sign,,,null,object_13a.png,object_14a.png,,,,,,,,,,,,,,,,,,,,,
null,,black_cross(without_color)4,1491879,,,,,,,,green,,,null,object_13a.png,object_14a.png,,,,,,,,,,,,,,,,,,,,,
null,,rt_plussign_withcolor4,1492383,,,,,,,,green,,,null,object_13a.png,object_14a.png,,,,,,,,,,,,,,,,,,,,,
1126,,rt_thecrossant_black4,1493449,,,,,,,,black_plus_sign,,,50,,,1,,,,,,,1,,,,,,,,,,,,,
null,,color_black4,1493556,,,,,,,,black_plus_sign,,,null,,,,,,,,,,,,,,,,,,,,,,,
null,,learn_phase(without_color)4,1497065,,,,,,,,black_plus_sign,,,null,object_09a.png,object_09b.png,,,,,,,,,,,,,,,,,,,,,
null,,black_cross(without_color)4,1497713,,,,,,,,green,,,null,object_09a.png,object_09b.png,,,,,,,,,,,,,,,,,,,,,
null,,rt_plussign_withcolor4,1498217,,,,,,,,green,,,null,object_09a.png,object_09b.png,,,,,,,,,,,,,,,,,,,,,
1263,,rt_thecrossant_black4,1499585,,,,,,,,black_plus_sign,,,50,,,1,,,,,,,1,,,,,,,,,,,,,
null,,color_black4,1499692,,,,,,,,black_plus_sign,,,null,,,,,,,,,,,,,,,,,,,,,,,
null,,learn_phase(without_color)4,1503200,,,,,,,,black_plus_sign,,,null,object_01c.png,object_15a.png,,,,,,,,,,,,,,,,,,,,,
null,,black_cross(without_color)4,1504028,,,,,,,,blue,,,null,object_01c.png,object_15a.png,,,,,,,,,,,,,,,,,,,,,
null,,rt_plussign_withcolor4,1504532,,,,,,,,blue,,,null,object_01c.png,object_15a.png,,,,,,,,,,,,,,,,,,,,,
1407,,rt_thecrossant_black4,1505719,,,,,,,,black_plus_sign,,,49,,,1,,,,,,,1,,,,,,,,,,,,,
null,,color_black4,1505827,,,,,,,,black_plus_sign,,,null,,,,,,,,,,,,,,,,,,,,,,,
null,,learn_phase(without_color)4,1509336,,,,,,,,black_plus_sign,,,null,object_04b.png,object_04c.png,,,,,,,,,,,,,,,,,,,,,
null,,black_cross(without_color)4,1510186,,,,,,,,blue,,,null,object_04b.png,object_04c.png,,,,,,,,,,,,,,,,,,,,,
null,,rt_plussign_withcolor4,1510690,,,,,,,,blue,,,null,object_04b.png,object_04c.png,,,,,,,,,,,,,,,,,,,,,
1152,,rt_thecrossant_black4,1511855,,,,,,,,black_plus_sign,,,49,,,1,,,,,,,1,,,,,,,,,,,,,
null,,color_black4,1511962,,,,,,,,black_plus_sign,,,null,,,,,,,,,,,,,,,,,,,,,,,
null,,learn_phase(without_color)4,1515471,,,,,,,,black_plus_sign,,,null,object_11b.png,object_10b.png,,,,,,,,,,,,,,,,,,,,,
null,,black_cross(without_color)4,1516105,,,,,,,,green,,,null,object_11b.png,object_10b.png,,,,,,,,,,,,,,,,,,,,,
null,,rt_plussign_withcolor4,1516608,,,,,,,,green,,,null,object_11b.png,object_10b.png,,,,,,,,,,,,,,,,,,,,,
942,,rt_thecrossant_black4,1517989,,,,,,,,black_plus_sign,,,50,,,1,,,,,,,1,,,,,,,,,,,,,
null,,color_black4,1518096,,,,,,,,black_plus_sign,,,null,,,,,,,,,,,,,,,,,,,,,,,
null,,learn_phase(without_color)4,1521605,,,,,,,,black_plus_sign,,,null,object_11b.png,object_11a.png,,,,,,,,,,,,,,,,,,,,,
null,,black_cross(without_color)4,1522597,,,,,,,,green,,,null,object_11b.png,object_11a.png,,,,,,,,,,,,,,,,,,,,,
null,,rt_plussign_withcolor4,1523100,,,,,,,,green,,,null,object_11b.png,object_11a.png,,,,,,,,,,,,,,,,,,,,,
null,,rt_thecrossant_black4,1524124,,,,,,,,black_plus_sign,,,null,,,,,,,,,,1,,,,,,,,,,,,,
null,,warning_page,1529133,,,,,,,,warning,,,null,,,,,,,,,,,,,,,,,,,,,,,
null,,color_black4,1529237,,,,,,,,black_plus_sign,,,null,,,,,,,,,,,,,,,,,,,,,,,
null,,learn_phase(without_color)4,1532744,,,,,,,,black_plus_sign,,,null,object_12c.png,object_13b.png,,,,,,,,,,,,,,,,,,,,,
null,,black_cross(without_color)4,1533280,,,,,,,,blue,,,null,object_12c.png,object_13b.png,,,,,,,,,,,,,,,,,,,,,
null,,rt_plussign_withcolor4,1533784,,,,,,,,blue,,,null,object_12c.png,object_13b.png,,,,,,,,,,,,,,,,,,,,,
1752,,rt_thecrossant_black4,1535263,,,,,,,,black_plus_sign,,,49,,,1,,,,,,,1,,,,,,,,,,,,,
null,,color_black4,1535370,,,,,,,,black_plus_sign,,,null,,,,,,,,,,,,,,,,,,,,,,,
null,,learn_phase(without_color)4,1538879,,,,,,,,black_plus_sign,,,null,object_02c.png,object_01c.png,,,,,,,,,,,,,,,,,,,,,
null,,black_cross(without_color)4,1539479,,,,,,,,blue,,,null,object_02c.png,object_01c.png,,,,,,,,,,,,,,,,,,,,,
null,,rt_plussign_withcolor4,1539983,,,,,,,,blue,,,null,object_02c.png,object_01c.png,,,,,,,,,,,,,,,,,,,,,
794.9999999997672,,rt_thecrossant_black4,1541400,,,,,,,,black_plus_sign,,,49,,,1,,,,,,,1,,,,,,,,,,,,,
null,,color_black4,1541508,,,,,,,,black_plus_sign,,,null,,,,,,,,,,,,,,,,,,,,,,,
null,,learn_phase(without_color)4,1545017,,,,,,,,black_plus_sign,,,null,object_10c.png,object_10a.png,,,,,,,,,,,,,,,,,,,,,
null,,black_cross(without_color)4,1546030,,,,,,,,green,,,null,object_10c.png,object_10a.png,,,,,,,,,,,,,,,,,,,,,
null,,rt_plussign_withcolor4,1546534,,,,,,,,green,,,null,object_10c.png,object_10a.png,,,,,,,,,,,,,,,,,,,,,
718,,rt_thecrossant_black4,1547536,,,,,,,,black_plus_sign,,,50,,,1,,,,,,,1,,,,,,,,,,,,,
null,,color_black4,1547643,,,,,,,,black_plus_sign,,,null,,,,,,,,,,,,,,,,,,,,,,,
null,,learn_phase(without_color)4,1551153,,,,,,,,black_plus_sign,,,null,object_15b.png,object_14c.png,,,,,,,,,,,,,,,,,,,,,
null,,black_cross(without_color)4,1551855,,,,,,,,green,,,null,object_15b.png,object_14c.png,,,,,,,,,,,,,,,,,,,,,
null,,rt_plussign_withcolor4,1552360,,,,,,,,green,,,null,object_15b.png,object_14c.png,,,,,,,,,,,,,,,,,,,,,
1563.9999999997672,,rt_thecrossant_black4,1553675,,,,,,,,black_plus_sign,,,50,,,1,,,,,,,1,,,,,,,,,,,,,
null,,color_black4,1553783,,,,,,,,black_plus_sign,,,null,,,,,,,,,,,,,,,,,,,,,,,
null,,learn_phase(without_color)4,1557292,,,,,,,,black_plus_sign,,,null,object_05a.png,object_03b.png,,,,,,,,,,,,,,,,,,,,,
null,,black_cross(without_color)4,1558397,,,,,,,,green,,,null,object_05a.png,object_03b.png,,,,,,,,,,,,,,,,,,,,,
null,,rt_plussign_withcolor4,1558902,,,,,,,,green,,,null,object_05a.png,object_03b.png,,,,,,,,,,,,,,,,,,,,,
812,,rt_thecrossant_black4,1559812,,,,,,,,black_plus_sign,,,50,,,1,,,,,,,1,,,,,,,,,,,,,
null,,color_black4,1559921,,,,,,,,black_plus_sign,,,null,,,,,,,,,,,,,,,,,,,,,,,
null,,learn_phase(without_color)4,1563431,,,,,,,,black_plus_sign,,,null,object_12b.png,object_15c.png,,,,,,,,,,,,,,,,,,,,,
null,,black_cross(without_color)4,1564204,,,,,,,,green,,,null,object_12b.png,object_15c.png,,,,,,,,,,,,,,,,,,,,,
null,,rt_plussign_withcolor4,1564708,,,,,,,,green,,,null,object_12b.png,object_15c.png,,,,,,,,,,,,,,,,,,,,,
1899,,rt_thecrossant_black4,1565952,,,,,,,,black_plus_sign,,,50,,,1,,,,,,,1,,,,,,,,,,,,,
null,,color_black4,1566059,,,,,,,,black_plus_sign,,,null,,,,,,,,,,,,,,,,,,,,,,,
null,,learn_phase(without_color)4,1569569,,,,,,,,black_plus_sign,,,null,object_13c.png,object_05a.png,,,,,,,,,,,,,,,,,,,,,
null,,black_cross(without_color)4,1570570,,,,,,,,blue,,,null,object_13c.png,object_05a.png,,,,,,,,,,,,,,,,,,,,,
null,,rt_plussign_withcolor4,1571074,,,,,,,,blue,,,null,object_13c.png,object_05a.png,,,,,,,,,,,,,,,,,,,,,
1075,,rt_thecrossant_black4,1572090,,,,,,,,black_plus_sign,,,49,,,1,,,,,,,1,,,,,,,,,,,,,
null,,color_black4,1572198,,,,,,,,black_plus_sign,,,null,,,,,,,,,,,,,,,,,,,,,,,
null,,learn_phase(without_color)4,1575708,,,,,,,,black_plus_sign,,,null,object_01a.png,object_04a.png,,,,,,,,,,,,,,,,,,,,,
null,,black_cross(without_color)4,1576510,,,,,,,,blue,,,null,object_01a.png,object_04a.png,,,,,,,,,,,,,,,,,,,,,
null,,rt_plussign_withcolor4,1577015,,,,,,,,blue,,,null,object_01a.png,object_04a.png,,,,,,,,,,,,,,,,,,,,,
1459,,rt_thecrossant_black4,1578229,,,,,,,,black_plus_sign,,,49,,,1,,,,,,,1,,,,,,,,,,,,,
null,,color_black4,1578338,,,,,,,,black_plus_sign,,,null,,,,,,,,,,,,,,,,,,,,,,,
null,,learn_phase(without_color)4,1581848,,,,,,,,black_plus_sign,,,null,object_06a.png,object_05b.png,,,,,,,,,,,,,,,,,,,,,
null,,black_cross(without_color)4,1582429,,,,,,,,blue,,,null,object_06a.png,object_05b.png,,,,,,,,,,,,,,,,,,,,,
null,,rt_plussign_withcolor4,1582933,,,,,,,,blue,,,null,object_06a.png,object_05b.png,,,,,,,,,,,,,,,,,,,,,
1143,,rt_thecrossant_black4,1584366,,,,,,,,black_plus_sign,,,49,,,1,,,,,,,1,,,,,,,,,,,,,
null,,color_black4,1584473,,,,,,,,black_plus_sign,,,null,,,,,,,,,,,,,,,,,,,,,,,
null,,learn_phase(without_color)4,1587982,,,,,,,,black_plus_sign,,,null,object_07b.png,object_04b.png,,,,,,,,,,,,,,,,,,,,,
null,,black_cross(without_color)4,1588888,,,,,,,,green,,,null,object_07b.png,object_04b.png,,,,,,,,,,,,,,,,,,,,,
422,,rt_plussign_withcolor4,1589392,,,,,,,,green,,,50,object_07b.png,object_04b.png,,,,,,,,,,,,,,,,,,,,,
null,,rt_thecrossant_black4,1590501,,,,,,,,black_plus_sign,,,null,,,1,,,,,,,1,,,,,,,,,,,,,
null,,color_black4,1590608,,,,,,,,black_plus_sign,,,null,,,,,,,,,,,,,,,,,,,,,,,
null,,thebreak,1590717,,,,,,,,<p></p>,,,null,,,,,,,,,,,,,,,,,,,,,,,
1948.9999999997672,,intro_0,1592671,,,,,,,,instruct,,,32,,,,,,,,,,,,,,,,,,,,,,,
4062.999999999767,,directmemory_phase4,1596736,,,,,,,,object_03c.png,,,50,,,0,,object_13b.png,object_08c.png,object_05b.png,object_05b.png,,0.6593406593406593,,0,,,,,,,,,,,
4691,,directmemory_phase4,1601434,,,,,,,,object_12c.png,,,50,,,0,,object_14a.png,object_13c.png,object_13b.png,object_13b.png,,0.6521739130434783,,0,,,,,,,,,,,
3883.999999999767,,directmemory_phase4,1605327,,,,,,,,object_11a.png,,,50,,,1,,object_01b.png,object_11b.png,object_12b.png,object_11b.png,,0.6559139784946236,,1,,,,,,,,,,,
3313,,directmemory_phase4,1608649,,,,,,,,object_06b.png,,,49,,,1,,object_07a.png,object_07b.png,object_13b.png,object_07a.png,,0.6595744680851063,,1,,,,,,,,,,,
3209,,directmemory_phase4,1611868,,,,,,,,object_12a.png,,,51,,,1,,object_05a.png,object_03c.png,object_13b.png,object_13b.png,,0.6631578947368421,,1,,,,,,,,,,,
3582,,directmemory_phase4,1615459,,,,,,,,object_05c.png,,,50,,,0,,object_04b.png,object_14b.png,object_02a.png,object_02a.png,,0.65625,,0,,,,,,,,,,,
2546,,directmemory_phase4,1618013,,,,,,,,object_02c.png,,,49,,,0,,object_09a.png,object_01c.png,object_09b.png,object_01c.png,,0.6494845360824743,,0,,,,,,,,,,,
3423,,directmemory_phase4,1621443,,,,,,,,object_07b.png,,,49,,,1,,object_04b.png,object_01c.png,object_07a.png,object_04b.png,,0.6530612244897959,,1,,,,,,,,,,,
2556,,directmemory_phase4,1624004,,,,,,,,object_10b.png,,,51,,,1,,object_10a.png,object_10c.png,object_11b.png,object_11b.png,,0.6565656565656566,,1,,,,,,,,,,,
4276.999999999767,,directmemory_phase4,1628287,,,,,,,,object_10a.png,,,51,,,0,,object_02a.png,object_10c.png,object_08b.png,object_10c.png,,0.65,,0,,,,,,,,,,,
2033,,directmemory_phase4,1630327,,,,,,,,object_01a.png,,,51,,,1,,object_10a.png,object_06c.png,object_04a.png,object_04a.png,,0.6534653465346535,,1,,,,,,,,,,,
1989,,directmemory_phase4,1632325,,,,,,,,object_09a.png,,,51,,,1,,object_14c.png,object_12c.png,object_09b.png,object_09b.png,,0.6568627450980392,,1,,,,,,,,,,,
5095,,directmemory_phase4,1637429,,,,,,,,object_08c.png,,,49,,,1,,object_09b.png,object_01c.png,object_05c.png,object_09b.png,,0.6601941747572816,,1,,,,,,,,,,,
3151,,directmemory_phase4,1640586,,,,,,,,object_14c.png,,,51,,,1,,object_12c.png,object_12b.png,object_15b.png,object_15b.png,,0.6634615384615384,,1,,,,,,,,,,,
1824,,directmemory_phase4,1642416,,,,,,,,object_05b.png,,,49,,,1,,object_06a.png,object_09a.png,object_12b.png,object_06a.png,,0.6666666666666666,,1,,,,,,,,,,,
2815,,directmemory_phase4,1645239,,,,,,,,object_01b.png,,,50,,,1,,object_05c.png,object_12b.png,object_10a.png,object_12b.png,,0.6698113207547169,,1,,,,,,,,,,,
4091,,directmemory_phase4,1649339,,,,,,,,object_08a.png,,,51,,,1,,object_09b.png,object_11c.png,object_07c.png,object_07c.png,,0.6728971962616822,,1,,,,,,,,,,,
2176,,directmemory_phase4,1651523,,,,,,,,object_11c.png,,,50,,,1,,object_08c.png,object_14a.png,object_01c.png,object_14a.png,,0.6759259259259259,,1,,,,,,,,,,,
3467,,directmemory_phase4,1654998,,,,,,,,object_03b.png,,,51,,,1,,object_04a.png,object_09c.png,object_05a.png,object_05a.png,,0.6788990825688074,,1,,,,,,,,,,,
2960,,directmemory_phase4,1657968,,,,,,,,object_03a.png,,,51,,,1,,object_04b.png,object_13a.png,object_02a.png,object_02a.png,,0.6818181818181818,,1,,,,,,,,,,,
3623,,directmemory_phase4,1661599,,,,,,,,object_04a.png,,,50,,,0,,object_09a.png,object_14c.png,object_02b.png,object_02b.png,,0.6756756756756757,,0,,,,,,,,,,,
2747,,directmemory_phase4,1664355,,,,,,,,object_09c.png,,,51,,,1,,object_01c.png,object_04c.png,object_10a.png,object_10a.png,,0.6785714285714286,,1,,,,,,,,,,,
3864,,directmemory_phase4,1668227,,,,,,,,object_12b.png,,,50,,,0,,object_15c.png,object_13c.png,object_04b.png,object_15c.png,,0.672566371681416,,0,,,,,,,,,,,
1691,,directmemory_phase4,1669928,,,,,,,,object_07c.png,,,49,,,1,,object_08b.png,object_13c.png,object_04a.png,object_08b.png,,0.6754385964912281,,1,,,,,,,,,,,
3825.000000000233,,directmemory_phase4,1673760,,,,,,,,object_14b.png,,,50,,,0,,object_06b.png,object_03c.png,object_14c.png,object_14c.png,,0.6695652173913044,,0,,,,,,,,,,,
3093,,directmemory_phase4,1676862,,,,,,,,object_15a.png,,,50,,,1,,object_08a.png,object_01c.png,object_12b.png,object_01c.png,,0.6724137931034483,,1,,,,,,,,,,,
2983,,directmemory_phase4,1679854,,,,,,,,object_06c.png,,,51,,,0,,object_06b.png,object_02a.png,object_12a.png,object_06b.png,,0.6666666666666666,,0,,,,,,,,,,,
4768,,directmemory_phase4,1684631,,,,,,,,object_13c.png,,,51,,,1,,object_05b.png,object_10c.png,object_05a.png,object_05a.png,,0.6694915254237288,,1,,,,,,,,,,,
3445,,directmemory_phase4,1688084,,,,,,,,object_14a.png,,,50,,,0,,object_12c.png,object_05b.png,object_13a.png,object_13a.png,,0.6638655462184874,,0,,,,,,,,,,,
4541,,directmemory_phase4,1692634,,,,,,,,object_04c.png,,,49,,,0,,object_01c.png,object_01b.png,object_04b.png,object_04b.png,,0.6583333333333333,,0,,,,,,,,,,,
null,,thebreak,1692744,,,,,,,,<p></p>,,,null,,,,,,,,,,,,,,,,,,,,,,,
4041.000000000233,,intro_0,1696790,,,,,,,,instruct,,,32,,,,,,,,,,,,,,,,,,,,,,,
11827,,intro_1,1708621,,,,,,,,instruct,,,32,,,,,,,,,,,,,,,,,,,,,,,
4115,,intro_2,1712738,,,,,,,,instruct,,,32,,,,,,,,,,,,,,,,,,,,,,,
,,intro_3,1736918,,,,,,,,instruct,,,,,,,,,,,,,,,,,,,,,,,,,,
5161,,intro_4,1742084,,,,,,,,instruct,,,32,,,,,,,,,,,,,,,,,,,,,,,
6118.999999999767,,inference_phase,1748207,,,,,,,,object_09a.png,,,50,object_08c.png,object_06c.png,0,,,,,object_08c.png,,0,,,object_04b.png,,,,,,,,,,
3767,,inference_phase,1751984,,,,,,,,object_03a.png,,,51,object_05c.png,object_15a.png,0,,,,,object_05c.png,,0,,,object_06b.png,,,,,,,,,,
3948.999999999767,,inference_phase,1755941,,,,,,,,object_02c.png,,,51,object_08c.png,object_06b.png,0,,,,,object_15a.png,,0,,,object_15a.png,,,,,,,,,,
3618,,inference_phase,1759568,,,,,,,,object_01a.png,,,50,object_14c.png,object_07a.png,1,,,,,object_02b.png,,0.25,,,object_02b.png,,,,,,,,,,
3101,,inference_phase,1762678,,,,,,,,object_07b.png,,,51,object_03b.png,object_01c.png,0,,,,,object_04c.png,,0.2,,,object_04c.png,,,,,,,,,,
2897,,inference_phase,1765579,,,,,,,,object_13a.png,,,49,object_11c.png,object_01a.png,1,,,,,object_11c.png,,0.3333333333333333,,,object_05a.png,,,,,,,,,,
3813,,inference_phase,1769400,,,,,,,,object_06c.png,,,50,object_07a.png,object_07b.png,0,,,,,object_07a.png,,0.2857142857142857,,,object_05a.png,,,,,,,,,,
2140.999999999767,,inference_phase,1771549,,,,,,,,object_03b.png,,,51,object_09b.png,object_15b.png,0,,,,,object_13c.png,,0.25,,,object_13c.png,,,,,,,,,,
2894,,inference_phase,1774455,,,,,,,,object_12a.png,,,50,object_12c.png,object_10c.png,0,,,,,object_12c.png,,0.2222222222222222,,,object_01c.png,,,,,,,,,,
6071,,inference_phase,1780535,,,,,,,,object_08b.png,,,50,object_08a.png,object_03b.png,0,,,,,object_08a.png,,0.2,,,object_04b.png,,,,,,,,,,
4010,,inference_phase,1784554,,,,,,,,object_06a.png,,,50,object_03c.png,object_03b.png,0,,,,,object_03c.png,,0.18181818181818182,,,object_14c.png,,,,,,,,,,
2840.999999999767,,inference_phase,1787404,,,,,,,,object_01b.png,,,50,object_10a.png,object_15c.png,0,,,,,object_15c.png,,0.16666666666666666,,,object_10c.png,,,,,,,,,,
2985,,inference_phase,1790397,,,,,,,,object_10c.png,,,49,object_08c.png,object_07c.png,0,,,,,object_09c.png,,0.15384615384615385,,,object_09c.png,,,,,,,,,,
2456,,inference_phase,1792861,,,,,,,,object_11a.png,,,50,object_04a.png,object_10b.png,0,,,,,object_10b.png,,0.14285714285714285,,,object_03a.png,,,,,,,,,,
5106,,inference_phase,1797976,,,,,,,,object_15b.png,,,51,object_05c.png,object_14b.png,1,,,,,object_14b.png,,0.2,,,object_02a.png,,,,,,,,,,
,,survey,1901127,,,,,,,,survey-questions,,,,,,,,,,,,,,,,,,high,I wasn't doing anything else,I tried to think of similar colors or shapes and what they would do with each other.,no,never,It was a bit frustrating because after awhile most of the objects looked quite similar,,,
23994,,thank_you,1925147,,,,,,,,<p> Congratulations, you are all done!</p><p> <strong>Please click space on your keyboard to end the experiment!</strong> The secret code to enter at the beginning screen is: <strong>CIMBPENS</strong></p><p> Please make sure to submit the HIT and email uciccnl@gmail.com if you had any issues! </p><br><p>Please remember to submit this data by clicking space after copying the code. Failure of submission will lead to in-complete payment</p>,,,32,,,,,,,,,,,,,,,,,,,,,0,3,C78LSMTN
