rt,responses,trial_type,time_elapsed,identifier_a,identifier_b,identifier_c,stimulus,button_pressed,response,key_press,stimulus_left,stimulus_right,accuracy,practice_cumulative_accuracy,stimulus_down_left,stimulus_down_mid,stimulus_down_right,stimulus_correct,prac_weighted_accuracy,cumulative_accuracy,failed_practice,weighted_accuracy
31001.899999976158,{worker_id:67d053b55efc87df118e929c},id_enter,31009,object_08a.png; object_12c.png; object_13c.png; object_14b.png; object_12a.png; object_13a.png; object_01c.png; object_06a.png; object_15b.png; object_04b.png; object_06b.png; object_08b.png; object_04a.png; object_03c.png; object_05b.png,object_09c.png; object_02c.png; object_06c.png; object_05a.png; object_11a.png; object_07b.png; object_09b.png; object_08c.png; object_10b.png; object_13b.png; object_01b.png; object_05c.png; object_02b.png; object_14c.png; object_07a.png,object_09a.png; object_15a.png; object_10a.png; object_12b.png; object_03b.png; object_15c.png; object_11c.png; object_01a.png; object_10c.png; object_03a.png; object_11b.png; object_07c.png; object_02a.png; object_04c.png; object_14a.png,,,,,,,,,,,,,,,,
23045,,make_fullscreen,54063,,,,fullscreen,0,,,,,,,,,,,,,,
13645.700000047684,,instruct_1,67710,,,,instruct,0,Next,,,,,,,,,,,,,
63502,,instruct_2,131214,,,,instruct,1,Next,,,,,,,,,,,,,
41598.30000001192,,instruct_3,172814,,,,instruct,1,Next,,,,,,,,,,,,,
74510,,instruct_4,247326,,,,instruct,1,Next,,,,,,,,,,,,,
27358.5,,instruct_5,274685,,,,instruct,1,Next,,,,,,,,,,,,,
7566.900000035763,,instruct_6,282254,,,,instruct,1,Next,,,,,,,,,,,,,
72710.10000002384,,instruct_7,354965,,,,instruct,1,Next,,,,,,,,,,,,,
null,,prac_atten_color_black,355920,,,,black_plus_sign,,,null,,,,,,,,,,,,
null,,prac_atten_color,356374,,,,<p style='position:absolute;top: 50%;right: 50%;transform: translate(50%, -50%);font-size: 125px;color: blue;'>+</p>,,,null,,,,,,,,,,,,
292.5,,prac_atten_color_black,358378,,,,black_plus_sign,,,49,,,,,,,,,,,,
null,,prac_atten_color_black,359333,,,,black_plus_sign,,,null,,,,,,,,,,,,
564.6000000238419,,prac_atten_color,360225,,,,<p style='position:absolute;top: 50%;right: 50%;transform: translate(50%, -50%);font-size: 125px;color: green;'>+</p>,,,50,,,,,,,,,,,,
null,,prac_atten_color_black,362228,,,,black_plus_sign,,,null,,,,,,,,,,,,
null,,prac_atten_color_black,362742,,,,black_plus_sign,,,null,,,,,,,,,,,,
724,,prac_atten_color,363769,,,,<p style='position:absolute;top: 50%;right: 50%;transform: translate(50%, -50%);font-size: 125px;color: green;'>+</p>,,,50,,,,,,,,,,,,
null,,prac_atten_color_black,365773,,,,black_plus_sign,,,null,,,,,,,,,,,,
null,,prac_atten_color_black,366154,,,,black_plus_sign,,,null,,,,,,,,,,,,
null,,prac_atten_color,366840,,,,<p style='position:absolute;top: 50%;right: 50%;transform: translate(50%, -50%);font-size: 125px;color: blue;'>+</p>,,,null,,,,,,,,,,,,
229.30000001192093,,prac_atten_color_black,368842,,,,black_plus_sign,,,49,,,,,,,,,,,,
null,,prac_atten_color_black,369563,,,,black_plus_sign,,,null,,,,,,,,,,,,
501.5,,prac_atten_color,370409,,,,<p style='position:absolute;top: 50%;right: 50%;transform: translate(50%, -50%);font-size: 125px;color: green;'>+</p>,,,50,,,,,,,,,,,,
null,,prac_atten_color_black,372413,,,,black_plus_sign,,,null,,,,,,,,,,,,
null,,prac_atten_color_black,372973,,,,black_plus_sign,,,null,,,,,,,,,,,,
601.1999999880791,,prac_atten_color,373654,,,,<p style='position:absolute;top: 50%;right: 50%;transform: translate(50%, -50%);font-size: 125px;color: green;'>+</p>,,,50,,,,,,,,,,,,
null,,prac_atten_color_black,375657,,,,black_plus_sign,,,null,,,,,,,,,,,,
null,,prac_atten_color_black,376382,,,,black_plus_sign,,,null,,,,,,,,,,,,
408.39999997615814,,prac_atten_color,377111,,,,<p style='position:absolute;top: 50%;right: 50%;transform: translate(50%, -50%);font-size: 125px;color: blue;'>+</p>,,,49,,,,,,,,,,,,
null,,prac_atten_color_black,379114,,,,black_plus_sign,,,null,,,,,,,,,,,,
null,,prac_atten_color_black,379791,,,,black_plus_sign,,,null,,,,,,,,,,,,
null,,prac_atten_color,380281,,,,<p style='position:absolute;top: 50%;right: 50%;transform: translate(50%, -50%);font-size: 125px;color: green;'>+</p>,,,null,,,,,,,,,,,,
18.399999976158142,,prac_atten_color_black,382284,,,,black_plus_sign,,,50,,,,,,,,,,,,
null,,prac_atten_color_black,383201,,,,black_plus_sign,,,null,,,,,,,,,,,,
634.8000000119209,,prac_atten_color,384202,,,,<p style='position:absolute;top: 50%;right: 50%;transform: translate(50%, -50%);font-size: 125px;color: blue;'>+</p>,,,49,,,,,,,,,,,,
null,,prac_atten_color_black,386205,,,,black_plus_sign,,,null,,,,,,,,,,,,
null,,prac_atten_color_black,386611,,,,black_plus_sign,,,null,,,,,,,,,,,,
null,,prac_atten_color,387120,,,,<p style='position:absolute;top: 50%;right: 50%;transform: translate(50%, -50%);font-size: 125px;color: blue;'>+</p>,,,null,,,,,,,,,,,,
70.5,,prac_atten_color_black,389123,,,,black_plus_sign,,,49,,,,,,,,,,,,
24929,,attentioncheck_feedback,414054,,,,cross_check_feedback,0,,,,,,,,,,,,,,
44580.89999997616,,last_instruct,458637,,,,instruct,,,32,,,,,,,,,,,,
null,,prac_learn_phase(without_color),462141,,,,black_plus_sign,,,null,object_13a.png,object_07b.png,,,,,,,,,,
null,,prac_black_cross(without_color),463139,,,,green,,,null,object_13a.png,object_07b.png,,,,,,,,,,
null,,prac_rt_plussign_withcolor,463642,,,,green,,,null,object_13a.png,object_07b.png,,,,,,,,,,
1331.6000000238419,,prac_rt_thecrossant_black,464651,,,,black_plus_sign,,,50,,,1,1,,,,,,,,
null,,prac_color_black,464755,,,,black_plus_sign,,,null,,,,,,,,,,,,
null,,prac_learn_phase(without_color),468259,,,,black_plus_sign,,,null,object_08a.png,object_09c.png,,,,,,,,,,
null,,black_cross(without_color)1,469307,,,,green,,,null,object_13a.png,object_07b.png,,,,,,,,,,
null,,prac_rt_plussign_withcolor,469810,,,,blue,,,null,object_08a.png,object_09c.png,,,,,,,,,,
1500.1000000238419,,prac_rt_thecrossant_black,471241,,,,black_plus_sign,,,49,,,1,1,,,,,,,,
null,,prac_color_black,471344,,,,black_plus_sign,,,null,,,,,,,,,,,,
null,,prac_learn_phase(without_color),474848,,,,black_plus_sign,,,null,object_14c.png,object_03c.png,,,,,,,,,,
null,,black_cross(without_color)1,475897,,,,green,,,null,object_13a.png,object_07b.png,,,,,,,,,,
null,,prac_rt_plussign_withcolor,476399,,,,blue,,,null,object_14c.png,object_03c.png,,,,,,,,,,
880.8999999761581,,prac_rt_thecrossant_black,477511,,,,black_plus_sign,,,50,,,0,0.6666666666666666,,,,,,,,
null,,prac_color_black,477614,,,,black_plus_sign,,,null,,,,,,,,,,,,
null,,prac_learn_phase(without_color),481118,,,,black_plus_sign,,,null,object_08b.png,object_05c.png,,,,,,,,,,
null,,black_cross(without_color)1,482167,,,,green,,,null,object_13a.png,object_07b.png,,,,,,,,,,
492.2000000476837,,prac_rt_plussign_withcolor,482669,,,,blue,,,49,object_08b.png,object_05c.png,,,,,,,,,,
null,,prac_rt_thecrossant_black,484051,,,,black_plus_sign,,,null,,,1,0.75,,,,,,,,
null,,prac_color_black,484157,,,,black_plus_sign,,,null,,,,,,,,,,,,
18740.80000001192,,instruct_dir_01,502901,,,,instruct,0,Next,,,,,,,,,,,,,
23974.099999964237,,instruct_dir_2,526877,,,,instruct,1,Next,,,,,,,,,,,,,
8302.599999964237,,instruct_dir_3,535181,,,,instruct,1,Next,,,,,,,,,,,,,
29982.5,,instruct_dir_4,565165,,,,instruct,1,Start,,,,,,,,,,,,,
null,,thebreak,565267,,,,<p></p>,,,null,,,,,,,,,,,,
8256.300000011921,,intro_0,573526,,,,instruct,,,32,,,,,,,,,,,,
null,,prac_directmemory_phase,588530,,,,practice/object_02a.png,,,null,,,0,,practice/object_04a.png,practice/object_02b.png,practice/object_01b.png,practice/object_02b.png,0,0,,
null,,warning_page,593535,,,,warning,,,null,,,,,,,,,,,,
2390.899999976158,,prac_directmemory_phase,595929,,,,practice/object_03a.png,,,49,,,0,,practice/object_02b.png,practice/object_01a.png,practice/object_03b.png,practice/object_03b.png,0,0,,
3855.399999976158,,prac_directmemory_phase,599789,,,,practice/object_04a.png,,,50,,,1,,practice/object_03a.png,practice/object_04b.png,practice/object_02b.png,practice/object_04b.png,1,0.3333333333333333,,
2510.199999988079,,prac_directmemory_phase,602304,,,,practice/object_01a.png,,,49,,,0,,practice/object_03b.png,practice/object_03a.png,practice/object_01b.png,practice/object_01b.png,0,0.25,,
7026.5,,practice_feedback_force_restart,609333,,,,practice_feedback,0,,,,,,,,,,,,,1,
13683.400000035763,,last_instruct,623018,,,,instruct,,,32,,,,,,,,,,,,
null,,prac_learn_phase(without_color),626521,,,,black_plus_sign,,,null,object_13a.png,object_07b.png,,,,,,,,,,
null,,prac_black_cross(without_color),627477,,,,green,,,null,object_13a.png,object_07b.png,,,,,,,,,,
null,,prac_rt_plussign_withcolor,627980,,,,green,,,null,object_13a.png,object_07b.png,,,,,,,,,,
1289.300000011921,,prac_rt_thecrossant_black,629030,,,,black_plus_sign,,,50,,,1,0.8,,,,,,,,
null,,prac_color_black,629133,,,,black_plus_sign,,,null,,,,,,,,,,,,
null,,prac_learn_phase(without_color),632636,,,,black_plus_sign,,,null,object_08a.png,object_09c.png,,,,,,,,,,
null,,black_cross(without_color)1,633685,,,,green,,,null,object_13a.png,object_07b.png,,,,,,,,,,
487.60000002384186,,prac_rt_plussign_withcolor,634186,,,,blue,,,49,object_08a.png,object_09c.png,,,,,,,,,,
null,,prac_rt_thecrossant_black,635121,,,,black_plus_sign,,,null,,,1,0.8333333333333334,,,,,,,,
null,,prac_color_black,635224,,,,black_plus_sign,,,null,,,,,,,,,,,,
null,,prac_learn_phase(without_color),638729,,,,black_plus_sign,,,null,object_14c.png,object_03c.png,,,,,,,,,,
null,,black_cross(without_color)1,639778,,,,green,,,null,object_13a.png,object_07b.png,,,,,,,,,,
null,,prac_rt_plussign_withcolor,640281,,,,blue,,,null,object_14c.png,object_03c.png,,,,,,,,,,
1228.300000011921,,prac_rt_thecrossant_black,641195,,,,black_plus_sign,,,49,,,1,0.8571428571428571,,,,,,,,
null,,prac_color_black,641298,,,,black_plus_sign,,,null,,,,,,,,,,,,
null,,prac_learn_phase(without_color),644801,,,,black_plus_sign,,,null,object_08b.png,object_05c.png,,,,,,,,,,
null,,black_cross(without_color)1,645851,,,,green,,,null,object_13a.png,object_07b.png,,,,,,,,,,
null,,prac_rt_plussign_withcolor,646353,,,,blue,,,null,object_08b.png,object_05c.png,,,,,,,,,,
1284.699999988079,,prac_rt_thecrossant_black,647766,,,,black_plus_sign,,,49,,,1,0.875,,,,,,,,
null,,prac_color_black,647869,,,,black_plus_sign,,,null,,,,,,,,,,,,
6723.800000011921,,instruct_dir_01,654596,,,,instruct,0,Next,,,,,,,,,,,,,
16694.19999998808,,instruct_dir_2,671292,,,,instruct,1,Next,,,,,,,,,,,,,
2902.5,,instruct_dir_3,674196,,,,instruct,1,Next,,,,,,,,,,,,,
3758.5,,instruct_dir_4,677956,,,,instruct,1,Start,,,,,,,,,,,,,
null,,thebreak,678057,,,,<p></p>,,,null,,,,,,,,,,,,
17139.19999998808,,intro_0,695199,,,,instruct,,,32,,,,,,,,,,,,
null,,prac_directmemory_phase,710202,,,,practice/object_02a.png,,,null,,,0,,practice/object_04a.png,practice/object_02b.png,practice/object_01b.png,practice/object_02b.png,0,0,,
null,,warning_page,715206,,,,warning,,,null,,,,,,,,,,,,
5079.800000011921,,prac_directmemory_phase,720288,,,,practice/object_03a.png,,,51,,,1,,practice/object_02b.png,practice/object_01a.png,practice/object_03b.png,practice/object_03b.png,1,0.5,,
6802.300000011921,,prac_directmemory_phase,727094,,,,practice/object_04a.png,,,50,,,1,,practice/object_03a.png,practice/object_04b.png,practice/object_02b.png,practice/object_04b.png,1,0.6666666666666666,,
4089,,prac_directmemory_phase,731188,,,,practice/object_01a.png,,,51,,,1,,practice/object_03b.png,practice/object_03a.png,practice/object_01b.png,practice/object_01b.png,1,0.75,,
5853.699999988079,,practice_feedback,737045,,,,practice_feedback,0,,,,,,,,,,,,,,
4507.800000011921,,last_instruct,741554,,,,instruct,,,32,,,,,,,,,,,,
null,,prac_learn_phase(without_color),745057,,,,black_plus_sign,,,null,object_13a.png,object_07b.png,,,,,,,,,,
null,,prac_black_cross(without_color),745632,,,,green,,,null,object_13a.png,object_07b.png,,,,,,,,,,
null,,prac_rt_plussign_withcolor,746135,,,,green,,,null,object_13a.png,object_07b.png,,,,,,,,,,
null,,prac_rt_thecrossant_black,747566,,,,black_plus_sign,,,null,,,,0.875,,,,,,,,
null,,prac_color_black,747669,,,,black_plus_sign,,,null,,,,,,,,,,,,
null,,prac_learn_phase(without_color),751174,,,,black_plus_sign,,,null,object_08a.png,object_09c.png,,,,,,,,,,
null,,black_cross(without_color)1,752223,,,,green,,,null,object_13a.png,object_07b.png,,,,,,,,,,
null,,prac_rt_plussign_withcolor,752737,,,,blue,,,null,object_08a.png,object_09c.png,,,,,,,,,,
722.6999999880791,,prac_rt_thecrossant_black,753966,,,,black_plus_sign,,,49,,,1,0.8888888888888888,,,,,,,,
null,,prac_color_black,754070,,,,black_plus_sign,,,null,,,,,,,,,,,,
null,,prac_learn_phase(without_color),757573,,,,black_plus_sign,,,null,object_14c.png,object_03c.png,,,,,,,,,,
null,,black_cross(without_color)1,758622,,,,green,,,null,object_13a.png,object_07b.png,,,,,,,,,,
null,,prac_rt_plussign_withcolor,759124,,,,blue,,,null,object_14c.png,object_03c.png,,,,,,,,,,
1063.300000011921,,prac_rt_thecrossant_black,760341,,,,black_plus_sign,,,49,,,1,0.9,,,,,,,,
null,,prac_color_black,760445,,,,black_plus_sign,,,null,,,,,,,,,,,,
null,,prac_learn_phase(without_color),763950,,,,black_plus_sign,,,null,object_08b.png,object_05c.png,,,,,,,,,,
null,,black_cross(without_color)1,764998,,,,green,,,null,object_13a.png,object_07b.png,,,,,,,,,,
null,,prac_rt_plussign_withcolor,765501,,,,blue,,,null,object_08b.png,object_05c.png,,,,,,,,,,
1198.699999988079,,prac_rt_thecrossant_black,767019,,,,black_plus_sign,,,49,,,1,0.9090909090909091,,,,,,,,
null,,prac_color_black,767121,,,,black_plus_sign,,,null,,,,,,,,,,,,
4535.699999988079,,instruct_dir_01,771660,,,,instruct,0,Next,,,,,,,,,,,,,
1774.5999999642372,,instruct_dir_2,773436,,,,instruct,1,Next,,,,,,,,,,,,,
2766.699999988079,,instruct_dir_3,776204,,,,instruct,1,Next,,,,,,,,,,,,,
1742.3999999761581,,instruct_dir_4,777948,,,,instruct,1,Start,,,,,,,,,,,,,
null,,thebreak,778050,,,,<p></p>,,,null,,,,,,,,,,,,
7286.599999964237,,intro_0,785339,,,,instruct,,,32,,,,,,,,,,,,
7799.199999988079,,prac_directmemory_phase,793141,,,,practice/object_02a.png,,,50,,,1,,practice/object_04a.png,practice/object_02b.png,practice/object_01b.png,practice/object_02b.png,1,1,,
3370.199999988079,,prac_directmemory_phase,796515,,,,practice/object_03a.png,,,51,,,1,,practice/object_02b.png,practice/object_01a.png,practice/object_03b.png,practice/object_03b.png,1,1,,
10991.5,,prac_directmemory_phase,807511,,,,practice/object_04a.png,,,50,,,1,,practice/object_03a.png,practice/object_04b.png,practice/object_02b.png,practice/object_04b.png,1,1,,
3202.399999976158,,prac_directmemory_phase,810718,,,,practice/object_01a.png,,,51,,,1,,practice/object_03b.png,practice/object_03a.png,practice/object_01b.png,practice/object_01b.png,1,1,,
7339.600000023842,,practice_feedback,818061,,,,practice_feedback,1,,,,,,,,,,,,,,
24757.299999952316,,proceed_actualTask,842820,,,,proceed_actualTask,1,Continue,,,,,,,,,,,,,
23343.30000001192,,last_inst,866164,,,,last_inst,,,32,,,,,,,,,,,,
null,,learn_phase(without_color)1,869666,,,,black_plus_sign,,,null,object_13a.png,object_07b.png,,,,,,,,,,
null,,black_cross(without_color)1,870715,,,,green,,,null,object_13a.png,object_07b.png,,,,,,,,,,
null,,rt_plussign_withcolor1,871218,,,,green,,,null,object_13a.png,object_07b.png,,,,,,,,,,
null,,rt_thecrossant_black1,872175,,,,black_plus_sign,,,null,,,,,,,,,,NaN,,
null,,color_black1,872278,,,,black_plus_sign,,,null,,,,,,,,,,,,
null,,learn_phase(without_color)1,875783,,,,black_plus_sign,,,null,object_08a.png,object_09c.png,,,,,,,,,,
null,,black_cross(without_color)1,876640,,,,blue,,,null,object_08a.png,object_09c.png,,,,,,,,,,
null,,rt_plussign_withcolor1,877142,,,,blue,,,null,object_08a.png,object_09c.png,,,,,,,,,,
null,,rt_thecrossant_black1,878293,,,,black_plus_sign,,,null,,,,,,,,,,NaN,,
null,,warning_page,883296,,,,warning,,,null,,,,,,,,,,,,
null,,color_black1,883398,,,,black_plus_sign,,,null,,,,,,,,,,,,
null,,learn_phase(without_color)1,886902,,,,black_plus_sign,,,null,object_14c.png,object_03c.png,,,,,,,,,,
null,,black_cross(without_color)1,887428,,,,green,,,null,object_14c.png,object_03c.png,,,,,,,,,,
null,,rt_plussign_withcolor1,887931,,,,green,,,null,object_14c.png,object_03c.png,,,,,,,,,,
1213.8999999761581,,rt_thecrossant_black1,889411,,,,black_plus_sign,,,50,,,1,,,,,,,1,,
null,,color_black1,889515,,,,black_plus_sign,,,null,,,,,,,,,,,,
null,,learn_phase(without_color)1,893019,,,,black_plus_sign,,,null,object_08b.png,object_05c.png,,,,,,,,,,
null,,black_cross(without_color)1,893804,,,,green,,,null,object_08b.png,object_05c.png,,,,,,,,,,
null,,rt_plussign_withcolor1,894307,,,,green,,,null,object_08b.png,object_05c.png,,,,,,,,,,
745.3999999761581,,rt_thecrossant_black1,895527,,,,black_plus_sign,,,50,,,1,,,,,,,1,,
null,,color_black1,895631,,,,black_plus_sign,,,null,,,,,,,,,,,,
null,,learn_phase(without_color)1,899135,,,,black_plus_sign,,,null,object_01c.png,object_09b.png,,,,,,,,,,
null,,black_cross(without_color)1,899795,,,,blue,,,null,object_01c.png,object_09b.png,,,,,,,,,,
null,,rt_plussign_withcolor1,900297,,,,blue,,,null,object_01c.png,object_09b.png,,,,,,,,,,
1028.5999999642372,,rt_thecrossant_black1,901654,,,,black_plus_sign,,,49,,,1,,,,,,,1,,
null,,color_black1,901763,,,,black_plus_sign,,,null,,,,,,,,,,,,
null,,learn_phase(without_color)1,905267,,,,black_plus_sign,,,null,object_11a.png,object_12a.png,,,,,,,,,,
null,,black_cross(without_color)1,905895,,,,blue,,,null,object_11a.png,object_12a.png,,,,,,,,,,
null,,rt_plussign_withcolor1,906398,,,,blue,,,null,object_11a.png,object_12a.png,,,,,,,,,,
945.3000000119209,,rt_thecrossant_black1,907776,,,,black_plus_sign,,,49,,,1,,,,,,,1,,
null,,color_black1,907879,,,,black_plus_sign,,,null,,,,,,,,,,,,
null,,learn_phase(without_color)1,911383,,,,black_plus_sign,,,null,object_02c.png,object_12c.png,,,,,,,,,,
null,,black_cross(without_color)1,911951,,,,blue,,,null,object_02c.png,object_12c.png,,,,,,,,,,
null,,rt_plussign_withcolor1,912454,,,,blue,,,null,object_02c.png,object_12c.png,,,,,,,,,,
980.8999999761581,,rt_thecrossant_black1,913893,,,,black_plus_sign,,,49,,,1,,,,,,,1,,
null,,color_black1,913996,,,,black_plus_sign,,,null,,,,,,,,,,,,
null,,learn_phase(without_color)1,917501,,,,black_plus_sign,,,null,object_02b.png,object_04a.png,,,,,,,,,,
null,,black_cross(without_color)1,917908,,,,blue,,,null,object_02b.png,object_04a.png,,,,,,,,,,
null,,rt_plussign_withcolor1,918411,,,,blue,,,null,object_02b.png,object_04a.png,,,,,,,,,,
927.5,,rt_thecrossant_black1,920011,,,,black_plus_sign,,,49,,,1,,,,,,,1,,
null,,color_black1,920115,,,,black_plus_sign,,,null,,,,,,,,,,,,
null,,learn_phase(without_color)1,923619,,,,black_plus_sign,,,null,object_14b.png,object_05a.png,,,,,,,,,,
null,,black_cross(without_color)1,924399,,,,blue,,,null,object_14b.png,object_05a.png,,,,,,,,,,
null,,rt_plussign_withcolor1,924901,,,,blue,,,null,object_14b.png,object_05a.png,,,,,,,,,,
513.8000000119209,,rt_thecrossant_black1,926128,,,,black_plus_sign,,,49,,,1,,,,,,,1,,
null,,color_black1,926232,,,,black_plus_sign,,,null,,,,,,,,,,,,
null,,learn_phase(without_color)1,929735,,,,black_plus_sign,,,null,object_10b.png,object_15b.png,,,,,,,,,,
null,,black_cross(without_color)1,930746,,,,blue,,,null,object_10b.png,object_15b.png,,,,,,,,,,
412.2000000476837,,rt_plussign_withcolor1,931249,,,,blue,,,49,object_10b.png,object_15b.png,,,,,,,,,,
null,,rt_thecrossant_black1,932245,,,,black_plus_sign,,,null,,,1,,,,,,,1,,
null,,color_black1,932357,,,,black_plus_sign,,,null,,,,,,,,,,,,
null,,learn_phase(without_color)1,935867,,,,black_plus_sign,,,null,object_04b.png,object_13b.png,,,,,,,,,,
null,,black_cross(without_color)1,936437,,,,blue,,,null,object_04b.png,object_13b.png,,,,,,,,,,
null,,rt_plussign_withcolor1,936939,,,,blue,,,null,object_04b.png,object_13b.png,,,,,,,,,,
1166.699999988079,,rt_thecrossant_black1,938375,,,,black_plus_sign,,,49,,,1,,,,,,,1,,
null,,color_black1,938478,,,,black_plus_sign,,,null,,,,,,,,,,,,
null,,learn_phase(without_color)1,941982,,,,black_plus_sign,,,null,object_06b.png,object_01b.png,,,,,,,,,,
null,,black_cross(without_color)1,942499,,,,green,,,null,object_06b.png,object_01b.png,,,,,,,,,,
null,,rt_plussign_withcolor1,943001,,,,green,,,null,object_06b.png,object_01b.png,,,,,,,,,,
768.0999999642372,,rt_thecrossant_black1,944491,,,,black_plus_sign,,,50,,,1,,,,,,,1,,
null,,color_black1,944594,,,,black_plus_sign,,,null,,,,,,,,,,,,
null,,learn_phase(without_color)1,948098,,,,black_plus_sign,,,null,object_07a.png,object_05b.png,,,,,,,,,,
null,,black_cross(without_color)1,948617,,,,green,,,null,object_07a.png,object_05b.png,,,,,,,,,,
null,,rt_plussign_withcolor1,949120,,,,green,,,null,object_07a.png,object_05b.png,,,,,,,,,,
1080.0999999642372,,rt_thecrossant_black1,950607,,,,black_plus_sign,,,50,,,1,,,,,,,1,,
null,,color_black1,950710,,,,black_plus_sign,,,null,,,,,,,,,,,,
null,,learn_phase(without_color)1,954214,,,,black_plus_sign,,,null,object_06c.png,object_13c.png,,,,,,,,,,
null,,black_cross(without_color)1,955163,,,,blue,,,null,object_06c.png,object_13c.png,,,,,,,,,,
375.7000000476837,,rt_plussign_withcolor1,955666,,,,blue,,,49,object_06c.png,object_13c.png,,,,,,,,,,
null,,rt_thecrossant_black1,956723,,,,black_plus_sign,,,null,,,1,,,,,,,1,,
null,,color_black1,956827,,,,black_plus_sign,,,null,,,,,,,,,,,,
null,,learn_phase(without_color)1,960331,,,,black_plus_sign,,,null,object_06a.png,object_08c.png,,,,,,,,,,
null,,black_cross(without_color)1,960912,,,,green,,,null,object_06a.png,object_08c.png,,,,,,,,,,
null,,rt_plussign_withcolor1,961414,,,,green,,,null,object_06a.png,object_08c.png,,,,,,,,,,
1306.5,,rt_thecrossant_black1,962839,,,,black_plus_sign,,,50,,,1,,,,,,,1,,
null,,color_black1,962942,,,,black_plus_sign,,,null,,,,,,,,,,,,
null,,thebreak,963046,,,,<p></p>,,,null,,,,,,,,,,,,
9259.899999976158,,intro_0,972309,,,,instruct,,,32,,,,,,,,,,,,
null,,directmemory_phase1,987312,,,,object_13a.png,,,null,,,0,,object_13b.png,object_04b.png,object_07b.png,object_07b.png,,0,,0
null,,warning_page,992318,,,,warning,,,null,,,,,,,,,,,,
