rt,responses,trial_type,time_elapsed,identifier_a,identifier_b,identifier_c,stimulus,button_pressed,response,key_press,stimulus_left,stimulus_right,accuracy,practice_cumulative_accuracy,stimulus_down_left,stimulus_down_mid,stimulus_down_right,stimulus_correct,prac_weighted_accuracy,cumulative_accuracy,failed_practice,weighted_accuracy
20566.299999952316,{worker_id:6702ebdec4a64e7153741612},id_enter,20570,object_01a.png; object_08c.png; object_03c.png; object_08b.png; object_07c.png; object_12c.png; object_01b.png; object_14b.png; object_14a.png; object_09a.png; object_11c.png; object_14c.png; object_13c.png; object_05c.png; object_04c.png,object_12a.png; object_11b.png; object_02a.png; object_10a.png; object_09b.png; object_03a.png; object_12b.png; object_10c.png; object_03b.png; object_05a.png; object_11a.png; object_13a.png; object_07b.png; object_06a.png; object_07a.png,object_15a.png; object_15c.png; object_02b.png; object_06b.png; object_04b.png; object_06c.png; object_15b.png; object_10b.png; object_01c.png; object_02c.png; object_13b.png; object_04a.png; object_09c.png; object_08a.png; object_05b.png,,,,,,,,,,,,,,,,
44117.299999952316,,make_fullscreen,64695,,,,fullscreen,0,,,,,,,,,,,,,,
11362.899999856949,,instruct_1,76061,,,,instruct,0,Next,,,,,,,,,,,,,
38833.39999985695,,instruct_2,114897,,,,instruct,0,Previous,,,,,,,,,,,,,
132625.39999985695,,instruct_1,247525,,,,instruct,0,Next,,,,,,,,,,,,,
744858.2999999523,,instruct_2,992385,,,,instruct,1,Next,,,,,,,,,,,,,
35525.09999990463,,instruct_3,1027912,,,,instruct,1,Next,,,,,,,,,,,,,
61589.700000047684,,instruct_4,1089504,,,,instruct,1,Next,,,,,,,,,,,,,
66160.20000004768,,instruct_5,1155665,,,,instruct,1,Next,,,,,,,,,,,,,
25537.099999904633,,instruct_6,1181204,,,,instruct,1,Next,,,,,,,,,,,,,
69323.89999985695,,instruct_7,1250530,,,,instruct,1,Next,,,,,,,,,,,,,
null,,prac_atten_color_black,1251000,,,,black_plus_sign,,,null,,,,,,,,,,,,
597.6000001430511,,prac_atten_color,1251952,,,,<p style='position:absolute;top: 50%;right: 50%;transform: translate(50%, -50%);font-size: 125px;color: blue;'>+</p>,,,49,,,,,,,,,,,,
null,,prac_atten_color_black,1253960,,,,black_plus_sign,,,null,,,,,,,,,,,,
null,,prac_atten_color_black,1254434,,,,black_plus_sign,,,null,,,,,,,,,,,,
604.4000000953674,,prac_atten_color,1255444,,,,<p style='position:absolute;top: 50%;right: 50%;transform: translate(50%, -50%);font-size: 125px;color: green;'>+</p>,,,50,,,,,,,,,,,,
null,,prac_atten_color_black,1257451,,,,black_plus_sign,,,null,,,,,,,,,,,,
null,,prac_atten_color_black,1257862,,,,black_plus_sign,,,null,,,,,,,,,,,,
519.7000000476837,,prac_atten_color,1258658,,,,<p style='position:absolute;top: 50%;right: 50%;transform: translate(50%, -50%);font-size: 125px;color: green;'>+</p>,,,50,,,,,,,,,,,,
null,,prac_atten_color_black,1260662,,,,black_plus_sign,,,null,,,,,,,,,,,,
null,,prac_atten_color_black,1261285,,,,black_plus_sign,,,null,,,,,,,,,,,,
587.0999999046326,,prac_atten_color,1262311,,,,<p style='position:absolute;top: 50%;right: 50%;transform: translate(50%, -50%);font-size: 125px;color: blue;'>+</p>,,,49,,,,,,,,,,,,
null,,prac_atten_color_black,1264318,,,,black_plus_sign,,,null,,,,,,,,,,,,
null,,prac_atten_color_black,1264702,,,,black_plus_sign,,,null,,,,,,,,,,,,
656.7000000476837,,prac_atten_color,1265551,,,,<p style='position:absolute;top: 50%;right: 50%;transform: translate(50%, -50%);font-size: 125px;color: green;'>+</p>,,,50,,,,,,,,,,,,
null,,prac_atten_color_black,1267560,,,,black_plus_sign,,,null,,,,,,,,,,,,
null,,prac_atten_color_black,1268136,,,,black_plus_sign,,,null,,,,,,,,,,,,
589.5999999046326,,prac_atten_color,1268997,,,,<p style='position:absolute;top: 50%;right: 50%;transform: translate(50%, -50%);font-size: 125px;color: green;'>+</p>,,,50,,,,,,,,,,,,
null,,prac_atten_color_black,1271002,,,,black_plus_sign,,,null,,,,,,,,,,,,
null,,prac_atten_color_black,1271552,,,,black_plus_sign,,,null,,,,,,,,,,,,
589.0999999046326,,prac_atten_color,1272388,,,,<p style='position:absolute;top: 50%;right: 50%;transform: translate(50%, -50%);font-size: 125px;color: blue;'>+</p>,,,49,,,,,,,,,,,,
null,,prac_atten_color_black,1274394,,,,black_plus_sign,,,null,,,,,,,,,,,,
null,,prac_atten_color_black,1274976,,,,black_plus_sign,,,null,,,,,,,,,,,,
823.4000000953674,,prac_atten_color,1275991,,,,<p style='position:absolute;top: 50%;right: 50%;transform: translate(50%, -50%);font-size: 125px;color: green;'>+</p>,,,50,,,,,,,,,,,,
null,,prac_atten_color_black,1277994,,,,black_plus_sign,,,null,,,,,,,,,,,,
null,,prac_atten_color_black,1278394,,,,black_plus_sign,,,null,,,,,,,,,,,,
555.2000000476837,,prac_atten_color,1279169,,,,<p style='position:absolute;top: 50%;right: 50%;transform: translate(50%, -50%);font-size: 125px;color: blue;'>+</p>,,,49,,,,,,,,,,,,
null,,prac_atten_color_black,1281186,,,,black_plus_sign,,,null,,,,,,,,,,,,
null,,prac_atten_color_black,1281819,,,,black_plus_sign,,,null,,,,,,,,,,,,
798.5999999046326,,prac_atten_color,1282836,,,,<p style='position:absolute;top: 50%;right: 50%;transform: translate(50%, -50%);font-size: 125px;color: blue;'>+</p>,,,49,,,,,,,,,,,,
null,,prac_atten_color_black,1284842,,,,black_plus_sign,,,null,,,,,,,,,,,,
11013.5,,attentioncheck_feedback,1295858,,,,cross_check_feedback,0,,,,,,,,,,,,,,
9111.799999952316,,last_instruct,1304971,,,,instruct,,,32,,,,,,,,,,,,
null,,prac_learn_phase(without_color),1308477,,,,black_plus_sign,,,null,object_03a.png,object_12c.png,,,,,,,,,,
null,,prac_black_cross(without_color),1309487,,,,blue,,,null,object_03a.png,object_12c.png,,,,,,,,,,
null,,prac_rt_plussign_withcolor,1309995,,,,blue,,,null,object_03a.png,object_12c.png,,,,,,,,,,
1204.4000000953674,,prac_rt_thecrossant_black,1310993,,,,black_plus_sign,,,49,,,1,1,,,,,,,,
null,,prac_color_black,1311102,,,,black_plus_sign,,,null,,,,,,,,,,,,
null,,prac_learn_phase(without_color),1314610,,,,black_plus_sign,,,null,object_14c.png,object_13a.png,,,,,,,,,,
null,,black_cross(without_color)1,1315398,,,,green,,,null,object_03a.png,object_12c.png,,,,,,,,,,
465.60000014305115,,prac_rt_plussign_withcolor,1315902,,,,green,,,50,object_14c.png,object_13a.png,,,,,,,,,,
null,,prac_rt_thecrossant_black,1317239,,,,black_plus_sign,,,null,,,1,1,,,,,,,,
null,,prac_color_black,1317349,,,,black_plus_sign,,,null,,,,,,,,,,,,
null,,prac_learn_phase(without_color),1320853,,,,black_plus_sign,,,null,object_10c.png,object_14b.png,,,,,,,,,,
null,,black_cross(without_color)1,1321636,,,,green,,,null,object_03a.png,object_12c.png,,,,,,,,,,
null,,prac_rt_plussign_withcolor,1322143,,,,blue,,,null,object_10c.png,object_14b.png,,,,,,,,,,
1026.2000000476837,,prac_rt_thecrossant_black,1323454,,,,black_plus_sign,,,49,,,1,1,,,,,,,,
null,,prac_color_black,1323570,,,,black_plus_sign,,,null,,,,,,,,,,,,
null,,prac_learn_phase(without_color),1327078,,,,black_plus_sign,,,null,object_04c.png,object_07a.png,,,,,,,,,,
null,,black_cross(without_color)1,1327870,,,,green,,,null,object_03a.png,object_12c.png,,,,,,,,,,
null,,prac_rt_plussign_withcolor,1328374,,,,green,,,null,object_04c.png,object_07a.png,,,,,,,,,,
1290.5,,prac_rt_thecrossant_black,1329902,,,,black_plus_sign,,,50,,,1,1,,,,,,,,
null,,prac_color_black,1330011,,,,black_plus_sign,,,null,,,,,,,,,,,,
5234.200000047684,,instruct_dir_01,1335247,,,,instruct,0,Next,,,,,,,,,,,,,
8156.599999904633,,instruct_dir_2,1343406,,,,instruct,1,Next,,,,,,,,,,,,,
6523.900000095367,,instruct_dir_3,1349931,,,,instruct,1,Next,,,,,,,,,,,,,
17375.299999952316,,instruct_dir_4,1367308,,,,instruct,1,Start,,,,,,,,,,,,,
null,,thebreak,1367410,,,,<p></p>,,,null,,,,,,,,,,,,
2021.5999999046326,,intro_0,1369433,,,,instruct,,,32,,,,,,,,,,,,
2804.7999999523163,,prac_directmemory_phase,1372239,,,,practice/object_03a.png,,,51,,,0,,practice/object_03b.png,practice/object_04b.png,practice/object_04a.png,practice/object_03b.png,0,0,,
5146,,prac_directmemory_phase,1377387,,,,practice/object_04a.png,,,49,,,0,,practice/object_02a.png,practice/object_04b.png,practice/object_02b.png,practice/object_04b.png,0,0,,
4973.899999856949,,prac_directmemory_phase,1382363,,,,practice/object_01a.png,,,50,,,0,,practice/object_01b.png,practice/object_02b.png,practice/object_02a.png,practice/object_01b.png,0,0,,
2354.5999999046326,,prac_directmemory_phase,1384720,,,,practice/object_02a.png,,,51,,,0,,practice/object_03a.png,practice/object_02b.png,practice/object_04b.png,practice/object_02b.png,0,0,,
4583.599999904633,,practice_feedback_force_restart,1389306,,,,practice_feedback,0,,,,,,,,,,,,,1,
8088.799999952316,,last_instruct,1397395,,,,instruct,,,32,,,,,,,,,,,,
null,,prac_learn_phase(without_color),1400900,,,,black_plus_sign,,,null,object_03a.png,object_12c.png,,,,,,,,,,
null,,prac_black_cross(without_color),1401844,,,,blue,,,null,object_03a.png,object_12c.png,,,,,,,,,,
null,,prac_rt_plussign_withcolor,1402356,,,,blue,,,null,object_03a.png,object_12c.png,,,,,,,,,,
1508.6000001430511,,prac_rt_thecrossant_black,1403419,,,,black_plus_sign,,,49,,,1,1,,,,,,,,
null,,prac_color_black,1403527,,,,black_plus_sign,,,null,,,,,,,,,,,,
null,,prac_learn_phase(without_color),1407034,,,,black_plus_sign,,,null,object_14c.png,object_13a.png,,,,,,,,,,
null,,black_cross(without_color)1,1407817,,,,green,,,null,object_03a.png,object_12c.png,,,,,,,,,,
null,,prac_rt_plussign_withcolor,1408326,,,,green,,,null,object_14c.png,object_13a.png,,,,,,,,,,
1480.7999999523163,,prac_rt_thecrossant_black,1409928,,,,black_plus_sign,,,50,,,1,1,,,,,,,,
null,,prac_color_black,1410035,,,,black_plus_sign,,,null,,,,,,,,,,,,
null,,prac_learn_phase(without_color),1413545,,,,black_plus_sign,,,null,object_10c.png,object_14b.png,,,,,,,,,,
null,,black_cross(without_color)1,1414335,,,,green,,,null,object_03a.png,object_12c.png,,,,,,,,,,
null,,prac_rt_plussign_withcolor,1414845,,,,blue,,,null,object_10c.png,object_14b.png,,,,,,,,,,
null,,prac_rt_thecrossant_black,1416236,,,,black_plus_sign,,,null,,,,1,,,,,,,,
null,,prac_color_black,1416344,,,,black_plus_sign,,,null,,,,,,,,,,,,
null,,prac_learn_phase(without_color),1419846,,,,black_plus_sign,,,null,object_04c.png,object_07a.png,,,,,,,,,,
null,,black_cross(without_color)1,1420634,,,,green,,,null,object_03a.png,object_12c.png,,,,,,,,,,
null,,prac_rt_plussign_withcolor,1421143,,,,green,,,null,object_04c.png,object_07a.png,,,,,,,,,,
1160.6000001430511,,prac_rt_thecrossant_black,1422690,,,,black_plus_sign,,,50,,,1,1,,,,,,,,
null,,prac_color_black,1422806,,,,black_plus_sign,,,null,,,,,,,,,,,,
3444,,instruct_dir_01,1426251,,,,instruct,0,Next,,,,,,,,,,,,,
1726.7000000476837,,instruct_dir_2,1427980,,,,instruct,1,Next,,,,,,,,,,,,,
2249.7999999523163,,instruct_dir_3,1430231,,,,instruct,1,Next,,,,,,,,,,,,,
4644,,instruct_dir_4,1434878,,,,instruct,1,Start,,,,,,,,,,,,,
null,,thebreak,1434981,,,,<p></p>,,,null,,,,,,,,,,,,
7808.799999952316,,intro_0,1442791,,,,instruct,,,32,,,,,,,,,,,,
5972.900000095367,,prac_directmemory_phase,1448765,,,,practice/object_03a.png,,,49,,,1,,practice/object_03b.png,practice/object_04b.png,practice/object_04a.png,practice/object_03b.png,1,1,,
11455.600000143051,,prac_directmemory_phase,1460222,,,,practice/object_04a.png,,,50,,,1,,practice/object_02a.png,practice/object_04b.png,practice/object_02b.png,practice/object_04b.png,1,1,,
5907.599999904633,,prac_directmemory_phase,1466131,,,,practice/object_01a.png,,,49,,,1,,practice/object_01b.png,practice/object_02b.png,practice/object_02a.png,practice/object_01b.png,1,1,,
7237.900000095367,,prac_directmemory_phase,1473370,,,,practice/object_02a.png,,,50,,,1,,practice/object_03a.png,practice/object_02b.png,practice/object_04b.png,practice/object_02b.png,1,1,,
3169,,practice_feedback,1476542,,,,practice_feedback,1,,,,,,,,,,,,,,
16978.599999904633,,proceed_actualTask,1493521,,,,proceed_actualTask,1,Continue,,,,,,,,,,,,,
12646.599999904633,,last_inst,1506169,,,,last_inst,,,32,,,,,,,,,,,,
null,,learn_phase(without_color)1,1509675,,,,black_plus_sign,,,null,object_03a.png,object_12c.png,,,,,,,,,,
null,,black_cross(without_color)1,1510465,,,,green,,,null,object_03a.png,object_12c.png,,,,,,,,,,
null,,rt_plussign_withcolor1,1510978,,,,green,,,null,object_03a.png,object_12c.png,,,,,,,,,,
960.7999999523163,,rt_thecrossant_black1,1512204,,,,black_plus_sign,,,49,,,0,,,,,,,0,,
null,,color_black1,1512319,,,,black_plus_sign,,,null,,,,,,,,,,,,
null,,learn_phase(without_color)1,1515824,,,,black_plus_sign,,,null,object_14c.png,object_13a.png,,,,,,,,,,
null,,black_cross(without_color)1,1516359,,,,green,,,null,object_14c.png,object_13a.png,,,,,,,,,,
null,,rt_plussign_withcolor1,1516867,,,,green,,,null,object_14c.png,object_13a.png,,,,,,,,,,
1550.5,,rt_thecrossant_black1,1518348,,,,black_plus_sign,,,50,,,1,,,,,,,0.5,,
null,,color_black1,1518465,,,,black_plus_sign,,,null,,,,,,,,,,,,
null,,learn_phase(without_color)1,1521967,,,,black_plus_sign,,,null,object_10c.png,object_14b.png,,,,,,,,,,
null,,black_cross(without_color)1,1522968,,,,blue,,,null,object_10c.png,object_14b.png,,,,,,,,,,
null,,rt_plussign_withcolor1,1523474,,,,blue,,,null,object_10c.png,object_14b.png,,,,,,,,,,
812.5,,rt_thecrossant_black1,1524500,,,,black_plus_sign,,,49,,,1,,,,,,,0.6666666666666666,,
null,,color_black1,1524606,,,,black_plus_sign,,,null,,,,,,,,,,,,
null,,learn_phase(without_color)1,1528116,,,,black_plus_sign,,,null,object_04c.png,object_07a.png,,,,,,,,,,
null,,black_cross(without_color)1,1529018,,,,green,,,null,object_04c.png,object_07a.png,,,,,,,,,,
null,,rt_plussign_withcolor1,1529534,,,,green,,,null,object_04c.png,object_07a.png,,,,,,,,,,
1233.5,,rt_thecrossant_black1,1530658,,,,black_plus_sign,,,50,,,1,,,,,,,0.75,,
null,,color_black1,1530767,,,,black_plus_sign,,,null,,,,,,,,,,,,
null,,learn_phase(without_color)1,1534273,,,,black_plus_sign,,,null,object_13c.png,object_07b.png,,,,,,,,,,
null,,black_cross(without_color)1,1535318,,,,green,,,null,object_13c.png,object_07b.png,,,,,,,,,,
null,,rt_plussign_withcolor1,1535825,,,,green,,,null,object_13c.png,object_07b.png,,,,,,,,,,
1361,,rt_thecrossant_black1,1536793,,,,black_plus_sign,,,50,,,1,,,,,,,0.8,,
null,,color_black1,1536901,,,,black_plus_sign,,,null,,,,,,,,,,,,
null,,learn_phase(without_color)1,1540408,,,,black_plus_sign,,,null,object_11c.png,object_11a.png,,,,,,,,,,
null,,black_cross(without_color)1,1540916,,,,blue,,,null,object_11c.png,object_11a.png,,,,,,,,,,
null,,rt_plussign_withcolor1,1541425,,,,blue,,,null,object_11c.png,object_11a.png,,,,,,,,,,
1306.5,,rt_thecrossant_black1,1542932,,,,black_plus_sign,,,49,,,1,,,,,,,0.8333333333333334,,
null,,color_black1,1543042,,,,black_plus_sign,,,null,,,,,,,,,,,,
null,,learn_phase(without_color)1,1546549,,,,black_plus_sign,,,null,object_09a.png,object_05a.png,,,,,,,,,,
null,,black_cross(without_color)1,1547096,,,,blue,,,null,object_09a.png,object_05a.png,,,,,,,,,,
null,,rt_plussign_withcolor1,1547600,,,,blue,,,null,object_09a.png,object_05a.png,,,,,,,,,,
681.3999998569489,,rt_thecrossant_black1,1549067,,,,black_plus_sign,,,50,,,0,,,,,,,0.7142857142857143,,
null,,color_black1,1549176,,,,black_plus_sign,,,null,,,,,,,,,,,,
null,,learn_phase(without_color)1,1552683,,,,black_plus_sign,,,null,object_06a.png,object_05c.png,,,,,,,,,,
null,,black_cross(without_color)1,1553449,,,,green,,,null,object_06a.png,object_05c.png,,,,,,,,,,
null,,rt_plussign_withcolor1,1553966,,,,green,,,null,object_06a.png,object_05c.png,,,,,,,,,,
1061.5,,rt_thecrossant_black1,1555224,,,,black_plus_sign,,,50,,,1,,,,,,,0.75,,
null,,color_black1,1555332,,,,black_plus_sign,,,null,,,,,,,,,,,,
null,,learn_phase(without_color)1,1558843,,,,black_plus_sign,,,null,object_08b.png,object_10a.png,,,,,,,,,,
null,,black_cross(without_color)1,1559759,,,,green,,,null,object_08b.png,object_10a.png,,,,,,,,,,
null,,rt_plussign_withcolor1,1560267,,,,green,,,null,object_08b.png,object_10a.png,,,,,,,,,,
1237.2000000476837,,rt_thecrossant_black1,1561374,,,,black_plus_sign,,,50,,,1,,,,,,,0.7777777777777778,,
null,,color_black1,1561483,,,,black_plus_sign,,,null,,,,,,,,,,,,
null,,learn_phase(without_color)1,1564991,,,,black_plus_sign,,,null,object_01b.png,object_12b.png,,,,,,,,,,
null,,black_cross(without_color)1,1565976,,,,blue,,,null,object_01b.png,object_12b.png,,,,,,,,,,
null,,rt_plussign_withcolor1,1566489,,,,blue,,,null,object_01b.png,object_12b.png,,,,,,,,,,
1814.7999999523163,,rt_thecrossant_black1,1567517,,,,black_plus_sign,,,49,,,1,,,,,,,0.8,,
null,,color_black1,1567634,,,,black_plus_sign,,,null,,,,,,,,,,,,
null,,learn_phase(without_color)1,1571142,,,,black_plus_sign,,,null,object_07c.png,object_09b.png,,,,,,,,,,
null,,black_cross(without_color)1,1571870,,,,blue,,,null,object_07c.png,object_09b.png,,,,,,,,,,
null,,rt_plussign_withcolor1,1572376,,,,blue,,,null,object_07c.png,object_09b.png,,,,,,,,,,
1876,,rt_thecrossant_black1,1573659,,,,black_plus_sign,,,50,,,0,,,,,,,0.7272727272727273,,
null,,color_black1,1573768,,,,black_plus_sign,,,null,,,,,,,,,,,,
null,,learn_phase(without_color)1,1577276,,,,black_plus_sign,,,null,object_14a.png,object_03b.png,,,,,,,,,,
null,,black_cross(without_color)1,1577856,,,,blue,,,null,object_14a.png,object_03b.png,,,,,,,,,,
null,,rt_plussign_withcolor1,1578364,,,,blue,,,null,object_14a.png,object_03b.png,,,,,,,,,,
1330.6000001430511,,rt_thecrossant_black1,1579801,,,,black_plus_sign,,,50,,,0,,,,,,,0.6666666666666666,,
null,,warning_page,1584810,,,,warning,,,null,,,,,,,,,,,,
null,,color_black1,1584918,,,,black_plus_sign,,,null,,,,,,,,,,,,
null,,learn_phase(without_color)1,1588425,,,,black_plus_sign,,,null,object_01a.png,object_12a.png,,,,,,,,,,
null,,black_cross(without_color)1,1589048,,,,blue,,,null,object_01a.png,object_12a.png,,,,,,,,,,
null,,rt_plussign_withcolor1,1589555,,,,blue,,,null,object_01a.png,object_12a.png,,,,,,,,,,
963.4000000953674,,rt_thecrossant_black1,1590943,,,,black_plus_sign,,,49,,,1,,,,,,,0.6923076923076923,,
null,,color_black1,1591051,,,,black_plus_sign,,,null,,,,,,,,,,,,
null,,learn_phase(without_color)1,1594560,,,,black_plus_sign,,,null,object_03c.png,object_02a.png,,,,,,,,,,
null,,black_cross(without_color)1,1595475,,,,blue,,,null,object_03c.png,object_02a.png,,,,,,,,,,
null,,rt_plussign_withcolor1,1595976,,,,blue,,,null,object_03c.png,object_02a.png,,,,,,,,,,
1031.8999998569489,,rt_thecrossant_black1,1597082,,,,black_plus_sign,,,49,,,1,,,,,,,0.7142857142857143,,
null,,color_black1,1597184,,,,black_plus_sign,,,null,,,,,,,,,,,,
null,,learn_phase(without_color)1,1600693,,,,black_plus_sign,,,null,object_11b.png,object_08c.png,,,,,,,,,,
null,,black_cross(without_color)1,1601260,,,,green,,,null,object_11b.png,object_08c.png,,,,,,,,,,
null,,rt_plussign_withcolor1,1601767,,,,green,,,null,object_11b.png,object_08c.png,,,,,,,,,,
1020.3000001907349,,rt_thecrossant_black1,1603213,,,,black_plus_sign,,,50,,,1,,,,,,,0.7333333333333333,,
null,,color_black1,1603318,,,,black_plus_sign,,,null,,,,,,,,,,,,
null,,thebreak,1603429,,,,<p></p>,,,null,,,,,,,,,,,,
3334.699999809265,,intro_0,1606765,,,,instruct,,,32,,,,,,,,,,,,
12617.099999904633,,directmemory_phase1,1619384,,,,object_04c.png,,,51,,,1,,object_11b.png,object_05c.png,object_07a.png,object_07a.png,,1,,1
null,,directmemory_phase1,1634398,,,,object_03c.png,,,null,,,0,,object_12a.png,object_14c.png,object_02a.png,object_02a.png,,0.5,,0
null,,warning_page,1639409,,,,warning,,,null,,,,,,,,,,,,
8623.5,,directmemory_phase1,1648034,,,,object_11c.png,,,49,,,1,,object_11a.png,object_13a.png,object_13c.png,object_11a.png,,0.6666666666666666,,1
10159.900000095367,,directmemory_phase1,1658196,,,,object_08b.png,,,50,,,1,,object_13c.png,object_10a.png,object_13a.png,object_10a.png,,0.75,,1
3448.0999999046326,,directmemory_phase1,1661646,,,,object_01b.png,,,51,,,1,,object_05a.png,object_14a.png,object_12b.png,object_12b.png,,0.8,,1
6986.799999952316,,directmemory_phase1,1668635,,,,object_14b.png,,,50,,,1,,object_12c.png,object_10c.png,object_05a.png,object_10c.png,,0.8333333333333334,,1
9103.5,,directmemory_phase1,1677741,,,,object_14a.png,,,51,,,1,,object_02a.png,object_14c.png,object_03b.png,object_03b.png,,0.8571428571428571,,1
5854.100000143051,,directmemory_phase1,1683597,,,,object_13c.png,,,50,,,1,,object_14c.png,object_07b.png,object_11a.png,object_07b.png,,0.875,,1
3971.199999809265,,directmemory_phase1,1687570,,,,object_09a.png,,,49,,,1,,object_05a.png,object_11a.png,object_05c.png,object_05a.png,,0.8888888888888888,,1
8090.799999952316,,directmemory_phase1,1695663,,,,object_14c.png,,,50,,,1,,object_14a.png,object_13a.png,object_12a.png,object_13a.png,,0.9,,1
12937.700000047684,,directmemory_phase1,1708604,,,,object_01a.png,,,51,,,0,,object_12a.png,object_13a.png,object_12c.png,object_12a.png,,0.8181818181818182,,0
8596.700000047684,,directmemory_phase1,1717203,,,,object_05c.png,,,50,,,1,,object_09a.png,object_06a.png,object_12a.png,object_06a.png,,0.8333333333333334,,1
14489.599999904633,,directmemory_phase1,1731695,,,,object_12c.png,,,50,,,1,,object_14c.png,object_03a.png,object_09b.png,object_03a.png,,0.8461538461538461,,1
12166.200000047684,,directmemory_phase1,1743864,,,,object_08c.png,,,50,,,1,,object_08b.png,object_11b.png,object_07b.png,object_11b.png,,0.8571428571428571,,1
4664.5,,directmemory_phase1,1748531,,,,object_07c.png,,,49,,,1,,object_09b.png,object_07b.png,object_14a.png,object_09b.png,,0.8666666666666667,,1
null,,thebreak,1748638,,,,<p></p>,,,null,,,,,,,,,,,,
2437.5,,intro_0,1751077,,,,instruct,,,32,,,,,,,,,,,,
null,,learn_phase(without_color)2,1754580,,,,black_plus_sign,,,null,object_14c.png,object_13a.png,,,,,,,,,,
null,,black_cross(without_color)2,1755055,,,,blue,,,null,object_14c.png,object_13a.png,,,,,,,,,,
null,,rt_plussign_withcolor2,1755562,,,,blue,,,null,object_14c.png,object_13a.png,,,,,,,,,,
null,,rt_thecrossant_black2,1757113,,,,black_plus_sign,,,null,,,,,,,,,,NaN,,
null,,color_black2,1757222,,,,black_plus_sign,,,null,,,,,,,,,,,,
null,,learn_phase(without_color)2,1760732,,,,black_plus_sign,,,null,object_05a.png,object_09a.png,,,,,,,,,,
null,,black_cross(without_color)2,1761323,,,,blue,,,null,object_05a.png,object_09a.png,,,,,,,,,,
null,,rt_plussign_withcolor2,1761838,,,,blue,,,null,object_05a.png,object_09a.png,,,,,,,,,,
943.5,,rt_thecrossant_black2,1763262,,,,black_plus_sign,,,50,,,0,,,,,,,0,,
null,,warning_page,1768272,,,,warning,,,null,,,,,,,,,,,,
null,,color_black2,1768379,,,,black_plus_sign,,,null,,,,,,,,,,,,
null,,learn_phase(without_color)2,1771898,,,,black_plus_sign,,,null,object_09b.png,object_07c.png,,,,,,,,,,
null,,black_cross(without_color)2,1772327,,,,blue,,,null,object_09b.png,object_07c.png,,,,,,,,,,
null,,rt_plussign_withcolor2,1772830,,,,blue,,,null,object_09b.png,object_07c.png,,,,,,,,,,
1875.9000000953674,,rt_thecrossant_black2,1774412,,,,black_plus_sign,,,50,,,0,,,,,,,0,,
null,,warning_page,1779418,,,,warning,,,null,,,,,,,,,,,,
null,,color_black2,1779527,,,,black_plus_sign,,,null,,,,,,,,,,,,
null,,learn_phase(without_color)2,1783039,,,,black_plus_sign,,,null,object_12a.png,object_01a.png,,,,,,,,,,
null,,black_cross(without_color)2,1783947,,,,green,,,null,object_12a.png,object_01a.png,,,,,,,,,,
null,,rt_plussign_withcolor2,1784456,,,,green,,,null,object_12a.png,object_01a.png,,,,,,,,,,
652,,rt_thecrossant_black2,1785564,,,,black_plus_sign,,,50,,,1,,,,,,,0.3333333333333333,,
null,,color_black2,1785672,,,,black_plus_sign,,,null,,,,,,,,,,,,
null,,learn_phase(without_color)2,1789176,,,,black_plus_sign,,,null,object_01b.png,object_12b.png,,,,,,,,,,
null,,black_cross(without_color)2,1790146,,,,green,,,null,object_01b.png,object_12b.png,,,,,,,,,,
null,,rt_plussign_withcolor2,1790652,,,,green,,,null,object_01b.png,object_12b.png,,,,,,,,,,
1249.2999999523163,,rt_thecrossant_black2,1791702,,,,black_plus_sign,,,50,,,1,,,,,,,0.5,,
null,,color_black2,1791808,,,,black_plus_sign,,,null,,,,,,,,,,,,
null,,learn_phase(without_color)2,1795316,,,,black_plus_sign,,,null,object_11a.png,object_11c.png,,,,,,,,,,
null,,black_cross(without_color)2,1796168,,,,blue,,,null,object_11a.png,object_11c.png,,,,,,,,,,
null,,rt_plussign_withcolor2,1796673,,,,blue,,,null,object_11a.png,object_11c.png,,,,,,,,,,
1254.2000000476837,,rt_thecrossant_black2,1797846,,,,black_plus_sign,,,49,,,1,,,,,,,0.6,,
null,,color_black2,1797954,,,,black_plus_sign,,,null,,,,,,,,,,,,
null,,learn_phase(without_color)2,1801465,,,,black_plus_sign,,,null,object_06a.png,object_05c.png,,,,,,,,,,
null,,black_cross(without_color)2,1802573,,,,blue,,,null,object_06a.png,object_05c.png,,,,,,,,,,
null,,rt_plussign_withcolor2,1803091,,,,blue,,,null,object_06a.png,object_05c.png,,,,,,,,,,
1753.0999999046326,,rt_thecrossant_black2,1804007,,,,black_plus_sign,,,49,,,1,,,,,,,0.6666666666666666,,
null,,color_black2,1804110,,,,black_plus_sign,,,null,,,,,,,,,,,,
null,,learn_phase(without_color)2,1807623,,,,black_plus_sign,,,null,object_13c.png,object_07b.png,,,,,,,,,,
null,,black_cross(without_color)2,1808580,,,,green,,,null,object_13c.png,object_07b.png,,,,,,,,,,
null,,rt_plussign_withcolor2,1809089,,,,green,,,null,object_13c.png,object_07b.png,,,,,,,,,,
1463.9000000953674,,rt_thecrossant_black2,1810157,,,,black_plus_sign,,,50,,,1,,,,,,,0.7142857142857143,,
null,,color_black2,1810266,,,,black_plus_sign,,,null,,,,,,,,,,,,
null,,learn_phase(without_color)2,1813777,,,,black_plus_sign,,,null,object_12c.png,object_03a.png,,,,,,,,,,
null,,black_cross(without_color)2,1814365,,,,green,,,null,object_12c.png,object_03a.png,,,,,,,,,,
null,,rt_plussign_withcolor2,1814873,,,,green,,,null,object_12c.png,object_03a.png,,,,,,,,,,
1624.3999998569489,,rt_thecrossant_black2,1816298,,,,black_plus_sign,,,50,,,1,,,,,,,0.75,,
null,,color_black2,1816412,,,,black_plus_sign,,,null,,,,,,,,,,,,
null,,learn_phase(without_color)2,1819921,,,,black_plus_sign,,,null,object_03c.png,object_02a.png,,,,,,,,,,
null,,black_cross(without_color)2,1820906,,,,blue,,,null,object_03c.png,object_02a.png,,,,,,,,,,
null,,rt_plussign_withcolor2,1821418,,,,blue,,,null,object_03c.png,object_02a.png,,,,,,,,,,
1144.7000000476837,,rt_thecrossant_black2,1822449,,,,black_plus_sign,,,49,,,1,,,,,,,0.7777777777777778,,
null,,color_black2,1822559,,,,black_plus_sign,,,null,,,,,,,,,,,,
null,,learn_phase(without_color)2,1826073,,,,black_plus_sign,,,null,object_07a.png,object_04c.png,,,,,,,,,,
null,,black_cross(without_color)2,1826890,,,,green,,,null,object_07a.png,object_04c.png,,,,,,,,,,
null,,rt_plussign_withcolor2,1827398,,,,green,,,null,object_07a.png,object_04c.png,,,,,,,,,,
2051.2999999523163,,rt_thecrossant_black2,1828589,,,,black_plus_sign,,,49,,,0,,,,,,,0.7,,
null,,color_black2,1828697,,,,black_plus_sign,,,null,,,,,,,,,,,,
null,,learn_phase(without_color)2,1832206,,,,black_plus_sign,,,null,object_10a.png,object_08b.png,,,,,,,,,,
null,,black_cross(without_color)2,1832657,,,,blue,,,null,object_10a.png,object_08b.png,,,,,,,,,,
null,,rt_plussign_withcolor2,1833165,,,,blue,,,null,object_10a.png,object_08b.png,,,,,,,,,,
1161,,rt_thecrossant_black2,1834741,,,,black_plus_sign,,,49,,,1,,,,,,,0.7272727272727273,,
null,,color_black2,1834848,,,,black_plus_sign,,,null,,,,,,,,,,,,
null,,learn_phase(without_color)2,1838351,,,,black_plus_sign,,,null,object_10c.png,object_14b.png,,,,,,,,,,
null,,black_cross(without_color)2,1839214,,,,green,,,null,object_10c.png,object_14b.png,,,,,,,,,,
null,,rt_plussign_withcolor2,1839721,,,,green,,,null,object_10c.png,object_14b.png,,,,,,,,,,
1352.8000001907349,,rt_thecrossant_black2,1840874,,,,black_plus_sign,,,50,,,1,,,,,,,0.75,,
null,,color_black2,1840981,,,,black_plus_sign,,,null,,,,,,,,,,,,
null,,learn_phase(without_color)2,1844490,,,,black_plus_sign,,,null,object_11b.png,object_08c.png,,,,,,,,,,
null,,black_cross(without_color)2,1845566,,,,green,,,null,object_11b.png,object_08c.png,,,,,,,,,,
null,,rt_plussign_withcolor2,1846073,,,,green,,,null,object_11b.png,object_08c.png,,,,,,,,,,
1113.2000000476837,,rt_thecrossant_black2,1847015,,,,black_plus_sign,,,50,,,1,,,,,,,0.7692307692307693,,
null,,color_black2,1847124,,,,black_plus_sign,,,null,,,,,,,,,,,,
null,,learn_phase(without_color)2,1850628,,,,black_plus_sign,,,null,object_14a.png,object_03b.png,,,,,,,,,,
null,,black_cross(without_color)2,1851555,,,,blue,,,null,object_14a.png,object_03b.png,,,,,,,,,,
null,,rt_plussign_withcolor2,1852063,,,,blue,,,null,object_14a.png,object_03b.png,,,,,,,,,,
null,,rt_thecrossant_black2,1853156,,,,black_plus_sign,,,null,,,,,,,,,,0.7692307692307693,,
null,,color_black2,1853264,,,,black_plus_sign,,,null,,,,,,,,,,,,
null,,thebreak,1853372,,,,<p></p>,,,null,,,,,,,,,,,,
10404.800000190735,,intro_0,1863779,,,,instruct,,,32,,,,,,,,,,,,
3093.2999999523163,,directmemory_phase2,1866873,,,,object_07c.png,,,50,,,1,,object_05c.png,object_09b.png,object_11a.png,object_09b.png,,0.875,,1
8288,,directmemory_phase2,1875163,,,,object_09a.png,,,50,,,1,,object_12c.png,object_05a.png,object_10c.png,object_05a.png,,0.8823529411764706,,1
6243.400000095367,,directmemory_phase2,1881410,,,,object_05c.png,,,51,,,1,,object_03b.png,object_14a.png,object_06a.png,object_06a.png,,0.8888888888888888,,1
5758.399999856949,,directmemory_phase2,1887170,,,,object_08c.png,,,51,,,1,,object_13a.png,object_14a.png,object_11b.png,object_11b.png,,0.8947368421052632,,1
4344.399999856949,,directmemory_phase2,1891518,,,,object_13c.png,,,49,,,1,,object_07b.png,object_03b.png,object_12c.png,object_07b.png,,0.9,,1
3031.699999809265,,directmemory_phase2,1894552,,,,object_14b.png,,,50,,,1,,object_01b.png,object_10c.png,object_03b.png,object_10c.png,,0.9047619047619048,,1
3312.9000000953674,,directmemory_phase2,1897867,,,,object_14a.png,,,49,,,1,,object_03b.png,object_10c.png,object_08c.png,object_03b.png,,0.9090909090909091,,1
4962.900000095367,,directmemory_phase2,1902832,,,,object_12c.png,,,51,,,1,,object_11a.png,object_09a.png,object_03a.png,object_03a.png,,0.9130434782608695,,1
2605.5999999046326,,directmemory_phase2,1905440,,,,object_03c.png,,,49,,,1,,object_02a.png,object_07b.png,object_14c.png,object_02a.png,,0.9166666666666666,,1
4430.700000047684,,directmemory_phase2,1909873,,,,object_04c.png,,,49,,,1,,object_07a.png,object_06a.png,object_08c.png,object_07a.png,,0.92,,1
4166.299999952316,,directmemory_phase2,1914041,,,,object_11c.png,,,49,,,1,,object_11a.png,object_07b.png,object_14a.png,object_11a.png,,0.9230769230769231,,1
1755.4000000953674,,directmemory_phase2,1915799,,,,object_01a.png,,,50,,,1,,object_14a.png,object_12a.png,object_02a.png,object_12a.png,,0.9259259259259259,,1
6929.799999952316,,directmemory_phase2,1922731,,,,object_14c.png,,,50,,,1,,object_07c.png,object_13a.png,object_07b.png,object_13a.png,,0.9285714285714286,,1
5099.5,,directmemory_phase2,1927832,,,,object_08b.png,,,50,,,1,,object_03c.png,object_10a.png,object_12b.png,object_10a.png,,0.9310344827586207,,1
4566.799999952316,,directmemory_phase2,1932402,,,,object_01b.png,,,50,,,0,,object_09b.png,object_12c.png,object_12b.png,object_12b.png,,0.9,,0
null,,thebreak,1932516,,,,<p></p>,,,null,,,,,,,,,,,,
11075.800000190735,,intro_0,1943593,,,,instruct,,,32,,,,,,,,,,,,
null,,learn_phase(without_color)3,1947099,,,,black_plus_sign,,,null,object_07c.png,object_09b.png,,,,,,,,,,
null,,black_cross(without_color)3,1948059,,,,blue,,,null,object_07c.png,object_09b.png,,,,,,,,,,
null,,rt_plussign_withcolor3,1948564,,,,blue,,,null,object_07c.png,object_09b.png,,,,,,,,,,
1613,,rt_thecrossant_black3,1949618,,,,black_plus_sign,,,49,,,1,,,,,,,1,,
null,,color_black3,1949726,,,,black_plus_sign,,,null,,,,,,,,,,,,
null,,learn_phase(without_color)3,1953233,,,,black_plus_sign,,,null,object_10c.png,object_14b.png,,,,,,,,,,
null,,black_cross(without_color)3,1954060,,,,green,,,null,object_10c.png,object_14b.png,,,,,,,,,,
null,,rt_plussign_withcolor3,1954577,,,,green,,,null,object_10c.png,object_14b.png,,,,,,,,,,
1448.3000001907349,,rt_thecrossant_black3,1955761,,,,black_plus_sign,,,50,,,1,,,,,,,1,,
null,,color_black3,1955869,,,,black_plus_sign,,,null,,,,,,,,,,,,
null,,learn_phase(without_color)3,1959378,,,,black_plus_sign,,,null,object_05c.png,object_06a.png,,,,,,,,,,
null,,black_cross(without_color)3,1959960,,,,green,,,null,object_05c.png,object_06a.png,,,,,,,,,,
null,,rt_plussign_withcolor3,1960466,,,,green,,,null,object_05c.png,object_06a.png,,,,,,,,,,
1488.1999998092651,,rt_thecrossant_black3,1961900,,,,black_plus_sign,,,50,,,1,,,,,,,1,,
null,,color_black3,1962011,,,,black_plus_sign,,,null,,,,,,,,,,,,
null,,learn_phase(without_color)3,1965517,,,,black_plus_sign,,,null,object_07a.png,object_04c.png,,,,,,,,,,
null,,black_cross(without_color)3,1966475,,,,green,,,null,object_07a.png,object_04c.png,,,,,,,,,,
null,,rt_plussign_withcolor3,1966978,,,,green,,,null,object_07a.png,object_04c.png,,,,,,,,,,
1188.0999999046326,,rt_thecrossant_black3,1968035,,,,black_plus_sign,,,50,,,1,,,,,,,1,,
null,,color_black3,1968143,,,,black_plus_sign,,,null,,,,,,,,,,,,
null,,learn_phase(without_color)3,1971661,,,,black_plus_sign,,,null,object_12b.png,object_01b.png,,,,,,,,,,
null,,black_cross(without_color)3,1972743,,,,blue,,,null,object_12b.png,object_01b.png,,,,,,,,,,
null,,rt_plussign_withcolor3,1973259,,,,blue,,,null,object_12b.png,object_01b.png,,,,,,,,,,
1447.9000000953674,,rt_thecrossant_black3,1974192,,,,black_plus_sign,,,49,,,1,,,,,,,1,,
null,,color_black3,1974303,,,,black_plus_sign,,,null,,,,,,,,,,,,
null,,learn_phase(without_color)3,1977819,,,,black_plus_sign,,,null,object_03b.png,object_14a.png,,,,,,,,,,
null,,black_cross(without_color)3,1978260,,,,blue,,,null,object_03b.png,object_14a.png,,,,,,,,,,
null,,rt_plussign_withcolor3,1978776,,,,blue,,,null,object_03b.png,object_14a.png,,,,,,,,,,
1889.5999999046326,,rt_thecrossant_black3,1980356,,,,black_plus_sign,,,49,,,1,,,,,,,1,,
null,,color_black3,1980464,,,,black_plus_sign,,,null,,,,,,,,,,,,
null,,learn_phase(without_color)3,1983976,,,,black_plus_sign,,,null,object_03c.png,object_02a.png,,,,,,,,,,
null,,black_cross(without_color)3,1984726,,,,green,,,null,object_03c.png,object_02a.png,,,,,,,,,,
null,,rt_plussign_withcolor3,1985235,,,,green,,,null,object_03c.png,object_02a.png,,,,,,,,,,
861.3999998569489,,rt_thecrossant_black3,1986517,,,,black_plus_sign,,,50,,,1,,,,,,,1,,
null,,color_black3,1986627,,,,black_plus_sign,,,null,,,,,,,,,,,,
null,,learn_phase(without_color)3,1990134,,,,black_plus_sign,,,null,object_01a.png,object_12a.png,,,,,,,,,,
null,,black_cross(without_color)3,1991040,,,,green,,,null,object_01a.png,object_12a.png,,,,,,,,,,
null,,rt_plussign_withcolor3,1991543,,,,green,,,null,object_01a.png,object_12a.png,,,,,,,,,,
1099.3999998569489,,rt_thecrossant_black3,1992652,,,,black_plus_sign,,,50,,,1,,,,,,,1,,
null,,color_black3,1992759,,,,black_plus_sign,,,null,,,,,,,,,,,,
null,,learn_phase(without_color)3,1996269,,,,black_plus_sign,,,null,object_03a.png,object_12c.png,,,,,,,,,,
null,,black_cross(without_color)3,1997304,,,,blue,,,null,object_03a.png,object_12c.png,,,,,,,,,,
null,,rt_plussign_withcolor3,1997806,,,,blue,,,null,object_03a.png,object_12c.png,,,,,,,,,,
1507.2000000476837,,rt_thecrossant_black3,1998785,,,,black_plus_sign,,,49,,,1,,,,,,,1,,
null,,color_black3,1998894,,,,black_plus_sign,,,null,,,,,,,,,,,,
null,,learn_phase(without_color)3,2002411,,,,black_plus_sign,,,null,object_10a.png,object_08b.png,,,,,,,,,,
null,,black_cross(without_color)3,2002843,,,,blue,,,null,object_10a.png,object_08b.png,,,,,,,,,,
null,,rt_plussign_withcolor3,2003350,,,,blue,,,null,object_10a.png,object_08b.png,,,,,,,,,,
1834.2000000476837,,rt_thecrossant_black3,2004936,,,,black_plus_sign,,,49,,,1,,,,,,,1,,
null,,color_black3,2005044,,,,black_plus_sign,,,null,,,,,,,,,,,,
null,,learn_phase(without_color)3,2008551,,,,black_plus_sign,,,null,object_08c.png,object_11b.png,,,,,,,,,,
null,,black_cross(without_color)3,2009235,,,,blue,,,null,object_08c.png,object_11b.png,,,,,,,,,,
null,,rt_plussign_withcolor3,2009742,,,,blue,,,null,object_08c.png,object_11b.png,,,,,,,,,,
1165.7999999523163,,rt_thecrossant_black3,2011067,,,,black_plus_sign,,,49,,,1,,,,,,,1,,
null,,color_black3,2011177,,,,black_plus_sign,,,null,,,,,,,,,,,,
null,,learn_phase(without_color)3,2014682,,,,black_plus_sign,,,null,object_05a.png,object_09a.png,,,,,,,,,,
null,,black_cross(without_color)3,2015303,,,,blue,,,null,object_05a.png,object_09a.png,,,,,,,,,,
null,,rt_plussign_withcolor3,2015813,,,,blue,,,null,object_05a.png,object_09a.png,,,,,,,,,,
1262.2999999523163,,rt_thecrossant_black3,2017210,,,,black_plus_sign,,,50,,,0,,,,,,,0.9166666666666666,,
null,,warning_page,2022216,,,,warning,,,null,,,,,,,,,,,,
null,,color_black3,2022325,,,,black_plus_sign,,,null,,,,,,,,,,,,
null,,learn_phase(without_color)3,2025833,,,,black_plus_sign,,,null,object_07b.png,object_13c.png,,,,,,,,,,
null,,black_cross(without_color)3,2026294,,,,green,,,null,object_07b.png,object_13c.png,,,,,,,,,,
null,,rt_plussign_withcolor3,2026799,,,,green,,,null,object_07b.png,object_13c.png,,,,,,,,,,
1202.1999998092651,,rt_thecrossant_black3,2028361,,,,black_plus_sign,,,50,,,1,,,,,,,0.9230769230769231,,
null,,color_black3,2028469,,,,black_plus_sign,,,null,,,,,,,,,,,,
null,,learn_phase(without_color)3,2031978,,,,black_plus_sign,,,null,object_11c.png,object_11a.png,,,,,,,,,,
null,,black_cross(without_color)3,2032890,,,,blue,,,null,object_11c.png,object_11a.png,,,,,,,,,,
null,,rt_plussign_withcolor3,2033395,,,,blue,,,null,object_11c.png,object_11a.png,,,,,,,,,,
980.6000001430511,,rt_thecrossant_black3,2034491,,,,black_plus_sign,,,49,,,1,,,,,,,0.9285714285714286,,
null,,color_black3,2034608,,,,black_plus_sign,,,null,,,,,,,,,,,,
null,,learn_phase(without_color)3,2038111,,,,black_plus_sign,,,null,object_13a.png,object_14c.png,,,,,,,,,,
null,,black_cross(without_color)3,2039119,,,,blue,,,null,object_13a.png,object_14c.png,,,,,,,,,,
null,,rt_plussign_withcolor3,2039626,,,,blue,,,null,object_13a.png,object_14c.png,,,,,,,,,,
1783.2999999523163,,rt_thecrossant_black3,2040635,,,,black_plus_sign,,,49,,,1,,,,,,,0.9333333333333333,,
null,,color_black3,2040745,,,,black_plus_sign,,,null,,,,,,,,,,,,
null,,thebreak,2040849,,,,<p></p>,,,null,,,,,,,,,,,,
7688.100000143051,,intro_0,2048539,,,,instruct,,,32,,,,,,,,,,,,
3845.4000000953674,,directmemory_phase3,2052385,,,,object_12c.png,,,49,,,1,,object_03a.png,object_10c.png,object_01a.png,object_03a.png,,0.9032258064516129,,1
4962.699999809265,,directmemory_phase3,2057350,,,,object_14a.png,,,49,,,1,,object_03b.png,object_06a.png,object_13c.png,object_03b.png,,0.90625,,1
2314.199999809265,,directmemory_phase3,2059666,,,,object_08b.png,,,51,,,1,,object_03a.png,object_13c.png,object_10a.png,object_10a.png,,0.9090909090909091,,1
2538.2999999523163,,directmemory_phase3,2062206,,,,object_01a.png,,,51,,,1,,object_03b.png,object_13c.png,object_12a.png,object_12a.png,,0.9117647058823529,,1
3530.600000143051,,directmemory_phase3,2065739,,,,object_11c.png,,,51,,,1,,object_03a.png,object_14a.png,object_11a.png,object_11a.png,,0.9142857142857143,,1
3317.5999999046326,,directmemory_phase3,2069059,,,,object_04c.png,,,50,,,0,,object_07a.png,object_13a.png,object_07c.png,object_07a.png,,0.8888888888888888,,0
4526.200000047684,,directmemory_phase3,2073587,,,,object_03c.png,,,49,,,1,,object_02a.png,object_07b.png,object_08c.png,object_02a.png,,0.8918918918918919,,1
2444.9000000953674,,directmemory_phase3,2076034,,,,object_14c.png,,,51,,,1,,object_11a.png,object_13c.png,object_13a.png,object_13a.png,,0.8947368421052632,,1
10458.200000047684,,directmemory_phase3,2086495,,,,object_05c.png,,,50,,,0,,object_10c.png,object_08b.png,object_06a.png,object_06a.png,,0.8717948717948718,,0
2131.0999999046326,,directmemory_phase3,2088628,,,,object_14b.png,,,50,,,1,,object_01b.png,object_10c.png,object_11b.png,object_10c.png,,0.875,,1
3786,,directmemory_phase3,2092418,,,,object_09a.png,,,50,,,1,,object_14c.png,object_05a.png,object_10c.png,object_05a.png,,0.8780487804878049,,1
4080,,directmemory_phase3,2096500,,,,object_08c.png,,,51,,,1,,object_11a.png,object_07c.png,object_11b.png,object_11b.png,,0.8809523809523809,,1
1242,,directmemory_phase3,2097744,,,,object_07c.png,,,49,,,1,,object_09b.png,object_12a.png,object_12c.png,object_09b.png,,0.8837209302325582,,1
9055.200000047684,,directmemory_phase3,2106802,,,,object_13c.png,,,51,,,1,,object_11b.png,object_07c.png,object_07b.png,object_07b.png,,0.8863636363636364,,1
5589.799999952316,,directmemory_phase3,2112394,,,,object_01b.png,,,50,,,1,,object_14c.png,object_12b.png,object_10c.png,object_12b.png,,0.8888888888888888,,1
null,,thebreak,2112504,,,,<p></p>,,,null,,,,,,,,,,,,
8055.099999904633,,intro_0,2120560,,,,instruct,,,32,,,,,,,,,,,,
null,,learn_phase(without_color)4,2124061,,,,black_plus_sign,,,null,object_13a.png,object_14c.png,,,,,,,,,,
null,,black_cross(without_color)4,2124604,,,,blue,,,null,object_13a.png,object_14c.png,,,,,,,,,,
null,,rt_plussign_withcolor4,2125111,,,,blue,,,null,object_13a.png,object_14c.png,,,,,,,,,,
null,,rt_thecrossant_black4,2126580,,,,black_plus_sign,,,null,,,,,,,,,,NaN,,
null,,warning_page,2131589,,,,warning,,,null,,,,,,,,,,,,
null,,color_black4,2131696,,,,black_plus_sign,,,null,,,,,,,,,,,,
null,,learn_phase(without_color)4,2135212,,,,black_plus_sign,,,null,object_05a.png,object_09a.png,,,,,,,,,,
null,,black_cross(without_color)4,2136114,,,,green,,,null,object_05a.png,object_09a.png,,,,,,,,,,
null,,rt_plussign_withcolor4,2136630,,,,green,,,null,object_05a.png,object_09a.png,,,,,,,,,,
1050.2999999523163,,rt_thecrossant_black4,2137745,,,,black_plus_sign,,,49,,,0,,,,,,,0,,
null,,warning_page,2142754,,,,warning,,,null,,,,,,,,,,,,
null,,color_black4,2142856,,,,black_plus_sign,,,null,,,,,,,,,,,,
null,,learn_phase(without_color)4,2146372,,,,black_plus_sign,,,null,object_11c.png,object_11a.png,,,,,,,,,,
null,,black_cross(without_color)4,2146863,,,,green,,,null,object_11c.png,object_11a.png,,,,,,,,,,
null,,rt_plussign_withcolor4,2147372,,,,green,,,null,object_11c.png,object_11a.png,,,,,,,,,,
1332.7999999523163,,rt_thecrossant_black4,2148897,,,,black_plus_sign,,,50,,,1,,,,,,,0.5,,
null,,color_black4,2149006,,,,black_plus_sign,,,null,,,,,,,,,,,,
null,,learn_phase(without_color)4,2152514,,,,black_plus_sign,,,null,object_08b.png,object_10a.png,,,,,,,,,,
null,,black_cross(without_color)4,2152983,,,,blue,,,null,object_08b.png,object_10a.png,,,,,,,,,,
null,,rt_plussign_withcolor4,2153489,,,,blue,,,null,object_08b.png,object_10a.png,,,,,,,,,,
1049.5,,rt_thecrossant_black4,2155039,,,,black_plus_sign,,,49,,,1,,,,,,,0.6666666666666666,,
null,,color_black4,2155148,,,,black_plus_sign,,,null,,,,,,,,,,,,
null,,learn_phase(without_color)4,2158655,,,,black_plus_sign,,,null,object_07b.png,object_13c.png,,,,,,,,,,
null,,black_cross(without_color)4,2159756,,,,blue,,,null,object_07b.png,object_13c.png,,,,,,,,,,
null,,rt_plussign_withcolor4,2160267,,,,blue,,,null,object_07b.png,object_13c.png,,,,,,,,,,
1403.4000000953674,,rt_thecrossant_black4,2161181,,,,black_plus_sign,,,49,,,1,,,,,,,0.75,,
null,,color_black4,2161289,,,,black_plus_sign,,,null,,,,,,,,,,,,
null,,learn_phase(without_color)4,2164795,,,,black_plus_sign,,,null,object_12b.png,object_01b.png,,,,,,,,,,
null,,black_cross(without_color)4,2165431,,,,green,,,null,object_12b.png,object_01b.png,,,,,,,,,,
null,,rt_plussign_withcolor4,2165938,,,,green,,,null,object_12b.png,object_01b.png,,,,,,,,,,
1471.4000000953674,,rt_thecrossant_black4,2167321,,,,black_plus_sign,,,50,,,1,,,,,,,0.8,,
null,,color_black4,2167439,,,,black_plus_sign,,,null,,,,,,,,,,,,
null,,learn_phase(without_color)4,2170948,,,,black_plus_sign,,,null,object_03c.png,object_02a.png,,,,,,,,,,
null,,black_cross(without_color)4,2171978,,,,green,,,null,object_03c.png,object_02a.png,,,,,,,,,,
null,,rt_plussign_withcolor4,2172489,,,,green,,,null,object_03c.png,object_02a.png,,,,,,,,,,
1165.6000001430511,,rt_thecrossant_black4,2173490,,,,black_plus_sign,,,50,,,1,,,,,,,0.8333333333333334,,
null,,color_black4,2173596,,,,black_plus_sign,,,null,,,,,,,,,,,,
null,,learn_phase(without_color)4,2177105,,,,black_plus_sign,,,null,object_12a.png,object_01a.png,,,,,,,,,,
null,,black_cross(without_color)4,2178181,,,,green,,,null,object_12a.png,object_01a.png,,,,,,,,,,
null,,rt_plussign_withcolor4,2178688,,,,green,,,null,object_12a.png,object_01a.png,,,,,,,,,,
1453.7999999523163,,rt_thecrossant_black4,2179631,,,,black_plus_sign,,,50,,,1,,,,,,,0.8571428571428571,,
null,,color_black4,2179748,,,,black_plus_sign,,,null,,,,,,,,,,,,
null,,learn_phase(without_color)4,2183256,,,,black_plus_sign,,,null,object_07c.png,object_09b.png,,,,,,,,,,
null,,black_cross(without_color)4,2184364,,,,green,,,null,object_07c.png,object_09b.png,,,,,,,,,,
null,,rt_plussign_withcolor4,2184881,,,,green,,,null,object_07c.png,object_09b.png,,,,,,,,,,
null,,rt_thecrossant_black4,2185804,,,,black_plus_sign,,,null,,,,,,,,,,0.8571428571428571,,
null,,warning_page,2190815,,,,warning,,,null,,,,,,,,,,,,
null,,color_black4,2190931,,,,black_plus_sign,,,null,,,,,,,,,,,,
null,,learn_phase(without_color)4,2194440,,,,black_plus_sign,,,null,object_12c.png,object_03a.png,,,,,,,,,,
null,,black_cross(without_color)4,2195448,,,,blue,,,null,object_12c.png,object_03a.png,,,,,,,,,,
null,,rt_plussign_withcolor4,2195956,,,,blue,,,null,object_12c.png,object_03a.png,,,,,,,,,,
1501.5999999046326,,rt_thecrossant_black4,2196970,,,,black_plus_sign,,,49,,,1,,,,,,,0.875,,
null,,color_black4,2197078,,,,black_plus_sign,,,null,,,,,,,,,,,,
null,,learn_phase(without_color)4,2200586,,,,black_plus_sign,,,null,object_08c.png,object_11b.png,,,,,,,,,,
null,,black_cross(without_color)4,2201539,,,,green,,,null,object_08c.png,object_11b.png,,,,,,,,,,
null,,rt_plussign_withcolor4,2202047,,,,green,,,null,object_08c.png,object_11b.png,,,,,,,,,,
1686.0999999046326,,rt_thecrossant_black4,2203114,,,,black_plus_sign,,,50,,,1,,,,,,,0.8888888888888888,,
null,,color_black4,2203224,,,,black_plus_sign,,,null,,,,,,,,,,,,
null,,learn_phase(without_color)4,2206740,,,,black_plus_sign,,,null,object_03b.png,object_14a.png,,,,,,,,,,
null,,black_cross(without_color)4,2207439,,,,green,,,null,object_03b.png,object_14a.png,,,,,,,,,,
null,,rt_plussign_withcolor4,2207956,,,,green,,,null,object_03b.png,object_14a.png,,,,,,,,,,
1643,,rt_thecrossant_black4,2209278,,,,black_plus_sign,,,50,,,1,,,,,,,0.9,,
null,,color_black4,2209386,,,,black_plus_sign,,,null,,,,,,,,,,,,
null,,learn_phase(without_color)4,2212890,,,,black_plus_sign,,,null,object_07a.png,object_04c.png,,,,,,,,,,
null,,black_cross(without_color)4,2213773,,,,green,,,null,object_07a.png,object_04c.png,,,,,,,,,,
null,,rt_plussign_withcolor4,2214286,,,,green,,,null,object_07a.png,object_04c.png,,,,,,,,,,
1805.4000000953674,,rt_thecrossant_black4,2215421,,,,black_plus_sign,,,50,,,1,,,,,,,0.9090909090909091,,
null,,color_black4,2215539,,,,black_plus_sign,,,null,,,,,,,,,,,,
null,,learn_phase(without_color)4,2219058,,,,black_plus_sign,,,null,object_14b.png,object_10c.png,,,,,,,,,,
null,,black_cross(without_color)4,2220051,,,,blue,,,null,object_14b.png,object_10c.png,,,,,,,,,,
null,,rt_plussign_withcolor4,2220559,,,,blue,,,null,object_14b.png,object_10c.png,,,,,,,,,,
1440.4000000953674,,rt_thecrossant_black4,2221580,,,,black_plus_sign,,,50,,,0,,,,,,,0.8333333333333334,,
null,,warning_page,2226598,,,,warning,,,null,,,,,,,,,,,,
null,,color_black4,2226708,,,,black_plus_sign,,,null,,,,,,,,,,,,
null,,learn_phase(without_color)4,2230216,,,,black_plus_sign,,,null,object_05c.png,object_06a.png,,,,,,,,,,
null,,black_cross(without_color)4,2230957,,,,green,,,null,object_05c.png,object_06a.png,,,,,,,,,,
null,,rt_plussign_withcolor4,2231466,,,,green,,,null,object_05c.png,object_06a.png,,,,,,,,,,
1428.2000000476837,,rt_thecrossant_black4,2232755,,,,black_plus_sign,,,50,,,1,,,,,,,0.8461538461538461,,
null,,color_black4,2232866,,,,black_plus_sign,,,null,,,,,,,,,,,,
null,,thebreak,2232976,,,,<p></p>,,,null,,,,,,,,,,,,
6797.600000143051,,intro_0,2239775,,,,instruct,,,32,,,,,,,,,,,,
9295.400000095367,,directmemory_phase4,2249072,,,,object_01b.png,,,50,,,1,,object_14c.png,object_12b.png,object_10a.png,object_12b.png,,0.8913043478260869,,1
4040.9000000953674,,directmemory_phase4,2253115,,,,object_09a.png,,,51,,,1,,object_13a.png,object_07c.png,object_05a.png,object_05a.png,,0.8936170212765957,,1
3567.7999999523163,,directmemory_phase4,2256686,,,,object_01a.png,,,51,,,1,,object_13a.png,object_07c.png,object_12a.png,object_12a.png,,0.8958333333333334,,1
6167.099999904633,,directmemory_phase4,2262856,,,,object_14c.png,,,51,,,1,,object_07b.png,object_01a.png,object_13a.png,object_13a.png,,0.8979591836734694,,1
2885.7000000476837,,directmemory_phase4,2265744,,,,object_08b.png,,,50,,,1,,object_03c.png,object_10a.png,object_05a.png,object_10a.png,,0.9,,1
9444.599999904633,,directmemory_phase4,2275191,,,,object_05c.png,,,50,,,0,,object_06a.png,object_03a.png,object_03c.png,object_06a.png,,0.8823529411764706,,0
2483.0999999046326,,directmemory_phase4,2277676,,,,object_08c.png,,,50,,,1,,object_05c.png,object_11b.png,object_12b.png,object_11b.png,,0.8846153846153846,,1
1568.7000000476837,,directmemory_phase4,2279247,,,,object_14b.png,,,50,,,1,,object_13c.png,object_10c.png,object_11b.png,object_10c.png,,0.8867924528301887,,1
6189.400000095367,,directmemory_phase4,2285438,,,,object_11c.png,,,51,,,1,,object_13a.png,object_09a.png,object_11a.png,object_11a.png,,0.8888888888888888,,1
3538.199999809265,,directmemory_phase4,2288979,,,,object_03c.png,,,50,,,1,,object_08c.png,object_02a.png,object_10a.png,object_02a.png,,0.8909090909090909,,1
1316,,directmemory_phase4,2290297,,,,object_07c.png,,,50,,,1,,object_08b.png,object_09b.png,object_07b.png,object_09b.png,,0.8928571428571429,,1
4606.899999856949,,directmemory_phase4,2294907,,,,object_12c.png,,,49,,,1,,object_03a.png,object_03b.png,object_01b.png,object_03a.png,,0.8947368421052632,,1
6916.200000047684,,directmemory_phase4,2301826,,,,object_04c.png,,,51,,,1,,object_07b.png,object_03c.png,object_07a.png,object_07a.png,,0.896551724137931,,1
1629.5999999046326,,directmemory_phase4,2303458,,,,object_14a.png,,,49,,,1,,object_03b.png,object_11b.png,object_05c.png,object_03b.png,,0.8983050847457628,,1
8741,,directmemory_phase4,2312201,,,,object_13c.png,,,49,,,0,,object_11b.png,object_01b.png,object_07b.png,object_07b.png,,0.8833333333333333,,0
null,,thebreak,2312310,,,,<p></p>,,,null,,,,,,,,,,,,
75235.19999980927,,intro_0,2387547,,,,instruct,,,32,,,,,,,,,,,,
null,,learn_phase(without_color)5,2391054,,,,black_plus_sign,,,null,object_05a.png,object_02c.png,,,,,,,,,,
null,,black_cross(without_color)5,2392032,,,,blue,,,null,object_05a.png,object_02c.png,,,,,,,,,,
null,,rt_plussign_withcolor5,2392538,,,,blue,,,null,object_05a.png,object_02c.png,,,,,,,,,,
null,,rt_thecrossant_black5,2393571,,,,black_plus_sign,,,null,,,,,,,,,,NaN,,
