rt,responses,trial_type,time_elapsed,identifier_a,identifier_b,identifier_c,stimulus,button_pressed,response,key_press,stimulus_left,stimulus_right,accuracy,practice_cumulative_accuracy,stimulus_down_left,stimulus_down_mid,stimulus_down_right,stimulus_correct,prac_weighted_accuracy,cumulative_accuracy,weighted_accuracy,stimulus_middle,problems,smooth,distraction,strategies,easier,similar,comments,detectfocus,breakfocus,completion_code
4481.699999988079,{worker_id:63fcfd81a075a45d1a821308},id_enter,4488,object_03b.png; object_04b.png; object_09b.png; object_12c.png; object_15c.png; object_15a.png; object_10c.png; object_11b.png; object_05b.png; object_01b.png; object_08a.png; object_08b.png; object_05a.png; object_09c.png; object_15b.png,object_01c.png; object_07b.png; object_02a.png; object_07c.png; object_01a.png; object_14c.png; object_06b.png; object_03c.png; object_12b.png; object_11c.png; object_02c.png; object_04c.png; object_05c.png; object_02b.png; object_14b.png,object_10b.png; object_13c.png; object_13b.png; object_12a.png; object_04a.png; object_09a.png; object_06c.png; object_10a.png; object_14a.png; object_13a.png; object_08c.png; object_06a.png; object_11a.png; object_03a.png; object_07a.png,,,,,,,,,,,,,,,,,,,,,,,,,,
2614.9000000059605,,make_fullscreen,7112,,,,fullscreen,0,,,,,,,,,,,,,,,,,,,,,,,,
1704.5,,instruct_1,8823,,,,instruct,0,Next,,,,,,,,,,,,,,,,,,,,,,,
2106.5999999940395,,instruct_2,10932,,,,instruct,1,Next,,,,,,,,,,,,,,,,,,,,,,,
3741.7000000178814,,instruct_3,14674,,,,instruct,1,Next,,,,,,,,,,,,,,,,,,,,,,,
4716.199999988079,,instruct_4,19392,,,,instruct,1,Next,,,,,,,,,,,,,,,,,,,,,,,
8210.40000000596,,instruct_5,27607,,,,instruct,1,Next,,,,,,,,,,,,,,,,,,,,,,,
4067,,instruct_6,31675,,,,instruct,1,Next,,,,,,,,,,,,,,,,,,,,,,,
5317.9000000059605,,instruct_7,36994,,,,instruct,1,Next,,,,,,,,,,,,,,,,,,,,,,,
null,,prac_atten_color_black,37882,,,,black_plus_sign,,,null,,,,,,,,,,,,,,,,,,,,,,
null,,prac_atten_color,38401,,,,<p style='position:absolute;top: 50%;right: 50%;transform: translate(50%, -50%);font-size: 125px;color: blue;'>+</p>,,,null,,,,,,,,,,,,,,,,,,,,,,
66.40000000596046,,prac_atten_color_black,40403,,,,black_plus_sign,,,49,,,,,,,,,,,,,,,,,,,,,,
null,,prac_atten_color_black,41291,,,,black_plus_sign,,,null,,,,,,,,,,,,,,,,,,,,,,
490.2000000178814,,prac_atten_color,42318,,,,<p style='position:absolute;top: 50%;right: 50%;transform: translate(50%, -50%);font-size: 125px;color: green;'>+</p>,,,50,,,,,,,,,,,,,,,,,,,,,,
null,,prac_atten_color_black,44321,,,,black_plus_sign,,,null,,,,,,,,,,,,,,,,,,,,,,
null,,prac_atten_color_black,44698,,,,black_plus_sign,,,null,,,,,,,,,,,,,,,,,,,,,,
427.10000002384186,,prac_atten_color,45305,,,,<p style='position:absolute;top: 50%;right: 50%;transform: translate(50%, -50%);font-size: 125px;color: green;'>+</p>,,,50,,,,,,,,,,,,,,,,,,,,,,
null,,prac_atten_color_black,47307,,,,black_plus_sign,,,null,,,,,,,,,,,,,,,,,,,,,,
null,,prac_atten_color_black,48104,,,,black_plus_sign,,,null,,,,,,,,,,,,,,,,,,,,,,
417.30000001192093,,prac_atten_color,48614,,,,<p style='position:absolute;top: 50%;right: 50%;transform: translate(50%, -50%);font-size: 125px;color: blue;'>+</p>,,,49,,,,,,,,,,,,,,,,,,,,,,
null,,prac_atten_color_black,50616,,,,black_plus_sign,,,null,,,,,,,,,,,,,,,,,,,,,,
null,,prac_atten_color_black,51510,,,,black_plus_sign,,,null,,,,,,,,,,,,,,,,,,,,,,
525.8000000119209,,prac_atten_color,52452,,,,<p style='position:absolute;top: 50%;right: 50%;transform: translate(50%, -50%);font-size: 125px;color: green;'>+</p>,,,50,,,,,,,,,,,,,,,,,,,,,,
null,,prac_atten_color_black,54455,,,,black_plus_sign,,,null,,,,,,,,,,,,,,,,,,,,,,
null,,prac_atten_color_black,54918,,,,black_plus_sign,,,null,,,,,,,,,,,,,,,,,,,,,,
627.3000000119209,,prac_atten_color,55615,,,,<p style='position:absolute;top: 50%;right: 50%;transform: translate(50%, -50%);font-size: 125px;color: green;'>+</p>,,,50,,,,,,,,,,,,,,,,,,,,,,
null,,prac_atten_color_black,57617,,,,black_plus_sign,,,null,,,,,,,,,,,,,,,,,,,,,,
null,,prac_atten_color_black,58326,,,,black_plus_sign,,,null,,,,,,,,,,,,,,,,,,,,,,
422.69999998807907,,prac_atten_color,59363,,,,<p style='position:absolute;top: 50%;right: 50%;transform: translate(50%, -50%);font-size: 125px;color: blue;'>+</p>,,,49,,,,,,,,,,,,,,,,,,,,,,
null,,prac_atten_color_black,61366,,,,black_plus_sign,,,null,,,,,,,,,,,,,,,,,,,,,,
null,,prac_atten_color_black,61734,,,,black_plus_sign,,,null,,,,,,,,,,,,,,,,,,,,,,
null,,prac_atten_color,62146,,,,<p style='position:absolute;top: 50%;right: 50%;transform: translate(50%, -50%);font-size: 125px;color: green;'>+</p>,,,null,,,,,,,,,,,,,,,,,,,,,,
29.400000005960464,,prac_atten_color_black,64149,,,,black_plus_sign,,,50,,,,,,,,,,,,,,,,,,,,,,
null,,prac_atten_color_black,65142,,,,black_plus_sign,,,null,,,,,,,,,,,,,,,,,,,,,,
397.90000000596046,,prac_atten_color,66150,,,,<p style='position:absolute;top: 50%;right: 50%;transform: translate(50%, -50%);font-size: 125px;color: blue;'>+</p>,,,49,,,,,,,,,,,,,,,,,,,,,,
null,,prac_atten_color_black,68153,,,,black_plus_sign,,,null,,,,,,,,,,,,,,,,,,,,,,
null,,prac_atten_color_black,68549,,,,black_plus_sign,,,null,,,,,,,,,,,,,,,,,,,,,,
null,,prac_atten_color,68961,,,,<p style='position:absolute;top: 50%;right: 50%;transform: translate(50%, -50%);font-size: 125px;color: blue;'>+</p>,,,null,,,,,,,,,,,,,,,,,,,,,,
22.69999998807907,,prac_atten_color_black,70962,,,,black_plus_sign,,,50,,,,,,,,,,,,,,,,,,,,,,
5230.9000000059605,,attentioncheck_feedback,76196,,,,cross_check_feedback,0,,,,,,,,,,,,,,,,,,,,,,,,
13729.699999988079,,last_instruct,89927,,,,instruct,,,32,,,,,,,,,,,,,,,,,,,,,,
null,,prac_learn_phase(without_color),93429,,,,black_plus_sign,,,null,object_10c.png,object_06b.png,,,,,,,,,,,,,,,,,,,,
null,,prac_black_cross(without_color),94141,,,,green,,,null,object_10c.png,object_06b.png,,,,,,,,,,,,,,,,,,,,
null,,prac_rt_plussign_withcolor,94643,,,,green,,,null,object_10c.png,object_06b.png,,,,,,,,,,,,,,,,,,,,
817.1999999880791,,prac_rt_thecrossant_black,95939,,,,black_plus_sign,,,50,,,1,1,,,,,,,,,,,,,,,,,,
null,,prac_color_black,96042,,,,black_plus_sign,,,null,,,,,,,,,,,,,,,,,,,,,,
null,,prac_learn_phase(without_color),99546,,,,black_plus_sign,,,null,object_01b.png,object_11c.png,,,,,,,,,,,,,,,,,,,,
null,,black_cross(without_color)1,99984,,,,blue,,,null,object_10c.png,object_06b.png,,,,,,,,,,,,,,,,,,,,
null,,prac_rt_plussign_withcolor,100486,,,,blue,,,null,object_01b.png,object_11c.png,,,,,,,,,,,,,,,,,,,,
516.4000000059605,,prac_rt_thecrossant_black,101981,,,,black_plus_sign,,,49,,,1,1,,,,,,,,,,,,,,,,,,
null,,prac_color_black,102083,,,,black_plus_sign,,,null,,,,,,,,,,,,,,,,,,,,,,
null,,prac_learn_phase(without_color),105586,,,,black_plus_sign,,,null,object_02b.png,object_09c.png,,,,,,,,,,,,,,,,,,,,
null,,black_cross(without_color)1,106023,,,,blue,,,null,object_10c.png,object_06b.png,,,,,,,,,,,,,,,,,,,,
null,,prac_rt_plussign_withcolor,106525,,,,blue,,,null,object_02b.png,object_09c.png,,,,,,,,,,,,,,,,,,,,
812,,prac_rt_thecrossant_black,107581,,,,black_plus_sign,,,50,,,0,0.6666666666666666,,,,,,,,,,,,,,,,,,
null,,prac_color_black,107683,,,,black_plus_sign,,,null,,,,,,,,,,,,,,,,,,,,,,
null,,prac_learn_phase(without_color),111185,,,,black_plus_sign,,,null,object_05b.png,object_12b.png,,,,,,,,,,,,,,,,,,,,
null,,black_cross(without_color)1,111623,,,,blue,,,null,object_10c.png,object_06b.png,,,,,,,,,,,,,,,,,,,,
null,,prac_rt_plussign_withcolor,112125,,,,blue,,,null,object_05b.png,object_12b.png,,,,,,,,,,,,,,,,,,,,
1783.5999999940395,,prac_rt_thecrossant_black,113659,,,,black_plus_sign,,,50,,,0,0.5,,,,,,,,,,,,,,,,,,
null,,warning_page,118664,,,,warning,,,null,,,,,,,,,,,,,,,,,,,,,,
null,,prac_color_black,118779,,,,black_plus_sign,,,null,,,,,,,,,,,,,,,,,,,,,,
5501.5999999940395,,instruct_dir_01,124289,,,,instruct,0,Next,,,,,,,,,,,,,,,,,,,,,,,
7125.199999988079,,instruct_dir_2,131415,,,,instruct,1,Next,,,,,,,,,,,,,,,,,,,,,,,
3681.199999988079,,instruct_dir_3,135099,,,,instruct,1,Next,,,,,,,,,,,,,,,,,,,,,,,
13747.699999988079,,instruct_dir_4,148851,,,,instruct,1,Start,,,,,,,,,,,,,,,,,,,,,,,
null,,thebreak,148955,,,,<p></p>,,,null,,,,,,,,,,,,,,,,,,,,,,
1552.199999988079,,intro_0,150509,,,,instruct,,,32,,,,,,,,,,,,,,,,,,,,,,
6717.5999999940395,,prac_directmemory_phase,157231,,,,practice/object_01a.png,,,50,,,0,,practice/object_03b.png,practice/object_03a.png,practice/object_01b.png,practice/object_01b.png,0,0,,,,,,,,,,,,
3891.0999999940395,,prac_directmemory_phase,161124,,,,practice/object_04a.png,,,50,,,1,,practice/object_01a.png,practice/object_04b.png,practice/object_02b.png,practice/object_04b.png,1,0.5,,,,,,,,,,,,
4223.5,,prac_directmemory_phase,165350,,,,practice/object_02a.png,,,49,,,1,,practice/object_02b.png,practice/object_04b.png,practice/object_04a.png,practice/object_02b.png,1,0.6666666666666666,,,,,,,,,,,,
3432.4000000059605,,prac_directmemory_phase,168785,,,,practice/object_03a.png,,,49,,,1,,practice/object_03b.png,practice/object_01b.png,practice/object_02a.png,practice/object_03b.png,1,0.75,,,,,,,,,,,,
6759.5999999940395,,practice_feedback,175548,,,,practice_feedback,1,,,,,,,,,,,,,,,,,,,,,,,,
11633.5,,proceed_actualTask,187183,,,,proceed_actualTask,1,Continue,,,,,,,,,,,,,,,,,,,,,,,
12590.09999999404,,last_inst,199782,,,,last_inst,,,32,,,,,,,,,,,,,,,,,,,,,,
null,,learn_phase(without_color)1,203288,,,,black_plus_sign,,,null,object_10c.png,object_06b.png,,,,,,,,,,,,,,,,,,,,
null,,black_cross(without_color)1,203727,,,,blue,,,null,object_10c.png,object_06b.png,,,,,,,,,,,,,,,,,,,,
null,,rt_plussign_withcolor1,204230,,,,blue,,,null,object_10c.png,object_06b.png,,,,,,,,,,,,,,,,,,,,
null,,rt_thecrossant_black1,205803,,,,black_plus_sign,,,null,,,,,,,,,,NaN,,,,,,,,,,,,
null,,warning_page,210814,,,,warning,,,null,,,,,,,,,,,,,,,,,,,,,,
null,,color_black1,210925,,,,black_plus_sign,,,null,,,,,,,,,,,,,,,,,,,,,,
null,,learn_phase(without_color)1,214428,,,,black_plus_sign,,,null,object_01b.png,object_11c.png,,,,,,,,,,,,,,,,,,,,
null,,black_cross(without_color)1,215216,,,,blue,,,null,object_01b.png,object_11c.png,,,,,,,,,,,,,,,,,,,,
494.7000000178814,,rt_plussign_withcolor1,215719,,,,blue,,,49,object_01b.png,object_11c.png,,,,,,,,,,,,,,,,,,,,
null,,rt_thecrossant_black1,216935,,,,black_plus_sign,,,49,,,1,,,,,,,1,,,,,,,,,,,,
null,,color_black1,217038,,,,black_plus_sign,,,null,,,,,,,,,,,,,,,,,,,,,,
null,,learn_phase(without_color)1,220541,,,,black_plus_sign,,,null,object_02b.png,object_09c.png,,,,,,,,,,,,,,,,,,,,
null,,black_cross(without_color)1,221122,,,,blue,,,null,object_02b.png,object_09c.png,,,,,,,,,,,,,,,,,,,,
null,,rt_plussign_withcolor1,221624,,,,blue,,,null,object_02b.png,object_09c.png,,,,,,,,,,,,,,,,,,,,
992.5,,rt_thecrossant_black1,223062,,,,black_plus_sign,,,49,,,1,,,,,,,1,,,,,,,,,,,,
null,,color_black1,223164,,,,black_plus_sign,,,null,,,,,,,,,,,,,,,,,,,,,,
null,,learn_phase(without_color)1,226666,,,,black_plus_sign,,,null,object_05b.png,object_12b.png,,,,,,,,,,,,,,,,,,,,
null,,black_cross(without_color)1,227222,,,,green,,,null,object_05b.png,object_12b.png,,,,,,,,,,,,,,,,,,,,
354.30000001192093,,rt_plussign_withcolor1,227724,,,,green,,,50,object_05b.png,object_12b.png,,,,,,,,,,,,,,,,,,,,
null,,rt_thecrossant_black1,229172,,,,black_plus_sign,,,null,,,1,,,,,,,1,,,,,,,,,,,,
null,,color_black1,229275,,,,black_plus_sign,,,null,,,,,,,,,,,,,,,,,,,,,,
null,,learn_phase(without_color)1,232778,,,,black_plus_sign,,,null,object_15b.png,object_14b.png,,,,,,,,,,,,,,,,,,,,
null,,black_cross(without_color)1,233500,,,,green,,,null,object_15b.png,object_14b.png,,,,,,,,,,,,,,,,,,,,
null,,rt_plussign_withcolor1,234001,,,,green,,,null,object_15b.png,object_14b.png,,,,,,,,,,,,,,,,,,,,
777.6999999880791,,rt_thecrossant_black1,235285,,,,black_plus_sign,,,50,,,1,,,,,,,1,,,,,,,,,,,,
null,,color_black1,235392,,,,black_plus_sign,,,null,,,,,,,,,,,,,,,,,,,,,,
null,,learn_phase(without_color)1,238896,,,,black_plus_sign,,,null,object_07b.png,object_04b.png,,,,,,,,,,,,,,,,,,,,
null,,black_cross(without_color)1,239489,,,,blue,,,null,object_07b.png,object_04b.png,,,,,,,,,,,,,,,,,,,,
null,,rt_plussign_withcolor1,239991,,,,blue,,,null,object_07b.png,object_04b.png,,,,,,,,,,,,,,,,,,,,
821.6999999880791,,rt_thecrossant_black1,241403,,,,black_plus_sign,,,49,,,1,,,,,,,1,,,,,,,,,,,,
null,,color_black1,241503,,,,black_plus_sign,,,null,,,,,,,,,,,,,,,,,,,,,,
null,,learn_phase(without_color)1,245006,,,,black_plus_sign,,,null,object_11b.png,object_03c.png,,,,,,,,,,,,,,,,,,,,
null,,black_cross(without_color)1,245940,,,,blue,,,null,object_11b.png,object_03c.png,,,,,,,,,,,,,,,,,,,,
null,,rt_plussign_withcolor1,246444,,,,blue,,,null,object_11b.png,object_03c.png,,,,,,,,,,,,,,,,,,,,
715.5,,rt_thecrossant_black1,247518,,,,black_plus_sign,,,49,,,1,,,,,,,1,,,,,,,,,,,,
null,,color_black1,247620,,,,black_plus_sign,,,null,,,,,,,,,,,,,,,,,,,,,,
null,,learn_phase(without_color)1,251124,,,,black_plus_sign,,,null,object_14c.png,object_15a.png,,,,,,,,,,,,,,,,,,,,
null,,black_cross(without_color)1,251705,,,,blue,,,null,object_14c.png,object_15a.png,,,,,,,,,,,,,,,,,,,,
null,,rt_plussign_withcolor1,252206,,,,blue,,,null,object_14c.png,object_15a.png,,,,,,,,,,,,,,,,,,,,
1201.2999999821186,,rt_thecrossant_black1,253632,,,,black_plus_sign,,,49,,,1,,,,,,,1,,,,,,,,,,,,
null,,color_black1,253734,,,,black_plus_sign,,,null,,,,,,,,,,,,,,,,,,,,,,
null,,learn_phase(without_color)1,257237,,,,black_plus_sign,,,null,object_04c.png,object_08b.png,,,,,,,,,,,,,,,,,,,,
null,,black_cross(without_color)1,257668,,,,green,,,null,object_04c.png,object_08b.png,,,,,,,,,,,,,,,,,,,,
456.40000000596046,,rt_plussign_withcolor1,258169,,,,green,,,50,object_04c.png,object_08b.png,,,,,,,,,,,,,,,,,,,,
null,,rt_thecrossant_black1,259742,,,,black_plus_sign,,,null,,,1,,,,,,,1,,,,,,,,,,,,
null,,color_black1,259845,,,,black_plus_sign,,,null,,,,,,,,,,,,,,,,,,,,,,
null,,learn_phase(without_color)1,263349,,,,black_plus_sign,,,null,object_05a.png,object_05c.png,,,,,,,,,,,,,,,,,,,,
null,,black_cross(without_color)1,264422,,,,blue,,,null,object_05a.png,object_05c.png,,,,,,,,,,,,,,,,,,,,
null,,rt_plussign_withcolor1,264923,,,,blue,,,null,object_05a.png,object_05c.png,,,,,,,,,,,,,,,,,,,,
532.5,,rt_thecrossant_black1,265855,,,,black_plus_sign,,,49,,,1,,,,,,,1,,,,,,,,,,,,
null,,color_black1,265956,,,,black_plus_sign,,,null,,,,,,,,,,,,,,,,,,,,,,
null,,learn_phase(without_color)1,269459,,,,black_plus_sign,,,null,object_02c.png,object_08a.png,,,,,,,,,,,,,,,,,,,,
null,,black_cross(without_color)1,270463,,,,blue,,,null,object_02c.png,object_08a.png,,,,,,,,,,,,,,,,,,,,
428.90000000596046,,rt_plussign_withcolor1,270965,,,,blue,,,49,object_02c.png,object_08a.png,,,,,,,,,,,,,,,,,,,,
null,,rt_thecrossant_black1,271966,,,,black_plus_sign,,,null,,,1,,,,,,,1,,,,,,,,,,,,
null,,color_black1,272068,,,,black_plus_sign,,,null,,,,,,,,,,,,,,,,,,,,,,
null,,learn_phase(without_color)1,275570,,,,black_plus_sign,,,null,object_09b.png,object_02a.png,,,,,,,,,,,,,,,,,,,,
null,,black_cross(without_color)1,276315,,,,blue,,,null,object_09b.png,object_02a.png,,,,,,,,,,,,,,,,,,,,
null,,rt_plussign_withcolor1,276817,,,,blue,,,null,object_09b.png,object_02a.png,,,,,,,,,,,,,,,,,,,,
1974,,rt_thecrossant_black1,278076,,,,black_plus_sign,,,49,,,1,,,,,,,1,,,,,,,,,,,,
null,,color_black1,278178,,,,black_plus_sign,,,null,,,,,,,,,,,,,,,,,,,,,,
null,,learn_phase(without_color)1,281681,,,,black_plus_sign,,,null,object_03b.png,object_01c.png,,,,,,,,,,,,,,,,,,,,
null,,black_cross(without_color)1,282783,,,,blue,,,null,object_03b.png,object_01c.png,,,,,,,,,,,,,,,,,,,,
null,,rt_plussign_withcolor1,283284,,,,blue,,,null,object_03b.png,object_01c.png,,,,,,,,,,,,,,,,,,,,
847,,rt_thecrossant_black1,284187,,,,black_plus_sign,,,49,,,1,,,,,,,1,,,,,,,,,,,,
null,,color_black1,284289,,,,black_plus_sign,,,null,,,,,,,,,,,,,,,,,,,,,,
null,,learn_phase(without_color)1,287792,,,,black_plus_sign,,,null,object_12c.png,object_07c.png,,,,,,,,,,,,,,,,,,,,
null,,black_cross(without_color)1,288370,,,,green,,,null,object_12c.png,object_07c.png,,,,,,,,,,,,,,,,,,,,
null,,rt_plussign_withcolor1,288872,,,,green,,,null,object_12c.png,object_07c.png,,,,,,,,,,,,,,,,,,,,
1212.0999999940395,,rt_thecrossant_black1,290301,,,,black_plus_sign,,,50,,,1,,,,,,,1,,,,,,,,,,,,
null,,color_black1,290403,,,,black_plus_sign,,,null,,,,,,,,,,,,,,,,,,,,,,
null,,learn_phase(without_color)1,293905,,,,black_plus_sign,,,null,object_01a.png,object_15c.png,,,,,,,,,,,,,,,,,,,,
null,,black_cross(without_color)1,294480,,,,green,,,null,object_01a.png,object_15c.png,,,,,,,,,,,,,,,,,,,,
456.19999998807907,,rt_plussign_withcolor1,294982,,,,green,,,50,object_01a.png,object_15c.png,,,,,,,,,,,,,,,,,,,,
null,,rt_thecrossant_black1,296412,,,,black_plus_sign,,,null,,,1,,,,,,,1,,,,,,,,,,,,
null,,color_black1,296514,,,,black_plus_sign,,,null,,,,,,,,,,,,,,,,,,,,,,
null,,thebreak,296627,,,,<p></p>,,,null,,,,,,,,,,,,,,,,,,,,,,
1909.7000000178814,,intro_0,298542,,,,instruct,,,32,,,,,,,,,,,,,,,,,,,,,,
3382.199999988079,,directmemory_phase1,301925,,,,object_08a.png,,,49,,,1,,object_02c.png,object_01c.png,object_15a.png,object_02c.png,,1,1,,,,,,,,,,,
3701.7000000178814,,directmemory_phase1,305632,,,,object_15a.png,,,49,,,0,,object_01b.png,object_14c.png,object_05c.png,object_14c.png,,0.5,0,,,,,,,,,,,
3363.4000000059605,,directmemory_phase1,308998,,,,object_03b.png,,,49,,,0,,object_08b.png,object_01c.png,object_02a.png,object_01c.png,,0.3333333333333333,0,,,,,,,,,,,
3559.7000000178814,,directmemory_phase1,312561,,,,object_15b.png,,,51,,,1,,object_02c.png,object_03b.png,object_14b.png,object_14b.png,,0.5,1,,,,,,,,,,,
4078.5999999940395,,directmemory_phase1,316642,,,,object_05a.png,,,49,,,0,,object_15a.png,object_05c.png,object_02c.png,object_05c.png,,0.4,0,,,,,,,,,,,
4107.5999999940395,,directmemory_phase1,320752,,,,object_12c.png,,,51,,,0,,object_07c.png,object_01c.png,object_05b.png,object_07c.png,,0.3333333333333333,0,,,,,,,,,,,
3704.699999988079,,directmemory_phase1,324460,,,,object_04b.png,,,50,,,1,,object_11b.png,object_07b.png,object_02a.png,object_07b.png,,0.42857142857142855,1,,,,,,,,,,,
2807.5,,directmemory_phase1,327270,,,,object_08b.png,,,50,,,1,,object_15a.png,object_04c.png,object_05c.png,object_04c.png,,0.5,1,,,,,,,,,,,
2604.5,,directmemory_phase1,329877,,,,object_05b.png,,,50,,,0,,object_12b.png,object_14c.png,object_15a.png,object_12b.png,,0.4444444444444444,0,,,,,,,,,,,
3751,,directmemory_phase1,333629,,,,object_01b.png,,,50,,,0,,object_11c.png,object_02a.png,object_09b.png,object_11c.png,,0.4,0,,,,,,,,,,,
3264,,directmemory_phase1,336896,,,,object_11b.png,,,51,,,1,,object_07b.png,object_04b.png,object_03c.png,object_03c.png,,0.45454545454545453,1,,,,,,,,,,,
5110.0999999940395,,directmemory_phase1,342008,,,,object_15c.png,,,51,,,0,,object_01a.png,object_12b.png,object_09c.png,object_01a.png,,0.4166666666666667,0,,,,,,,,,,,
4947.200000017881,,directmemory_phase1,346958,,,,object_09c.png,,,49,,,1,,object_02b.png,object_03c.png,object_11b.png,object_02b.png,,0.46153846153846156,1,,,,,,,,,,,
2538.899999976158,,directmemory_phase1,349499,,,,object_09b.png,,,49,,,0,,object_04c.png,object_08a.png,object_02a.png,object_02a.png,,0.42857142857142855,0,,,,,,,,,,,
4730.9000000059605,,directmemory_phase1,354232,,,,object_10c.png,,,51,,,1,,object_01c.png,object_08b.png,object_06b.png,object_06b.png,,0.4666666666666667,1,,,,,,,,,,,
null,,thebreak,354334,,,,<p></p>,,,null,,,,,,,,,,,,,,,,,,,,,,
2356.5,,intro_0,356692,,,,instruct,,,32,,,,,,,,,,,,,,,,,,,,,,
null,,learn_phase(without_color)2,360194,,,,black_plus_sign,,,null,object_08a.png,object_02c.png,,,,,,,,,,,,,,,,,,,,
null,,black_cross(without_color)2,361140,,,,blue,,,null,object_08a.png,object_02c.png,,,,,,,,,,,,,,,,,,,,
null,,rt_plussign_withcolor2,361642,,,,blue,,,null,object_08a.png,object_02c.png,,,,,,,,,,,,,,,,,,,,
1727.5,,rt_thecrossant_black2,362704,,,,black_plus_sign,,,49,,,1,,,,,,,1,,,,,,,,,,,,
null,,color_black2,362807,,,,black_plus_sign,,,null,,,,,,,,,,,,,,,,,,,,,,
null,,learn_phase(without_color)2,366310,,,,black_plus_sign,,,null,object_01a.png,object_15c.png,,,,,,,,,,,,,,,,,,,,
null,,black_cross(without_color)2,366781,,,,green,,,null,object_01a.png,object_15c.png,,,,,,,,,,,,,,,,,,,,
null,,rt_plussign_withcolor2,367283,,,,green,,,null,object_01a.png,object_15c.png,,,,,,,,,,,,,,,,,,,,
1221.9000000059605,,rt_thecrossant_black2,368816,,,,black_plus_sign,,,50,,,1,,,,,,,1,,,,,,,,,,,,
null,,color_black2,368918,,,,black_plus_sign,,,null,,,,,,,,,,,,,,,,,,,,,,
null,,learn_phase(without_color)2,372421,,,,black_plus_sign,,,null,object_05a.png,object_05c.png,,,,,,,,,,,,,,,,,,,,
null,,black_cross(without_color)2,373010,,,,green,,,null,object_05a.png,object_05c.png,,,,,,,,,,,,,,,,,,,,
null,,rt_plussign_withcolor2,373512,,,,green,,,null,object_05a.png,object_05c.png,,,,,,,,,,,,,,,,,,,,
731.0999999940395,,rt_thecrossant_black2,374929,,,,black_plus_sign,,,50,,,1,,,,,,,1,,,,,,,,,,,,
null,,color_black2,375031,,,,black_plus_sign,,,null,,,,,,,,,,,,,,,,,,,,,,
null,,learn_phase(without_color)2,378534,,,,black_plus_sign,,,null,object_09c.png,object_02b.png,,,,,,,,,,,,,,,,,,,,
null,,black_cross(without_color)2,379027,,,,blue,,,null,object_09c.png,object_02b.png,,,,,,,,,,,,,,,,,,,,
421.90000000596046,,rt_plussign_withcolor2,379528,,,,blue,,,49,object_09c.png,object_02b.png,,,,,,,,,,,,,,,,,,,,
null,,rt_thecrossant_black2,381040,,,,black_plus_sign,,,null,,,1,,,,,,,1,,,,,,,,,,,,
null,,color_black2,381142,,,,black_plus_sign,,,null,,,,,,,,,,,,,,,,,,,,,,
null,,learn_phase(without_color)2,384645,,,,black_plus_sign,,,null,object_04c.png,object_08b.png,,,,,,,,,,,,,,,,,,,,
null,,black_cross(without_color)2,385248,,,,blue,,,null,object_04c.png,object_08b.png,,,,,,,,,,,,,,,,,,,,
null,,rt_plussign_withcolor2,385750,,,,blue,,,null,object_04c.png,object_08b.png,,,,,,,,,,,,,,,,,,,,
935.6000000238419,,rt_thecrossant_black2,387153,,,,black_plus_sign,,,49,,,1,,,,,,,1,,,,,,,,,,,,
null,,color_black2,387256,,,,black_plus_sign,,,null,,,,,,,,,,,,,,,,,,,,,,
null,,learn_phase(without_color)2,390759,,,,black_plus_sign,,,null,object_14c.png,object_15a.png,,,,,,,,,,,,,,,,,,,,
null,,black_cross(without_color)2,391768,,,,blue,,,null,object_14c.png,object_15a.png,,,,,,,,,,,,,,,,,,,,
null,,rt_plussign_withcolor2,392269,,,,blue,,,null,object_14c.png,object_15a.png,,,,,,,,,,,,,,,,,,,,
1085.300000011921,,rt_thecrossant_black2,393276,,,,black_plus_sign,,,50,,,0,,,,,,,0.8333333333333334,,,,,,,,,,,,
null,,color_black2,393378,,,,black_plus_sign,,,null,,,,,,,,,,,,,,,,,,,,,,
null,,learn_phase(without_color)2,396880,,,,black_plus_sign,,,null,object_11c.png,object_01b.png,,,,,,,,,,,,,,,,,,,,
null,,black_cross(without_color)2,397614,,,,blue,,,null,object_11c.png,object_01b.png,,,,,,,,,,,,,,,,,,,,
null,,rt_plussign_withcolor2,398115,,,,blue,,,null,object_11c.png,object_01b.png,,,,,,,,,,,,,,,,,,,,
1448.800000011921,,rt_thecrossant_black2,399386,,,,black_plus_sign,,,49,,,1,,,,,,,0.8571428571428571,,,,,,,,,,,,
null,,color_black2,399489,,,,black_plus_sign,,,null,,,,,,,,,,,,,,,,,,,,,,
null,,learn_phase(without_color)2,402993,,,,black_plus_sign,,,null,object_14b.png,object_15b.png,,,,,,,,,,,,,,,,,,,,
null,,black_cross(without_color)2,403941,,,,blue,,,null,object_14b.png,object_15b.png,,,,,,,,,,,,,,,,,,,,
490.30000001192093,,rt_plussign_withcolor2,404445,,,,blue,,,49,object_14b.png,object_15b.png,,,,,,,,,,,,,,,,,,,,
null,,rt_thecrossant_black2,405501,,,,black_plus_sign,,,null,,,1,,,,,,,0.875,,,,,,,,,,,,
null,,color_black2,405604,,,,black_plus_sign,,,null,,,,,,,,,,,,,,,,,,,,,,
null,,learn_phase(without_color)2,409107,,,,black_plus_sign,,,null,object_01c.png,object_03b.png,,,,,,,,,,,,,,,,,,,,
null,,black_cross(without_color)2,409528,,,,green,,,null,object_01c.png,object_03b.png,,,,,,,,,,,,,,,,,,,,
null,,rt_plussign_withcolor2,410030,,,,green,,,null,object_01c.png,object_03b.png,,,,,,,,,,,,,,,,,,,,
1174.4000000059605,,rt_thecrossant_black2,411612,,,,black_plus_sign,,,50,,,1,,,,,,,0.8888888888888888,,,,,,,,,,,,
null,,color_black2,411714,,,,black_plus_sign,,,null,,,,,,,,,,,,,,,,,,,,,,
null,,learn_phase(without_color)2,415218,,,,black_plus_sign,,,null,object_03c.png,object_11b.png,,,,,,,,,,,,,,,,,,,,
null,,black_cross(without_color)2,416200,,,,blue,,,null,object_03c.png,object_11b.png,,,,,,,,,,,,,,,,,,,,
null,,rt_plussign_withcolor2,416701,,,,blue,,,null,object_03c.png,object_11b.png,,,,,,,,,,,,,,,,,,,,
861.8999999761581,,rt_thecrossant_black2,417726,,,,black_plus_sign,,,49,,,1,,,,,,,0.9,,,,,,,,,,,,
null,,color_black2,417829,,,,black_plus_sign,,,null,,,,,,,,,,,,,,,,,,,,,,
null,,learn_phase(without_color)2,421332,,,,black_plus_sign,,,null,object_02a.png,object_09b.png,,,,,,,,,,,,,,,,,,,,
null,,black_cross(without_color)2,422127,,,,green,,,null,object_02a.png,object_09b.png,,,,,,,,,,,,,,,,,,,,
391.59999999403954,,rt_plussign_withcolor2,422629,,,,green,,,50,object_02a.png,object_09b.png,,,,,,,,,,,,,,,,,,,,
null,,rt_thecrossant_black2,423838,,,,black_plus_sign,,,null,,,1,,,,,,,0.9090909090909091,,,,,,,,,,,,
null,,color_black2,423940,,,,black_plus_sign,,,null,,,,,,,,,,,,,,,,,,,,,,
null,,learn_phase(without_color)2,427443,,,,black_plus_sign,,,null,object_06b.png,object_10c.png,,,,,,,,,,,,,,,,,,,,
null,,black_cross(without_color)2,428401,,,,blue,,,null,object_06b.png,object_10c.png,,,,,,,,,,,,,,,,,,,,
365.30000001192093,,rt_plussign_withcolor2,428903,,,,blue,,,49,object_06b.png,object_10c.png,,,,,,,,,,,,,,,,,,,,
null,,rt_thecrossant_black2,429950,,,,black_plus_sign,,,null,,,1,,,,,,,0.9166666666666666,,,,,,,,,,,,
null,,color_black2,430051,,,,black_plus_sign,,,null,,,,,,,,,,,,,,,,,,,,,,
null,,learn_phase(without_color)2,433554,,,,black_plus_sign,,,null,object_04b.png,object_07b.png,,,,,,,,,,,,,,,,,,,,
null,,black_cross(without_color)2,434243,,,,blue,,,null,object_04b.png,object_07b.png,,,,,,,,,,,,,,,,,,,,
null,,rt_plussign_withcolor2,434745,,,,blue,,,null,object_04b.png,object_07b.png,,,,,,,,,,,,,,,,,,,,
1146,,rt_thecrossant_black2,436059,,,,black_plus_sign,,,49,,,1,,,,,,,0.9230769230769231,,,,,,,,,,,,
null,,color_black2,436161,,,,black_plus_sign,,,null,,,,,,,,,,,,,,,,,,,,,,
null,,learn_phase(without_color)2,439673,,,,black_plus_sign,,,null,object_05b.png,object_12b.png,,,,,,,,,,,,,,,,,,,,
null,,black_cross(without_color)2,440089,,,,green,,,null,object_05b.png,object_12b.png,,,,,,,,,,,,,,,,,,,,
null,,rt_plussign_withcolor2,440591,,,,green,,,null,object_05b.png,object_12b.png,,,,,,,,,,,,,,,,,,,,
1004.3000000119209,,rt_thecrossant_black2,442179,,,,black_plus_sign,,,50,,,1,,,,,,,0.9285714285714286,,,,,,,,,,,,
null,,color_black2,442281,,,,black_plus_sign,,,null,,,,,,,,,,,,,,,,,,,,,,
null,,learn_phase(without_color)2,445789,,,,black_plus_sign,,,null,object_07c.png,object_12c.png,,,,,,,,,,,,,,,,,,,,
null,,black_cross(without_color)2,446569,,,,green,,,null,object_07c.png,object_12c.png,,,,,,,,,,,,,,,,,,,,
496.7999999821186,,rt_plussign_withcolor2,447071,,,,green,,,50,object_07c.png,object_12c.png,,,,,,,,,,,,,,,,,,,,
null,,rt_thecrossant_black2,448295,,,,black_plus_sign,,,null,,,1,,,,,,,0.9333333333333333,,,,,,,,,,,,
null,,color_black2,448398,,,,black_plus_sign,,,null,,,,,,,,,,,,,,,,,,,,,,
null,,thebreak,448500,,,,<p></p>,,,null,,,,,,,,,,,,,,,,,,,,,,
1382.300000011921,,intro_0,449884,,,,instruct,,,32,,,,,,,,,,,,,,,,,,,,,,
4830,,directmemory_phase2,454715,,,,object_08b.png,,,49,,,1,,object_04c.png,object_05c.png,object_09b.png,object_04c.png,,0.5,1,,,,,,,,,,,
4148.199999988079,,directmemory_phase2,458866,,,,object_12c.png,,,51,,,1,,object_06b.png,object_04b.png,object_07c.png,object_07c.png,,0.5294117647058824,1,,,,,,,,,,,
5840.9000000059605,,directmemory_phase2,464709,,,,object_15b.png,,,50,,,1,,object_05a.png,object_14b.png,object_02c.png,object_14b.png,,0.5555555555555556,1,,,,,,,,,,,
3571.7000000178814,,directmemory_phase2,468284,,,,object_04b.png,,,51,,,1,,object_02c.png,object_05a.png,object_07b.png,object_07b.png,,0.5789473684210527,1,,,,,,,,,,,
3692.800000011921,,directmemory_phase2,471979,,,,object_09b.png,,,51,,,0,,object_05b.png,object_02a.png,object_02b.png,object_02a.png,,0.55,0,,,,,,,,,,,
1699.5,,directmemory_phase2,473681,,,,object_08a.png,,,50,,,1,,object_09c.png,object_02c.png,object_01a.png,object_02c.png,,0.5714285714285714,1,,,,,,,,,,,
4080.0999999940395,,directmemory_phase2,477764,,,,object_05a.png,,,51,,,0,,object_05c.png,object_07c.png,object_09c.png,object_05c.png,,0.5454545454545454,0,,,,,,,,,,,
3501.5,,directmemory_phase2,481269,,,,object_03b.png,,,49,,,1,,object_01c.png,object_04c.png,object_12c.png,object_01c.png,,0.5652173913043478,1,,,,,,,,,,,
2758.2000000178814,,directmemory_phase2,484030,,,,object_01b.png,,,49,,,1,,object_11c.png,object_07c.png,object_03b.png,object_11c.png,,0.5833333333333334,1,,,,,,,,,,,
4425.399999976158,,directmemory_phase2,488458,,,,object_15c.png,,,49,,,1,,object_01a.png,object_12b.png,object_08b.png,object_01a.png,,0.6,1,,,,,,,,,,,
2058.899999976158,,directmemory_phase2,490519,,,,object_05b.png,,,49,,,1,,object_12b.png,object_02b.png,object_12c.png,object_12b.png,,0.6153846153846154,1,,,,,,,,,,,
1775.0999999940395,,directmemory_phase2,492297,,,,object_11b.png,,,50,,,1,,object_05a.png,object_03c.png,object_07c.png,object_03c.png,,0.6296296296296297,1,,,,,,,,,,,
4352.600000023842,,directmemory_phase2,496652,,,,object_15a.png,,,50,,,1,,object_05a.png,object_14c.png,object_07c.png,object_14c.png,,0.6428571428571429,1,,,,,,,,,,,
3613.0999999940395,,directmemory_phase2,500268,,,,object_09c.png,,,51,,,0,,object_01b.png,object_02b.png,object_01a.png,object_02b.png,,0.6206896551724138,0,,,,,,,,,,,
2196.4000000059605,,directmemory_phase2,502467,,,,object_10c.png,,,49,,,1,,object_06b.png,object_11c.png,object_05b.png,object_06b.png,,0.6333333333333333,1,,,,,,,,,,,
null,,thebreak,502570,,,,<p></p>,,,null,,,,,,,,,,,,,,,,,,,,,,
1996.7999999821186,,intro_0,504568,,,,instruct,,,32,,,,,,,,,,,,,,,,,,,,,,
null,,learn_phase(without_color)3,508070,,,,black_plus_sign,,,null,object_04b.png,object_07b.png,,,,,,,,,,,,,,,,,,,,
null,,black_cross(without_color)3,508875,,,,green,,,null,object_04b.png,object_07b.png,,,,,,,,,,,,,,,,,,,,
null,,rt_plussign_withcolor3,509378,,,,green,,,null,object_04b.png,object_07b.png,,,,,,,,,,,,,,,,,,,,
1563.2999999821186,,rt_thecrossant_black3,510579,,,,black_plus_sign,,,50,,,1,,,,,,,1,,,,,,,,,,,,
null,,color_black3,510682,,,,black_plus_sign,,,null,,,,,,,,,,,,,,,,,,,,,,
null,,learn_phase(without_color)3,514184,,,,black_plus_sign,,,null,object_08a.png,object_02c.png,,,,,,,,,,,,,,,,,,,,
null,,black_cross(without_color)3,514992,,,,green,,,null,object_08a.png,object_02c.png,,,,,,,,,,,,,,,,,,,,
null,,rt_plussign_withcolor3,515494,,,,green,,,null,object_08a.png,object_02c.png,,,,,,,,,,,,,,,,,,,,
1267.5999999940395,,rt_thecrossant_black3,516692,,,,black_plus_sign,,,50,,,1,,,,,,,1,,,,,,,,,,,,
null,,color_black3,516794,,,,black_plus_sign,,,null,,,,,,,,,,,,,,,,,,,,,,
null,,learn_phase(without_color)3,520298,,,,black_plus_sign,,,null,object_03c.png,object_11b.png,,,,,,,,,,,,,,,,,,,,
null,,black_cross(without_color)3,520759,,,,green,,,null,object_03c.png,object_11b.png,,,,,,,,,,,,,,,,,,,,
null,,rt_plussign_withcolor3,521261,,,,green,,,null,object_03c.png,object_11b.png,,,,,,,,,,,,,,,,,,,,
931.2999999821186,,rt_thecrossant_black3,522805,,,,black_plus_sign,,,50,,,1,,,,,,,1,,,,,,,,,,,,
null,,color_black3,522916,,,,black_plus_sign,,,null,,,,,,,,,,,,,,,,,,,,,,
null,,learn_phase(without_color)3,526418,,,,black_plus_sign,,,null,object_06b.png,object_10c.png,,,,,,,,,,,,,,,,,,,,
null,,black_cross(without_color)3,527397,,,,blue,,,null,object_06b.png,object_10c.png,,,,,,,,,,,,,,,,,,,,
429.09999999403954,,rt_plussign_withcolor3,527899,,,,blue,,,49,object_06b.png,object_10c.png,,,,,,,,,,,,,,,,,,,,
null,,rt_thecrossant_black3,528924,,,,black_plus_sign,,,null,,,1,,,,,,,1,,,,,,,,,,,,
null,,color_black3,529028,,,,black_plus_sign,,,null,,,,,,,,,,,,,,,,,,,,,,
null,,learn_phase(without_color)3,532530,,,,black_plus_sign,,,null,object_05b.png,object_12b.png,,,,,,,,,,,,,,,,,,,,
null,,black_cross(without_color)3,533437,,,,green,,,null,object_05b.png,object_12b.png,,,,,,,,,,,,,,,,,,,,
395.19999998807907,,rt_plussign_withcolor3,533939,,,,green,,,50,object_05b.png,object_12b.png,,,,,,,,,,,,,,,,,,,,
null,,rt_thecrossant_black3,535036,,,,black_plus_sign,,,null,,,1,,,,,,,1,,,,,,,,,,,,
null,,color_black3,535139,,,,black_plus_sign,,,null,,,,,,,,,,,,,,,,,,,,,,
null,,learn_phase(without_color)3,538642,,,,black_plus_sign,,,null,object_01c.png,object_03b.png,,,,,,,,,,,,,,,,,,,,
null,,black_cross(without_color)3,539474,,,,blue,,,null,object_01c.png,object_03b.png,,,,,,,,,,,,,,,,,,,,
null,,rt_plussign_withcolor3,539976,,,,blue,,,null,object_01c.png,object_03b.png,,,,,,,,,,,,,,,,,,,,
1066.4000000059605,,rt_thecrossant_black3,541149,,,,black_plus_sign,,,49,,,1,,,,,,,1,,,,,,,,,,,,
null,,color_black3,541252,,,,black_plus_sign,,,null,,,,,,,,,,,,,,,,,,,,,,
null,,learn_phase(without_color)3,544754,,,,black_plus_sign,,,null,object_04c.png,object_08b.png,,,,,,,,,,,,,,,,,,,,
null,,black_cross(without_color)3,545422,,,,blue,,,null,object_04c.png,object_08b.png,,,,,,,,,,,,,,,,,,,,
493.7000000178814,,rt_plussign_withcolor3,545924,,,,blue,,,49,object_04c.png,object_08b.png,,,,,,,,,,,,,,,,,,,,
null,,rt_thecrossant_black3,547260,,,,black_plus_sign,,,null,,,1,,,,,,,1,,,,,,,,,,,,
null,,color_black3,547362,,,,black_plus_sign,,,null,,,,,,,,,,,,,,,,,,,,,,
null,,learn_phase(without_color)3,550865,,,,black_plus_sign,,,null,object_14c.png,object_15a.png,,,,,,,,,,,,,,,,,,,,
null,,black_cross(without_color)3,551873,,,,blue,,,null,object_14c.png,object_15a.png,,,,,,,,,,,,,,,,,,,,
null,,rt_plussign_withcolor3,552376,,,,blue,,,null,object_14c.png,object_15a.png,,,,,,,,,,,,,,,,,,,,
784.9000000059605,,rt_thecrossant_black3,553372,,,,black_plus_sign,,,49,,,1,,,,,,,1,,,,,,,,,,,,
null,,color_black3,553474,,,,black_plus_sign,,,null,,,,,,,,,,,,,,,,,,,,,,
null,,learn_phase(without_color)3,556977,,,,black_plus_sign,,,null,object_02a.png,object_09b.png,,,,,,,,,,,,,,,,,,,,
null,,black_cross(without_color)3,557826,,,,blue,,,null,object_02a.png,object_09b.png,,,,,,,,,,,,,,,,,,,,
409.80000001192093,,rt_plussign_withcolor3,558329,,,,blue,,,49,object_02a.png,object_09b.png,,,,,,,,,,,,,,,,,,,,
null,,rt_thecrossant_black3,559485,,,,black_plus_sign,,,null,,,1,,,,,,,1,,,,,,,,,,,,
null,,color_black3,559587,,,,black_plus_sign,,,null,,,,,,,,,,,,,,,,,,,,,,
null,,learn_phase(without_color)3,563089,,,,black_plus_sign,,,null,object_15b.png,object_14b.png,,,,,,,,,,,,,,,,,,,,
null,,black_cross(without_color)3,563665,,,,green,,,null,object_15b.png,object_14b.png,,,,,,,,,,,,,,,,,,,,
null,,rt_plussign_withcolor3,564167,,,,green,,,null,object_15b.png,object_14b.png,,,,,,,,,,,,,,,,,,,,
1053,,rt_thecrossant_black3,565597,,,,black_plus_sign,,,50,,,1,,,,,,,1,,,,,,,,,,,,
null,,color_black3,565698,,,,black_plus_sign,,,null,,,,,,,,,,,,,,,,,,,,,,
null,,learn_phase(without_color)3,569203,,,,black_plus_sign,,,null,object_09c.png,object_02b.png,,,,,,,,,,,,,,,,,,,,
null,,black_cross(without_color)3,569845,,,,blue,,,null,object_09c.png,object_02b.png,,,,,,,,,,,,,,,,,,,,
null,,rt_plussign_withcolor3,570347,,,,blue,,,null,object_09c.png,object_02b.png,,,,,,,,,,,,,,,,,,,,
688.4000000059605,,rt_thecrossant_black3,571711,,,,black_plus_sign,,,49,,,1,,,,,,,1,,,,,,,,,,,,
null,,color_black3,571813,,,,black_plus_sign,,,null,,,,,,,,,,,,,,,,,,,,,,
null,,learn_phase(without_color)3,575316,,,,black_plus_sign,,,null,object_15c.png,object_01a.png,,,,,,,,,,,,,,,,,,,,
null,,black_cross(without_color)3,575868,,,,blue,,,null,object_15c.png,object_01a.png,,,,,,,,,,,,,,,,,,,,
407.80000001192093,,rt_plussign_withcolor3,576371,,,,blue,,,49,object_15c.png,object_01a.png,,,,,,,,,,,,,,,,,,,,
null,,rt_thecrossant_black3,577824,,,,black_plus_sign,,,null,,,1,,,,,,,1,,,,,,,,,,,,
null,,color_black3,577926,,,,black_plus_sign,,,null,,,,,,,,,,,,,,,,,,,,,,
null,,learn_phase(without_color)3,581428,,,,black_plus_sign,,,null,object_05a.png,object_05c.png,,,,,,,,,,,,,,,,,,,,
null,,black_cross(without_color)3,582007,,,,blue,,,null,object_05a.png,object_05c.png,,,,,,,,,,,,,,,,,,,,
500.7000000178814,,rt_plussign_withcolor3,582516,,,,blue,,,49,object_05a.png,object_05c.png,,,,,,,,,,,,,,,,,,,,
null,,rt_thecrossant_black3,583944,,,,black_plus_sign,,,null,,,1,,,,,,,1,,,,,,,,,,,,
null,,color_black3,584045,,,,black_plus_sign,,,null,,,,,,,,,,,,,,,,,,,,,,
null,,learn_phase(without_color)3,587549,,,,black_plus_sign,,,null,object_12c.png,object_07c.png,,,,,,,,,,,,,,,,,,,,
null,,black_cross(without_color)3,588284,,,,green,,,null,object_12c.png,object_07c.png,,,,,,,,,,,,,,,,,,,,
318.10000002384186,,rt_plussign_withcolor3,588786,,,,green,,,50,object_12c.png,object_07c.png,,,,,,,,,,,,,,,,,,,,
null,,rt_thecrossant_black3,590058,,,,black_plus_sign,,,null,,,1,,,,,,,1,,,,,,,,,,,,
null,,color_black3,590160,,,,black_plus_sign,,,null,,,,,,,,,,,,,,,,,,,,,,
null,,learn_phase(without_color)3,593664,,,,black_plus_sign,,,null,object_11c.png,object_01b.png,,,,,,,,,,,,,,,,,,,,
null,,black_cross(without_color)3,594613,,,,blue,,,null,object_11c.png,object_01b.png,,,,,,,,,,,,,,,,,,,,
464.69999998807907,,rt_plussign_withcolor3,595115,,,,blue,,,49,object_11c.png,object_01b.png,,,,,,,,,,,,,,,,,,,,
null,,rt_thecrossant_black3,596170,,,,black_plus_sign,,,null,,,1,,,,,,,1,,,,,,,,,,,,
null,,color_black3,596272,,,,black_plus_sign,,,null,,,,,,,,,,,,,,,,,,,,,,
null,,thebreak,596378,,,,<p></p>,,,null,,,,,,,,,,,,,,,,,,,,,,
1307.7999999821186,,intro_0,597688,,,,instruct,,,32,,,,,,,,,,,,,,,,,,,,,,
5373,,directmemory_phase3,603063,,,,object_01b.png,,,51,,,1,,object_02a.png,object_05b.png,object_11c.png,object_11c.png,,0.6451612903225806,1,,,,,,,,,,,
4305.200000017881,,directmemory_phase3,607371,,,,object_03b.png,,,49,,,1,,object_01c.png,object_07b.png,object_15a.png,object_01c.png,,0.65625,1,,,,,,,,,,,
6464.899999976158,,directmemory_phase3,613840,,,,object_09b.png,,,49,,,0,,object_09c.png,object_02a.png,object_03c.png,object_02a.png,,0.6363636363636364,0,,,,,,,,,,,
4042.5,,directmemory_phase3,617885,,,,object_04b.png,,,49,,,1,,object_07b.png,object_06b.png,object_03b.png,object_07b.png,,0.6470588235294118,1,,,,,,,,,,,
3445.699999988079,,directmemory_phase3,621333,,,,object_10c.png,,,50,,,1,,object_15a.png,object_06b.png,object_02b.png,object_06b.png,,0.6571428571428571,1,,,,,,,,,,,
6586.9000000059605,,directmemory_phase3,627922,,,,object_15a.png,,,49,,,0,,object_02b.png,object_08a.png,object_14c.png,object_14c.png,,0.6388888888888888,0,,,,,,,,,,,
8180.5,,directmemory_phase3,636106,,,,object_12c.png,,,50,,,0,,object_07c.png,object_03c.png,object_04b.png,object_07c.png,,0.6216216216216216,0,,,,,,,,,,,
1839.2999999821186,,directmemory_phase3,637948,,,,object_05a.png,,,49,,,0,,object_08a.png,object_05c.png,object_02b.png,object_05c.png,,0.6052631578947368,0,,,,,,,,,,,
5864,,directmemory_phase3,643814,,,,object_15b.png,,,49,,,1,,object_14b.png,object_02c.png,object_09c.png,object_14b.png,,0.6153846153846154,1,,,,,,,,,,,
4780.9000000059605,,directmemory_phase3,648597,,,,object_08b.png,,,51,,,1,,object_14c.png,object_09c.png,object_04c.png,object_04c.png,,0.625,1,,,,,,,,,,,
1895,,directmemory_phase3,650495,,,,object_08a.png,,,50,,,1,,object_11b.png,object_02c.png,object_04c.png,object_02c.png,,0.6341463414634146,1,,,,,,,,,,,
6174.4000000059605,,directmemory_phase3,656671,,,,object_15c.png,,,50,,,1,,object_03b.png,object_01a.png,object_04c.png,object_01a.png,,0.6428571428571429,1,,,,,,,,,,,
2183.9000000059605,,directmemory_phase3,658862,,,,object_11b.png,,,49,,,1,,object_03c.png,object_05c.png,object_05b.png,object_03c.png,,0.6511627906976745,1,,,,,,,,,,,
3733.600000023842,,directmemory_phase3,662598,,,,object_09c.png,,,51,,,0,,object_11b.png,object_02b.png,object_07c.png,object_02b.png,,0.6363636363636364,0,,,,,,,,,,,
2566.9000000059605,,directmemory_phase3,665169,,,,object_05b.png,,,51,,,1,,object_02b.png,object_09c.png,object_12b.png,object_12b.png,,0.6444444444444445,1,,,,,,,,,,,
null,,thebreak,665275,,,,<p></p>,,,null,,,,,,,,,,,,,,,,,,,,,,
2260.2000000178814,,intro_0,667537,,,,instruct,,,32,,,,,,,,,,,,,,,,,,,,,,
null,,learn_phase(without_color)4,671039,,,,black_plus_sign,,,null,object_02a.png,object_09b.png,,,,,,,,,,,,,,,,,,,,
null,,black_cross(without_color)4,672079,,,,blue,,,null,object_02a.png,object_09b.png,,,,,,,,,,,,,,,,,,,,
null,,rt_plussign_withcolor4,672581,,,,blue,,,null,object_02a.png,object_09b.png,,,,,,,,,,,,,,,,,,,,
1155.9000000059605,,rt_thecrossant_black4,673550,,,,black_plus_sign,,,49,,,1,,,,,,,1,,,,,,,,,,,,
null,,color_black4,673654,,,,black_plus_sign,,,null,,,,,,,,,,,,,,,,,,,,,,
null,,learn_phase(without_color)4,677157,,,,black_plus_sign,,,null,object_05b.png,object_12b.png,,,,,,,,,,,,,,,,,,,,
null,,black_cross(without_color)4,677835,,,,green,,,null,object_05b.png,object_12b.png,,,,,,,,,,,,,,,,,,,,
447,,rt_plussign_withcolor4,678336,,,,green,,,50,object_05b.png,object_12b.png,,,,,,,,,,,,,,,,,,,,
null,,rt_thecrossant_black4,679662,,,,black_plus_sign,,,null,,,1,,,,,,,1,,,,,,,,,,,,
null,,color_black4,679765,,,,black_plus_sign,,,null,,,,,,,,,,,,,,,,,,,,,,
null,,learn_phase(without_color)4,683268,,,,black_plus_sign,,,null,object_08b.png,object_04c.png,,,,,,,,,,,,,,,,,,,,
null,,black_cross(without_color)4,684007,,,,blue,,,null,object_08b.png,object_04c.png,,,,,,,,,,,,,,,,,,,,
null,,rt_plussign_withcolor4,684510,,,,blue,,,null,object_08b.png,object_04c.png,,,,,,,,,,,,,,,,,,,,
930.4000000059605,,rt_thecrossant_black4,685775,,,,black_plus_sign,,,49,,,1,,,,,,,1,,,,,,,,,,,,
null,,color_black4,685877,,,,black_plus_sign,,,null,,,,,,,,,,,,,,,,,,,,,,
null,,learn_phase(without_color)4,689381,,,,black_plus_sign,,,null,object_09c.png,object_02b.png,,,,,,,,,,,,,,,,,,,,
null,,black_cross(without_color)4,689915,,,,green,,,null,object_09c.png,object_02b.png,,,,,,,,,,,,,,,,,,,,
null,,rt_plussign_withcolor4,690418,,,,green,,,null,object_09c.png,object_02b.png,,,,,,,,,,,,,,,,,,,,
951.1000000238419,,rt_thecrossant_black4,691891,,,,black_plus_sign,,,50,,,1,,,,,,,1,,,,,,,,,,,,
null,,color_black4,691993,,,,black_plus_sign,,,null,,,,,,,,,,,,,,,,,,,,,,
null,,learn_phase(without_color)4,695495,,,,black_plus_sign,,,null,object_15c.png,object_01a.png,,,,,,,,,,,,,,,,,,,,
null,,black_cross(without_color)4,696144,,,,green,,,null,object_15c.png,object_01a.png,,,,,,,,,,,,,,,,,,,,
417.40000000596046,,rt_plussign_withcolor4,696646,,,,green,,,50,object_15c.png,object_01a.png,,,,,,,,,,,,,,,,,,,,
null,,rt_thecrossant_black4,698002,,,,black_plus_sign,,,null,,,1,,,,,,,1,,,,,,,,,,,,
null,,color_black4,698105,,,,black_plus_sign,,,null,,,,,,,,,,,,,,,,,,,,,,
null,,learn_phase(without_color)4,701609,,,,black_plus_sign,,,null,object_14c.png,object_15a.png,,,,,,,,,,,,,,,,,,,,
null,,black_cross(without_color)4,702437,,,,green,,,null,object_14c.png,object_15a.png,,,,,,,,,,,,,,,,,,,,
null,,rt_plussign_withcolor4,702939,,,,green,,,null,object_14c.png,object_15a.png,,,,,,,,,,,,,,,,,,,,
871.8000000119209,,rt_thecrossant_black4,704118,,,,black_plus_sign,,,50,,,1,,,,,,,1,,,,,,,,,,,,
null,,color_black4,704220,,,,black_plus_sign,,,null,,,,,,,,,,,,,,,,,,,,,,
null,,learn_phase(without_color)4,707724,,,,black_plus_sign,,,null,object_12c.png,object_07c.png,,,,,,,,,,,,,,,,,,,,
null,,black_cross(without_color)4,708435,,,,green,,,null,object_12c.png,object_07c.png,,,,,,,,,,,,,,,,,,,,
null,,rt_plussign_withcolor4,708939,,,,green,,,null,object_12c.png,object_07c.png,,,,,,,,,,,,,,,,,,,,
961.1000000238419,,rt_thecrossant_black4,710233,,,,black_plus_sign,,,50,,,1,,,,,,,1,,,,,,,,,,,,
null,,color_black4,710335,,,,black_plus_sign,,,null,,,,,,,,,,,,,,,,,,,,,,
null,,learn_phase(without_color)4,713840,,,,black_plus_sign,,,null,object_02c.png,object_08a.png,,,,,,,,,,,,,,,,,,,,
null,,black_cross(without_color)4,714560,,,,green,,,null,object_02c.png,object_08a.png,,,,,,,,,,,,,,,,,,,,
null,,rt_plussign_withcolor4,715062,,,,green,,,null,object_02c.png,object_08a.png,,,,,,,,,,,,,,,,,,,,
810.6999999880791,,rt_thecrossant_black4,716348,,,,black_plus_sign,,,50,,,1,,,,,,,1,,,,,,,,,,,,
null,,color_black4,716451,,,,black_plus_sign,,,null,,,,,,,,,,,,,,,,,,,,,,
null,,learn_phase(without_color)4,719954,,,,black_plus_sign,,,null,object_05c.png,object_05a.png,,,,,,,,,,,,,,,,,,,,
null,,black_cross(without_color)4,720422,,,,blue,,,null,object_05c.png,object_05a.png,,,,,,,,,,,,,,,,,,,,
null,,rt_plussign_withcolor4,720924,,,,blue,,,null,object_05c.png,object_05a.png,,,,,,,,,,,,,,,,,,,,
923,,rt_thecrossant_black4,722462,,,,black_plus_sign,,,49,,,1,,,,,,,1,,,,,,,,,,,,
null,,color_black4,722574,,,,black_plus_sign,,,null,,,,,,,,,,,,,,,,,,,,,,
null,,learn_phase(without_color)4,726077,,,,black_plus_sign,,,null,object_04b.png,object_07b.png,,,,,,,,,,,,,,,,,,,,
null,,black_cross(without_color)4,726608,,,,blue,,,null,object_04b.png,object_07b.png,,,,,,,,,,,,,,,,,,,,
410.7000000178814,,rt_plussign_withcolor4,727109,,,,blue,,,49,object_04b.png,object_07b.png,,,,,,,,,,,,,,,,,,,,
null,,rt_thecrossant_black4,728584,,,,black_plus_sign,,,null,,,1,,,,,,,1,,,,,,,,,,,,
null,,color_black4,728690,,,,black_plus_sign,,,null,,,,,,,,,,,,,,,,,,,,,,
null,,learn_phase(without_color)4,732193,,,,black_plus_sign,,,null,object_14b.png,object_15b.png,,,,,,,,,,,,,,,,,,,,
null,,black_cross(without_color)4,732959,,,,blue,,,null,object_14b.png,object_15b.png,,,,,,,,,,,,,,,,,,,,
null,,rt_plussign_withcolor4,733460,,,,blue,,,null,object_14b.png,object_15b.png,,,,,,,,,,,,,,,,,,,,
736.2999999821186,,rt_thecrossant_black4,734699,,,,black_plus_sign,,,49,,,1,,,,,,,1,,,,,,,,,,,,
null,,color_black4,734801,,,,black_plus_sign,,,null,,,,,,,,,,,,,,,,,,,,,,
null,,learn_phase(without_color)4,738304,,,,black_plus_sign,,,null,object_10c.png,object_06b.png,,,,,,,,,,,,,,,,,,,,
null,,black_cross(without_color)4,739356,,,,green,,,null,object_10c.png,object_06b.png,,,,,,,,,,,,,,,,,,,,
null,,rt_plussign_withcolor4,739858,,,,green,,,null,object_10c.png,object_06b.png,,,,,,,,,,,,,,,,,,,,
865.4000000059605,,rt_thecrossant_black4,740811,,,,black_plus_sign,,,50,,,1,,,,,,,1,,,,,,,,,,,,
null,,color_black4,740914,,,,black_plus_sign,,,null,,,,,,,,,,,,,,,,,,,,,,
null,,learn_phase(without_color)4,744416,,,,black_plus_sign,,,null,object_11c.png,object_01b.png,,,,,,,,,,,,,,,,,,,,
null,,black_cross(without_color)4,744979,,,,green,,,null,object_11c.png,object_01b.png,,,,,,,,,,,,,,,,,,,,
null,,rt_plussign_withcolor4,745481,,,,green,,,null,object_11c.png,object_01b.png,,,,,,,,,,,,,,,,,,,,
1596.9000000059605,,rt_thecrossant_black4,746923,,,,black_plus_sign,,,50,,,1,,,,,,,1,,,,,,,,,,,,
null,,color_black4,747026,,,,black_plus_sign,,,null,,,,,,,,,,,,,,,,,,,,,,
null,,learn_phase(without_color)4,750528,,,,black_plus_sign,,,null,object_03c.png,object_11b.png,,,,,,,,,,,,,,,,,,,,
null,,black_cross(without_color)4,751453,,,,green,,,null,object_03c.png,object_11b.png,,,,,,,,,,,,,,,,,,,,
392.2999999821186,,rt_plussign_withcolor4,751956,,,,green,,,50,object_03c.png,object_11b.png,,,,,,,,,,,,,,,,,,,,
null,,rt_thecrossant_black4,753036,,,,black_plus_sign,,,null,,,1,,,,,,,1,,,,,,,,,,,,
null,,color_black4,753139,,,,black_plus_sign,,,null,,,,,,,,,,,,,,,,,,,,,,
null,,learn_phase(without_color)4,756641,,,,black_plus_sign,,,null,object_03b.png,object_01c.png,,,,,,,,,,,,,,,,,,,,
null,,black_cross(without_color)4,757690,,,,green,,,null,object_03b.png,object_01c.png,,,,,,,,,,,,,,,,,,,,
null,,rt_plussign_withcolor4,758192,,,,green,,,null,object_03b.png,object_01c.png,,,,,,,,,,,,,,,,,,,,
1212.5999999940395,,rt_thecrossant_black4,759148,,,,black_plus_sign,,,50,,,1,,,,,,,1,,,,,,,,,,,,
null,,color_black4,759250,,,,black_plus_sign,,,null,,,,,,,,,,,,,,,,,,,,,,
null,,thebreak,759353,,,,<p></p>,,,null,,,,,,,,,,,,,,,,,,,,,,
1741.0999999940395,,intro_0,761096,,,,instruct,,,32,,,,,,,,,,,,,,,,,,,,,,
5532.699999988079,,directmemory_phase4,766631,,,,object_01b.png,,,50,,,1,,object_05a.png,object_11c.png,object_05c.png,object_11c.png,,0.6521739130434783,1,,,,,,,,,,,
4615.5999999940395,,directmemory_phase4,771249,,,,object_09c.png,,,50,,,0,,object_06b.png,object_05b.png,object_02b.png,object_02b.png,,0.6382978723404256,0,,,,,,,,,,,
7686,,directmemory_phase4,778939,,,,object_09b.png,,,50,,,1,,object_05b.png,object_02a.png,object_14c.png,object_02a.png,,0.6458333333333334,1,,,,,,,,,,,
1949.2999999821186,,directmemory_phase4,780891,,,,object_03b.png,,,49,,,1,,object_01c.png,object_12b.png,object_11b.png,object_01c.png,,0.6530612244897959,1,,,,,,,,,,,
2305.4000000059605,,directmemory_phase4,783199,,,,object_11b.png,,,49,,,1,,object_03c.png,object_01c.png,object_10c.png,object_03c.png,,0.66,1,,,,,,,,,,,
7521.800000011921,,directmemory_phase4,790723,,,,object_12c.png,,,51,,,1,,object_03c.png,object_08b.png,object_07c.png,object_07c.png,,0.6666666666666666,1,,,,,,,,,,,
2766.4000000059605,,directmemory_phase4,793491,,,,object_10c.png,,,49,,,1,,object_06b.png,object_07c.png,object_09c.png,object_06b.png,,0.6730769230769231,1,,,,,,,,,,,
4600.600000023842,,directmemory_phase4,798095,,,,object_15a.png,,,49,,,1,,object_14c.png,object_06b.png,object_05b.png,object_14c.png,,0.6792452830188679,1,,,,,,,,,,,
4307.5999999940395,,directmemory_phase4,802410,,,,object_05b.png,,,49,,,1,,object_12b.png,object_01a.png,object_09c.png,object_12b.png,,0.6851851851851852,1,,,,,,,,,,,
8676.199999988079,,directmemory_phase4,811090,,,,object_05a.png,,,49,,,0,,object_12b.png,object_09c.png,object_05c.png,object_05c.png,,0.6727272727272727,0,,,,,,,,,,,
3005.4000000059605,,directmemory_phase4,814098,,,,object_08b.png,,,49,,,1,,object_04c.png,object_12b.png,object_05a.png,object_04c.png,,0.6785714285714286,1,,,,,,,,,,,
1400.800000011921,,directmemory_phase4,815501,,,,object_08a.png,,,49,,,1,,object_02c.png,object_05c.png,object_03b.png,object_02c.png,,0.6842105263157895,1,,,,,,,,,,,
3663.5,,directmemory_phase4,819166,,,,object_15c.png,,,50,,,1,,object_05b.png,object_01a.png,object_02c.png,object_01a.png,,0.6896551724137931,1,,,,,,,,,,,
3189.5,,directmemory_phase4,822358,,,,object_04b.png,,,51,,,1,,object_05c.png,object_09c.png,object_07b.png,object_07b.png,,0.6949152542372882,1,,,,,,,,,,,
3710,,directmemory_phase4,826071,,,,object_15b.png,,,51,,,1,,object_03c.png,object_04b.png,object_14b.png,object_14b.png,,0.7,1,,,,,,,,,,,
null,,thebreak,826174,,,,<p></p>,,,null,,,,,,,,,,,,,,,,,,,,,,
3624.100000023842,,intro_0,829800,,,,instruct,,,32,,,,,,,,,,,,,,,,,,,,,,
null,,learn_phase(without_color)5,833306,,,,black_plus_sign,,,null,object_09a.png,object_14c.png,,,,,,,,,,,,,,,,,,,,
null,,black_cross(without_color)5,834049,,,,green,,,null,object_09a.png,object_14c.png,,,,,,,,,,,,,,,,,,,,
null,,rt_plussign_withcolor5,834551,,,,green,,,null,object_09a.png,object_14c.png,,,,,,,,,,,,,,,,,,,,
1054.7000000178814,,rt_thecrossant_black5,835814,,,,black_plus_sign,,,50,,,1,,,,,,,1,,,,,,,,,,,,
null,,color_black5,835916,,,,black_plus_sign,,,null,,,,,,,,,,,,,,,,,,,,,,
null,,learn_phase(without_color)5,839419,,,,black_plus_sign,,,null,object_13c.png,object_07b.png,,,,,,,,,,,,,,,,,,,,
null,,black_cross(without_color)5,839994,,,,blue,,,null,object_13c.png,object_07b.png,,,,,,,,,,,,,,,,,,,,
444.5,,rt_plussign_withcolor5,840496,,,,blue,,,49,object_13c.png,object_07b.png,,,,,,,,,,,,,,,,,,,,
null,,rt_thecrossant_black5,841926,,,,black_plus_sign,,,null,,,1,,,,,,,1,,,,,,,,,,,,
null,,color_black5,842028,,,,black_plus_sign,,,null,,,,,,,,,,,,,,,,,,,,,,
null,,learn_phase(without_color)5,845531,,,,black_plus_sign,,,null,object_04c.png,object_06a.png,,,,,,,,,,,,,,,,,,,,
null,,black_cross(without_color)5,846596,,,,green,,,null,object_04c.png,object_06a.png,,,,,,,,,,,,,,,,,,,,
479.80000001192093,,rt_plussign_withcolor5,847098,,,,green,,,50,object_04c.png,object_06a.png,,,,,,,,,,,,,,,,,,,,
null,,rt_thecrossant_black5,848038,,,,black_plus_sign,,,null,,,1,,,,,,,1,,,,,,,,,,,,
null,,color_black5,848140,,,,black_plus_sign,,,null,,,,,,,,,,,,,,,,,,,,,,
null,,learn_phase(without_color)5,851643,,,,black_plus_sign,,,null,object_01a.png,object_04a.png,,,,,,,,,,,,,,,,,,,,
null,,black_cross(without_color)5,852368,,,,blue,,,null,object_01a.png,object_04a.png,,,,,,,,,,,,,,,,,,,,
null,,rt_plussign_withcolor5,852871,,,,blue,,,null,object_01a.png,object_04a.png,,,,,,,,,,,,,,,,,,,,
1219.699999988079,,rt_thecrossant_black5,854151,,,,black_plus_sign,,,49,,,1,,,,,,,1,,,,,,,,,,,,
null,,color_black5,854253,,,,black_plus_sign,,,null,,,,,,,,,,,,,,,,,,,,,,
null,,learn_phase(without_color)5,857755,,,,black_plus_sign,,,null,object_14b.png,object_07a.png,,,,,,,,,,,,,,,,,,,,
null,,black_cross(without_color)5,858246,,,,green,,,null,object_14b.png,object_07a.png,,,,,,,,,,,,,,,,,,,,
null,,rt_plussign_withcolor5,858749,,,,green,,,null,object_14b.png,object_07a.png,,,,,,,,,,,,,,,,,,,,
945.3000000119209,,rt_thecrossant_black5,860264,,,,black_plus_sign,,,50,,,1,,,,,,,1,,,,,,,,,,,,
null,,color_black5,860366,,,,black_plus_sign,,,null,,,,,,,,,,,,,,,,,,,,,,
null,,learn_phase(without_color)5,863870,,,,black_plus_sign,,,null,object_11a.png,object_05c.png,,,,,,,,,,,,,,,,,,,,
null,,black_cross(without_color)5,864735,,,,green,,,null,object_11a.png,object_05c.png,,,,,,,,,,,,,,,,,,,,
389.19999998807907,,rt_plussign_withcolor5,865237,,,,green,,,50,object_11a.png,object_05c.png,,,,,,,,,,,,,,,,,,,,
null,,rt_thecrossant_black5,866377,,,,black_plus_sign,,,null,,,1,,,,,,,1,,,,,,,,,,,,
null,,color_black5,866480,,,,black_plus_sign,,,null,,,,,,,,,,,,,,,,,,,,,,
null,,learn_phase(without_color)5,869984,,,,black_plus_sign,,,null,object_13b.png,object_02a.png,,,,,,,,,,,,,,,,,,,,
null,,black_cross(without_color)5,870681,,,,green,,,null,object_13b.png,object_02a.png,,,,,,,,,,,,,,,,,,,,
346.80000001192093,,rt_plussign_withcolor5,871183,,,,green,,,50,object_13b.png,object_02a.png,,,,,,,,,,,,,,,,,,,,
null,,rt_thecrossant_black5,872492,,,,black_plus_sign,,,null,,,1,,,,,,,1,,,,,,,,,,,,
null,,color_black5,872595,,,,black_plus_sign,,,null,,,,,,,,,,,,,,,,,,,,,,
null,,learn_phase(without_color)5,876098,,,,black_plus_sign,,,null,object_11c.png,object_13a.png,,,,,,,,,,,,,,,,,,,,
null,,black_cross(without_color)5,876514,,,,blue,,,null,object_11c.png,object_13a.png,,,,,,,,,,,,,,,,,,,,
null,,rt_plussign_withcolor5,877016,,,,blue,,,null,object_11c.png,object_13a.png,,,,,,,,,,,,,,,,,,,,
1372.2000000178814,,rt_thecrossant_black5,878603,,,,black_plus_sign,,,49,,,1,,,,,,,1,,,,,,,,,,,,
null,,color_black5,878706,,,,black_plus_sign,,,null,,,,,,,,,,,,,,,,,,,,,,
null,,learn_phase(without_color)5,882209,,,,black_plus_sign,,,null,object_03a.png,object_02b.png,,,,,,,,,,,,,,,,,,,,
null,,black_cross(without_color)5,882716,,,,green,,,null,object_03a.png,object_02b.png,,,,,,,,,,,,,,,,,,,,
null,,rt_plussign_withcolor5,883219,,,,green,,,null,object_03a.png,object_02b.png,,,,,,,,,,,,,,,,,,,,
594.6000000238419,,rt_thecrossant_black5,884718,,,,black_plus_sign,,,50,,,1,,,,,,,1,,,,,,,,,,,,
null,,color_black5,884820,,,,black_plus_sign,,,null,,,,,,,,,,,,,,,,,,,,,,
null,,learn_phase(without_color)5,888324,,,,black_plus_sign,,,null,object_12b.png,object_14a.png,,,,,,,,,,,,,,,,,,,,
null,,black_cross(without_color)5,888985,,,,green,,,null,object_12b.png,object_14a.png,,,,,,,,,,,,,,,,,,,,
465,,rt_plussign_withcolor5,889487,,,,green,,,50,object_12b.png,object_14a.png,,,,,,,,,,,,,,,,,,,,
null,,rt_thecrossant_black5,890832,,,,black_plus_sign,,,null,,,1,,,,,,,1,,,,,,,,,,,,
null,,color_black5,890934,,,,black_plus_sign,,,null,,,,,,,,,,,,,,,,,,,,,,
null,,learn_phase(without_color)5,894439,,,,black_plus_sign,,,null,object_02c.png,object_08c.png,,,,,,,,,,,,,,,,,,,,
null,,black_cross(without_color)5,894933,,,,blue,,,null,object_02c.png,object_08c.png,,,,,,,,,,,,,,,,,,,,
null,,rt_plussign_withcolor5,895436,,,,blue,,,null,object_02c.png,object_08c.png,,,,,,,,,,,,,,,,,,,,
958.1000000238419,,rt_thecrossant_black5,896948,,,,black_plus_sign,,,49,,,1,,,,,,,1,,,,,,,,,,,,
null,,color_black5,897050,,,,black_plus_sign,,,null,,,,,,,,,,,,,,,,,,,,,,
null,,learn_phase(without_color)5,900553,,,,black_plus_sign,,,null,object_07c.png,object_12a.png,,,,,,,,,,,,,,,,,,,,
null,,black_cross(without_color)5,901071,,,,blue,,,null,object_07c.png,object_12a.png,,,,,,,,,,,,,,,,,,,,
null,,rt_plussign_withcolor5,901573,,,,blue,,,null,object_07c.png,object_12a.png,,,,,,,,,,,,,,,,,,,,
630.6999999880791,,rt_thecrossant_black5,903060,,,,black_plus_sign,,,49,,,1,,,,,,,1,,,,,,,,,,,,
null,,color_black5,903162,,,,black_plus_sign,,,null,,,,,,,,,,,,,,,,,,,,,,
null,,learn_phase(without_color)5,906665,,,,black_plus_sign,,,null,object_06c.png,object_06b.png,,,,,,,,,,,,,,,,,,,,
null,,black_cross(without_color)5,907525,,,,blue,,,null,object_06c.png,object_06b.png,,,,,,,,,,,,,,,,,,,,
null,,rt_plussign_withcolor5,908028,,,,blue,,,null,object_06c.png,object_06b.png,,,,,,,,,,,,,,,,,,,,
972.5999999940395,,rt_thecrossant_black5,909183,,,,black_plus_sign,,,49,,,1,,,,,,,1,,,,,,,,,,,,
null,,color_black5,909285,,,,black_plus_sign,,,null,,,,,,,,,,,,,,,,,,,,,,
null,,learn_phase(without_color)5,912789,,,,black_plus_sign,,,null,object_03c.png,object_10a.png,,,,,,,,,,,,,,,,,,,,
null,,black_cross(without_color)5,913419,,,,blue,,,null,object_03c.png,object_10a.png,,,,,,,,,,,,,,,,,,,,
null,,rt_plussign_withcolor5,913921,,,,blue,,,null,object_03c.png,object_10a.png,,,,,,,,,,,,,,,,,,,,
1039.800000011921,,rt_thecrossant_black5,915295,,,,black_plus_sign,,,49,,,1,,,,,,,1,,,,,,,,,,,,
null,,color_black5,915397,,,,black_plus_sign,,,null,,,,,,,,,,,,,,,,,,,,,,
null,,learn_phase(without_color)5,918900,,,,black_plus_sign,,,null,object_10b.png,object_01c.png,,,,,,,,,,,,,,,,,,,,
null,,black_cross(without_color)5,919362,,,,blue,,,null,object_10b.png,object_01c.png,,,,,,,,,,,,,,,,,,,,
null,,rt_plussign_withcolor5,919865,,,,blue,,,null,object_10b.png,object_01c.png,,,,,,,,,,,,,,,,,,,,
737.1999999880791,,rt_thecrossant_black5,921407,,,,black_plus_sign,,,49,,,1,,,,,,,1,,,,,,,,,,,,
null,,color_black5,921509,,,,black_plus_sign,,,null,,,,,,,,,,,,,,,,,,,,,,
null,,thebreak,921615,,,,<p></p>,,,null,,,,,,,,,,,,,,,,,,,,,,
1071.0999999940395,,intro_0,922688,,,,instruct,,,32,,,,,,,,,,,,,,,,,,,,,,
8219.90000000596,,directmemory_phase5,930910,,,,object_07b.png,,,51,,,1,,object_10a.png,object_01c.png,object_13c.png,object_13c.png,,0.7049180327868853,1,,,,,,,,,,,
7711,,directmemory_phase5,938624,,,,object_08c.png,,,51,,,1,,object_04c.png,object_14a.png,object_02c.png,object_02c.png,,0.7096774193548387,1,,,,,,,,,,,
3227.4000000059605,,directmemory_phase5,941854,,,,object_11c.png,,,49,,,1,,object_13a.png,object_09a.png,object_07b.png,object_13a.png,,0.7142857142857143,1,,,,,,,,,,,
4451.9000000059605,,directmemory_phase5,946308,,,,object_07a.png,,,49,,,0,,object_14c.png,object_14a.png,object_14b.png,object_14b.png,,0.703125,0,,,,,,,,,,,
7074.5999999940395,,directmemory_phase5,953385,,,,object_10b.png,,,49,,,0,,object_04c.png,object_14a.png,object_01c.png,object_01c.png,,0.6923076923076923,0,,,,,,,,,,,
4069.9000000059605,,directmemory_phase5,957457,,,,object_04a.png,,,49,,,1,,object_01a.png,object_03c.png,object_09a.png,object_01a.png,,0.696969696969697,1,,,,,,,,,,,
7402.299999982119,,directmemory_phase5,964862,,,,object_03a.png,,,51,,,1,,object_03c.png,object_06c.png,object_02b.png,object_02b.png,,0.7014925373134329,1,,,,,,,,,,,
3119.199999988079,,directmemory_phase5,967984,,,,object_12a.png,,,51,,,1,,object_02c.png,object_14a.png,object_07c.png,object_07c.png,,0.7058823529411765,1,,,,,,,,,,,
6292.200000017881,,directmemory_phase5,974278,,,,object_09a.png,,,49,,,1,,object_14c.png,object_04c.png,object_06a.png,object_14c.png,,0.7101449275362319,1,,,,,,,,,,,
6789.699999988079,,directmemory_phase5,981071,,,,object_06a.png,,,49,,,0,,object_01c.png,object_13b.png,object_04c.png,object_04c.png,,0.7,0,,,,,,,,,,,
3354.4000000059605,,directmemory_phase5,984428,,,,object_10a.png,,,49,,,1,,object_03c.png,object_04c.png,object_14a.png,object_03c.png,,0.704225352112676,1,,,,,,,,,,,
3161,,directmemory_phase5,987591,,,,object_02a.png,,,50,,,0,,object_13b.png,object_10b.png,object_03c.png,object_13b.png,,0.6944444444444444,0,,,,,,,,,,,
7750.200000017881,,directmemory_phase5,995345,,,,object_06b.png,,,51,,,0,,object_06c.png,object_12a.png,object_02b.png,object_06c.png,,0.684931506849315,0,,,,,,,,,,,
6715.9000000059605,,directmemory_phase5,1002065,,,,object_14a.png,,,51,,,1,,object_02a.png,object_11a.png,object_12b.png,object_12b.png,,0.6891891891891891,1,,,,,,,,,,,
6829.9000000059605,,directmemory_phase5,1008898,,,,object_05c.png,,,50,,,0,,object_11a.png,object_13b.png,object_03c.png,object_11a.png,,0.68,0,,,,,,,,,,,
null,,thebreak,1009005,,,,<p></p>,,,null,,,,,,,,,,,,,,,,,,,,,,
3407.199999988079,,intro_0,1012414,,,,instruct,,,32,,,,,,,,,,,,,,,,,,,,,,
null,,learn_phase(without_color)6,1015916,,,,black_plus_sign,,,null,object_03c.png,object_10a.png,,,,,,,,,,,,,,,,,,,,
null,,black_cross(without_color)6,1016761,,,,green,,,null,object_03c.png,object_10a.png,,,,,,,,,,,,,,,,,,,,
null,,rt_plussign_withcolor6,1017262,,,,green,,,null,object_03c.png,object_10a.png,,,,,,,,,,,,,,,,,,,,
1140.2000000178814,,rt_thecrossant_black6,1018424,,,,black_plus_sign,,,50,,,1,,,,,,,1,,,,,,,,,,,,
null,,color_black6,1018527,,,,black_plus_sign,,,null,,,,,,,,,,,,,,,,,,,,,,
null,,learn_phase(without_color)6,1022031,,,,black_plus_sign,,,null,object_12b.png,object_14a.png,,,,,,,,,,,,,,,,,,,,
null,,black_cross(without_color)6,1022551,,,,blue,,,null,object_12b.png,object_14a.png,,,,,,,,,,,,,,,,,,,,
null,,rt_plussign_withcolor6,1023053,,,,blue,,,null,object_12b.png,object_14a.png,,,,,,,,,,,,,,,,,,,,
981.7000000178814,,rt_thecrossant_black6,1024538,,,,black_plus_sign,,,49,,,1,,,,,,,1,,,,,,,,,,,,
null,,color_black6,1024640,,,,black_plus_sign,,,null,,,,,,,,,,,,,,,,,,,,,,
null,,learn_phase(without_color)6,1028143,,,,black_plus_sign,,,null,object_11c.png,object_13a.png,,,,,,,,,,,,,,,,,,,,
null,,black_cross(without_color)6,1028950,,,,blue,,,null,object_11c.png,object_13a.png,,,,,,,,,,,,,,,,,,,,
null,,rt_plussign_withcolor6,1029452,,,,blue,,,null,object_11c.png,object_13a.png,,,,,,,,,,,,,,,,,,,,
696.7000000178814,,rt_thecrossant_black6,1030649,,,,black_plus_sign,,,49,,,1,,,,,,,1,,,,,,,,,,,,
null,,color_black6,1030751,,,,black_plus_sign,,,null,,,,,,,,,,,,,,,,,,,,,,
null,,learn_phase(without_color)6,1034255,,,,black_plus_sign,,,null,object_09a.png,object_14c.png,,,,,,,,,,,,,,,,,,,,
null,,black_cross(without_color)6,1035157,,,,blue,,,null,object_09a.png,object_14c.png,,,,,,,,,,,,,,,,,,,,
null,,rt_plussign_withcolor6,1035658,,,,blue,,,null,object_09a.png,object_14c.png,,,,,,,,,,,,,,,,,,,,
912.7999999821186,,rt_thecrossant_black6,1036762,,,,black_plus_sign,,,49,,,1,,,,,,,1,,,,,,,,,,,,
null,,color_black6,1036866,,,,black_plus_sign,,,null,,,,,,,,,,,,,,,,,,,,,,
null,,learn_phase(without_color)6,1040372,,,,black_plus_sign,,,null,object_05c.png,object_11a.png,,,,,,,,,,,,,,,,,,,,
null,,black_cross(without_color)6,1041371,,,,blue,,,null,object_05c.png,object_11a.png,,,,,,,,,,,,,,,,,,,,
null,,rt_plussign_withcolor6,1041874,,,,blue,,,null,object_05c.png,object_11a.png,,,,,,,,,,,,,,,,,,,,
1540.300000011921,,rt_thecrossant_black6,1042882,,,,black_plus_sign,,,49,,,1,,,,,,,1,,,,,,,,,,,,
null,,color_black6,1042985,,,,black_plus_sign,,,null,,,,,,,,,,,,,,,,,,,,,,
null,,learn_phase(without_color)6,1046489,,,,black_plus_sign,,,null,object_13b.png,object_02a.png,,,,,,,,,,,,,,,,,,,,
null,,black_cross(without_color)6,1046942,,,,green,,,null,object_13b.png,object_02a.png,,,,,,,,,,,,,,,,,,,,
null,,rt_plussign_withcolor6,1047444,,,,green,,,null,object_13b.png,object_02a.png,,,,,,,,,,,,,,,,,,,,
1354.6000000238419,,rt_thecrossant_black6,1048997,,,,black_plus_sign,,,50,,,1,,,,,,,1,,,,,,,,,,,,
null,,color_black6,1049099,,,,black_plus_sign,,,null,,,,,,,,,,,,,,,,,,,,,,
null,,learn_phase(without_color)6,1052604,,,,black_plus_sign,,,null,object_04c.png,object_06a.png,,,,,,,,,,,,,,,,,,,,
null,,black_cross(without_color)6,1053218,,,,blue,,,null,object_04c.png,object_06a.png,,,,,,,,,,,,,,,,,,,,
null,,rt_plussign_withcolor6,1053720,,,,blue,,,null,object_04c.png,object_06a.png,,,,,,,,,,,,,,,,,,,,
556.7000000178814,,rt_thecrossant_black6,1055113,,,,black_plus_sign,,,49,,,1,,,,,,,1,,,,,,,,,,,,
null,,color_black6,1055216,,,,black_plus_sign,,,null,,,,,,,,,,,,,,,,,,,,,,
null,,learn_phase(without_color)6,1058722,,,,black_plus_sign,,,null,object_13c.png,object_07b.png,,,,,,,,,,,,,,,,,,,,
null,,black_cross(without_color)6,1059824,,,,green,,,null,object_13c.png,object_07b.png,,,,,,,,,,,,,,,,,,,,
457.09999999403954,,rt_plussign_withcolor6,1060328,,,,green,,,50,object_13c.png,object_07b.png,,,,,,,,,,,,,,,,,,,,
null,,rt_thecrossant_black6,1061234,,,,black_plus_sign,,,null,,,1,,,,,,,1,,,,,,,,,,,,
null,,color_black6,1061339,,,,black_plus_sign,,,null,,,,,,,,,,,,,,,,,,,,,,
null,,learn_phase(without_color)6,1064842,,,,black_plus_sign,,,null,object_03a.png,object_02b.png,,,,,,,,,,,,,,,,,,,,
null,,black_cross(without_color)6,1065532,,,,blue,,,null,object_03a.png,object_02b.png,,,,,,,,,,,,,,,,,,,,
null,,rt_plussign_withcolor6,1066035,,,,blue,,,null,object_03a.png,object_02b.png,,,,,,,,,,,,,,,,,,,,
1236,,rt_thecrossant_black6,1067349,,,,black_plus_sign,,,49,,,1,,,,,,,1,,,,,,,,,,,,
null,,color_black6,1067452,,,,black_plus_sign,,,null,,,,,,,,,,,,,,,,,,,,,,
null,,learn_phase(without_color)6,1070955,,,,black_plus_sign,,,null,object_08c.png,object_02c.png,,,,,,,,,,,,,,,,,,,,
null,,black_cross(without_color)6,1071802,,,,green,,,null,object_08c.png,object_02c.png,,,,,,,,,,,,,,,,,,,,
436.69999998807907,,rt_plussign_withcolor6,1072317,,,,green,,,50,object_08c.png,object_02c.png,,,,,,,,,,,,,,,,,,,,
null,,rt_thecrossant_black6,1073475,,,,black_plus_sign,,,null,,,1,,,,,,,1,,,,,,,,,,,,
null,,color_black6,1073577,,,,black_plus_sign,,,null,,,,,,,,,,,,,,,,,,,,,,
null,,learn_phase(without_color)6,1077082,,,,black_plus_sign,,,null,object_01c.png,object_10b.png,,,,,,,,,,,,,,,,,,,,
null,,black_cross(without_color)6,1078111,,,,green,,,null,object_01c.png,object_10b.png,,,,,,,,,,,,,,,,,,,,
336.80000001192093,,rt_plussign_withcolor6,1078613,,,,green,,,50,object_01c.png,object_10b.png,,,,,,,,,,,,,,,,,,,,
null,,rt_thecrossant_black6,1079595,,,,black_plus_sign,,,null,,,1,,,,,,,1,,,,,,,,,,,,
null,,color_black6,1079700,,,,black_plus_sign,,,null,,,,,,,,,,,,,,,,,,,,,,
null,,learn_phase(without_color)6,1083205,,,,black_plus_sign,,,null,object_04a.png,object_01a.png,,,,,,,,,,,,,,,,,,,,
null,,black_cross(without_color)6,1083809,,,,green,,,null,object_04a.png,object_01a.png,,,,,,,,,,,,,,,,,,,,
498,,rt_plussign_withcolor6,1084312,,,,green,,,50,object_04a.png,object_01a.png,,,,,,,,,,,,,,,,,,,,
null,,rt_thecrossant_black6,1085716,,,,black_plus_sign,,,null,,,1,,,,,,,1,,,,,,,,,,,,
null,,color_black6,1085819,,,,black_plus_sign,,,null,,,,,,,,,,,,,,,,,,,,,,
null,,learn_phase(without_color)6,1089323,,,,black_plus_sign,,,null,object_07a.png,object_14b.png,,,,,,,,,,,,,,,,,,,,
null,,black_cross(without_color)6,1090409,,,,blue,,,null,object_07a.png,object_14b.png,,,,,,,,,,,,,,,,,,,,
null,,rt_plussign_withcolor6,1090911,,,,blue,,,null,object_07a.png,object_14b.png,,,,,,,,,,,,,,,,,,,,
730.9000000059605,,rt_thecrossant_black6,1091830,,,,black_plus_sign,,,49,,,1,,,,,,,1,,,,,,,,,,,,
null,,color_black6,1091932,,,,black_plus_sign,,,null,,,,,,,,,,,,,,,,,,,,,,
null,,learn_phase(without_color)6,1095438,,,,black_plus_sign,,,null,object_12a.png,object_07c.png,,,,,,,,,,,,,,,,,,,,
null,,black_cross(without_color)6,1096016,,,,blue,,,null,object_12a.png,object_07c.png,,,,,,,,,,,,,,,,,,,,
null,,rt_plussign_withcolor6,1096520,,,,blue,,,null,object_12a.png,object_07c.png,,,,,,,,,,,,,,,,,,,,
1720.2999999821186,,rt_thecrossant_black6,1097950,,,,black_plus_sign,,,49,,,1,,,,,,,1,,,,,,,,,,,,
null,,color_black6,1098052,,,,black_plus_sign,,,null,,,,,,,,,,,,,,,,,,,,,,
null,,learn_phase(without_color)6,1101555,,,,black_plus_sign,,,null,object_06c.png,object_06b.png,,,,,,,,,,,,,,,,,,,,
null,,black_cross(without_color)6,1102063,,,,blue,,,null,object_06c.png,object_06b.png,,,,,,,,,,,,,,,,,,,,
487.5,,rt_plussign_withcolor6,1102566,,,,blue,,,50,object_06c.png,object_06b.png,,,,,,,,,,,,,,,,,,,,
null,,rt_thecrossant_black6,1104061,,,,black_plus_sign,,,49,,,0,,,,,,,0.9333333333333333,,,,,,,,,,,,
null,,color_black6,1104163,,,,black_plus_sign,,,null,,,,,,,,,,,,,,,,,,,,,,
null,,thebreak,1104270,,,,<p></p>,,,null,,,,,,,,,,,,,,,,,,,,,,
1862.199999988079,,intro_0,1106140,,,,instruct,,,32,,,,,,,,,,,,,,,,,,,,,,
10069.300000011921,,directmemory_phase6,1116213,,,,object_03a.png,,,49,,,1,,object_02b.png,object_04c.png,object_06a.png,object_02b.png,,0.6842105263157895,1,,,,,,,,,,,
5445.700000017881,,directmemory_phase6,1121661,,,,object_02c.png,,,49,,,0,,object_02a.png,object_08c.png,object_03a.png,object_08c.png,,0.6753246753246753,0,,,,,,,,,,,
2426,,directmemory_phase6,1124091,,,,object_07a.png,,,50,,,1,,object_12a.png,object_14b.png,object_14c.png,object_14b.png,,0.6794871794871795,1,,,,,,,,,,,
2410.4000000059605,,directmemory_phase6,1126503,,,,object_07c.png,,,51,,,1,,object_10a.png,object_02b.png,object_12a.png,object_12a.png,,0.6835443037974683,1,,,,,,,,,,,
5159.800000011921,,directmemory_phase6,1131665,,,,object_06c.png,,,50,,,1,,object_09a.png,object_06b.png,object_02b.png,object_06b.png,,0.6875,1,,,,,,,,,,,
8134.300000011921,,directmemory_phase6,1139802,,,,object_13b.png,,,51,,,1,,object_11c.png,object_09a.png,object_02a.png,object_02a.png,,0.691358024691358,1,,,,,,,,,,,
5644.4000000059605,,directmemory_phase6,1145450,,,,object_12b.png,,,50,,,0,,object_08c.png,object_04c.png,object_14a.png,object_14a.png,,0.6829268292682927,0,,,,,,,,,,,
6277.5,,directmemory_phase6,1151730,,,,object_04c.png,,,49,,,1,,object_06a.png,object_03a.png,object_03c.png,object_06a.png,,0.6867469879518072,1,,,,,,,,,,,
3841.5999999940395,,directmemory_phase6,1155574,,,,object_03c.png,,,51,,,1,,object_12a.png,object_02b.png,object_10a.png,object_10a.png,,0.6904761904761905,1,,,,,,,,,,,
7024.799999982119,,directmemory_phase6,1162601,,,,object_09a.png,,,51,,,1,,object_07c.png,object_14a.png,object_14c.png,object_14c.png,,0.6941176470588235,1,,,,,,,,,,,
5390.800000011921,,directmemory_phase6,1167995,,,,object_10b.png,,,49,,,1,,object_01c.png,object_14c.png,object_03a.png,object_01c.png,,0.6976744186046512,1,,,,,,,,,,,
5514.100000023842,,directmemory_phase6,1173512,,,,object_13c.png,,,50,,,1,,object_03a.png,object_07b.png,object_02b.png,object_07b.png,,0.7011494252873564,1,,,,,,,,,,,
3273.0999999940395,,directmemory_phase6,1176787,,,,object_04a.png,,,50,,,1,,object_10a.png,object_01a.png,object_01c.png,object_01a.png,,0.7045454545454546,1,,,,,,,,,,,
3923.899999976158,,directmemory_phase6,1180714,,,,object_11c.png,,,51,,,1,,object_04a.png,object_02a.png,object_13a.png,object_13a.png,,0.7078651685393258,1,,,,,,,,,,,
5420.5999999940395,,directmemory_phase6,1186137,,,,object_05c.png,,,51,,,1,,object_08c.png,object_04c.png,object_11a.png,object_11a.png,,0.7111111111111111,1,,,,,,,,,,,
null,,thebreak,1186241,,,,<p></p>,,,null,,,,,,,,,,,,,,,,,,,,,,
3174.9000000059605,,intro_0,1189418,,,,instruct,,,32,,,,,,,,,,,,,,,,,,,,,,
null,,learn_phase(without_color)7,1192922,,,,black_plus_sign,,,null,object_10a.png,object_03c.png,,,,,,,,,,,,,,,,,,,,
null,,black_cross(without_color)7,1193766,,,,blue,,,null,object_10a.png,object_03c.png,,,,,,,,,,,,,,,,,,,,
null,,rt_plussign_withcolor7,1194268,,,,blue,,,null,object_10a.png,object_03c.png,,,,,,,,,,,,,,,,,,,,
972.6999999880791,,rt_thecrossant_black7,1195432,,,,black_plus_sign,,,49,,,1,,,,,,,1,,,,,,,,,,,,
null,,color_black7,1195535,,,,black_plus_sign,,,null,,,,,,,,,,,,,,,,,,,,,,
null,,learn_phase(without_color)7,1199038,,,,black_plus_sign,,,null,object_12a.png,object_07c.png,,,,,,,,,,,,,,,,,,,,
null,,black_cross(without_color)7,1199569,,,,blue,,,null,object_12a.png,object_07c.png,,,,,,,,,,,,,,,,,,,,
null,,rt_plussign_withcolor7,1200071,,,,blue,,,null,object_12a.png,object_07c.png,,,,,,,,,,,,,,,,,,,,
1143.2000000178814,,rt_thecrossant_black7,1201544,,,,black_plus_sign,,,49,,,1,,,,,,,1,,,,,,,,,,,,
null,,color_black7,1201648,,,,black_plus_sign,,,null,,,,,,,,,,,,,,,,,,,,,,
null,,learn_phase(without_color)7,1205151,,,,black_plus_sign,,,null,object_14c.png,object_09a.png,,,,,,,,,,,,,,,,,,,,
null,,black_cross(without_color)7,1205851,,,,blue,,,null,object_14c.png,object_09a.png,,,,,,,,,,,,,,,,,,,,
null,,rt_plussign_withcolor7,1206352,,,,blue,,,null,object_14c.png,object_09a.png,,,,,,,,,,,,,,,,,,,,
808,,rt_thecrossant_black7,1207659,,,,black_plus_sign,,,49,,,1,,,,,,,1,,,,,,,,,,,,
null,,color_black7,1207761,,,,black_plus_sign,,,null,,,,,,,,,,,,,,,,,,,,,,
null,,learn_phase(without_color)7,1211263,,,,black_plus_sign,,,null,object_14b.png,object_07a.png,,,,,,,,,,,,,,,,,,,,
null,,black_cross(without_color)7,1211789,,,,blue,,,null,object_14b.png,object_07a.png,,,,,,,,,,,,,,,,,,,,
461.19999998807907,,rt_plussign_withcolor7,1212291,,,,blue,,,49,object_14b.png,object_07a.png,,,,,,,,,,,,,,,,,,,,
null,,rt_thecrossant_black7,1213770,,,,black_plus_sign,,,null,,,1,,,,,,,1,,,,,,,,,,,,
null,,color_black7,1213872,,,,black_plus_sign,,,null,,,,,,,,,,,,,,,,,,,,,,
null,,learn_phase(without_color)7,1217377,,,,black_plus_sign,,,null,object_01a.png,object_04a.png,,,,,,,,,,,,,,,,,,,,
null,,black_cross(without_color)7,1218118,,,,green,,,null,object_01a.png,object_04a.png,,,,,,,,,,,,,,,,,,,,
null,,rt_plussign_withcolor7,1218621,,,,green,,,null,object_01a.png,object_04a.png,,,,,,,,,,,,,,,,,,,,
818.1000000238419,,rt_thecrossant_black7,1219885,,,,black_plus_sign,,,50,,,1,,,,,,,1,,,,,,,,,,,,
null,,color_black7,1219987,,,,black_plus_sign,,,null,,,,,,,,,,,,,,,,,,,,,,
null,,learn_phase(without_color)7,1223490,,,,black_plus_sign,,,null,object_06b.png,object_06c.png,,,,,,,,,,,,,,,,,,,,
null,,black_cross(without_color)7,1223923,,,,blue,,,null,object_06b.png,object_06c.png,,,,,,,,,,,,,,,,,,,,
null,,rt_plussign_withcolor7,1224426,,,,blue,,,null,object_06b.png,object_06c.png,,,,,,,,,,,,,,,,,,,,
984.9000000059605,,rt_thecrossant_black7,1225999,,,,black_plus_sign,,,49,,,1,,,,,,,1,,,,,,,,,,,,
null,,color_black7,1226102,,,,black_plus_sign,,,null,,,,,,,,,,,,,,,,,,,,,,
null,,learn_phase(without_color)7,1229607,,,,black_plus_sign,,,null,object_02a.png,object_13b.png,,,,,,,,,,,,,,,,,,,,
null,,black_cross(without_color)7,1230619,,,,green,,,null,object_02a.png,object_13b.png,,,,,,,,,,,,,,,,,,,,
424.90000000596046,,rt_plussign_withcolor7,1231121,,,,green,,,50,object_02a.png,object_13b.png,,,,,,,,,,,,,,,,,,,,
null,,rt_thecrossant_black7,1232113,,,,black_plus_sign,,,null,,,1,,,,,,,1,,,,,,,,,,,,
null,,color_black7,1232216,,,,black_plus_sign,,,null,,,,,,,,,,,,,,,,,,,,,,
null,,learn_phase(without_color)7,1235718,,,,black_plus_sign,,,null,object_02c.png,object_08c.png,,,,,,,,,,,,,,,,,,,,
null,,black_cross(without_color)7,1236693,,,,blue,,,null,object_02c.png,object_08c.png,,,,,,,,,,,,,,,,,,,,
null,,rt_plussign_withcolor7,1237195,,,,blue,,,null,object_02c.png,object_08c.png,,,,,,,,,,,,,,,,,,,,
1134.7999999821186,,rt_thecrossant_black7,1238226,,,,black_plus_sign,,,49,,,1,,,,,,,1,,,,,,,,,,,,
null,,color_black7,1238329,,,,black_plus_sign,,,null,,,,,,,,,,,,,,,,,,,,,,
null,,learn_phase(without_color)7,1241832,,,,black_plus_sign,,,null,object_04c.png,object_06a.png,,,,,,,,,,,,,,,,,,,,
null,,black_cross(without_color)7,1242260,,,,green,,,null,object_04c.png,object_06a.png,,,,,,,,,,,,,,,,,,,,
null,,rt_plussign_withcolor7,1242762,,,,green,,,null,object_04c.png,object_06a.png,,,,,,,,,,,,,,,,,,,,
1072.300000011921,,rt_thecrossant_black7,1244348,,,,black_plus_sign,,,50,,,1,,,,,,,1,,,,,,,,,,,,
null,,color_black7,1244450,,,,black_plus_sign,,,null,,,,,,,,,,,,,,,,,,,,,,
null,,learn_phase(without_color)7,1247954,,,,black_plus_sign,,,null,object_10b.png,object_01c.png,,,,,,,,,,,,,,,,,,,,
null,,black_cross(without_color)7,1248407,,,,blue,,,null,object_10b.png,object_01c.png,,,,,,,,,,,,,,,,,,,,
null,,rt_plussign_withcolor7,1248909,,,,blue,,,null,object_10b.png,object_01c.png,,,,,,,,,,,,,,,,,,,,
697.5,,rt_thecrossant_black7,1250462,,,,black_plus_sign,,,50,,,0,,,,,,,0.9,,,,,,,,,,,,
null,,color_black7,1250564,,,,black_plus_sign,,,null,,,,,,,,,,,,,,,,,,,,,,
null,,learn_phase(without_color)7,1254068,,,,black_plus_sign,,,null,object_03a.png,object_02b.png,,,,,,,,,,,,,,,,,,,,
null,,black_cross(without_color)7,1254736,,,,blue,,,null,object_03a.png,object_02b.png,,,,,,,,,,,,,,,,,,,,
466.5,,rt_plussign_withcolor7,1255238,,,,blue,,,49,object_03a.png,object_02b.png,,,,,,,,,,,,,,,,,,,,
null,,rt_thecrossant_black7,1256575,,,,black_plus_sign,,,null,,,1,,,,,,,0.9090909090909091,,,,,,,,,,,,
null,,color_black7,1256677,,,,black_plus_sign,,,null,,,,,,,,,,,,,,,,,,,,,,
null,,learn_phase(without_color)7,1260179,,,,black_plus_sign,,,null,object_11a.png,object_05c.png,,,,,,,,,,,,,,,,,,,,
null,,black_cross(without_color)7,1260633,,,,green,,,null,object_11a.png,object_05c.png,,,,,,,,,,,,,,,,,,,,
null,,rt_plussign_withcolor7,1261135,,,,green,,,null,object_11a.png,object_05c.png,,,,,,,,,,,,,,,,,,,,
1076.2000000178814,,rt_thecrossant_black7,1262686,,,,black_plus_sign,,,50,,,1,,,,,,,0.9166666666666666,,,,,,,,,,,,
null,,color_black7,1262790,,,,black_plus_sign,,,null,,,,,,,,,,,,,,,,,,,,,,
null,,learn_phase(without_color)7,1266294,,,,black_plus_sign,,,null,object_13a.png,object_11c.png,,,,,,,,,,,,,,,,,,,,
null,,black_cross(without_color)7,1267126,,,,green,,,null,object_13a.png,object_11c.png,,,,,,,,,,,,,,,,,,,,
414.90000000596046,,rt_plussign_withcolor7,1267628,,,,green,,,50,object_13a.png,object_11c.png,,,,,,,,,,,,,,,,,,,,
null,,rt_thecrossant_black7,1268801,,,,black_plus_sign,,,null,,,1,,,,,,,0.9230769230769231,,,,,,,,,,,,
null,,color_black7,1268904,,,,black_plus_sign,,,null,,,,,,,,,,,,,,,,,,,,,,
null,,learn_phase(without_color)7,1272410,,,,black_plus_sign,,,null,object_12b.png,object_14a.png,,,,,,,,,,,,,,,,,,,,
null,,black_cross(without_color)7,1273359,,,,green,,,null,object_12b.png,object_14a.png,,,,,,,,,,,,,,,,,,,,
469.7999999821186,,rt_plussign_withcolor7,1273860,,,,green,,,50,object_12b.png,object_14a.png,,,,,,,,,,,,,,,,,,,,
null,,rt_thecrossant_black7,1274916,,,,black_plus_sign,,,null,,,1,,,,,,,0.9285714285714286,,,,,,,,,,,,
null,,color_black7,1275019,,,,black_plus_sign,,,null,,,,,,,,,,,,,,,,,,,,,,
null,,learn_phase(without_color)7,1278522,,,,black_plus_sign,,,null,object_13c.png,object_07b.png,,,,,,,,,,,,,,,,,,,,
null,,black_cross(without_color)7,1279349,,,,blue,,,null,object_13c.png,object_07b.png,,,,,,,,,,,,,,,,,,,,
502.40000000596046,,rt_plussign_withcolor7,1279857,,,,blue,,,49,object_13c.png,object_07b.png,,,,,,,,,,,,,,,,,,,,
null,,rt_thecrossant_black7,1281036,,,,black_plus_sign,,,null,,,1,,,,,,,0.9333333333333333,,,,,,,,,,,,
null,,color_black7,1281139,,,,black_plus_sign,,,null,,,,,,,,,,,,,,,,,,,,,,
null,,thebreak,1281259,,,,<p></p>,,,null,,,,,,,,,,,,,,,,,,,,,,
1791.9000000059605,,intro_0,1283052,,,,instruct,,,32,,,,,,,,,,,,,,,,,,,,,,
8119,,directmemory_phase7,1291173,,,,object_08c.png,,,51,,,1,,object_11c.png,object_03a.png,object_02c.png,object_02c.png,,0.7142857142857143,1,,,,,,,,,,,
3126.9000000059605,,directmemory_phase7,1294303,,,,object_07b.png,,,50,,,1,,object_02a.png,object_13c.png,object_12a.png,object_13c.png,,0.717391304347826,1,,,,,,,,,,,
2928.5,,directmemory_phase7,1297233,,,,object_10b.png,,,50,,,1,,object_03a.png,object_01c.png,object_07b.png,object_01c.png,,0.7204301075268817,1,,,,,,,,,,,
3408.7000000178814,,directmemory_phase7,1300644,,,,object_04c.png,,,50,,,1,,object_01a.png,object_06a.png,object_03a.png,object_06a.png,,0.723404255319149,1,,,,,,,,,,,
3852.7000000178814,,directmemory_phase7,1304499,,,,object_14c.png,,,51,,,1,,object_14a.png,object_02c.png,object_09a.png,object_09a.png,,0.7263157894736842,1,,,,,,,,,,,
2276.5,,directmemory_phase7,1306777,,,,object_11a.png,,,50,,,1,,object_13b.png,object_05c.png,object_04c.png,object_05c.png,,0.7291666666666666,1,,,,,,,,,,,
3650.399999976158,,directmemory_phase7,1310430,,,,object_13b.png,,,50,,,1,,object_14a.png,object_02a.png,object_06b.png,object_02a.png,,0.7319587628865979,1,,,,,,,,,,,
7120.699999988079,,directmemory_phase7,1317553,,,,object_06b.png,,,49,,,1,,object_06c.png,object_13b.png,object_14c.png,object_06c.png,,0.7346938775510204,1,,,,,,,,,,,
4649.299999982119,,directmemory_phase7,1322205,,,,object_12a.png,,,49,,,1,,object_07c.png,object_02a.png,object_06a.png,object_07c.png,,0.7373737373737373,1,,,,,,,,,,,
1944.4000000059605,,directmemory_phase7,1324152,,,,object_07a.png,,,49,,,1,,object_14b.png,object_05c.png,object_11a.png,object_14b.png,,0.74,1,,,,,,,,,,,
1776.4000000059605,,directmemory_phase7,1325930,,,,object_04a.png,,,50,,,1,,object_13a.png,object_01a.png,object_11c.png,object_01a.png,,0.7425742574257426,1,,,,,,,,,,,
6376.199999988079,,directmemory_phase7,1332309,,,,object_02b.png,,,51,,,0,,object_03a.png,object_04a.png,object_02c.png,object_03a.png,,0.7352941176470589,0,,,,,,,,,,,
2543.4000000059605,,directmemory_phase7,1334855,,,,object_10a.png,,,50,,,1,,object_13a.png,object_03c.png,object_02a.png,object_03c.png,,0.7378640776699029,1,,,,,,,,,,,
4176.199999988079,,directmemory_phase7,1339033,,,,object_12b.png,,,50,,,0,,object_14a.png,object_10b.png,object_02c.png,object_14a.png,,0.7307692307692307,0,,,,,,,,,,,
2849,,directmemory_phase7,1341885,,,,object_13a.png,,,50,,,1,,object_10a.png,object_11c.png,object_02a.png,object_11c.png,,0.7333333333333333,1,,,,,,,,,,,
null,,thebreak,1341991,,,,<p></p>,,,null,,,,,,,,,,,,,,,,,,,,,,
3457.699999988079,,intro_0,1345451,,,,instruct,,,32,,,,,,,,,,,,,,,,,,,,,,
null,,learn_phase(without_color)8,1348960,,,,black_plus_sign,,,null,object_08c.png,object_02c.png,,,,,,,,,,,,,,,,,,,,
null,,black_cross(without_color)8,1349480,,,,blue,,,null,object_08c.png,object_02c.png,,,,,,,,,,,,,,,,,,,,
null,,rt_plussign_withcolor8,1349982,,,,blue,,,null,object_08c.png,object_02c.png,,,,,,,,,,,,,,,,,,,,
1252,,rt_thecrossant_black8,1351467,,,,black_plus_sign,,,49,,,1,,,,,,,1,,,,,,,,,,,,
null,,color_black8,1351569,,,,black_plus_sign,,,null,,,,,,,,,,,,,,,,,,,,,,
null,,learn_phase(without_color)8,1355072,,,,black_plus_sign,,,null,object_04a.png,object_01a.png,,,,,,,,,,,,,,,,,,,,
null,,black_cross(without_color)8,1355775,,,,green,,,null,object_04a.png,object_01a.png,,,,,,,,,,,,,,,,,,,,
378.90000000596046,,rt_plussign_withcolor8,1356277,,,,green,,,50,object_04a.png,object_01a.png,,,,,,,,,,,,,,,,,,,,
null,,rt_thecrossant_black8,1357582,,,,black_plus_sign,,,null,,,1,,,,,,,1,,,,,,,,,,,,
null,,color_black8,1357686,,,,black_plus_sign,,,null,,,,,,,,,,,,,,,,,,,,,,
null,,learn_phase(without_color)8,1361191,,,,black_plus_sign,,,null,object_02b.png,object_03a.png,,,,,,,,,,,,,,,,,,,,
null,,black_cross(without_color)8,1361817,,,,green,,,null,object_02b.png,object_03a.png,,,,,,,,,,,,,,,,,,,,
null,,rt_plussign_withcolor8,1362320,,,,green,,,null,object_02b.png,object_03a.png,,,,,,,,,,,,,,,,,,,,
1361.5999999940395,,rt_thecrossant_black8,1363700,,,,black_plus_sign,,,50,,,1,,,,,,,1,,,,,,,,,,,,
null,,color_black8,1363803,,,,black_plus_sign,,,null,,,,,,,,,,,,,,,,,,,,,,
null,,learn_phase(without_color)8,1367306,,,,black_plus_sign,,,null,object_05c.png,object_11a.png,,,,,,,,,,,,,,,,,,,,
null,,black_cross(without_color)8,1367860,,,,blue,,,null,object_05c.png,object_11a.png,,,,,,,,,,,,,,,,,,,,
null,,rt_plussign_withcolor8,1368362,,,,blue,,,null,object_05c.png,object_11a.png,,,,,,,,,,,,,,,,,,,,
833.5999999940395,,rt_thecrossant_black8,1369813,,,,black_plus_sign,,,49,,,1,,,,,,,1,,,,,,,,,,,,
null,,color_black8,1369931,,,,black_plus_sign,,,null,,,,,,,,,,,,,,,,,,,,,,
null,,learn_phase(without_color)8,1373438,,,,black_plus_sign,,,null,object_03c.png,object_10a.png,,,,,,,,,,,,,,,,,,,,
null,,black_cross(without_color)8,1374470,,,,green,,,null,object_03c.png,object_10a.png,,,,,,,,,,,,,,,,,,,,
330.5,,rt_plussign_withcolor8,1374973,,,,green,,,50,object_03c.png,object_10a.png,,,,,,,,,,,,,,,,,,,,
null,,rt_thecrossant_black8,1375949,,,,black_plus_sign,,,null,,,1,,,,,,,1,,,,,,,,,,,,
null,,color_black8,1376052,,,,black_plus_sign,,,null,,,,,,,,,,,,,,,,,,,,,,
null,,learn_phase(without_color)8,1379556,,,,black_plus_sign,,,null,object_02a.png,object_13b.png,,,,,,,,,,,,,,,,,,,,
null,,black_cross(without_color)8,1380515,,,,green,,,null,object_02a.png,object_13b.png,,,,,,,,,,,,,,,,,,,,
492.2000000178814,,rt_plussign_withcolor8,1381017,,,,green,,,50,object_02a.png,object_13b.png,,,,,,,,,,,,,,,,,,,,
null,,rt_thecrossant_black8,1382064,,,,black_plus_sign,,,null,,,1,,,,,,,1,,,,,,,,,,,,
null,,color_black8,1382166,,,,black_plus_sign,,,null,,,,,,,,,,,,,,,,,,,,,,
null,,learn_phase(without_color)8,1385671,,,,black_plus_sign,,,null,object_06a.png,object_04c.png,,,,,,,,,,,,,,,,,,,,
null,,black_cross(without_color)8,1386376,,,,blue,,,null,object_06a.png,object_04c.png,,,,,,,,,,,,,,,,,,,,
null,,rt_plussign_withcolor8,1386880,,,,blue,,,null,object_06a.png,object_04c.png,,,,,,,,,,,,,,,,,,,,
1263,,rt_thecrossant_black8,1388181,,,,black_plus_sign,,,49,,,1,,,,,,,1,,,,,,,,,,,,
null,,color_black8,1388283,,,,black_plus_sign,,,null,,,,,,,,,,,,,,,,,,,,,,
null,,learn_phase(without_color)8,1391786,,,,black_plus_sign,,,null,object_07b.png,object_13c.png,,,,,,,,,,,,,,,,,,,,
null,,black_cross(without_color)8,1392310,,,,blue,,,null,object_07b.png,object_13c.png,,,,,,,,,,,,,,,,,,,,
null,,rt_plussign_withcolor8,1392813,,,,blue,,,null,object_07b.png,object_13c.png,,,,,,,,,,,,,,,,,,,,
925.3000000119209,,rt_thecrossant_black8,1394295,,,,black_plus_sign,,,49,,,1,,,,,,,1,,,,,,,,,,,,
null,,color_black8,1394409,,,,black_plus_sign,,,null,,,,,,,,,,,,,,,,,,,,,,
null,,learn_phase(without_color)8,1397912,,,,black_plus_sign,,,null,object_10b.png,object_01c.png,,,,,,,,,,,,,,,,,,,,
null,,black_cross(without_color)8,1398760,,,,green,,,null,object_10b.png,object_01c.png,,,,,,,,,,,,,,,,,,,,
453.30000001192093,,rt_plussign_withcolor8,1399261,,,,green,,,50,object_10b.png,object_01c.png,,,,,,,,,,,,,,,,,,,,
null,,rt_thecrossant_black8,1400420,,,,black_plus_sign,,,null,,,1,,,,,,,1,,,,,,,,,,,,
null,,color_black8,1400523,,,,black_plus_sign,,,null,,,,,,,,,,,,,,,,,,,,,,
null,,learn_phase(without_color)8,1404026,,,,black_plus_sign,,,null,object_06c.png,object_06b.png,,,,,,,,,,,,,,,,,,,,
null,,black_cross(without_color)8,1404981,,,,green,,,null,object_06c.png,object_06b.png,,,,,,,,,,,,,,,,,,,,
null,,rt_plussign_withcolor8,1405484,,,,green,,,null,object_06c.png,object_06b.png,,,,,,,,,,,,,,,,,,,,
1087,,rt_thecrossant_black8,1406534,,,,black_plus_sign,,,50,,,1,,,,,,,1,,,,,,,,,,,,
null,,color_black8,1406637,,,,black_plus_sign,,,null,,,,,,,,,,,,,,,,,,,,,,
null,,learn_phase(without_color)8,1410150,,,,black_plus_sign,,,null,object_07c.png,object_12a.png,,,,,,,,,,,,,,,,,,,,
null,,black_cross(without_color)8,1411123,,,,blue,,,null,object_07c.png,object_12a.png,,,,,,,,,,,,,,,,,,,,
368.69999998807907,,rt_plussign_withcolor8,1411625,,,,blue,,,49,object_07c.png,object_12a.png,,,,,,,,,,,,,,,,,,,,
null,,rt_thecrossant_black8,1412664,,,,black_plus_sign,,,null,,,1,,,,,,,1,,,,,,,,,,,,
null,,color_black8,1412766,,,,black_plus_sign,,,null,,,,,,,,,,,,,,,,,,,,,,
null,,learn_phase(without_color)8,1416270,,,,black_plus_sign,,,null,object_14b.png,object_07a.png,,,,,,,,,,,,,,,,,,,,
null,,black_cross(without_color)8,1416822,,,,green,,,null,object_14b.png,object_07a.png,,,,,,,,,,,,,,,,,,,,
null,,rt_plussign_withcolor8,1417325,,,,green,,,null,object_14b.png,object_07a.png,,,,,,,,,,,,,,,,,,,,
1493.3999999761581,,rt_thecrossant_black8,1418779,,,,black_plus_sign,,,50,,,1,,,,,,,1,,,,,,,,,,,,
null,,color_black8,1418882,,,,black_plus_sign,,,null,,,,,,,,,,,,,,,,,,,,,,
null,,learn_phase(without_color)8,1422391,,,,black_plus_sign,,,null,object_12b.png,object_14a.png,,,,,,,,,,,,,,,,,,,,
null,,black_cross(without_color)8,1422833,,,,blue,,,null,object_12b.png,object_14a.png,,,,,,,,,,,,,,,,,,,,
null,,rt_plussign_withcolor8,1423336,,,,blue,,,null,object_12b.png,object_14a.png,,,,,,,,,,,,,,,,,,,,
1141.300000011921,,rt_thecrossant_black8,1424899,,,,black_plus_sign,,,49,,,1,,,,,,,1,,,,,,,,,,,,
null,,color_black8,1425002,,,,black_plus_sign,,,null,,,,,,,,,,,,,,,,,,,,,,
null,,learn_phase(without_color)8,1428514,,,,black_plus_sign,,,null,object_13a.png,object_11c.png,,,,,,,,,,,,,,,,,,,,
null,,black_cross(without_color)8,1428990,,,,blue,,,null,object_13a.png,object_11c.png,,,,,,,,,,,,,,,,,,,,
null,,rt_plussign_withcolor8,1429493,,,,blue,,,null,object_13a.png,object_11c.png,,,,,,,,,,,,,,,,,,,,
789.5,,rt_thecrossant_black8,1431021,,,,black_plus_sign,,,49,,,1,,,,,,,1,,,,,,,,,,,,
null,,color_black8,1431123,,,,black_plus_sign,,,null,,,,,,,,,,,,,,,,,,,,,,
null,,learn_phase(without_color)8,1434627,,,,black_plus_sign,,,null,object_14c.png,object_09a.png,,,,,,,,,,,,,,,,,,,,
null,,black_cross(without_color)8,1435391,,,,blue,,,null,object_14c.png,object_09a.png,,,,,,,,,,,,,,,,,,,,
null,,rt_plussign_withcolor8,1435893,,,,blue,,,null,object_14c.png,object_09a.png,,,,,,,,,,,,,,,,,,,,
679.5,,rt_thecrossant_black8,1437133,,,,black_plus_sign,,,49,,,1,,,,,,,1,,,,,,,,,,,,
null,,color_black8,1437236,,,,black_plus_sign,,,null,,,,,,,,,,,,,,,,,,,,,,
null,,thebreak,1437339,,,,<p></p>,,,null,,,,,,,,,,,,,,,,,,,,,,
1224.5,,intro_0,1438565,,,,instruct,,,32,,,,,,,,,,,,,,,,,,,,,,
8118.699999988079,,directmemory_phase8,1446685,,,,object_13b.png,,,49,,,1,,object_02a.png,object_02b.png,object_06c.png,object_02a.png,,0.7358490566037735,1,,,,,,,,,,,
1715.300000011921,,directmemory_phase8,1448402,,,,object_11c.png,,,50,,,1,,object_02c.png,object_13a.png,object_12a.png,object_13a.png,,0.7383177570093458,1,,,,,,,,,,,
2913.5,,directmemory_phase8,1451318,,,,object_05c.png,,,49,,,1,,object_11a.png,object_14a.png,object_11c.png,object_11a.png,,0.7407407407407407,1,,,,,,,,,,,
1710.0999999940395,,directmemory_phase8,1453031,,,,object_07b.png,,,49,,,1,,object_13c.png,object_09a.png,object_01c.png,object_13c.png,,0.7431192660550459,1,,,,,,,,,,,
5516.700000017881,,directmemory_phase8,1458550,,,,object_04c.png,,,50,,,1,,object_02b.png,object_06a.png,object_10a.png,object_06a.png,,0.7454545454545455,1,,,,,,,,,,,
6648.199999988079,,directmemory_phase8,1465202,,,,object_02b.png,,,50,,,1,,object_07b.png,object_03a.png,object_13c.png,object_03a.png,,0.7477477477477478,1,,,,,,,,,,,
1982.4000000059605,,directmemory_phase8,1467187,,,,object_10a.png,,,50,,,1,,object_04a.png,object_03c.png,object_12b.png,object_03c.png,,0.75,1,,,,,,,,,,,
3717.800000011921,,directmemory_phase8,1470907,,,,object_14a.png,,,49,,,1,,object_12b.png,object_02a.png,object_06a.png,object_12b.png,,0.7522123893805309,1,,,,,,,,,,,
6396.9000000059605,,directmemory_phase8,1477306,,,,object_02c.png,,,51,,,1,,object_13b.png,object_07c.png,object_08c.png,object_08c.png,,0.7543859649122807,1,,,,,,,,,,,
2542.2000000178814,,directmemory_phase8,1479852,,,,object_06c.png,,,50,,,1,,object_10a.png,object_06b.png,object_14c.png,object_06b.png,,0.7565217391304347,1,,,,,,,,,,,
3041.5,,directmemory_phase8,1482897,,,,object_14c.png,,,50,,,1,,object_05c.png,object_09a.png,object_08c.png,object_09a.png,,0.7586206896551724,1,,,,,,,,,,,
1759.2000000178814,,directmemory_phase8,1484659,,,,object_07a.png,,,50,,,1,,object_14a.png,object_14b.png,object_01c.png,object_14b.png,,0.7606837606837606,1,,,,,,,,,,,
2531.300000011921,,directmemory_phase8,1487193,,,,object_01c.png,,,49,,,1,,object_10b.png,object_13b.png,object_02c.png,object_10b.png,,0.7627118644067796,1,,,,,,,,,,,
2456.9000000059605,,directmemory_phase8,1489653,,,,object_01a.png,,,51,,,1,,object_06c.png,object_01c.png,object_04a.png,object_04a.png,,0.7647058823529411,1,,,,,,,,,,,
3086.600000023842,,directmemory_phase8,1492741,,,,object_12a.png,,,50,,,1,,object_03a.png,object_07c.png,object_02b.png,object_07c.png,,0.7666666666666667,1,,,,,,,,,,,
null,,thebreak,1492844,,,,<p></p>,,,null,,,,,,,,,,,,,,,,,,,,,,
4892,,intro_0,1497738,,,,instruct,,,32,,,,,,,,,,,,,,,,,,,,,,
20797.29999998212,,intro_1,1518544,,,,instruct,,,32,,,,,,,,,,,,,,,,,,,,,,
8216.90000000596,,intro_2,1526770,,,,instruct,,,32,,,,,,,,,,,,,,,,,,,,,,
,,intro_3,1545575,,,,instruct,,,,,,,,,,,,,,,,,,,,,,,,,
6275.699999988079,,intro_4,1551863,,,,instruct,,,32,,,,,,,,,,,,,,,,,,,,,,
7450,,inference_phase,1559316,,,,object_15b.png,,,49,object_07a.png,object_11a.png,1,,,,,object_07a.png,,1,,object_11c.png,,,,,,,,,,
9913.299999982119,,inference_phase,1569246,,,,object_13a.png,,,50,object_08b.png,object_01b.png,0,,,,,object_01b.png,,0.5,,object_01a.png,,,,,,,,,,
10902.799999982119,,inference_phase,1580152,,,,object_08a.png,,,51,object_02a.png,object_08c.png,1,,,,,object_08c.png,,0.6666666666666666,,object_10a.png,,,,,,,,,,
6021.4000000059605,,inference_phase,1586180,,,,object_03a.png,,,49,object_08b.png,object_09c.png,0,,,,,object_09c.png,,0.5,,object_07b.png,,,,,,,,,,
5258.5,,inference_phase,1591443,,,,object_10b.png,,,50,object_04b.png,object_05c.png,1,,,,,object_03b.png,,0.6,,object_03b.png,,,,,,,,,,
9705.600000023842,,inference_phase,1601151,,,,object_13c.png,,,49,object_01b.png,object_01a.png,0,,,,,object_04b.png,,0.5,,object_04b.png,,,,,,,,,,
2486.300000011921,,inference_phase,1603641,,,,object_04a.png,,,51,object_15c.png,object_09b.png,0,,,,,object_15c.png,,0.42857142857142855,,object_02b.png,,,,,,,,,,
5950,,inference_phase,1609595,,,,object_10c.png,,,49,object_01a.png,object_11a.png,0,,,,,object_06c.png,,0.375,,object_06c.png,,,,,,,,,,
9468.699999988079,,inference_phase,1619068,,,,object_05a.png,,,51,object_02a.png,object_11a.png,1,,,,,object_11a.png,,0.4444444444444444,,object_13c.png,,,,,,,,,,
6681.5,,inference_phase,1625753,,,,object_06a.png,,,51,object_15a.png,object_03c.png,0,,,,,object_08b.png,,0.4,,object_08b.png,,,,,,,,,,
5527,,inference_phase,1631287,,,,object_05b.png,,,50,object_02a.png,object_11a.png,1,,,,,object_14a.png,,0.45454545454545453,,object_14a.png,,,,,,,,,,
14646.09999999404,,inference_phase,1645936,,,,object_09a.png,,,50,object_15a.png,object_03b.png,0,,,,,object_15a.png,,0.4166666666666667,,object_01c.png,,,,,,,,,,
6233.600000023842,,inference_phase,1652173,,,,object_13b.png,,,51,object_08a.png,object_06b.png,0,,,,,object_09b.png,,0.38461538461538464,,object_09b.png,,,,,,,,,,
8971.09999999404,,inference_phase,1661147,,,,object_10a.png,,,49,object_05b.png,object_11c.png,0,,,,,object_11b.png,,0.35714285714285715,,object_11b.png,,,,,,,,,,
6587.799999982119,,inference_phase,1667738,,,,object_12c.png,,,49,object_14c.png,object_12a.png,0,,,,,object_12a.png,,0.3333333333333333,,object_08c.png,,,,,,,,,,
,,survey,2230585,,,,survey-questions,,,,,,,,,,,,,,,,none,high,No ,I may notes like one shape reminded me of a church chapel and the shape it matched with reminded me of a shell. I used strategy of labeling.,They were all about the same difficulty level.,No this is my first time with a study like this.,The study was a little intimidating at first. I actual at the beginning stopped to return it. But I then decided to do my best it would probably get better. An the study became much less of a hard challenge when I just flowed with it. I may had been a little lazy at first since it's late night here, and the study instructions at first felt like a mind bender. I did my best I hope I wasn't to dumby  ,,,
24901.70000001788,,thank_you,2255567,,,,<p> Congratulations, you are all done!</p><p> <strong>Please click space on your keyboard to end the experiment!</strong> The secret code to enter at the beginning screen is: <strong>CIMBPENS</strong></p><p> Please make sure to submit the HIT and email uciccnl@gmail.com if you had any issues! </p><br><p>Please remember to submit this data by clicking space after copying the code. Failure of submission will lead to in-complete payment</p>,,,32,,,,,,,,,,,,,,,,,,,,16,0,C78LSMTN
