rt,responses,trial_type,time_elapsed,identifier_a,identifier_b,identifier_c,stimulus,button_pressed,response,key_press,stimulus_left,stimulus_right,accuracy,practice_cumulative_accuracy,stimulus_down_left,stimulus_down_mid,stimulus_down_right,stimulus_correct,prac_weighted_accuracy,cumulative_accuracy,failed_practice,weighted_accuracy,stimulus_middle,problems,smooth,distraction,strategies,easier,similar,comments
6053.900000095367,{worker_id:65631b21aff167a83105c476},id_enter,6057,object_09c.png; object_02c.png; object_11c.png; object_08b.png; object_12a.png; object_13c.png; object_08a.png; object_12c.png; object_06b.png; object_01a.png; object_07a.png; object_09b.png; object_04b.png; object_06a.png; object_13b.png,object_10a.png; object_02b.png; object_07c.png; object_03c.png; object_07b.png; object_02a.png; object_04c.png; object_15b.png; object_01b.png; object_05b.png; object_11a.png; object_08c.png; object_13a.png; object_05a.png; object_14c.png,object_14a.png; object_10b.png; object_11b.png; object_14b.png; object_05c.png; object_01c.png; object_15c.png; object_12b.png; object_06c.png; object_03b.png; object_03a.png; object_04a.png; object_15a.png; object_09a.png; object_10c.png,,,,,,,,,,,,,,,,,,,,,,,,
53087.40000009537,,make_fullscreen,59161,,,,fullscreen,0,,,,,,,,,,,,,,,,,,,,,,
7124,,instruct_1,66288,,,,instruct,0,Next,,,,,,,,,,,,,,,,,,,,,
13409.5,,instruct_2,79701,,,,instruct,1,Next,,,,,,,,,,,,,,,,,,,,,
27767.200000047684,,instruct_3,107471,,,,instruct,1,Next,,,,,,,,,,,,,,,,,,,,,
35423.40000009537,,instruct_4,142897,,,,instruct,1,Next,,,,,,,,,,,,,,,,,,,,,
16554.200000047684,,instruct_5,159454,,,,instruct,1,Next,,,,,,,,,,,,,,,,,,,,,
8465.600000143051,,instruct_6,167922,,,,instruct,1,Next,,,,,,,,,,,,,,,,,,,,,
33078.799999952316,,instruct_7,201003,,,,instruct,1,Next,,,,,,,,,,,,,,,,,,,,,
null,,prac_atten_color_black,201577,,,,black_plus_sign,,,null,,,,,,,,,,,,,,,,,,,,
747.7000000476837,,prac_atten_color,202412,,,,<p style='position:absolute;top: 50%;right: 50%;transform: translate(50%, -50%);font-size: 125px;color: blue;'>+</p>,,,49,,,,,,,,,,,,,,,,,,,,
null,,prac_atten_color_black,204415,,,,black_plus_sign,,,null,,,,,,,,,,,,,,,,,,,,
null,,prac_atten_color_black,204988,,,,black_plus_sign,,,null,,,,,,,,,,,,,,,,,,,,
null,,prac_atten_color,205545,,,,<p style='position:absolute;top: 50%;right: 50%;transform: translate(50%, -50%);font-size: 125px;color: green;'>+</p>,,,null,,,,,,,,,,,,,,,,,,,,
16.5,,prac_atten_color_black,207547,,,,black_plus_sign,,,50,,,,,,,,,,,,,,,,,,,,
null,,prac_atten_color_black,208394,,,,black_plus_sign,,,null,,,,,,,,,,,,,,,,,,,,
null,,prac_atten_color,208912,,,,<p style='position:absolute;top: 50%;right: 50%;transform: translate(50%, -50%);font-size: 125px;color: green;'>+</p>,,,null,,,,,,,,,,,,,,,,,,,,
176.5,,prac_atten_color_black,210914,,,,black_plus_sign,,,50,,,,,,,,,,,,,,,,,,,,
null,,prac_atten_color_black,211803,,,,black_plus_sign,,,null,,,,,,,,,,,,,,,,,,,,
null,,prac_atten_color,212298,,,,<p style='position:absolute;top: 50%;right: 50%;transform: translate(50%, -50%);font-size: 125px;color: blue;'>+</p>,,,null,,,,,,,,,,,,,,,,,,,,
15.399999856948853,,prac_atten_color_black,214300,,,,black_plus_sign,,,49,,,,,,,,,,,,,,,,,,,,
null,,prac_atten_color_black,215211,,,,black_plus_sign,,,null,,,,,,,,,,,,,,,,,,,,
546.9000000953674,,prac_atten_color,216147,,,,<p style='position:absolute;top: 50%;right: 50%;transform: translate(50%, -50%);font-size: 125px;color: green;'>+</p>,,,50,,,,,,,,,,,,,,,,,,,,
null,,prac_atten_color_black,218149,,,,black_plus_sign,,,null,,,,,,,,,,,,,,,,,,,,
null,,prac_atten_color_black,218618,,,,black_plus_sign,,,null,,,,,,,,,,,,,,,,,,,,
null,,prac_atten_color,219213,,,,<p style='position:absolute;top: 50%;right: 50%;transform: translate(50%, -50%);font-size: 125px;color: green;'>+</p>,,,null,,,,,,,,,,,,,,,,,,,,
595.7999999523163,,prac_atten_color_black,221215,,,,black_plus_sign,,,50,,,,,,,,,,,,,,,,,,,,
null,,prac_atten_color_black,222025,,,,black_plus_sign,,,null,,,,,,,,,,,,,,,,,,,,
709.2999999523163,,prac_atten_color,223112,,,,<p style='position:absolute;top: 50%;right: 50%;transform: translate(50%, -50%);font-size: 125px;color: blue;'>+</p>,,,49,,,,,,,,,,,,,,,,,,,,
null,,prac_atten_color_black,225114,,,,black_plus_sign,,,null,,,,,,,,,,,,,,,,,,,,
null,,prac_atten_color_black,225432,,,,black_plus_sign,,,null,,,,,,,,,,,,,,,,,,,,
620.5,,prac_atten_color,226416,,,,<p style='position:absolute;top: 50%;right: 50%;transform: translate(50%, -50%);font-size: 125px;color: green;'>+</p>,,,50,,,,,,,,,,,,,,,,,,,,
null,,prac_atten_color_black,228417,,,,black_plus_sign,,,null,,,,,,,,,,,,,,,,,,,,
null,,prac_atten_color_black,228839,,,,black_plus_sign,,,null,,,,,,,,,,,,,,,,,,,,
478.40000009536743,,prac_atten_color,229540,,,,<p style='position:absolute;top: 50%;right: 50%;transform: translate(50%, -50%);font-size: 125px;color: blue;'>+</p>,,,49,,,,,,,,,,,,,,,,,,,,
null,,prac_atten_color_black,231542,,,,black_plus_sign,,,null,,,,,,,,,,,,,,,,,,,,
null,,prac_atten_color_black,232249,,,,black_plus_sign,,,null,,,,,,,,,,,,,,,,,,,,
596.2999999523163,,prac_atten_color,232865,,,,<p style='position:absolute;top: 50%;right: 50%;transform: translate(50%, -50%);font-size: 125px;color: blue;'>+</p>,,,49,,,,,,,,,,,,,,,,,,,,
null,,prac_atten_color_black,234867,,,,black_plus_sign,,,null,,,,,,,,,,,,,,,,,,,,
12217.700000047684,,attentioncheck_feedback,247086,,,,cross_check_feedback,0,,,,,,,,,,,,,,,,,,,,,,
12127.600000143051,,last_instruct,259216,,,,instruct,,,32,,,,,,,,,,,,,,,,,,,,
null,,prac_learn_phase(without_color),262718,,,,black_plus_sign,,,null,object_12a.png,object_07b.png,,,,,,,,,,,,,,,,,,
null,,prac_black_cross(without_color),263356,,,,blue,,,null,object_12a.png,object_07b.png,,,,,,,,,,,,,,,,,,
null,,prac_rt_plussign_withcolor,263858,,,,blue,,,null,object_12a.png,object_07b.png,,,,,,,,,,,,,,,,,,
873.4000000953674,,prac_rt_thecrossant_black,265224,,,,black_plus_sign,,,49,,,1,1,,,,,,,,,,,,,,,,
null,,prac_color_black,265326,,,,black_plus_sign,,,null,,,,,,,,,,,,,,,,,,,,
null,,prac_learn_phase(without_color),268829,,,,black_plus_sign,,,null,object_10a.png,object_09c.png,,,,,,,,,,,,,,,,,,
null,,black_cross(without_color)1,269404,,,,green,,,null,object_12a.png,object_07b.png,,,,,,,,,,,,,,,,,,
null,,prac_rt_plussign_withcolor,269907,,,,blue,,,null,object_10a.png,object_09c.png,,,,,,,,,,,,,,,,,,
1207.5999999046326,,prac_rt_thecrossant_black,270985,,,,black_plus_sign,,,49,,,1,1,,,,,,,,,,,,,,,,
null,,prac_color_black,271104,,,,black_plus_sign,,,null,,,,,,,,,,,,,,,,,,,,
null,,prac_learn_phase(without_color),274607,,,,black_plus_sign,,,null,object_14c.png,object_13b.png,,,,,,,,,,,,,,,,,,
null,,black_cross(without_color)1,275182,,,,green,,,null,object_12a.png,object_07b.png,,,,,,,,,,,,,,,,,,
null,,prac_rt_plussign_withcolor,275684,,,,green,,,null,object_14c.png,object_13b.png,,,,,,,,,,,,,,,,,,
1229.1999998092651,,prac_rt_thecrossant_black,276848,,,,black_plus_sign,,,50,,,1,1,,,,,,,,,,,,,,,,
null,,prac_color_black,276951,,,,black_plus_sign,,,null,,,,,,,,,,,,,,,,,,,,
null,,prac_learn_phase(without_color),280454,,,,black_plus_sign,,,null,object_05b.png,object_01a.png,,,,,,,,,,,,,,,,,,
null,,black_cross(without_color)1,281029,,,,green,,,null,object_12a.png,object_07b.png,,,,,,,,,,,,,,,,,,
null,,prac_rt_plussign_withcolor,281531,,,,green,,,null,object_05b.png,object_01a.png,,,,,,,,,,,,,,,,,,
1104.3000001907349,,prac_rt_thecrossant_black,282740,,,,black_plus_sign,,,50,,,1,1,,,,,,,,,,,,,,,,
null,,prac_color_black,282843,,,,black_plus_sign,,,null,,,,,,,,,,,,,,,,,,,,
25053.39999985695,,instruct_dir_01,307898,,,,instruct,0,Next,,,,,,,,,,,,,,,,,,,,,
8676.199999809265,,instruct_dir_2,316577,,,,instruct,1,Next,,,,,,,,,,,,,,,,,,,,,
4918.400000095367,,instruct_dir_3,321498,,,,instruct,1,Next,,,,,,,,,,,,,,,,,,,,,
15705.100000143051,,instruct_dir_4,337205,,,,instruct,1,Start,,,,,,,,,,,,,,,,,,,,,
null,,thebreak,337307,,,,<p></p>,,,null,,,,,,,,,,,,,,,,,,,,
1798.7999999523163,,intro_0,339108,,,,instruct,,,32,,,,,,,,,,,,,,,,,,,,
3504.199999809265,,prac_directmemory_phase,342615,,,,practice/object_03a.png,,,49,,,0,,practice/object_04b.png,practice/object_02a.png,practice/object_03b.png,practice/object_03b.png,0,0,,,,,,,,,,
3347.2000000476837,,prac_directmemory_phase,345964,,,,practice/object_02a.png,,,50,,,1,,practice/object_01a.png,practice/object_02b.png,practice/object_03b.png,practice/object_02b.png,1,0.5,,,,,,,,,,
2645.7000000476837,,prac_directmemory_phase,348613,,,,practice/object_04a.png,,,50,,,0,,practice/object_04b.png,practice/object_03b.png,practice/object_03a.png,practice/object_04b.png,0,0.3333333333333333,,,,,,,,,,
3155.2000000476837,,prac_directmemory_phase,351771,,,,practice/object_01a.png,,,51,,,1,,practice/object_04b.png,practice/object_03a.png,practice/object_01b.png,practice/object_01b.png,1,0.5,,,,,,,,,,
7999.5,,practice_feedback_force_restart,359773,,,,practice_feedback,0,,,,,,,,,,,,,1,,,,,,,,,
4442,,last_instruct,364217,,,,instruct,,,32,,,,,,,,,,,,,,,,,,,,
null,,prac_learn_phase(without_color),367720,,,,black_plus_sign,,,null,object_12a.png,object_07b.png,,,,,,,,,,,,,,,,,,
null,,prac_black_cross(without_color),368797,,,,blue,,,null,object_12a.png,object_07b.png,,,,,,,,,,,,,,,,,,
null,,prac_rt_plussign_withcolor,369298,,,,blue,,,null,object_12a.png,object_07b.png,,,,,,,,,,,,,,,,,,
1223.2000000476837,,prac_rt_thecrossant_black,370226,,,,black_plus_sign,,,49,,,1,1,,,,,,,,,,,,,,,,
null,,prac_color_black,370329,,,,black_plus_sign,,,null,,,,,,,,,,,,,,,,,,,,
null,,prac_learn_phase(without_color),373832,,,,black_plus_sign,,,null,object_10a.png,object_09c.png,,,,,,,,,,,,,,,,,,
null,,black_cross(without_color)1,374409,,,,green,,,null,object_12a.png,object_07b.png,,,,,,,,,,,,,,,,,,
null,,prac_rt_plussign_withcolor,374911,,,,blue,,,null,object_10a.png,object_09c.png,,,,,,,,,,,,,,,,,,
1259,,prac_rt_thecrossant_black,376349,,,,black_plus_sign,,,49,,,1,1,,,,,,,,,,,,,,,,
null,,prac_color_black,376453,,,,black_plus_sign,,,null,,,,,,,,,,,,,,,,,,,,
null,,prac_learn_phase(without_color),379956,,,,black_plus_sign,,,null,object_14c.png,object_13b.png,,,,,,,,,,,,,,,,,,
null,,black_cross(without_color)1,380532,,,,green,,,null,object_12a.png,object_07b.png,,,,,,,,,,,,,,,,,,
null,,prac_rt_plussign_withcolor,381034,,,,green,,,null,object_14c.png,object_13b.png,,,,,,,,,,,,,,,,,,
666.2999999523163,,prac_rt_thecrossant_black,382484,,,,black_plus_sign,,,50,,,1,1,,,,,,,,,,,,,,,,
null,,prac_color_black,382588,,,,black_plus_sign,,,null,,,,,,,,,,,,,,,,,,,,
null,,prac_learn_phase(without_color),386092,,,,black_plus_sign,,,null,object_05b.png,object_01a.png,,,,,,,,,,,,,,,,,,
null,,black_cross(without_color)1,386668,,,,green,,,null,object_12a.png,object_07b.png,,,,,,,,,,,,,,,,,,
null,,prac_rt_plussign_withcolor,387171,,,,green,,,null,object_05b.png,object_01a.png,,,,,,,,,,,,,,,,,,
849.9000000953674,,prac_rt_thecrossant_black,388634,,,,black_plus_sign,,,50,,,1,1,,,,,,,,,,,,,,,,
null,,prac_color_black,388736,,,,black_plus_sign,,,null,,,,,,,,,,,,,,,,,,,,
3512.7999999523163,,instruct_dir_01,392251,,,,instruct,0,Next,,,,,,,,,,,,,,,,,,,,,
2543.5999999046326,,instruct_dir_2,394796,,,,instruct,1,Next,,,,,,,,,,,,,,,,,,,,,
3061.2999999523163,,instruct_dir_3,397859,,,,instruct,1,Next,,,,,,,,,,,,,,,,,,,,,
4967.200000047684,,instruct_dir_4,402829,,,,instruct,1,Start,,,,,,,,,,,,,,,,,,,,,
null,,thebreak,402931,,,,<p></p>,,,null,,,,,,,,,,,,,,,,,,,,
1983.5999999046326,,intro_0,404917,,,,instruct,,,32,,,,,,,,,,,,,,,,,,,,
2453.0999999046326,,prac_directmemory_phase,407371,,,,practice/object_03a.png,,,49,,,0,,practice/object_04b.png,practice/object_02a.png,practice/object_03b.png,practice/object_03b.png,0,0,,,,,,,,,,
2950.5,,prac_directmemory_phase,410324,,,,practice/object_02a.png,,,50,,,1,,practice/object_01a.png,practice/object_02b.png,practice/object_03b.png,practice/object_02b.png,1,0.5,,,,,,,,,,
3420,,prac_directmemory_phase,413747,,,,practice/object_04a.png,,,51,,,0,,practice/object_04b.png,practice/object_03b.png,practice/object_03a.png,practice/object_04b.png,0,0.3333333333333333,,,,,,,,,,
3971.9000000953674,,prac_directmemory_phase,417721,,,,practice/object_01a.png,,,51,,,1,,practice/object_04b.png,practice/object_03a.png,practice/object_01b.png,practice/object_01b.png,1,0.5,,,,,,,,,,
31733.400000095367,,practice_feedback_force_restart,449456,,,,practice_feedback,0,,,,,,,,,,,,,2,,,,,,,,,
3710.0999999046326,,last_instruct,453167,,,,instruct,,,32,,,,,,,,,,,,,,,,,,,,
null,,prac_learn_phase(without_color),456669,,,,black_plus_sign,,,null,object_12a.png,object_07b.png,,,,,,,,,,,,,,,,,,
null,,prac_black_cross(without_color),457079,,,,blue,,,null,object_12a.png,object_07b.png,,,,,,,,,,,,,,,,,,
null,,prac_rt_plussign_withcolor,457580,,,,blue,,,null,object_12a.png,object_07b.png,,,,,,,,,,,,,,,,,,
1758.7999999523163,,prac_rt_thecrossant_black,459177,,,,black_plus_sign,,,49,,,1,1,,,,,,,,,,,,,,,,
null,,prac_color_black,459280,,,,black_plus_sign,,,null,,,,,,,,,,,,,,,,,,,,
null,,prac_learn_phase(without_color),462783,,,,black_plus_sign,,,null,object_10a.png,object_09c.png,,,,,,,,,,,,,,,,,,
null,,black_cross(without_color)1,463358,,,,green,,,null,object_12a.png,object_07b.png,,,,,,,,,,,,,,,,,,
495.2999999523163,,prac_rt_plussign_withcolor,463861,,,,blue,,,49,object_10a.png,object_09c.png,,,,,,,,,,,,,,,,,,
null,,prac_rt_thecrossant_black,465137,,,,black_plus_sign,,,null,,,1,1,,,,,,,,,,,,,,,,
null,,prac_color_black,465239,,,,black_plus_sign,,,null,,,,,,,,,,,,,,,,,,,,
null,,prac_learn_phase(without_color),468742,,,,black_plus_sign,,,null,object_14c.png,object_13b.png,,,,,,,,,,,,,,,,,,
null,,black_cross(without_color)1,469316,,,,green,,,null,object_12a.png,object_07b.png,,,,,,,,,,,,,,,,,,
null,,prac_rt_plussign_withcolor,469818,,,,green,,,null,object_14c.png,object_13b.png,,,,,,,,,,,,,,,,,,
1964.7999999523163,,prac_rt_thecrossant_black,471142,,,,black_plus_sign,,,50,,,1,1,,,,,,,,,,,,,,,,
null,,prac_color_black,471244,,,,black_plus_sign,,,null,,,,,,,,,,,,,,,,,,,,
null,,prac_learn_phase(without_color),474746,,,,black_plus_sign,,,null,object_05b.png,object_01a.png,,,,,,,,,,,,,,,,,,
null,,black_cross(without_color)1,475324,,,,green,,,null,object_12a.png,object_07b.png,,,,,,,,,,,,,,,,,,
null,,prac_rt_plussign_withcolor,475827,,,,green,,,null,object_05b.png,object_01a.png,,,,,,,,,,,,,,,,,,
1257.2999999523163,,prac_rt_thecrossant_black,476991,,,,black_plus_sign,,,50,,,1,1,,,,,,,,,,,,,,,,
null,,prac_color_black,477094,,,,black_plus_sign,,,null,,,,,,,,,,,,,,,,,,,,
10954.700000047684,,instruct_dir_01,488051,,,,instruct,0,Next,,,,,,,,,,,,,,,,,,,,,
4487.5,,instruct_dir_2,492541,,,,instruct,0,Previous,,,,,,,,,,,,,,,,,,,,,
1505.0999999046326,,instruct_dir_01,494048,,,,instruct,0,Next,,,,,,,,,,,,,,,,,,,,,
2013.6000001430511,,instruct_dir_2,496064,,,,instruct,1,Next,,,,,,,,,,,,,,,,,,,,,
2955.4000000953674,,instruct_dir_3,499022,,,,instruct,1,Next,,,,,,,,,,,,,,,,,,,,,
1902.4000000953674,,instruct_dir_4,500927,,,,instruct,1,Start,,,,,,,,,,,,,,,,,,,,,
null,,thebreak,501033,,,,<p></p>,,,null,,,,,,,,,,,,,,,,,,,,
3948.7999999523163,,intro_0,504983,,,,instruct,,,32,,,,,,,,,,,,,,,,,,,,
3391.800000190735,,prac_directmemory_phase,508376,,,,practice/object_03a.png,,,51,,,1,,practice/object_04b.png,practice/object_02a.png,practice/object_03b.png,practice/object_03b.png,1,1,,,,,,,,,,
3046,,prac_directmemory_phase,511425,,,,practice/object_02a.png,,,50,,,1,,practice/object_01a.png,practice/object_02b.png,practice/object_03b.png,practice/object_02b.png,1,1,,,,,,,,,,
4198.5,,prac_directmemory_phase,515626,,,,practice/object_04a.png,,,51,,,0,,practice/object_04b.png,practice/object_03b.png,practice/object_03a.png,practice/object_04b.png,0,0.6666666666666666,,,,,,,,,,
3060.7000000476837,,prac_directmemory_phase,518690,,,,practice/object_01a.png,,,51,,,1,,practice/object_04b.png,practice/object_03a.png,practice/object_01b.png,practice/object_01b.png,1,0.75,,,,,,,,,,
25825.700000047684,,practice_feedback,544518,,,,practice_feedback,1,,,,,,,,,,,,,,,,,,,,,,
13475.600000143051,,proceed_actualTask,557996,,,,proceed_actualTask,1,Continue,,,,,,,,,,,,,,,,,,,,,
12428,,last_inst,570425,,,,last_inst,,,32,,,,,,,,,,,,,,,,,,,,
null,,learn_phase(without_color)1,573927,,,,black_plus_sign,,,null,object_12a.png,object_07b.png,,,,,,,,,,,,,,,,,,
null,,black_cross(without_color)1,574502,,,,green,,,null,object_12a.png,object_07b.png,,,,,,,,,,,,,,,,,,
null,,rt_plussign_withcolor1,575006,,,,green,,,null,object_12a.png,object_07b.png,,,,,,,,,,,,,,,,,,
1560.2999999523163,,rt_thecrossant_black1,576435,,,,black_plus_sign,,,50,,,1,,,,,,,1,,,,,,,,,,
null,,color_black1,576537,,,,black_plus_sign,,,null,,,,,,,,,,,,,,,,,,,,
null,,learn_phase(without_color)1,580041,,,,black_plus_sign,,,null,object_10a.png,object_09c.png,,,,,,,,,,,,,,,,,,
null,,black_cross(without_color)1,580525,,,,green,,,null,object_10a.png,object_09c.png,,,,,,,,,,,,,,,,,,
null,,rt_plussign_withcolor1,581026,,,,green,,,null,object_10a.png,object_09c.png,,,,,,,,,,,,,,,,,,
1197,,rt_thecrossant_black1,582548,,,,black_plus_sign,,,50,,,1,,,,,,,1,,,,,,,,,,
null,,color_black1,582651,,,,black_plus_sign,,,null,,,,,,,,,,,,,,,,,,,,
null,,learn_phase(without_color)1,586153,,,,black_plus_sign,,,null,object_14c.png,object_13b.png,,,,,,,,,,,,,,,,,,
null,,black_cross(without_color)1,586572,,,,green,,,null,object_14c.png,object_13b.png,,,,,,,,,,,,,,,,,,
null,,rt_plussign_withcolor1,587074,,,,green,,,null,object_14c.png,object_13b.png,,,,,,,,,,,,,,,,,,
609,,rt_thecrossant_black1,588665,,,,black_plus_sign,,,50,,,1,,,,,,,1,,,,,,,,,,
null,,color_black1,588767,,,,black_plus_sign,,,null,,,,,,,,,,,,,,,,,,,,
null,,learn_phase(without_color)1,592270,,,,black_plus_sign,,,null,object_05b.png,object_01a.png,,,,,,,,,,,,,,,,,,
null,,black_cross(without_color)1,592737,,,,blue,,,null,object_05b.png,object_01a.png,,,,,,,,,,,,,,,,,,
null,,rt_plussign_withcolor1,593239,,,,blue,,,null,object_05b.png,object_01a.png,,,,,,,,,,,,,,,,,,
910.2999999523163,,rt_thecrossant_black1,594777,,,,black_plus_sign,,,49,,,1,,,,,,,1,,,,,,,,,,
null,,color_black1,594879,,,,black_plus_sign,,,null,,,,,,,,,,,,,,,,,,,,
null,,learn_phase(without_color)1,598383,,,,black_plus_sign,,,null,object_15b.png,object_12c.png,,,,,,,,,,,,,,,,,,
null,,black_cross(without_color)1,599278,,,,blue,,,null,object_15b.png,object_12c.png,,,,,,,,,,,,,,,,,,
null,,rt_plussign_withcolor1,599780,,,,blue,,,null,object_15b.png,object_12c.png,,,,,,,,,,,,,,,,,,
null,,rt_thecrossant_black1,600888,,,,black_plus_sign,,,null,,,,,,,,,,1,,,,,,,,,,
null,,color_black1,600992,,,,black_plus_sign,,,null,,,,,,,,,,,,,,,,,,,,
null,,learn_phase(without_color)1,604501,,,,black_plus_sign,,,null,object_03c.png,object_08b.png,,,,,,,,,,,,,,,,,,
null,,black_cross(without_color)1,605247,,,,green,,,null,object_03c.png,object_08b.png,,,,,,,,,,,,,,,,,,
null,,rt_plussign_withcolor1,605749,,,,green,,,null,object_03c.png,object_08b.png,,,,,,,,,,,,,,,,,,
1228.3999998569489,,rt_thecrossant_black1,607007,,,,black_plus_sign,,,50,,,1,,,,,,,1,,,,,,,,,,
null,,color_black1,607111,,,,black_plus_sign,,,null,,,,,,,,,,,,,,,,,,,,
null,,learn_phase(without_color)1,610614,,,,black_plus_sign,,,null,object_07a.png,object_11a.png,,,,,,,,,,,,,,,,,,
null,,black_cross(without_color)1,611714,,,,green,,,null,object_07a.png,object_11a.png,,,,,,,,,,,,,,,,,,
null,,rt_plussign_withcolor1,612217,,,,green,,,null,object_07a.png,object_11a.png,,,,,,,,,,,,,,,,,,
1082,,rt_thecrossant_black1,613121,,,,black_plus_sign,,,50,,,1,,,,,,,1,,,,,,,,,,
null,,color_black1,613224,,,,black_plus_sign,,,null,,,,,,,,,,,,,,,,,,,,
null,,learn_phase(without_color)1,616727,,,,black_plus_sign,,,null,object_08c.png,object_09b.png,,,,,,,,,,,,,,,,,,
null,,black_cross(without_color)1,617442,,,,blue,,,null,object_08c.png,object_09b.png,,,,,,,,,,,,,,,,,,
null,,rt_plussign_withcolor1,617945,,,,blue,,,null,object_08c.png,object_09b.png,,,,,,,,,,,,,,,,,,
1233.4000000953674,,rt_thecrossant_black1,619236,,,,black_plus_sign,,,49,,,1,,,,,,,1,,,,,,,,,,
null,,color_black1,619339,,,,black_plus_sign,,,null,,,,,,,,,,,,,,,,,,,,
null,,learn_phase(without_color)1,622843,,,,black_plus_sign,,,null,object_07c.png,object_11c.png,,,,,,,,,,,,,,,,,,
null,,black_cross(without_color)1,623424,,,,blue,,,null,object_07c.png,object_11c.png,,,,,,,,,,,,,,,,,,
null,,rt_plussign_withcolor1,623927,,,,blue,,,null,object_07c.png,object_11c.png,,,,,,,,,,,,,,,,,,
1294.5,,rt_thecrossant_black1,625350,,,,black_plus_sign,,,49,,,1,,,,,,,1,,,,,,,,,,
null,,color_black1,625453,,,,black_plus_sign,,,null,,,,,,,,,,,,,,,,,,,,
null,,learn_phase(without_color)1,628955,,,,black_plus_sign,,,null,object_05a.png,object_06a.png,,,,,,,,,,,,,,,,,,
null,,black_cross(without_color)1,629996,,,,blue,,,null,object_05a.png,object_06a.png,,,,,,,,,,,,,,,,,,
null,,rt_plussign_withcolor1,630499,,,,blue,,,null,object_05a.png,object_06a.png,,,,,,,,,,,,,,,,,,
989.7000000476837,,rt_thecrossant_black1,631464,,,,black_plus_sign,,,49,,,1,,,,,,,1,,,,,,,,,,
null,,color_black1,631567,,,,black_plus_sign,,,null,,,,,,,,,,,,,,,,,,,,
null,,learn_phase(without_color)1,635070,,,,black_plus_sign,,,null,object_13c.png,object_02a.png,,,,,,,,,,,,,,,,,,
null,,black_cross(without_color)1,636161,,,,blue,,,null,object_13c.png,object_02a.png,,,,,,,,,,,,,,,,,,
null,,rt_plussign_withcolor1,636663,,,,blue,,,null,object_13c.png,object_02a.png,,,,,,,,,,,,,,,,,,
1464.7999999523163,,rt_thecrossant_black1,637578,,,,black_plus_sign,,,49,,,1,,,,,,,1,,,,,,,,,,
null,,color_black1,637680,,,,black_plus_sign,,,null,,,,,,,,,,,,,,,,,,,,
null,,learn_phase(without_color)1,641185,,,,black_plus_sign,,,null,object_13a.png,object_04b.png,,,,,,,,,,,,,,,,,,
null,,black_cross(without_color)1,642033,,,,green,,,null,object_13a.png,object_04b.png,,,,,,,,,,,,,,,,,,
480.89999985694885,,rt_plussign_withcolor1,642535,,,,green,,,50,object_13a.png,object_04b.png,,,,,,,,,,,,,,,,,,
null,,rt_thecrossant_black1,643691,,,,black_plus_sign,,,null,,,1,,,,,,,1,,,,,,,,,,
null,,color_black1,643794,,,,black_plus_sign,,,null,,,,,,,,,,,,,,,,,,,,
null,,learn_phase(without_color)1,647296,,,,black_plus_sign,,,null,object_02b.png,object_02c.png,,,,,,,,,,,,,,,,,,
null,,black_cross(without_color)1,648173,,,,green,,,null,object_02b.png,object_02c.png,,,,,,,,,,,,,,,,,,
null,,rt_plussign_withcolor1,648675,,,,green,,,null,object_02b.png,object_02c.png,,,,,,,,,,,,,,,,,,
1087.5999999046326,,rt_thecrossant_black1,649803,,,,black_plus_sign,,,50,,,1,,,,,,,1,,,,,,,,,,
null,,color_black1,649905,,,,black_plus_sign,,,null,,,,,,,,,,,,,,,,,,,,
null,,learn_phase(without_color)1,653407,,,,black_plus_sign,,,null,object_04c.png,object_08a.png,,,,,,,,,,,,,,,,,,
null,,black_cross(without_color)1,654153,,,,blue,,,null,object_04c.png,object_08a.png,,,,,,,,,,,,,,,,,,
null,,rt_plussign_withcolor1,654656,,,,blue,,,null,object_04c.png,object_08a.png,,,,,,,,,,,,,,,,,,
1008.5999999046326,,rt_thecrossant_black1,655915,,,,black_plus_sign,,,49,,,1,,,,,,,1,,,,,,,,,,
null,,color_black1,656018,,,,black_plus_sign,,,null,,,,,,,,,,,,,,,,,,,,
null,,learn_phase(without_color)1,659524,,,,black_plus_sign,,,null,object_06b.png,object_01b.png,,,,,,,,,,,,,,,,,,
null,,black_cross(without_color)1,660458,,,,blue,,,null,object_06b.png,object_01b.png,,,,,,,,,,,,,,,,,,
null,,rt_plussign_withcolor1,660959,,,,blue,,,null,object_06b.png,object_01b.png,,,,,,,,,,,,,,,,,,
845.7999999523163,,rt_thecrossant_black1,662030,,,,black_plus_sign,,,49,,,1,,,,,,,1,,,,,,,,,,
null,,color_black1,662133,,,,black_plus_sign,,,null,,,,,,,,,,,,,,,,,,,,
null,,thebreak,662237,,,,<p></p>,,,null,,,,,,,,,,,,,,,,,,,,
11567,,intro_0,673806,,,,instruct,,,32,,,,,,,,,,,,,,,,,,,,
3434.7000000476837,,directmemory_phase1,677242,,,,object_13c.png,,,51,,,0,,object_02a.png,object_05a.png,object_08b.png,object_02a.png,,0,,0,,,,,,,,
3214.7000000476837,,directmemory_phase1,680459,,,,object_13b.png,,,49,,,1,,object_14c.png,object_04c.png,object_08b.png,object_14c.png,,0.5,,1,,,,,,,,
5386.900000095367,,directmemory_phase1,685849,,,,object_02c.png,,,49,,,1,,object_02b.png,object_10a.png,object_12c.png,object_02b.png,,0.6666666666666666,,1,,,,,,,,
5047.200000047684,,directmemory_phase1,690899,,,,object_12c.png,,,49,,,1,,object_15b.png,object_07b.png,object_02c.png,object_15b.png,,0.75,,1,,,,,,,,
2975.7000000476837,,directmemory_phase1,693876,,,,object_11c.png,,,51,,,1,,object_03c.png,object_09b.png,object_07c.png,object_07c.png,,0.8,,1,,,,,,,,
5433.099999904633,,directmemory_phase1,699311,,,,object_07a.png,,,50,,,0,,object_11a.png,object_05a.png,object_08a.png,object_11a.png,,0.6666666666666666,,0,,,,,,,,
5307.099999904633,,directmemory_phase1,704620,,,,object_06a.png,,,50,,,0,,object_05a.png,object_04c.png,object_02c.png,object_05a.png,,0.5714285714285714,,0,,,,,,,,
2768.5,,directmemory_phase1,707390,,,,object_06b.png,,,51,,,1,,object_11a.png,object_07a.png,object_01b.png,object_01b.png,,0.625,,1,,,,,,,,
4989.299999952316,,directmemory_phase1,712383,,,,object_08a.png,,,51,,,0,,object_13c.png,object_04c.png,object_05b.png,object_04c.png,,0.5555555555555556,,0,,,,,,,,
4417.600000143051,,directmemory_phase1,716803,,,,object_04b.png,,,50,,,0,,object_13a.png,object_15b.png,object_08b.png,object_13a.png,,0.5,,0,,,,,,,,
4486.5,,directmemory_phase1,721293,,,,object_08b.png,,,50,,,1,,object_09b.png,object_03c.png,object_10a.png,object_03c.png,,0.5454545454545454,,1,,,,,,,,
3100.5,,directmemory_phase1,724396,,,,object_12a.png,,,50,,,1,,object_04b.png,object_07b.png,object_08c.png,object_07b.png,,0.5833333333333334,,1,,,,,,,,
5585.200000047684,,directmemory_phase1,729984,,,,object_09c.png,,,51,,,1,,object_05a.png,object_02c.png,object_10a.png,object_10a.png,,0.6153846153846154,,1,,,,,,,,
6136.900000095367,,directmemory_phase1,736123,,,,object_09b.png,,,49,,,0,,object_11c.png,object_08c.png,object_05a.png,object_08c.png,,0.5714285714285714,,0,,,,,,,,
5536,,directmemory_phase1,741662,,,,object_01a.png,,,49,,,0,,object_04b.png,object_05b.png,object_13a.png,object_05b.png,,0.5333333333333333,,0,,,,,,,,
null,,thebreak,741765,,,,<p></p>,,,null,,,,,,,,,,,,,,,,,,,,
2200.100000143051,,intro_0,743967,,,,instruct,,,32,,,,,,,,,,,,,,,,,,,,
null,,learn_phase(without_color)2,747469,,,,black_plus_sign,,,null,object_04c.png,object_08a.png,,,,,,,,,,,,,,,,,,
null,,black_cross(without_color)2,748362,,,,blue,,,null,object_04c.png,object_08a.png,,,,,,,,,,,,,,,,,,
null,,rt_plussign_withcolor2,748864,,,,blue,,,null,object_04c.png,object_08a.png,,,,,,,,,,,,,,,,,,
1664.2000000476837,,rt_thecrossant_black2,749977,,,,black_plus_sign,,,49,,,1,,,,,,,1,,,,,,,,,,
null,,color_black2,750080,,,,black_plus_sign,,,null,,,,,,,,,,,,,,,,,,,,
null,,learn_phase(without_color)2,753583,,,,black_plus_sign,,,null,object_07a.png,object_11a.png,,,,,,,,,,,,,,,,,,
null,,black_cross(without_color)2,754557,,,,blue,,,null,object_07a.png,object_11a.png,,,,,,,,,,,,,,,,,,
null,,rt_plussign_withcolor2,755059,,,,blue,,,null,object_07a.png,object_11a.png,,,,,,,,,,,,,,,,,,
1147.8000001907349,,rt_thecrossant_black2,756089,,,,black_plus_sign,,,49,,,1,,,,,,,1,,,,,,,,,,
null,,color_black2,756192,,,,black_plus_sign,,,null,,,,,,,,,,,,,,,,,,,,
null,,learn_phase(without_color)2,759697,,,,black_plus_sign,,,null,object_12c.png,object_15b.png,,,,,,,,,,,,,,,,,,
null,,black_cross(without_color)2,760445,,,,blue,,,null,object_12c.png,object_15b.png,,,,,,,,,,,,,,,,,,
null,,rt_plussign_withcolor2,760947,,,,blue,,,null,object_12c.png,object_15b.png,,,,,,,,,,,,,,,,,,
1294.1000001430511,,rt_thecrossant_black2,762204,,,,black_plus_sign,,,49,,,1,,,,,,,1,,,,,,,,,,
null,,color_black2,762307,,,,black_plus_sign,,,null,,,,,,,,,,,,,,,,,,,,
null,,learn_phase(without_color)2,765812,,,,black_plus_sign,,,null,object_09c.png,object_10a.png,,,,,,,,,,,,,,,,,,
null,,black_cross(without_color)2,766325,,,,blue,,,null,object_09c.png,object_10a.png,,,,,,,,,,,,,,,,,,
442.10000014305115,,rt_plussign_withcolor2,766841,,,,blue,,,49,object_09c.png,object_10a.png,,,,,,,,,,,,,,,,,,
null,,rt_thecrossant_black2,768335,,,,black_plus_sign,,,null,,,1,,,,,,,1,,,,,,,,,,
null,,color_black2,768438,,,,black_plus_sign,,,null,,,,,,,,,,,,,,,,,,,,
null,,learn_phase(without_color)2,771941,,,,black_plus_sign,,,null,object_07b.png,object_12a.png,,,,,,,,,,,,,,,,,,
null,,black_cross(without_color)2,772691,,,,green,,,null,object_07b.png,object_12a.png,,,,,,,,,,,,,,,,,,
null,,rt_plussign_withcolor2,773193,,,,green,,,null,object_07b.png,object_12a.png,,,,,,,,,,,,,,,,,,
990,,rt_thecrossant_black2,774455,,,,black_plus_sign,,,50,,,1,,,,,,,1,,,,,,,,,,
null,,color_black2,774558,,,,black_plus_sign,,,null,,,,,,,,,,,,,,,,,,,,
null,,learn_phase(without_color)2,778062,,,,black_plus_sign,,,null,object_14c.png,object_13b.png,,,,,,,,,,,,,,,,,,
null,,black_cross(without_color)2,778886,,,,green,,,null,object_14c.png,object_13b.png,,,,,,,,,,,,,,,,,,
null,,rt_plussign_withcolor2,779389,,,,green,,,null,object_14c.png,object_13b.png,,,,,,,,,,,,,,,,,,
1156.5,,rt_thecrossant_black2,780570,,,,black_plus_sign,,,50,,,1,,,,,,,1,,,,,,,,,,
null,,color_black2,780672,,,,black_plus_sign,,,null,,,,,,,,,,,,,,,,,,,,
null,,learn_phase(without_color)2,784175,,,,black_plus_sign,,,null,object_08c.png,object_09b.png,,,,,,,,,,,,,,,,,,
null,,black_cross(without_color)2,784895,,,,green,,,null,object_08c.png,object_09b.png,,,,,,,,,,,,,,,,,,
null,,rt_plussign_withcolor2,785398,,,,green,,,null,object_08c.png,object_09b.png,,,,,,,,,,,,,,,,,,
1663.2000000476837,,rt_thecrossant_black2,786683,,,,black_plus_sign,,,50,,,1,,,,,,,1,,,,,,,,,,
null,,color_black2,786786,,,,black_plus_sign,,,null,,,,,,,,,,,,,,,,,,,,
null,,learn_phase(without_color)2,790289,,,,black_plus_sign,,,null,object_13a.png,object_04b.png,,,,,,,,,,,,,,,,,,
null,,black_cross(without_color)2,791081,,,,green,,,null,object_13a.png,object_04b.png,,,,,,,,,,,,,,,,,,
null,,rt_plussign_withcolor2,791597,,,,green,,,null,object_13a.png,object_04b.png,,,,,,,,,,,,,,,,,,
991.5999999046326,,rt_thecrossant_black2,792809,,,,black_plus_sign,,,50,,,1,,,,,,,1,,,,,,,,,,
null,,color_black2,792924,,,,black_plus_sign,,,null,,,,,,,,,,,,,,,,,,,,
null,,learn_phase(without_color)2,796436,,,,black_plus_sign,,,null,object_05a.png,object_06a.png,,,,,,,,,,,,,,,,,,
null,,black_cross(without_color)2,797454,,,,blue,,,null,object_05a.png,object_06a.png,,,,,,,,,,,,,,,,,,
null,,rt_plussign_withcolor2,797964,,,,blue,,,null,object_05a.png,object_06a.png,,,,,,,,,,,,,,,,,,
919.5,,rt_thecrossant_black2,798952,,,,black_plus_sign,,,49,,,1,,,,,,,1,,,,,,,,,,
null,,color_black2,799055,,,,black_plus_sign,,,null,,,,,,,,,,,,,,,,,,,,
null,,learn_phase(without_color)2,802565,,,,black_plus_sign,,,null,object_02b.png,object_02c.png,,,,,,,,,,,,,,,,,,
null,,black_cross(without_color)2,803274,,,,blue,,,null,object_02b.png,object_02c.png,,,,,,,,,,,,,,,,,,
null,,rt_plussign_withcolor2,803776,,,,blue,,,null,object_02b.png,object_02c.png,,,,,,,,,,,,,,,,,,
1435.4000000953674,,rt_thecrossant_black2,805073,,,,black_plus_sign,,,49,,,1,,,,,,,1,,,,,,,,,,
null,,color_black2,805176,,,,black_plus_sign,,,null,,,,,,,,,,,,,,,,,,,,
null,,learn_phase(without_color)2,808680,,,,black_plus_sign,,,null,object_01a.png,object_05b.png,,,,,,,,,,,,,,,,,,
null,,black_cross(without_color)2,809422,,,,blue,,,null,object_01a.png,object_05b.png,,,,,,,,,,,,,,,,,,
null,,rt_plussign_withcolor2,809924,,,,blue,,,null,object_01a.png,object_05b.png,,,,,,,,,,,,,,,,,,
952.2999999523163,,rt_thecrossant_black2,811188,,,,black_plus_sign,,,49,,,1,,,,,,,1,,,,,,,,,,
null,,color_black2,811292,,,,black_plus_sign,,,null,,,,,,,,,,,,,,,,,,,,
null,,learn_phase(without_color)2,814796,,,,black_plus_sign,,,null,object_08b.png,object_03c.png,,,,,,,,,,,,,,,,,,
null,,black_cross(without_color)2,815647,,,,green,,,null,object_08b.png,object_03c.png,,,,,,,,,,,,,,,,,,
null,,rt_plussign_withcolor2,816149,,,,green,,,null,object_08b.png,object_03c.png,,,,,,,,,,,,,,,,,,
1193.5999999046326,,rt_thecrossant_black2,817304,,,,black_plus_sign,,,50,,,1,,,,,,,1,,,,,,,,,,
null,,color_black2,817407,,,,black_plus_sign,,,null,,,,,,,,,,,,,,,,,,,,
null,,learn_phase(without_color)2,820910,,,,black_plus_sign,,,null,object_01b.png,object_06b.png,,,,,,,,,,,,,,,,,,
null,,black_cross(without_color)2,821322,,,,blue,,,null,object_01b.png,object_06b.png,,,,,,,,,,,,,,,,,,
null,,rt_plussign_withcolor2,821824,,,,blue,,,null,object_01b.png,object_06b.png,,,,,,,,,,,,,,,,,,
1142.9000000953674,,rt_thecrossant_black2,823418,,,,black_plus_sign,,,49,,,1,,,,,,,1,,,,,,,,,,
null,,color_black2,823522,,,,black_plus_sign,,,null,,,,,,,,,,,,,,,,,,,,
null,,learn_phase(without_color)2,827026,,,,black_plus_sign,,,null,object_02a.png,object_13c.png,,,,,,,,,,,,,,,,,,
null,,black_cross(without_color)2,828054,,,,blue,,,null,object_02a.png,object_13c.png,,,,,,,,,,,,,,,,,,
null,,rt_plussign_withcolor2,828556,,,,blue,,,null,object_02a.png,object_13c.png,,,,,,,,,,,,,,,,,,
572.2000000476837,,rt_thecrossant_black2,829533,,,,black_plus_sign,,,49,,,1,,,,,,,1,,,,,,,,,,
null,,color_black2,829636,,,,black_plus_sign,,,null,,,,,,,,,,,,,,,,,,,,
null,,learn_phase(without_color)2,833139,,,,black_plus_sign,,,null,object_11c.png,object_07c.png,,,,,,,,,,,,,,,,,,
null,,black_cross(without_color)2,833620,,,,green,,,null,object_11c.png,object_07c.png,,,,,,,,,,,,,,,,,,
null,,rt_plussign_withcolor2,834122,,,,green,,,null,object_11c.png,object_07c.png,,,,,,,,,,,,,,,,,,
1439.8000001907349,,rt_thecrossant_black2,835648,,,,black_plus_sign,,,50,,,1,,,,,,,1,,,,,,,,,,
null,,color_black2,835753,,,,black_plus_sign,,,null,,,,,,,,,,,,,,,,,,,,
null,,thebreak,835856,,,,<p></p>,,,null,,,,,,,,,,,,,,,,,,,,
2272.100000143051,,intro_0,838130,,,,instruct,,,32,,,,,,,,,,,,,,,,,,,,
3141.2000000476837,,directmemory_phase2,841273,,,,object_09c.png,,,49,,,1,,object_10a.png,object_07b.png,object_12a.png,object_10a.png,,0.5625,,1,,,,,,,,
3124.2999999523163,,directmemory_phase2,844400,,,,object_02c.png,,,50,,,0,,object_03c.png,object_13c.png,object_02b.png,object_02b.png,,0.5294117647058824,,0,,,,,,,,
2637.0999999046326,,directmemory_phase2,847039,,,,object_07a.png,,,51,,,1,,object_08c.png,object_02c.png,object_11a.png,object_11a.png,,0.5555555555555556,,1,,,,,,,,
2764.800000190735,,directmemory_phase2,849807,,,,object_12c.png,,,51,,,1,,object_02b.png,object_11c.png,object_15b.png,object_15b.png,,0.5789473684210527,,1,,,,,,,,
4232.599999904633,,directmemory_phase2,854041,,,,object_06a.png,,,51,,,1,,object_03c.png,object_06b.png,object_05a.png,object_05a.png,,0.6,,1,,,,,,,,
2822.899999856949,,directmemory_phase2,856867,,,,object_11c.png,,,50,,,1,,object_01a.png,object_07c.png,object_15b.png,object_07c.png,,0.6190476190476191,,1,,,,,,,,
3891.7999999523163,,directmemory_phase2,860762,,,,object_01a.png,,,49,,,1,,object_05b.png,object_15b.png,object_08b.png,object_05b.png,,0.6363636363636364,,1,,,,,,,,
3681,,directmemory_phase2,864447,,,,object_09b.png,,,49,,,1,,object_08c.png,object_10a.png,object_06a.png,object_08c.png,,0.6521739130434783,,1,,,,,,,,
3985.7000000476837,,directmemory_phase2,868435,,,,object_04b.png,,,50,,,1,,object_06a.png,object_13a.png,object_15b.png,object_13a.png,,0.6666666666666666,,1,,,,,,,,
4496.399999856949,,directmemory_phase2,872936,,,,object_13b.png,,,49,,,1,,object_14c.png,object_03c.png,object_09c.png,object_14c.png,,0.68,,1,,,,,,,,
3766.0999999046326,,directmemory_phase2,876706,,,,object_08a.png,,,50,,,1,,object_06a.png,object_04c.png,object_07c.png,object_04c.png,,0.6923076923076923,,1,,,,,,,,
4265.900000095367,,directmemory_phase2,880974,,,,object_08b.png,,,50,,,1,,object_02c.png,object_03c.png,object_07b.png,object_03c.png,,0.7037037037037037,,1,,,,,,,,
4818.299999952316,,directmemory_phase2,885794,,,,object_13c.png,,,50,,,0,,object_15b.png,object_07a.png,object_02a.png,object_02a.png,,0.6785714285714286,,0,,,,,,,,
3875.7000000476837,,directmemory_phase2,889673,,,,object_06b.png,,,50,,,1,,object_06a.png,object_01b.png,object_10a.png,object_01b.png,,0.6896551724137931,,1,,,,,,,,
3110.2000000476837,,directmemory_phase2,892784,,,,object_12a.png,,,49,,,1,,object_07b.png,object_11a.png,object_08b.png,object_07b.png,,0.7,,1,,,,,,,,
null,,thebreak,892886,,,,<p></p>,,,null,,,,,,,,,,,,,,,,,,,,
1912.5999999046326,,intro_0,894801,,,,instruct,,,32,,,,,,,,,,,,,,,,,,,,
null,,learn_phase(without_color)3,898304,,,,black_plus_sign,,,null,object_02b.png,object_02c.png,,,,,,,,,,,,,,,,,,
null,,black_cross(without_color)3,898968,,,,blue,,,null,object_02b.png,object_02c.png,,,,,,,,,,,,,,,,,,
null,,rt_plussign_withcolor3,899473,,,,blue,,,null,object_02b.png,object_02c.png,,,,,,,,,,,,,,,,,,
764.8999998569489,,rt_thecrossant_black3,900822,,,,black_plus_sign,,,49,,,1,,,,,,,1,,,,,,,,,,
null,,color_black3,900925,,,,black_plus_sign,,,null,,,,,,,,,,,,,,,,,,,,
null,,learn_phase(without_color)3,904429,,,,black_plus_sign,,,null,object_14c.png,object_13b.png,,,,,,,,,,,,,,,,,,
null,,black_cross(without_color)3,905129,,,,blue,,,null,object_14c.png,object_13b.png,,,,,,,,,,,,,,,,,,
null,,rt_plussign_withcolor3,905632,,,,blue,,,null,object_14c.png,object_13b.png,,,,,,,,,,,,,,,,,,
1036.1000001430511,,rt_thecrossant_black3,906937,,,,black_plus_sign,,,49,,,1,,,,,,,1,,,,,,,,,,
null,,color_black3,907041,,,,black_plus_sign,,,null,,,,,,,,,,,,,,,,,,,,
null,,learn_phase(without_color)3,910545,,,,black_plus_sign,,,null,object_13c.png,object_02a.png,,,,,,,,,,,,,,,,,,
null,,black_cross(without_color)3,911520,,,,blue,,,null,object_13c.png,object_02a.png,,,,,,,,,,,,,,,,,,
null,,rt_plussign_withcolor3,912022,,,,blue,,,null,object_13c.png,object_02a.png,,,,,,,,,,,,,,,,,,
930.5999999046326,,rt_thecrossant_black3,913052,,,,black_plus_sign,,,49,,,1,,,,,,,1,,,,,,,,,,
null,,color_black3,913155,,,,black_plus_sign,,,null,,,,,,,,,,,,,,,,,,,,
null,,learn_phase(without_color)3,916659,,,,black_plus_sign,,,null,object_05a.png,object_06a.png,,,,,,,,,,,,,,,,,,
null,,black_cross(without_color)3,917493,,,,blue,,,null,object_05a.png,object_06a.png,,,,,,,,,,,,,,,,,,
null,,rt_plussign_withcolor3,917994,,,,blue,,,null,object_05a.png,object_06a.png,,,,,,,,,,,,,,,,,,
1102,,rt_thecrossant_black3,919165,,,,black_plus_sign,,,49,,,1,,,,,,,1,,,,,,,,,,
null,,color_black3,919269,,,,black_plus_sign,,,null,,,,,,,,,,,,,,,,,,,,
null,,learn_phase(without_color)3,922772,,,,black_plus_sign,,,null,object_09b.png,object_08c.png,,,,,,,,,,,,,,,,,,
null,,black_cross(without_color)3,923376,,,,blue,,,null,object_09b.png,object_08c.png,,,,,,,,,,,,,,,,,,
null,,rt_plussign_withcolor3,923879,,,,blue,,,null,object_09b.png,object_08c.png,,,,,,,,,,,,,,,,,,
1160.2000000476837,,rt_thecrossant_black3,925280,,,,black_plus_sign,,,49,,,1,,,,,,,1,,,,,,,,,,
null,,color_black3,925382,,,,black_plus_sign,,,null,,,,,,,,,,,,,,,,,,,,
null,,learn_phase(without_color)3,928885,,,,black_plus_sign,,,null,object_05b.png,object_01a.png,,,,,,,,,,,,,,,,,,
null,,black_cross(without_color)3,929324,,,,green,,,null,object_05b.png,object_01a.png,,,,,,,,,,,,,,,,,,
null,,rt_plussign_withcolor3,929826,,,,green,,,null,object_05b.png,object_01a.png,,,,,,,,,,,,,,,,,,
821.7999999523163,,rt_thecrossant_black3,931395,,,,black_plus_sign,,,50,,,1,,,,,,,1,,,,,,,,,,
null,,color_black3,931498,,,,black_plus_sign,,,null,,,,,,,,,,,,,,,,,,,,
null,,learn_phase(without_color)3,935002,,,,black_plus_sign,,,null,object_13a.png,object_04b.png,,,,,,,,,,,,,,,,,,
null,,black_cross(without_color)3,936053,,,,green,,,null,object_13a.png,object_04b.png,,,,,,,,,,,,,,,,,,
null,,rt_plussign_withcolor3,936556,,,,green,,,null,object_13a.png,object_04b.png,,,,,,,,,,,,,,,,,,
689.2999999523163,,rt_thecrossant_black3,937512,,,,black_plus_sign,,,50,,,1,,,,,,,1,,,,,,,,,,
null,,color_black3,937614,,,,black_plus_sign,,,null,,,,,,,,,,,,,,,,,,,,
null,,learn_phase(without_color)3,941118,,,,black_plus_sign,,,null,object_07c.png,object_11c.png,,,,,,,,,,,,,,,,,,
null,,black_cross(without_color)3,942090,,,,green,,,null,object_07c.png,object_11c.png,,,,,,,,,,,,,,,,,,
null,,rt_plussign_withcolor3,942593,,,,green,,,null,object_07c.png,object_11c.png,,,,,,,,,,,,,,,,,,
1389.5999999046326,,rt_thecrossant_black3,943627,,,,black_plus_sign,,,50,,,1,,,,,,,1,,,,,,,,,,
null,,color_black3,943730,,,,black_plus_sign,,,null,,,,,,,,,,,,,,,,,,,,
null,,learn_phase(without_color)3,947234,,,,black_plus_sign,,,null,object_08b.png,object_03c.png,,,,,,,,,,,,,,,,,,
null,,black_cross(without_color)3,947819,,,,green,,,null,object_08b.png,object_03c.png,,,,,,,,,,,,,,,,,,
null,,rt_plussign_withcolor3,948322,,,,green,,,null,object_08b.png,object_03c.png,,,,,,,,,,,,,,,,,,
1129.7000000476837,,rt_thecrossant_black3,949744,,,,black_plus_sign,,,50,,,1,,,,,,,1,,,,,,,,,,
null,,color_black3,949847,,,,black_plus_sign,,,null,,,,,,,,,,,,,,,,,,,,
null,,learn_phase(without_color)3,953349,,,,black_plus_sign,,,null,object_12c.png,object_15b.png,,,,,,,,,,,,,,,,,,
null,,black_cross(without_color)3,954281,,,,blue,,,null,object_12c.png,object_15b.png,,,,,,,,,,,,,,,,,,
null,,rt_plussign_withcolor3,954783,,,,blue,,,null,object_12c.png,object_15b.png,,,,,,,,,,,,,,,,,,
786,,rt_thecrossant_black3,955865,,,,black_plus_sign,,,49,,,1,,,,,,,1,,,,,,,,,,
null,,color_black3,955967,,,,black_plus_sign,,,null,,,,,,,,,,,,,,,,,,,,
null,,learn_phase(without_color)3,959470,,,,black_plus_sign,,,null,object_07a.png,object_11a.png,,,,,,,,,,,,,,,,,,
null,,black_cross(without_color)3,960352,,,,green,,,null,object_07a.png,object_11a.png,,,,,,,,,,,,,,,,,,
null,,rt_plussign_withcolor3,960854,,,,green,,,null,object_07a.png,object_11a.png,,,,,,,,,,,,,,,,,,
1339,,rt_thecrossant_black3,961978,,,,black_plus_sign,,,50,,,1,,,,,,,1,,,,,,,,,,
null,,color_black3,962081,,,,black_plus_sign,,,null,,,,,,,,,,,,,,,,,,,,
null,,learn_phase(without_color)3,965585,,,,black_plus_sign,,,null,object_10a.png,object_09c.png,,,,,,,,,,,,,,,,,,
null,,black_cross(without_color)3,966645,,,,green,,,null,object_10a.png,object_09c.png,,,,,,,,,,,,,,,,,,
null,,rt_plussign_withcolor3,967147,,,,green,,,null,object_10a.png,object_09c.png,,,,,,,,,,,,,,,,,,
1108.4000000953674,,rt_thecrossant_black3,968093,,,,black_plus_sign,,,50,,,1,,,,,,,1,,,,,,,,,,
null,,color_black3,968195,,,,black_plus_sign,,,null,,,,,,,,,,,,,,,,,,,,
null,,learn_phase(without_color)3,971699,,,,black_plus_sign,,,null,object_01b.png,object_06b.png,,,,,,,,,,,,,,,,,,
null,,black_cross(without_color)3,972450,,,,green,,,null,object_01b.png,object_06b.png,,,,,,,,,,,,,,,,,,
null,,rt_plussign_withcolor3,972953,,,,green,,,null,object_01b.png,object_06b.png,,,,,,,,,,,,,,,,,,
1425.2999999523163,,rt_thecrossant_black3,974209,,,,black_plus_sign,,,50,,,1,,,,,,,1,,,,,,,,,,
null,,color_black3,974313,,,,black_plus_sign,,,null,,,,,,,,,,,,,,,,,,,,
null,,learn_phase(without_color)3,977816,,,,black_plus_sign,,,null,object_04c.png,object_08a.png,,,,,,,,,,,,,,,,,,
null,,black_cross(without_color)3,978547,,,,green,,,null,object_04c.png,object_08a.png,,,,,,,,,,,,,,,,,,
null,,rt_plussign_withcolor3,979050,,,,green,,,null,object_04c.png,object_08a.png,,,,,,,,,,,,,,,,,,
1081.7000000476837,,rt_thecrossant_black3,980324,,,,black_plus_sign,,,50,,,1,,,,,,,1,,,,,,,,,,
null,,color_black3,980427,,,,black_plus_sign,,,null,,,,,,,,,,,,,,,,,,,,
null,,learn_phase(without_color)3,983931,,,,black_plus_sign,,,null,object_12a.png,object_07b.png,,,,,,,,,,,,,,,,,,
null,,black_cross(without_color)3,984487,,,,green,,,null,object_12a.png,object_07b.png,,,,,,,,,,,,,,,,,,
null,,rt_plussign_withcolor3,984990,,,,green,,,null,object_12a.png,object_07b.png,,,,,,,,,,,,,,,,,,
898.2999999523163,,rt_thecrossant_black3,986440,,,,black_plus_sign,,,50,,,1,,,,,,,1,,,,,,,,,,
null,,color_black3,986544,,,,black_plus_sign,,,null,,,,,,,,,,,,,,,,,,,,
null,,thebreak,986648,,,,<p></p>,,,null,,,,,,,,,,,,,,,,,,,,
3912.7999999523163,,intro_0,990562,,,,instruct,,,32,,,,,,,,,,,,,,,,,,,,
3765.5,,directmemory_phase3,994330,,,,object_06a.png,,,49,,,1,,object_05a.png,object_13a.png,object_09b.png,object_05a.png,,0.7096774193548387,,1,,,,,,,,
2055,,directmemory_phase3,996388,,,,object_12a.png,,,50,,,1,,object_13c.png,object_07b.png,object_02b.png,object_07b.png,,0.71875,,1,,,,,,,,
2795.899999856949,,directmemory_phase3,999185,,,,object_01a.png,,,49,,,0,,object_13a.png,object_08a.png,object_05b.png,object_05b.png,,0.696969696969697,,0,,,,,,,,
3584.399999856949,,directmemory_phase3,1002772,,,,object_09b.png,,,51,,,1,,object_05a.png,object_08b.png,object_08c.png,object_08c.png,,0.7058823529411765,,1,,,,,,,,
5797.100000143051,,directmemory_phase3,1008572,,,,object_04b.png,,,50,,,1,,object_01a.png,object_13a.png,object_07c.png,object_13a.png,,0.7142857142857143,,1,,,,,,,,
3389.100000143051,,directmemory_phase3,1011964,,,,object_06b.png,,,50,,,1,,object_01a.png,object_01b.png,object_04c.png,object_01b.png,,0.7222222222222222,,1,,,,,,,,
4901.700000047684,,directmemory_phase3,1016869,,,,object_12c.png,,,49,,,0,,object_11a.png,object_13c.png,object_15b.png,object_15b.png,,0.7027027027027027,,0,,,,,,,,
3916.0999999046326,,directmemory_phase3,1020788,,,,object_02c.png,,,51,,,1,,object_03c.png,object_08b.png,object_02b.png,object_02b.png,,0.7105263157894737,,1,,,,,,,,
2496.600000143051,,directmemory_phase3,1023288,,,,object_11c.png,,,51,,,1,,object_13a.png,object_01a.png,object_07c.png,object_07c.png,,0.717948717948718,,1,,,,,,,,
2308.5999999046326,,directmemory_phase3,1025601,,,,object_13c.png,,,50,,,1,,object_06b.png,object_02a.png,object_01b.png,object_02a.png,,0.725,,1,,,,,,,,
5524.200000047684,,directmemory_phase3,1031128,,,,object_13b.png,,,50,,,0,,object_05a.png,object_13c.png,object_14c.png,object_14c.png,,0.7073170731707317,,0,,,,,,,,
2950.2000000476837,,directmemory_phase3,1034080,,,,object_08b.png,,,50,,,1,,object_06b.png,object_03c.png,object_07b.png,object_03c.png,,0.7142857142857143,,1,,,,,,,,
3766.600000143051,,directmemory_phase3,1037849,,,,object_07a.png,,,51,,,1,,object_10a.png,object_04b.png,object_11a.png,object_11a.png,,0.7209302325581395,,1,,,,,,,,
4501.5,,directmemory_phase3,1042354,,,,object_09c.png,,,51,,,1,,object_01b.png,object_12c.png,object_10a.png,object_10a.png,,0.7272727272727273,,1,,,,,,,,
4968.900000095367,,directmemory_phase3,1047326,,,,object_08a.png,,,51,,,1,,object_15b.png,object_09b.png,object_04c.png,object_04c.png,,0.7333333333333333,,1,,,,,,,,
null,,thebreak,1047433,,,,<p></p>,,,null,,,,,,,,,,,,,,,,,,,,
1589.6000001430511,,intro_0,1049025,,,,instruct,,,32,,,,,,,,,,,,,,,,,,,,
null,,learn_phase(without_color)4,1052527,,,,black_plus_sign,,,null,object_02a.png,object_13c.png,,,,,,,,,,,,,,,,,,
null,,black_cross(without_color)4,1053115,,,,green,,,null,object_02a.png,object_13c.png,,,,,,,,,,,,,,,,,,
null,,rt_plussign_withcolor4,1053617,,,,green,,,null,object_02a.png,object_13c.png,,,,,,,,,,,,,,,,,,
2024.1000001430511,,rt_thecrossant_black4,1055037,,,,black_plus_sign,,,50,,,1,,,,,,,1,,,,,,,,,,
null,,color_black4,1055147,,,,black_plus_sign,,,null,,,,,,,,,,,,,,,,,,,,
null,,learn_phase(without_color)4,1058651,,,,black_plus_sign,,,null,object_07a.png,object_11a.png,,,,,,,,,,,,,,,,,,
null,,black_cross(without_color)4,1059120,,,,blue,,,null,object_07a.png,object_11a.png,,,,,,,,,,,,,,,,,,
null,,rt_plussign_withcolor4,1059622,,,,blue,,,null,object_07a.png,object_11a.png,,,,,,,,,,,,,,,,,,
792.4000000953674,,rt_thecrossant_black4,1061159,,,,black_plus_sign,,,49,,,1,,,,,,,1,,,,,,,,,,
null,,color_black4,1061262,,,,black_plus_sign,,,null,,,,,,,,,,,,,,,,,,,,
null,,learn_phase(without_color)4,1064766,,,,black_plus_sign,,,null,object_04c.png,object_08a.png,,,,,,,,,,,,,,,,,,
null,,black_cross(without_color)4,1065806,,,,green,,,null,object_04c.png,object_08a.png,,,,,,,,,,,,,,,,,,
null,,rt_plussign_withcolor4,1066309,,,,green,,,null,object_04c.png,object_08a.png,,,,,,,,,,,,,,,,,,
1202,,rt_thecrossant_black4,1067276,,,,black_plus_sign,,,50,,,1,,,,,,,1,,,,,,,,,,
null,,color_black4,1067379,,,,black_plus_sign,,,null,,,,,,,,,,,,,,,,,,,,
null,,learn_phase(without_color)4,1070883,,,,black_plus_sign,,,null,object_05a.png,object_06a.png,,,,,,,,,,,,,,,,,,
null,,black_cross(without_color)4,1071335,,,,blue,,,null,object_05a.png,object_06a.png,,,,,,,,,,,,,,,,,,
null,,rt_plussign_withcolor4,1071843,,,,blue,,,null,object_05a.png,object_06a.png,,,,,,,,,,,,,,,,,,
1433,,rt_thecrossant_black4,1073395,,,,black_plus_sign,,,49,,,1,,,,,,,1,,,,,,,,,,
null,,color_black4,1073497,,,,black_plus_sign,,,null,,,,,,,,,,,,,,,,,,,,
null,,learn_phase(without_color)4,1077001,,,,black_plus_sign,,,null,object_15b.png,object_12c.png,,,,,,,,,,,,,,,,,,
null,,black_cross(without_color)4,1077567,,,,green,,,null,object_15b.png,object_12c.png,,,,,,,,,,,,,,,,,,
null,,rt_plussign_withcolor4,1078069,,,,green,,,null,object_15b.png,object_12c.png,,,,,,,,,,,,,,,,,,
799.5,,rt_thecrossant_black4,1079509,,,,black_plus_sign,,,50,,,1,,,,,,,1,,,,,,,,,,
null,,color_black4,1079612,,,,black_plus_sign,,,null,,,,,,,,,,,,,,,,,,,,
null,,learn_phase(without_color)4,1083116,,,,black_plus_sign,,,null,object_10a.png,object_09c.png,,,,,,,,,,,,,,,,,,
null,,black_cross(without_color)4,1084100,,,,green,,,null,object_10a.png,object_09c.png,,,,,,,,,,,,,,,,,,
null,,rt_plussign_withcolor4,1084603,,,,green,,,null,object_10a.png,object_09c.png,,,,,,,,,,,,,,,,,,
720.2000000476837,,rt_thecrossant_black4,1085625,,,,black_plus_sign,,,50,,,1,,,,,,,1,,,,,,,,,,
null,,color_black4,1085729,,,,black_plus_sign,,,null,,,,,,,,,,,,,,,,,,,,
null,,learn_phase(without_color)4,1089233,,,,black_plus_sign,,,null,object_05b.png,object_01a.png,,,,,,,,,,,,,,,,,,
null,,black_cross(without_color)4,1089794,,,,green,,,null,object_05b.png,object_01a.png,,,,,,,,,,,,,,,,,,
null,,rt_plussign_withcolor4,1090297,,,,green,,,null,object_05b.png,object_01a.png,,,,,,,,,,,,,,,,,,
1301.7999999523163,,rt_thecrossant_black4,1091747,,,,black_plus_sign,,,50,,,1,,,,,,,1,,,,,,,,,,
null,,color_black4,1091851,,,,black_plus_sign,,,null,,,,,,,,,,,,,,,,,,,,
null,,learn_phase(without_color)4,1095354,,,,black_plus_sign,,,null,object_13a.png,object_04b.png,,,,,,,,,,,,,,,,,,
null,,black_cross(without_color)4,1095829,,,,blue,,,null,object_13a.png,object_04b.png,,,,,,,,,,,,,,,,,,
null,,rt_plussign_withcolor4,1096332,,,,blue,,,null,object_13a.png,object_04b.png,,,,,,,,,,,,,,,,,,
918.7000000476837,,rt_thecrossant_black4,1097863,,,,black_plus_sign,,,49,,,1,,,,,,,1,,,,,,,,,,
null,,color_black4,1097966,,,,black_plus_sign,,,null,,,,,,,,,,,,,,,,,,,,
null,,learn_phase(without_color)4,1101471,,,,black_plus_sign,,,null,object_03c.png,object_08b.png,,,,,,,,,,,,,,,,,,
null,,black_cross(without_color)4,1102481,,,,green,,,null,object_03c.png,object_08b.png,,,,,,,,,,,,,,,,,,
null,,rt_plussign_withcolor4,1102984,,,,green,,,null,object_03c.png,object_08b.png,,,,,,,,,,,,,,,,,,
695.7999999523163,,rt_thecrossant_black4,1103985,,,,black_plus_sign,,,50,,,1,,,,,,,1,,,,,,,,,,
null,,color_black4,1104096,,,,black_plus_sign,,,null,,,,,,,,,,,,,,,,,,,,
null,,learn_phase(without_color)4,1107599,,,,black_plus_sign,,,null,object_06b.png,object_01b.png,,,,,,,,,,,,,,,,,,
null,,black_cross(without_color)4,1108268,,,,green,,,null,object_06b.png,object_01b.png,,,,,,,,,,,,,,,,,,
null,,rt_plussign_withcolor4,1108770,,,,green,,,null,object_06b.png,object_01b.png,,,,,,,,,,,,,,,,,,
1223.1999998092651,,rt_thecrossant_black4,1110107,,,,black_plus_sign,,,50,,,1,,,,,,,1,,,,,,,,,,
null,,color_black4,1110209,,,,black_plus_sign,,,null,,,,,,,,,,,,,,,,,,,,
null,,learn_phase(without_color)4,1113713,,,,black_plus_sign,,,null,object_08c.png,object_09b.png,,,,,,,,,,,,,,,,,,
null,,black_cross(without_color)4,1114318,,,,green,,,null,object_08c.png,object_09b.png,,,,,,,,,,,,,,,,,,
null,,rt_plussign_withcolor4,1114819,,,,green,,,null,object_08c.png,object_09b.png,,,,,,,,,,,,,,,,,,
869.0999999046326,,rt_thecrossant_black4,1116219,,,,black_plus_sign,,,50,,,1,,,,,,,1,,,,,,,,,,
null,,color_black4,1116323,,,,black_plus_sign,,,null,,,,,,,,,,,,,,,,,,,,
null,,learn_phase(without_color)4,1119827,,,,black_plus_sign,,,null,object_14c.png,object_13b.png,,,,,,,,,,,,,,,,,,
null,,black_cross(without_color)4,1120822,,,,green,,,null,object_14c.png,object_13b.png,,,,,,,,,,,,,,,,,,
null,,rt_plussign_withcolor4,1121325,,,,green,,,null,object_14c.png,object_13b.png,,,,,,,,,,,,,,,,,,
816,,rt_thecrossant_black4,1122335,,,,black_plus_sign,,,50,,,1,,,,,,,1,,,,,,,,,,
null,,color_black4,1122438,,,,black_plus_sign,,,null,,,,,,,,,,,,,,,,,,,,
null,,learn_phase(without_color)4,1125943,,,,black_plus_sign,,,null,object_12a.png,object_07b.png,,,,,,,,,,,,,,,,,,
null,,black_cross(without_color)4,1126515,,,,green,,,null,object_12a.png,object_07b.png,,,,,,,,,,,,,,,,,,
null,,rt_plussign_withcolor4,1127031,,,,green,,,null,object_12a.png,object_07b.png,,,,,,,,,,,,,,,,,,
1260.2000000476837,,rt_thecrossant_black4,1128475,,,,black_plus_sign,,,50,,,1,,,,,,,1,,,,,,,,,,
null,,color_black4,1128579,,,,black_plus_sign,,,null,,,,,,,,,,,,,,,,,,,,
null,,learn_phase(without_color)4,1132083,,,,black_plus_sign,,,null,object_07c.png,object_11c.png,,,,,,,,,,,,,,,,,,
null,,black_cross(without_color)4,1132662,,,,blue,,,null,object_07c.png,object_11c.png,,,,,,,,,,,,,,,,,,
null,,rt_plussign_withcolor4,1133165,,,,blue,,,null,object_07c.png,object_11c.png,,,,,,,,,,,,,,,,,,
825.7999999523163,,rt_thecrossant_black4,1134593,,,,black_plus_sign,,,49,,,1,,,,,,,1,,,,,,,,,,
null,,color_black4,1134696,,,,black_plus_sign,,,null,,,,,,,,,,,,,,,,,,,,
null,,learn_phase(without_color)4,1138200,,,,black_plus_sign,,,null,object_02b.png,object_02c.png,,,,,,,,,,,,,,,,,,
null,,black_cross(without_color)4,1138621,,,,blue,,,null,object_02b.png,object_02c.png,,,,,,,,,,,,,,,,,,
null,,rt_plussign_withcolor4,1139123,,,,blue,,,null,object_02b.png,object_02c.png,,,,,,,,,,,,,,,,,,
957,,rt_thecrossant_black4,1140707,,,,black_plus_sign,,,49,,,1,,,,,,,1,,,,,,,,,,
null,,color_black4,1140809,,,,black_plus_sign,,,null,,,,,,,,,,,,,,,,,,,,
null,,thebreak,1140914,,,,<p></p>,,,null,,,,,,,,,,,,,,,,,,,,
8403.599999904633,,intro_0,1149319,,,,instruct,,,32,,,,,,,,,,,,,,,,,,,,
3034.7999999523163,,directmemory_phase4,1152356,,,,object_11c.png,,,49,,,0,,object_05b.png,object_07a.png,object_07c.png,object_07c.png,,0.717391304347826,,0,,,,,,,,
3658,,directmemory_phase4,1156018,,,,object_07a.png,,,49,,,1,,object_11a.png,object_05b.png,object_02c.png,object_11a.png,,0.723404255319149,,1,,,,,,,,
2696.2000000476837,,directmemory_phase4,1158717,,,,object_12a.png,,,50,,,1,,object_07a.png,object_07b.png,object_02b.png,object_07b.png,,0.7291666666666666,,1,,,,,,,,
2873,,directmemory_phase4,1161593,,,,object_06b.png,,,51,,,1,,object_07b.png,object_02c.png,object_01b.png,object_01b.png,,0.7346938775510204,,1,,,,,,,,
3860,,directmemory_phase4,1165455,,,,object_02c.png,,,51,,,1,,object_05a.png,object_12a.png,object_02b.png,object_02b.png,,0.74,,1,,,,,,,,
5116,,directmemory_phase4,1170574,,,,object_08a.png,,,50,,,1,,object_09b.png,object_04c.png,object_02a.png,object_04c.png,,0.7450980392156863,,1,,,,,,,,
6290.399999856949,,directmemory_phase4,1176867,,,,object_04b.png,,,49,,,1,,object_13a.png,object_02a.png,object_12c.png,object_13a.png,,0.75,,1,,,,,,,,
4720.5,,directmemory_phase4,1181591,,,,object_09b.png,,,51,,,1,,object_13a.png,object_02c.png,object_08c.png,object_08c.png,,0.7547169811320755,,1,,,,,,,,
2730.600000143051,,directmemory_phase4,1184323,,,,object_12c.png,,,49,,,1,,object_15b.png,object_07b.png,object_08b.png,object_15b.png,,0.7592592592592593,,1,,,,,,,,
3035.100000143051,,directmemory_phase4,1187361,,,,object_13c.png,,,50,,,1,,object_07a.png,object_02a.png,object_15b.png,object_02a.png,,0.7636363636363637,,1,,,,,,,,
4582.200000047684,,directmemory_phase4,1191947,,,,object_01a.png,,,49,,,1,,object_05b.png,object_10a.png,object_13c.png,object_05b.png,,0.7678571428571429,,1,,,,,,,,
2728.9000000953674,,directmemory_phase4,1194680,,,,object_08b.png,,,50,,,1,,object_13c.png,object_03c.png,object_10a.png,object_03c.png,,0.7719298245614035,,1,,,,,,,,
3203.699999809265,,directmemory_phase4,1197888,,,,object_09c.png,,,50,,,1,,object_09b.png,object_10a.png,object_04c.png,object_10a.png,,0.7758620689655172,,1,,,,,,,,
4416,,directmemory_phase4,1202306,,,,object_13b.png,,,51,,,1,,object_02b.png,object_12a.png,object_14c.png,object_14c.png,,0.7796610169491526,,1,,,,,,,,
5364.299999952316,,directmemory_phase4,1207675,,,,object_06a.png,,,50,,,1,,object_08a.png,object_05a.png,object_08c.png,object_05a.png,,0.7833333333333333,,1,,,,,,,,
null,,thebreak,1207778,,,,<p></p>,,,null,,,,,,,,,,,,,,,,,,,,
2716.5,,intro_0,1210496,,,,instruct,,,32,,,,,,,,,,,,,,,,,,,,
null,,learn_phase(without_color)5,1213998,,,,black_plus_sign,,,null,object_10a.png,object_14a.png,,,,,,,,,,,,,,,,,,
null,,black_cross(without_color)5,1214787,,,,blue,,,null,object_10a.png,object_14a.png,,,,,,,,,,,,,,,,,,
null,,rt_plussign_withcolor5,1215290,,,,blue,,,null,object_10a.png,object_14a.png,,,,,,,,,,,,,,,,,,
2053.5999999046326,,rt_thecrossant_black5,1216505,,,,black_plus_sign,,,49,,,1,,,,,,,1,,,,,,,,,,
null,,color_black5,1216608,,,,black_plus_sign,,,null,,,,,,,,,,,,,,,,,,,,
null,,learn_phase(without_color)5,1220113,,,,black_plus_sign,,,null,object_13a.png,object_15a.png,,,,,,,,,,,,,,,,,,
null,,black_cross(without_color)5,1220910,,,,green,,,null,object_13a.png,object_15a.png,,,,,,,,,,,,,,,,,,
null,,rt_plussign_withcolor5,1221413,,,,green,,,null,object_13a.png,object_15a.png,,,,,,,,,,,,,,,,,,
1969.4000000953674,,rt_thecrossant_black5,1222623,,,,black_plus_sign,,,50,,,1,,,,,,,1,,,,,,,,,,
null,,color_black5,1222726,,,,black_plus_sign,,,null,,,,,,,,,,,,,,,,,,,,
null,,learn_phase(without_color)5,1226230,,,,black_plus_sign,,,null,object_15c.png,object_04c.png,,,,,,,,,,,,,,,,,,
null,,black_cross(without_color)5,1227213,,,,blue,,,null,object_15c.png,object_04c.png,,,,,,,,,,,,,,,,,,
null,,rt_plussign_withcolor5,1227715,,,,blue,,,null,object_15c.png,object_04c.png,,,,,,,,,,,,,,,,,,
1338.5999999046326,,rt_thecrossant_black5,1228740,,,,black_plus_sign,,,49,,,1,,,,,,,1,,,,,,,,,,
null,,color_black5,1228843,,,,black_plus_sign,,,null,,,,,,,,,,,,,,,,,,,,
null,,learn_phase(without_color)5,1232348,,,,black_plus_sign,,,null,object_11a.png,object_03a.png,,,,,,,,,,,,,,,,,,
null,,black_cross(without_color)5,1232962,,,,green,,,null,object_11a.png,object_03a.png,,,,,,,,,,,,,,,,,,
null,,rt_plussign_withcolor5,1233464,,,,green,,,null,object_11a.png,object_03a.png,,,,,,,,,,,,,,,,,,
1305,,rt_thecrossant_black5,1234856,,,,black_plus_sign,,,50,,,1,,,,,,,1,,,,,,,,,,
null,,color_black5,1234958,,,,black_plus_sign,,,null,,,,,,,,,,,,,,,,,,,,
null,,learn_phase(without_color)5,1238462,,,,black_plus_sign,,,null,object_05b.png,object_03b.png,,,,,,,,,,,,,,,,,,
null,,black_cross(without_color)5,1239342,,,,green,,,null,object_05b.png,object_03b.png,,,,,,,,,,,,,,,,,,
null,,rt_plussign_withcolor5,1239845,,,,green,,,null,object_05b.png,object_03b.png,,,,,,,,,,,,,,,,,,
876.2000000476837,,rt_thecrossant_black5,1240973,,,,black_plus_sign,,,50,,,1,,,,,,,1,,,,,,,,,,
null,,color_black5,1241076,,,,black_plus_sign,,,null,,,,,,,,,,,,,,,,,,,,
null,,learn_phase(without_color)5,1244580,,,,black_plus_sign,,,null,object_03c.png,object_14b.png,,,,,,,,,,,,,,,,,,
null,,black_cross(without_color)5,1245012,,,,blue,,,null,object_03c.png,object_14b.png,,,,,,,,,,,,,,,,,,
null,,rt_plussign_withcolor5,1245514,,,,blue,,,null,object_03c.png,object_14b.png,,,,,,,,,,,,,,,,,,
1146.1999998092651,,rt_thecrossant_black5,1247089,,,,black_plus_sign,,,49,,,1,,,,,,,1,,,,,,,,,,
null,,color_black5,1247193,,,,black_plus_sign,,,null,,,,,,,,,,,,,,,,,,,,
null,,learn_phase(without_color)5,1250696,,,,black_plus_sign,,,null,object_07c.png,object_11b.png,,,,,,,,,,,,,,,,,,
null,,black_cross(without_color)5,1251216,,,,blue,,,null,object_07c.png,object_11b.png,,,,,,,,,,,,,,,,,,
null,,rt_plussign_withcolor5,1251719,,,,blue,,,null,object_07c.png,object_11b.png,,,,,,,,,,,,,,,,,,
834.2999999523163,,rt_thecrossant_black5,1253204,,,,black_plus_sign,,,49,,,1,,,,,,,1,,,,,,,,,,
null,,color_black5,1253307,,,,black_plus_sign,,,null,,,,,,,,,,,,,,,,,,,,
null,,learn_phase(without_color)5,1256810,,,,black_plus_sign,,,null,object_10b.png,object_02b.png,,,,,,,,,,,,,,,,,,
null,,black_cross(without_color)5,1257568,,,,blue,,,null,object_10b.png,object_02b.png,,,,,,,,,,,,,,,,,,
null,,rt_plussign_withcolor5,1258070,,,,blue,,,null,object_10b.png,object_02b.png,,,,,,,,,,,,,,,,,,
1337.1000001430511,,rt_thecrossant_black5,1259321,,,,black_plus_sign,,,49,,,1,,,,,,,1,,,,,,,,,,
null,,color_black5,1259423,,,,black_plus_sign,,,null,,,,,,,,,,,,,,,,,,,,
null,,learn_phase(without_color)5,1262927,,,,black_plus_sign,,,null,object_04a.png,object_08c.png,,,,,,,,,,,,,,,,,,
null,,black_cross(without_color)5,1263626,,,,green,,,null,object_04a.png,object_08c.png,,,,,,,,,,,,,,,,,,
490.2000000476837,,rt_plussign_withcolor5,1264128,,,,green,,,50,object_04a.png,object_08c.png,,,,,,,,,,,,,,,,,,
null,,rt_thecrossant_black5,1265434,,,,black_plus_sign,,,null,,,1,,,,,,,1,,,,,,,,,,
null,,color_black5,1265537,,,,black_plus_sign,,,null,,,,,,,,,,,,,,,,,,,,
null,,learn_phase(without_color)5,1269041,,,,black_plus_sign,,,null,object_15b.png,object_12b.png,,,,,,,,,,,,,,,,,,
null,,black_cross(without_color)5,1269657,,,,blue,,,null,object_15b.png,object_12b.png,,,,,,,,,,,,,,,,,,
null,,rt_plussign_withcolor5,1270160,,,,blue,,,null,object_15b.png,object_12b.png,,,,,,,,,,,,,,,,,,
1236.7999999523163,,rt_thecrossant_black5,1271550,,,,black_plus_sign,,,49,,,1,,,,,,,1,,,,,,,,,,
null,,color_black5,1271652,,,,black_plus_sign,,,null,,,,,,,,,,,,,,,,,,,,
null,,learn_phase(without_color)5,1275154,,,,black_plus_sign,,,null,object_01c.png,object_02a.png,,,,,,,,,,,,,,,,,,
null,,black_cross(without_color)5,1275944,,,,blue,,,null,object_01c.png,object_02a.png,,,,,,,,,,,,,,,,,,
null,,rt_plussign_withcolor5,1276446,,,,blue,,,null,object_01c.png,object_02a.png,,,,,,,,,,,,,,,,,,
913.0999999046326,,rt_thecrossant_black5,1277663,,,,black_plus_sign,,,49,,,1,,,,,,,1,,,,,,,,,,
null,,color_black5,1277766,,,,black_plus_sign,,,null,,,,,,,,,,,,,,,,,,,,
null,,learn_phase(without_color)5,1281270,,,,black_plus_sign,,,null,object_05a.png,object_09a.png,,,,,,,,,,,,,,,,,,
null,,black_cross(without_color)5,1281736,,,,green,,,null,object_05a.png,object_09a.png,,,,,,,,,,,,,,,,,,
null,,rt_plussign_withcolor5,1282238,,,,green,,,null,object_05a.png,object_09a.png,,,,,,,,,,,,,,,,,,
975.3000001907349,,rt_thecrossant_black5,1283778,,,,black_plus_sign,,,50,,,1,,,,,,,1,,,,,,,,,,
null,,color_black5,1283881,,,,black_plus_sign,,,null,,,,,,,,,,,,,,,,,,,,
null,,learn_phase(without_color)5,1287385,,,,black_plus_sign,,,null,object_05c.png,object_07b.png,,,,,,,,,,,,,,,,,,
null,,black_cross(without_color)5,1288445,,,,green,,,null,object_05c.png,object_07b.png,,,,,,,,,,,,,,,,,,
null,,rt_plussign_withcolor5,1288946,,,,green,,,null,object_05c.png,object_07b.png,,,,,,,,,,,,,,,,,,
881.3000001907349,,rt_thecrossant_black5,1289891,,,,black_plus_sign,,,50,,,1,,,,,,,1,,,,,,,,,,
null,,color_black5,1289995,,,,black_plus_sign,,,null,,,,,,,,,,,,,,,,,,,,
null,,learn_phase(without_color)5,1293499,,,,black_plus_sign,,,null,object_01b.png,object_06c.png,,,,,,,,,,,,,,,,,,
null,,black_cross(without_color)5,1294436,,,,green,,,null,object_01b.png,object_06c.png,,,,,,,,,,,,,,,,,,
null,,rt_plussign_withcolor5,1294938,,,,green,,,null,object_01b.png,object_06c.png,,,,,,,,,,,,,,,,,,
1339.2999999523163,,rt_thecrossant_black5,1296007,,,,black_plus_sign,,,50,,,1,,,,,,,1,,,,,,,,,,
null,,color_black5,1296111,,,,black_plus_sign,,,null,,,,,,,,,,,,,,,,,,,,
null,,learn_phase(without_color)5,1299615,,,,black_plus_sign,,,null,object_10c.png,object_14c.png,,,,,,,,,,,,,,,,,,
null,,black_cross(without_color)5,1300177,,,,green,,,null,object_10c.png,object_14c.png,,,,,,,,,,,,,,,,,,
null,,rt_plussign_withcolor5,1300683,,,,green,,,null,object_10c.png,object_14c.png,,,,,,,,,,,,,,,,,,
1112.7000000476837,,rt_thecrossant_black5,1302126,,,,black_plus_sign,,,50,,,1,,,,,,,1,,,,,,,,,,
null,,color_black5,1302228,,,,black_plus_sign,,,null,,,,,,,,,,,,,,,,,,,,
null,,thebreak,1302333,,,,<p></p>,,,null,,,,,,,,,,,,,,,,,,,,
19571.700000047684,,intro_0,1321907,,,,instruct,,,32,,,,,,,,,,,,,,,,,,,,
3524.0999999046326,,directmemory_phase5,1325433,,,,object_04a.png,,,51,,,0,,object_08c.png,object_05a.png,object_09a.png,object_08c.png,,0.7704918032786885,,0,,,,,,,,
3244.899999856949,,directmemory_phase5,1328681,,,,object_05b.png,,,50,,,1,,object_01b.png,object_03b.png,object_04a.png,object_03b.png,,0.7741935483870968,,1,,,,,,,,
4566.400000095367,,directmemory_phase5,1333251,,,,object_02a.png,,,49,,,1,,object_01c.png,object_10b.png,object_04c.png,object_01c.png,,0.7777777777777778,,1,,,,,,,,
4642.5,,directmemory_phase5,1337897,,,,object_03c.png,,,51,,,0,,object_14b.png,object_01c.png,object_02b.png,object_14b.png,,0.765625,,0,,,,,,,,
5128.800000190735,,directmemory_phase5,1343029,,,,object_14c.png,,,49,,,0,,object_15a.png,object_07b.png,object_10c.png,object_10c.png,,0.7538461538461538,,0,,,,,,,,
5755.899999856949,,directmemory_phase5,1348787,,,,object_06c.png,,,50,,,0,,object_05b.png,object_14a.png,object_01b.png,object_01b.png,,0.7424242424242424,,0,,,,,,,,
4795.700000047684,,directmemory_phase5,1353584,,,,object_07c.png,,,49,,,0,,object_15b.png,object_11b.png,object_03b.png,object_11b.png,,0.7313432835820896,,0,,,,,,,,
3967.5,,directmemory_phase5,1357555,,,,object_14a.png,,,50,,,0,,object_07b.png,object_01c.png,object_10a.png,object_10a.png,,0.7205882352941176,,0,,,,,,,,
4466.299999952316,,directmemory_phase5,1362025,,,,object_12b.png,,,51,,,1,,object_11a.png,object_06c.png,object_15b.png,object_15b.png,,0.7246376811594203,,1,,,,,,,,
5731.5,,directmemory_phase5,1367760,,,,object_03a.png,,,51,,,0,,object_14a.png,object_11a.png,object_05a.png,object_11a.png,,0.7142857142857143,,0,,,,,,,,
6549.700000047684,,directmemory_phase5,1374314,,,,object_02b.png,,,49,,,0,,object_07b.png,object_10b.png,object_11b.png,object_10b.png,,0.704225352112676,,0,,,,,,,,
3952.7000000476837,,directmemory_phase5,1378270,,,,object_13a.png,,,49,,,1,,object_15a.png,object_10b.png,object_02b.png,object_15a.png,,0.7083333333333334,,1,,,,,,,,
4403.100000143051,,directmemory_phase5,1382676,,,,object_05c.png,,,50,,,1,,object_15a.png,object_07b.png,object_11a.png,object_07b.png,,0.7123287671232876,,1,,,,,,,,
6535.600000143051,,directmemory_phase5,1389214,,,,object_15c.png,,,51,,,1,,object_07c.png,object_15a.png,object_04c.png,object_04c.png,,0.7162162162162162,,1,,,,,,,,
5812,,directmemory_phase5,1395030,,,,object_09a.png,,,49,,,0,,object_10b.png,object_05a.png,object_02a.png,object_05a.png,,0.7066666666666667,,0,,,,,,,,
null,,thebreak,1395135,,,,<p></p>,,,null,,,,,,,,,,,,,,,,,,,,
5836.899999856949,,intro_0,1400974,,,,instruct,,,32,,,,,,,,,,,,,,,,,,,,
null,,learn_phase(without_color)6,1404476,,,,black_plus_sign,,,null,object_08c.png,object_04a.png,,,,,,,,,,,,,,,,,,
null,,black_cross(without_color)6,1405396,,,,blue,,,null,object_08c.png,object_04a.png,,,,,,,,,,,,,,,,,,
null,,rt_plussign_withcolor6,1405898,,,,blue,,,null,object_08c.png,object_04a.png,,,,,,,,,,,,,,,,,,
1858.8000001907349,,rt_thecrossant_black6,1406984,,,,black_plus_sign,,,49,,,1,,,,,,,1,,,,,,,,,,
null,,color_black6,1407087,,,,black_plus_sign,,,null,,,,,,,,,,,,,,,,,,,,
null,,learn_phase(without_color)6,1410593,,,,black_plus_sign,,,null,object_07b.png,object_05c.png,,,,,,,,,,,,,,,,,,
null,,black_cross(without_color)6,1411430,,,,green,,,null,object_07b.png,object_05c.png,,,,,,,,,,,,,,,,,,
null,,rt_plussign_withcolor6,1411933,,,,green,,,null,object_07b.png,object_05c.png,,,,,,,,,,,,,,,,,,
1117.4000000953674,,rt_thecrossant_black6,1413102,,,,black_plus_sign,,,50,,,1,,,,,,,1,,,,,,,,,,
null,,color_black6,1413204,,,,black_plus_sign,,,null,,,,,,,,,,,,,,,,,,,,
null,,learn_phase(without_color)6,1416707,,,,black_plus_sign,,,null,object_13a.png,object_15a.png,,,,,,,,,,,,,,,,,,
null,,black_cross(without_color)6,1417571,,,,blue,,,null,object_13a.png,object_15a.png,,,,,,,,,,,,,,,,,,
null,,rt_plussign_withcolor6,1418073,,,,blue,,,null,object_13a.png,object_15a.png,,,,,,,,,,,,,,,,,,
1136.9000000953674,,rt_thecrossant_black6,1419215,,,,black_plus_sign,,,49,,,1,,,,,,,1,,,,,,,,,,
null,,color_black6,1419318,,,,black_plus_sign,,,null,,,,,,,,,,,,,,,,,,,,
null,,learn_phase(without_color)6,1422822,,,,black_plus_sign,,,null,object_03b.png,object_05b.png,,,,,,,,,,,,,,,,,,
null,,black_cross(without_color)6,1423866,,,,blue,,,null,object_03b.png,object_05b.png,,,,,,,,,,,,,,,,,,
null,,rt_plussign_withcolor6,1424369,,,,blue,,,null,object_03b.png,object_05b.png,,,,,,,,,,,,,,,,,,
1206.8999998569489,,rt_thecrossant_black6,1425331,,,,black_plus_sign,,,49,,,1,,,,,,,1,,,,,,,,,,
null,,color_black6,1425434,,,,black_plus_sign,,,null,,,,,,,,,,,,,,,,,,,,
null,,learn_phase(without_color)6,1428937,,,,black_plus_sign,,,null,object_02b.png,object_10b.png,,,,,,,,,,,,,,,,,,
null,,black_cross(without_color)6,1429642,,,,green,,,null,object_02b.png,object_10b.png,,,,,,,,,,,,,,,,,,
null,,rt_plussign_withcolor6,1430145,,,,green,,,null,object_02b.png,object_10b.png,,,,,,,,,,,,,,,,,,
1451,,rt_thecrossant_black6,1431447,,,,black_plus_sign,,,50,,,1,,,,,,,1,,,,,,,,,,
null,,color_black6,1431553,,,,black_plus_sign,,,null,,,,,,,,,,,,,,,,,,,,
null,,learn_phase(without_color)6,1435058,,,,black_plus_sign,,,null,object_10a.png,object_14a.png,,,,,,,,,,,,,,,,,,
null,,black_cross(without_color)6,1435835,,,,green,,,null,object_10a.png,object_14a.png,,,,,,,,,,,,,,,,,,
null,,rt_plussign_withcolor6,1436337,,,,green,,,null,object_10a.png,object_14a.png,,,,,,,,,,,,,,,,,,
1054.9000000953674,,rt_thecrossant_black6,1437568,,,,black_plus_sign,,,50,,,1,,,,,,,1,,,,,,,,,,
null,,color_black6,1437672,,,,black_plus_sign,,,null,,,,,,,,,,,,,,,,,,,,
null,,learn_phase(without_color)6,1441176,,,,black_plus_sign,,,null,object_07c.png,object_11b.png,,,,,,,,,,,,,,,,,,
null,,black_cross(without_color)6,1441664,,,,blue,,,null,object_07c.png,object_11b.png,,,,,,,,,,,,,,,,,,
null,,rt_plussign_withcolor6,1442167,,,,blue,,,null,object_07c.png,object_11b.png,,,,,,,,,,,,,,,,,,
1303.0999999046326,,rt_thecrossant_black6,1443686,,,,black_plus_sign,,,49,,,1,,,,,,,1,,,,,,,,,,
null,,color_black6,1443790,,,,black_plus_sign,,,null,,,,,,,,,,,,,,,,,,,,
null,,learn_phase(without_color)6,1447293,,,,black_plus_sign,,,null,object_03a.png,object_11a.png,,,,,,,,,,,,,,,,,,
null,,black_cross(without_color)6,1448119,,,,blue,,,null,object_03a.png,object_11a.png,,,,,,,,,,,,,,,,,,
null,,rt_plussign_withcolor6,1448621,,,,blue,,,null,object_03a.png,object_11a.png,,,,,,,,,,,,,,,,,,
788.0999999046326,,rt_thecrossant_black6,1449802,,,,black_plus_sign,,,49,,,1,,,,,,,1,,,,,,,,,,
null,,color_black6,1449906,,,,black_plus_sign,,,null,,,,,,,,,,,,,,,,,,,,
null,,learn_phase(without_color)6,1453408,,,,black_plus_sign,,,null,object_01c.png,object_02a.png,,,,,,,,,,,,,,,,,,
null,,black_cross(without_color)6,1454402,,,,green,,,null,object_01c.png,object_02a.png,,,,,,,,,,,,,,,,,,
null,,rt_plussign_withcolor6,1454906,,,,green,,,null,object_01c.png,object_02a.png,,,,,,,,,,,,,,,,,,
1155.5,,rt_thecrossant_black6,1455918,,,,black_plus_sign,,,50,,,1,,,,,,,1,,,,,,,,,,
null,,color_black6,1456022,,,,black_plus_sign,,,null,,,,,,,,,,,,,,,,,,,,
null,,learn_phase(without_color)6,1459528,,,,black_plus_sign,,,null,object_04c.png,object_15c.png,,,,,,,,,,,,,,,,,,
null,,black_cross(without_color)6,1460625,,,,blue,,,null,object_04c.png,object_15c.png,,,,,,,,,,,,,,,,,,
null,,rt_plussign_withcolor6,1461128,,,,blue,,,null,object_04c.png,object_15c.png,,,,,,,,,,,,,,,,,,
1489.3999998569489,,rt_thecrossant_black6,1462035,,,,black_plus_sign,,,49,,,1,,,,,,,1,,,,,,,,,,
null,,color_black6,1462138,,,,black_plus_sign,,,null,,,,,,,,,,,,,,,,,,,,
null,,learn_phase(without_color)6,1465642,,,,black_plus_sign,,,null,object_05a.png,object_09a.png,,,,,,,,,,,,,,,,,,
null,,black_cross(without_color)6,1466627,,,,blue,,,null,object_05a.png,object_09a.png,,,,,,,,,,,,,,,,,,
null,,rt_plussign_withcolor6,1467131,,,,blue,,,null,object_05a.png,object_09a.png,,,,,,,,,,,,,,,,,,
1422.8000001907349,,rt_thecrossant_black6,1468166,,,,black_plus_sign,,,49,,,1,,,,,,,1,,,,,,,,,,
null,,color_black6,1468279,,,,black_plus_sign,,,null,,,,,,,,,,,,,,,,,,,,
null,,learn_phase(without_color)6,1471783,,,,black_plus_sign,,,null,object_06c.png,object_01b.png,,,,,,,,,,,,,,,,,,
null,,black_cross(without_color)6,1472315,,,,green,,,null,object_06c.png,object_01b.png,,,,,,,,,,,,,,,,,,
null,,rt_plussign_withcolor6,1472818,,,,green,,,null,object_06c.png,object_01b.png,,,,,,,,,,,,,,,,,,
1364.6000001430511,,rt_thecrossant_black6,1474290,,,,black_plus_sign,,,50,,,1,,,,,,,1,,,,,,,,,,
null,,color_black6,1474394,,,,black_plus_sign,,,null,,,,,,,,,,,,,,,,,,,,
null,,learn_phase(without_color)6,1477897,,,,black_plus_sign,,,null,object_12b.png,object_15b.png,,,,,,,,,,,,,,,,,,
null,,black_cross(without_color)6,1478308,,,,blue,,,null,object_12b.png,object_15b.png,,,,,,,,,,,,,,,,,,
null,,rt_plussign_withcolor6,1478810,,,,blue,,,null,object_12b.png,object_15b.png,,,,,,,,,,,,,,,,,,
850,,rt_thecrossant_black6,1480404,,,,black_plus_sign,,,49,,,1,,,,,,,1,,,,,,,,,,
null,,color_black6,1480507,,,,black_plus_sign,,,null,,,,,,,,,,,,,,,,,,,,
null,,learn_phase(without_color)6,1484012,,,,black_plus_sign,,,null,object_14b.png,object_03c.png,,,,,,,,,,,,,,,,,,
null,,black_cross(without_color)6,1484438,,,,blue,,,null,object_14b.png,object_03c.png,,,,,,,,,,,,,,,,,,
null,,rt_plussign_withcolor6,1484942,,,,blue,,,null,object_14b.png,object_03c.png,,,,,,,,,,,,,,,,,,
768.1000001430511,,rt_thecrossant_black6,1486521,,,,black_plus_sign,,,49,,,1,,,,,,,1,,,,,,,,,,
null,,color_black6,1486624,,,,black_plus_sign,,,null,,,,,,,,,,,,,,,,,,,,
null,,learn_phase(without_color)6,1490127,,,,black_plus_sign,,,null,object_14c.png,object_10c.png,,,,,,,,,,,,,,,,,,
null,,black_cross(without_color)6,1490841,,,,blue,,,null,object_14c.png,object_10c.png,,,,,,,,,,,,,,,,,,
null,,rt_plussign_withcolor6,1491343,,,,blue,,,null,object_14c.png,object_10c.png,,,,,,,,,,,,,,,,,,
757.8999998569489,,rt_thecrossant_black6,1492636,,,,black_plus_sign,,,49,,,1,,,,,,,1,,,,,,,,,,
null,,color_black6,1492740,,,,black_plus_sign,,,null,,,,,,,,,,,,,,,,,,,,
null,,thebreak,1492845,,,,<p></p>,,,null,,,,,,,,,,,,,,,,,,,,
11587.900000095367,,intro_0,1504435,,,,instruct,,,32,,,,,,,,,,,,,,,,,,,,
2885.5999999046326,,directmemory_phase6,1507323,,,,object_01c.png,,,50,,,0,,object_07b.png,object_03a.png,object_02a.png,object_02a.png,,0.6973684210526315,,0,,,,,,,,
3906,,directmemory_phase6,1511232,,,,object_07c.png,,,49,,,0,,object_07b.png,object_11b.png,object_06c.png,object_11b.png,,0.6883116883116883,,0,,,,,,,,
6906.799999952316,,directmemory_phase6,1518142,,,,object_06c.png,,,49,,,1,,object_01b.png,object_02b.png,object_09a.png,object_01b.png,,0.6923076923076923,,1,,,,,,,,
5812.900000095367,,directmemory_phase6,1523958,,,,object_11a.png,,,50,,,1,,object_04c.png,object_03a.png,object_09a.png,object_03a.png,,0.6962025316455697,,1,,,,,,,,
8527.900000095367,,directmemory_phase6,1532489,,,,object_02b.png,,,50,,,1,,object_02a.png,object_10b.png,object_06c.png,object_10b.png,,0.7,,1,,,,,,,,
2389.0999999046326,,directmemory_phase6,1534882,,,,object_14a.png,,,49,,,1,,object_10a.png,object_05b.png,object_01c.png,object_10a.png,,0.7037037037037037,,1,,,,,,,,
5882.900000095367,,directmemory_phase6,1540769,,,,object_05b.png,,,50,,,0,,object_01c.png,object_04c.png,object_03b.png,object_03b.png,,0.6951219512195121,,0,,,,,,,,
4692.399999856949,,directmemory_phase6,1545463,,,,object_15b.png,,,49,,,1,,object_12b.png,object_03a.png,object_05a.png,object_12b.png,,0.6987951807228916,,1,,,,,,,,
5429.899999856949,,directmemory_phase6,1550895,,,,object_09a.png,,,50,,,0,,object_05a.png,object_15b.png,object_14b.png,object_05a.png,,0.6904761904761905,,0,,,,,,,,
6017.599999904633,,directmemory_phase6,1556916,,,,object_08c.png,,,49,,,1,,object_04a.png,object_11b.png,object_10a.png,object_04a.png,,0.6941176470588235,,1,,,,,,,,
3201.399999856949,,directmemory_phase6,1560120,,,,object_15c.png,,,49,,,0,,object_15a.png,object_04c.png,object_07c.png,object_04c.png,,0.686046511627907,,0,,,,,,,,
6781.799999952316,,directmemory_phase6,1566903,,,,object_13a.png,,,50,,,1,,object_10a.png,object_15a.png,object_11b.png,object_15a.png,,0.6896551724137931,,1,,,,,,,,
4480.399999856949,,directmemory_phase6,1571387,,,,object_10c.png,,,49,,,0,,object_01c.png,object_14c.png,object_03c.png,object_14c.png,,0.6818181818181818,,0,,,,,,,,
6505.399999856949,,directmemory_phase6,1577895,,,,object_14b.png,,,51,,,1,,object_15b.png,object_10b.png,object_03c.png,object_03c.png,,0.6853932584269663,,1,,,,,,,,
6966,,directmemory_phase6,1584865,,,,object_05c.png,,,50,,,1,,object_14b.png,object_07b.png,object_13a.png,object_07b.png,,0.6888888888888889,,1,,,,,,,,
null,,thebreak,1584970,,,,<p></p>,,,null,,,,,,,,,,,,,,,,,,,,
1724.3999998569489,,intro_0,1586697,,,,instruct,,,32,,,,,,,,,,,,,,,,,,,,
null,,learn_phase(without_color)7,1590200,,,,black_plus_sign,,,null,object_05c.png,object_07b.png,,,,,,,,,,,,,,,,,,
null,,black_cross(without_color)7,1590866,,,,blue,,,null,object_05c.png,object_07b.png,,,,,,,,,,,,,,,,,,
null,,rt_plussign_withcolor7,1591369,,,,blue,,,null,object_05c.png,object_07b.png,,,,,,,,,,,,,,,,,,
787,,rt_thecrossant_black7,1592712,,,,black_plus_sign,,,49,,,1,,,,,,,1,,,,,,,,,,
null,,color_black7,1592815,,,,black_plus_sign,,,null,,,,,,,,,,,,,,,,,,,,
null,,learn_phase(without_color)7,1596320,,,,black_plus_sign,,,null,object_05b.png,object_03b.png,,,,,,,,,,,,,,,,,,
null,,black_cross(without_color)7,1597177,,,,green,,,null,object_05b.png,object_03b.png,,,,,,,,,,,,,,,,,,
null,,rt_plussign_withcolor7,1597680,,,,green,,,null,object_05b.png,object_03b.png,,,,,,,,,,,,,,,,,,
821.2999999523163,,rt_thecrossant_black7,1598830,,,,black_plus_sign,,,50,,,1,,,,,,,1,,,,,,,,,,
null,,color_black7,1598932,,,,black_plus_sign,,,null,,,,,,,,,,,,,,,,,,,,
null,,learn_phase(without_color)7,1602435,,,,black_plus_sign,,,null,object_09a.png,object_05a.png,,,,,,,,,,,,,,,,,,
null,,black_cross(without_color)7,1603298,,,,green,,,null,object_09a.png,object_05a.png,,,,,,,,,,,,,,,,,,
null,,rt_plussign_withcolor7,1603800,,,,green,,,null,object_09a.png,object_05a.png,,,,,,,,,,,,,,,,,,
1238.2999999523163,,rt_thecrossant_black7,1604944,,,,black_plus_sign,,,50,,,1,,,,,,,1,,,,,,,,,,
null,,color_black7,1605048,,,,black_plus_sign,,,null,,,,,,,,,,,,,,,,,,,,
null,,learn_phase(without_color)7,1608553,,,,black_plus_sign,,,null,object_01c.png,object_02a.png,,,,,,,,,,,,,,,,,,
null,,black_cross(without_color)7,1609165,,,,green,,,null,object_01c.png,object_02a.png,,,,,,,,,,,,,,,,,,
null,,rt_plussign_withcolor7,1609668,,,,green,,,null,object_01c.png,object_02a.png,,,,,,,,,,,,,,,,,,
1145.2999999523163,,rt_thecrossant_black7,1611063,,,,black_plus_sign,,,50,,,1,,,,,,,1,,,,,,,,,,
null,,color_black7,1611166,,,,black_plus_sign,,,null,,,,,,,,,,,,,,,,,,,,
null,,learn_phase(without_color)7,1614670,,,,black_plus_sign,,,null,object_11b.png,object_07c.png,,,,,,,,,,,,,,,,,,
null,,black_cross(without_color)7,1615460,,,,blue,,,null,object_11b.png,object_07c.png,,,,,,,,,,,,,,,,,,
null,,rt_plussign_withcolor7,1615962,,,,blue,,,null,object_11b.png,object_07c.png,,,,,,,,,,,,,,,,,,
981.4000000953674,,rt_thecrossant_black7,1617177,,,,black_plus_sign,,,49,,,1,,,,,,,1,,,,,,,,,,
null,,color_black7,1617293,,,,black_plus_sign,,,null,,,,,,,,,,,,,,,,,,,,
null,,learn_phase(without_color)7,1620798,,,,black_plus_sign,,,null,object_10a.png,object_14a.png,,,,,,,,,,,,,,,,,,
null,,black_cross(without_color)7,1621711,,,,blue,,,null,object_10a.png,object_14a.png,,,,,,,,,,,,,,,,,,
null,,rt_plussign_withcolor7,1622214,,,,blue,,,null,object_10a.png,object_14a.png,,,,,,,,,,,,,,,,,,
1026.2000000476837,,rt_thecrossant_black7,1623306,,,,black_plus_sign,,,49,,,1,,,,,,,1,,,,,,,,,,
null,,color_black7,1623410,,,,black_plus_sign,,,null,,,,,,,,,,,,,,,,,,,,
null,,learn_phase(without_color)7,1626915,,,,black_plus_sign,,,null,object_01b.png,object_06c.png,,,,,,,,,,,,,,,,,,
null,,black_cross(without_color)7,1627579,,,,green,,,null,object_01b.png,object_06c.png,,,,,,,,,,,,,,,,,,
null,,rt_plussign_withcolor7,1628081,,,,green,,,null,object_01b.png,object_06c.png,,,,,,,,,,,,,,,,,,
1140.2999999523163,,rt_thecrossant_black7,1629425,,,,black_plus_sign,,,50,,,1,,,,,,,1,,,,,,,,,,
null,,color_black7,1629529,,,,black_plus_sign,,,null,,,,,,,,,,,,,,,,,,,,
null,,learn_phase(without_color)7,1633033,,,,black_plus_sign,,,null,object_04a.png,object_08c.png,,,,,,,,,,,,,,,,,,
null,,black_cross(without_color)7,1633859,,,,green,,,null,object_04a.png,object_08c.png,,,,,,,,,,,,,,,,,,
null,,rt_plussign_withcolor7,1634362,,,,green,,,null,object_04a.png,object_08c.png,,,,,,,,,,,,,,,,,,
894.1000001430511,,rt_thecrossant_black7,1635541,,,,black_plus_sign,,,50,,,1,,,,,,,1,,,,,,,,,,
null,,color_black7,1635643,,,,black_plus_sign,,,null,,,,,,,,,,,,,,,,,,,,
null,,learn_phase(without_color)7,1639146,,,,black_plus_sign,,,null,object_15c.png,object_04c.png,,,,,,,,,,,,,,,,,,
null,,black_cross(without_color)7,1639944,,,,blue,,,null,object_15c.png,object_04c.png,,,,,,,,,,,,,,,,,,
null,,rt_plussign_withcolor7,1640447,,,,blue,,,null,object_15c.png,object_04c.png,,,,,,,,,,,,,,,,,,
1291.9000000953674,,rt_thecrossant_black7,1641656,,,,black_plus_sign,,,49,,,1,,,,,,,1,,,,,,,,,,
null,,color_black7,1641759,,,,black_plus_sign,,,null,,,,,,,,,,,,,,,,,,,,
null,,learn_phase(without_color)7,1645263,,,,black_plus_sign,,,null,object_03a.png,object_11a.png,,,,,,,,,,,,,,,,,,
null,,black_cross(without_color)7,1646340,,,,green,,,null,object_03a.png,object_11a.png,,,,,,,,,,,,,,,,,,
null,,rt_plussign_withcolor7,1646843,,,,green,,,null,object_03a.png,object_11a.png,,,,,,,,,,,,,,,,,,
1230.4000000953674,,rt_thecrossant_black7,1647778,,,,black_plus_sign,,,50,,,1,,,,,,,1,,,,,,,,,,
null,,color_black7,1647881,,,,black_plus_sign,,,null,,,,,,,,,,,,,,,,,,,,
null,,learn_phase(without_color)7,1651384,,,,black_plus_sign,,,null,object_14c.png,object_10c.png,,,,,,,,,,,,,,,,,,
null,,black_cross(without_color)7,1651962,,,,blue,,,null,object_14c.png,object_10c.png,,,,,,,,,,,,,,,,,,
null,,rt_plussign_withcolor7,1652465,,,,blue,,,null,object_14c.png,object_10c.png,,,,,,,,,,,,,,,,,,
1336.1999998092651,,rt_thecrossant_black7,1653895,,,,black_plus_sign,,,49,,,1,,,,,,,1,,,,,,,,,,
null,,color_black7,1653998,,,,black_plus_sign,,,null,,,,,,,,,,,,,,,,,,,,
null,,learn_phase(without_color)7,1657503,,,,black_plus_sign,,,null,object_02b.png,object_10b.png,,,,,,,,,,,,,,,,,,
null,,black_cross(without_color)7,1658107,,,,green,,,null,object_02b.png,object_10b.png,,,,,,,,,,,,,,,,,,
null,,rt_plussign_withcolor7,1658609,,,,green,,,null,object_02b.png,object_10b.png,,,,,,,,,,,,,,,,,,
1003.8000001907349,,rt_thecrossant_black7,1660011,,,,black_plus_sign,,,50,,,1,,,,,,,1,,,,,,,,,,
null,,color_black7,1660114,,,,black_plus_sign,,,null,,,,,,,,,,,,,,,,,,,,
null,,learn_phase(without_color)7,1663618,,,,black_plus_sign,,,null,object_12b.png,object_15b.png,,,,,,,,,,,,,,,,,,
null,,black_cross(without_color)7,1664477,,,,blue,,,null,object_12b.png,object_15b.png,,,,,,,,,,,,,,,,,,
null,,rt_plussign_withcolor7,1664982,,,,blue,,,null,object_12b.png,object_15b.png,,,,,,,,,,,,,,,,,,
1603.5999999046326,,rt_thecrossant_black7,1666128,,,,black_plus_sign,,,49,,,1,,,,,,,1,,,,,,,,,,
null,,color_black7,1666233,,,,black_plus_sign,,,null,,,,,,,,,,,,,,,,,,,,
null,,learn_phase(without_color)7,1669738,,,,black_plus_sign,,,null,object_13a.png,object_15a.png,,,,,,,,,,,,,,,,,,
null,,black_cross(without_color)7,1670598,,,,green,,,null,object_13a.png,object_15a.png,,,,,,,,,,,,,,,,,,
null,,rt_plussign_withcolor7,1671101,,,,green,,,null,object_13a.png,object_15a.png,,,,,,,,,,,,,,,,,,
978.1000001430511,,rt_thecrossant_black7,1672246,,,,black_plus_sign,,,50,,,1,,,,,,,1,,,,,,,,,,
null,,color_black7,1672348,,,,black_plus_sign,,,null,,,,,,,,,,,,,,,,,,,,
null,,learn_phase(without_color)7,1675854,,,,black_plus_sign,,,null,object_14b.png,object_03c.png,,,,,,,,,,,,,,,,,,
null,,black_cross(without_color)7,1676732,,,,green,,,null,object_14b.png,object_03c.png,,,,,,,,,,,,,,,,,,
null,,rt_plussign_withcolor7,1677235,,,,green,,,null,object_14b.png,object_03c.png,,,,,,,,,,,,,,,,,,
1133,,rt_thecrossant_black7,1678364,,,,black_plus_sign,,,50,,,1,,,,,,,1,,,,,,,,,,
null,,color_black7,1678467,,,,black_plus_sign,,,null,,,,,,,,,,,,,,,,,,,,
null,,thebreak,1678571,,,,<p></p>,,,null,,,,,,,,,,,,,,,,,,,,
16984.900000095367,,intro_0,1695558,,,,instruct,,,32,,,,,,,,,,,,,,,,,,,,
2563.2000000476837,,directmemory_phase7,1698123,,,,object_03c.png,,,51,,,1,,object_01c.png,object_08c.png,object_14b.png,object_14b.png,,0.6923076923076923,,1,,,,,,,,
4104,,directmemory_phase7,1702231,,,,object_04c.png,,,50,,,0,,object_15c.png,object_14a.png,object_02b.png,object_15c.png,,0.6847826086956522,,0,,,,,,,,
4505.599999904633,,directmemory_phase7,1706741,,,,object_01b.png,,,50,,,1,,object_02b.png,object_06c.png,object_15a.png,object_06c.png,,0.6881720430107527,,1,,,,,,,,
2446,,directmemory_phase7,1709191,,,,object_15b.png,,,50,,,1,,object_01b.png,object_12b.png,object_10b.png,object_12b.png,,0.6914893617021277,,1,,,,,,,,
5080.600000143051,,directmemory_phase7,1714276,,,,object_14c.png,,,49,,,1,,object_10c.png,object_14b.png,object_02a.png,object_10c.png,,0.6947368421052632,,1,,,,,,,,
2120.2000000476837,,directmemory_phase7,1716400,,,,object_10b.png,,,49,,,1,,object_02b.png,object_05b.png,object_11b.png,object_02b.png,,0.6979166666666666,,1,,,,,,,,
5515.5,,directmemory_phase7,1721920,,,,object_05b.png,,,50,,,1,,object_02a.png,object_03b.png,object_10b.png,object_03b.png,,0.7010309278350515,,1,,,,,,,,
7038.5,,directmemory_phase7,1728962,,,,object_05c.png,,,51,,,0,,object_10b.png,object_07b.png,object_02a.png,object_07b.png,,0.6938775510204082,,0,,,,,,,,
5176.299999952316,,directmemory_phase7,1734142,,,,object_02a.png,,,49,,,0,,object_07b.png,object_01c.png,object_09a.png,object_01c.png,,0.6868686868686869,,0,,,,,,,,
2261.399999856949,,directmemory_phase7,1736405,,,,object_09a.png,,,49,,,1,,object_05a.png,object_02a.png,object_03a.png,object_05a.png,,0.69,,1,,,,,,,,
4105.5,,directmemory_phase7,1740515,,,,object_13a.png,,,51,,,1,,object_14b.png,object_03c.png,object_15a.png,object_15a.png,,0.693069306930693,,1,,,,,,,,
2985.2000000476837,,directmemory_phase7,1743503,,,,object_10a.png,,,50,,,1,,object_08c.png,object_14a.png,object_15a.png,object_14a.png,,0.696078431372549,,1,,,,,,,,
5318,,directmemory_phase7,1748823,,,,object_11b.png,,,50,,,0,,object_03c.png,object_01c.png,object_07c.png,object_07c.png,,0.6893203883495146,,0,,,,,,,,
7548.600000143051,,directmemory_phase7,1756376,,,,object_04a.png,,,50,,,1,,object_03a.png,object_08c.png,object_03c.png,object_08c.png,,0.6923076923076923,,1,,,,,,,,
7656,,directmemory_phase7,1764036,,,,object_11a.png,,,50,,,1,,object_07b.png,object_03a.png,object_06c.png,object_03a.png,,0.6952380952380952,,1,,,,,,,,
null,,thebreak,1764152,,,,<p></p>,,,null,,,,,,,,,,,,,,,,,,,,
1470.7999999523163,,intro_0,1765625,,,,instruct,,,32,,,,,,,,,,,,,,,,,,,,
null,,learn_phase(without_color)8,1769137,,,,black_plus_sign,,,null,object_12b.png,object_15b.png,,,,,,,,,,,,,,,,,,
null,,black_cross(without_color)8,1769627,,,,green,,,null,object_12b.png,object_15b.png,,,,,,,,,,,,,,,,,,
null,,rt_plussign_withcolor8,1770129,,,,green,,,null,object_12b.png,object_15b.png,,,,,,,,,,,,,,,,,,
993.5999999046326,,rt_thecrossant_black8,1771661,,,,black_plus_sign,,,50,,,1,,,,,,,1,,,,,,,,,,
null,,color_black8,1771764,,,,black_plus_sign,,,null,,,,,,,,,,,,,,,,,,,,
null,,learn_phase(without_color)8,1775267,,,,black_plus_sign,,,null,object_03b.png,object_05b.png,,,,,,,,,,,,,,,,,,
null,,black_cross(without_color)8,1775674,,,,green,,,null,object_03b.png,object_05b.png,,,,,,,,,,,,,,,,,,
null,,rt_plussign_withcolor8,1776177,,,,green,,,null,object_03b.png,object_05b.png,,,,,,,,,,,,,,,,,,
718,,rt_thecrossant_black8,1777777,,,,black_plus_sign,,,50,,,1,,,,,,,1,,,,,,,,,,
null,,color_black8,1777880,,,,black_plus_sign,,,null,,,,,,,,,,,,,,,,,,,,
null,,learn_phase(without_color)8,1781385,,,,black_plus_sign,,,null,object_02a.png,object_01c.png,,,,,,,,,,,,,,,,,,
null,,black_cross(without_color)8,1781805,,,,blue,,,null,object_02a.png,object_01c.png,,,,,,,,,,,,,,,,,,
null,,rt_plussign_withcolor8,1782307,,,,blue,,,null,object_02a.png,object_01c.png,,,,,,,,,,,,,,,,,,
798.5,,rt_thecrossant_black8,1783894,,,,black_plus_sign,,,49,,,1,,,,,,,1,,,,,,,,,,
null,,color_black8,1783997,,,,black_plus_sign,,,null,,,,,,,,,,,,,,,,,,,,
null,,learn_phase(without_color)8,1787501,,,,black_plus_sign,,,null,object_02b.png,object_10b.png,,,,,,,,,,,,,,,,,,
null,,black_cross(without_color)8,1788297,,,,blue,,,null,object_02b.png,object_10b.png,,,,,,,,,,,,,,,,,,
null,,rt_plussign_withcolor8,1788800,,,,blue,,,null,object_02b.png,object_10b.png,,,,,,,,,,,,,,,,,,
636.2999999523163,,rt_thecrossant_black8,1790011,,,,black_plus_sign,,,49,,,1,,,,,,,1,,,,,,,,,,
null,,color_black8,1790115,,,,black_plus_sign,,,null,,,,,,,,,,,,,,,,,,,,
null,,learn_phase(without_color)8,1793622,,,,black_plus_sign,,,null,object_05c.png,object_07b.png,,,,,,,,,,,,,,,,,,
null,,black_cross(without_color)8,1794559,,,,blue,,,null,object_05c.png,object_07b.png,,,,,,,,,,,,,,,,,,
null,,rt_plussign_withcolor8,1795063,,,,blue,,,null,object_05c.png,object_07b.png,,,,,,,,,,,,,,,,,,
1037.7999999523163,,rt_thecrossant_black8,1796147,,,,black_plus_sign,,,49,,,1,,,,,,,1,,,,,,,,,,
null,,color_black8,1796250,,,,black_plus_sign,,,null,,,,,,,,,,,,,,,,,,,,
null,,learn_phase(without_color)8,1799755,,,,black_plus_sign,,,null,object_07c.png,object_11b.png,,,,,,,,,,,,,,,,,,
null,,black_cross(without_color)8,1800612,,,,green,,,null,object_07c.png,object_11b.png,,,,,,,,,,,,,,,,,,
null,,rt_plussign_withcolor8,1801114,,,,green,,,null,object_07c.png,object_11b.png,,,,,,,,,,,,,,,,,,
1312.4000000953674,,rt_thecrossant_black8,1802263,,,,black_plus_sign,,,50,,,1,,,,,,,1,,,,,,,,,,
null,,color_black8,1802366,,,,black_plus_sign,,,null,,,,,,,,,,,,,,,,,,,,
null,,learn_phase(without_color)8,1805871,,,,black_plus_sign,,,null,object_05a.png,object_09a.png,,,,,,,,,,,,,,,,,,
null,,black_cross(without_color)8,1806570,,,,green,,,null,object_05a.png,object_09a.png,,,,,,,,,,,,,,,,,,
null,,rt_plussign_withcolor8,1807073,,,,green,,,null,object_05a.png,object_09a.png,,,,,,,,,,,,,,,,,,
1155.2999999523163,,rt_thecrossant_black8,1808381,,,,black_plus_sign,,,50,,,1,,,,,,,1,,,,,,,,,,
null,,color_black8,1808484,,,,black_plus_sign,,,null,,,,,,,,,,,,,,,,,,,,
null,,learn_phase(without_color)8,1811989,,,,black_plus_sign,,,null,object_06c.png,object_01b.png,,,,,,,,,,,,,,,,,,
null,,black_cross(without_color)8,1812661,,,,green,,,null,object_06c.png,object_01b.png,,,,,,,,,,,,,,,,,,
null,,rt_plussign_withcolor8,1813164,,,,green,,,null,object_06c.png,object_01b.png,,,,,,,,,,,,,,,,,,
1014,,rt_thecrossant_black8,1814500,,,,black_plus_sign,,,50,,,1,,,,,,,1,,,,,,,,,,
null,,color_black8,1814604,,,,black_plus_sign,,,null,,,,,,,,,,,,,,,,,,,,
null,,learn_phase(without_color)8,1818114,,,,black_plus_sign,,,null,object_14c.png,object_10c.png,,,,,,,,,,,,,,,,,,
null,,black_cross(without_color)8,1818743,,,,green,,,null,object_14c.png,object_10c.png,,,,,,,,,,,,,,,,,,
null,,rt_plussign_withcolor8,1819246,,,,green,,,null,object_14c.png,object_10c.png,,,,,,,,,,,,,,,,,,
978.3999998569489,,rt_thecrossant_black8,1820633,,,,black_plus_sign,,,50,,,1,,,,,,,1,,,,,,,,,,
null,,color_black8,1820736,,,,black_plus_sign,,,null,,,,,,,,,,,,,,,,,,,,
null,,learn_phase(without_color)8,1824240,,,,black_plus_sign,,,null,object_15c.png,object_04c.png,,,,,,,,,,,,,,,,,,
null,,black_cross(without_color)8,1824666,,,,green,,,null,object_15c.png,object_04c.png,,,,,,,,,,,,,,,,,,
null,,rt_plussign_withcolor8,1825169,,,,green,,,null,object_15c.png,object_04c.png,,,,,,,,,,,,,,,,,,
762.7000000476837,,rt_thecrossant_black8,1826750,,,,black_plus_sign,,,50,,,1,,,,,,,1,,,,,,,,,,
null,,color_black8,1826853,,,,black_plus_sign,,,null,,,,,,,,,,,,,,,,,,,,
null,,learn_phase(without_color)8,1830358,,,,black_plus_sign,,,null,object_04a.png,object_08c.png,,,,,,,,,,,,,,,,,,
null,,black_cross(without_color)8,1831364,,,,blue,,,null,object_04a.png,object_08c.png,,,,,,,,,,,,,,,,,,
null,,rt_plussign_withcolor8,1831867,,,,blue,,,null,object_04a.png,object_08c.png,,,,,,,,,,,,,,,,,,
598.1000001430511,,rt_thecrossant_black8,1832868,,,,black_plus_sign,,,49,,,1,,,,,,,1,,,,,,,,,,
null,,color_black8,1832971,,,,black_plus_sign,,,null,,,,,,,,,,,,,,,,,,,,
null,,learn_phase(without_color)8,1836475,,,,black_plus_sign,,,null,object_10a.png,object_14a.png,,,,,,,,,,,,,,,,,,
null,,black_cross(without_color)8,1837190,,,,green,,,null,object_10a.png,object_14a.png,,,,,,,,,,,,,,,,,,
null,,rt_plussign_withcolor8,1837693,,,,green,,,null,object_10a.png,object_14a.png,,,,,,,,,,,,,,,,,,
1640.8999998569489,,rt_thecrossant_black8,1838984,,,,black_plus_sign,,,50,,,1,,,,,,,1,,,,,,,,,,
null,,color_black8,1839088,,,,black_plus_sign,,,null,,,,,,,,,,,,,,,,,,,,
null,,learn_phase(without_color)8,1842593,,,,black_plus_sign,,,null,object_15a.png,object_13a.png,,,,,,,,,,,,,,,,,,
null,,black_cross(without_color)8,1843046,,,,blue,,,null,object_15a.png,object_13a.png,,,,,,,,,,,,,,,,,,
null,,rt_plussign_withcolor8,1843548,,,,blue,,,null,object_15a.png,object_13a.png,,,,,,,,,,,,,,,,,,
901.1000001430511,,rt_thecrossant_black8,1845099,,,,black_plus_sign,,,49,,,1,,,,,,,1,,,,,,,,,,
null,,color_black8,1845202,,,,black_plus_sign,,,null,,,,,,,,,,,,,,,,,,,,
null,,learn_phase(without_color)8,1848715,,,,black_plus_sign,,,null,object_14b.png,object_03c.png,,,,,,,,,,,,,,,,,,
null,,black_cross(without_color)8,1849216,,,,green,,,null,object_14b.png,object_03c.png,,,,,,,,,,,,,,,,,,
null,,rt_plussign_withcolor8,1849720,,,,green,,,null,object_14b.png,object_03c.png,,,,,,,,,,,,,,,,,,
725.7000000476837,,rt_thecrossant_black8,1851231,,,,black_plus_sign,,,50,,,1,,,,,,,1,,,,,,,,,,
null,,color_black8,1851334,,,,black_plus_sign,,,null,,,,,,,,,,,,,,,,,,,,
null,,learn_phase(without_color)8,1854838,,,,black_plus_sign,,,null,object_03a.png,object_11a.png,,,,,,,,,,,,,,,,,,
null,,black_cross(without_color)8,1855823,,,,blue,,,null,object_03a.png,object_11a.png,,,,,,,,,,,,,,,,,,
null,,rt_plussign_withcolor8,1856332,,,,blue,,,null,object_03a.png,object_11a.png,,,,,,,,,,,,,,,,,,
646,,rt_thecrossant_black8,1857356,,,,black_plus_sign,,,49,,,1,,,,,,,1,,,,,,,,,,
null,,color_black8,1857460,,,,black_plus_sign,,,null,,,,,,,,,,,,,,,,,,,,
null,,thebreak,1857565,,,,<p></p>,,,null,,,,,,,,,,,,,,,,,,,,
16393.099999904633,,intro_0,1873960,,,,instruct,,,32,,,,,,,,,,,,,,,,,,,,
3134.0999999046326,,directmemory_phase8,1877095,,,,object_05b.png,,,50,,,1,,object_05a.png,object_03b.png,object_10b.png,object_03b.png,,0.6981132075471698,,1,,,,,,,,
4384.299999952316,,directmemory_phase8,1881483,,,,object_07b.png,,,50,,,1,,object_04c.png,object_05c.png,object_04a.png,object_05c.png,,0.7009345794392523,,1,,,,,,,,
6930.899999856949,,directmemory_phase8,1888418,,,,object_10a.png,,,51,,,1,,object_03a.png,object_13a.png,object_14a.png,object_14a.png,,0.7037037037037037,,1,,,,,,,,
7755.799999952316,,directmemory_phase8,1896178,,,,object_11a.png,,,49,,,0,,object_03c.png,object_03a.png,object_09a.png,object_03a.png,,0.6972477064220184,,0,,,,,,,,
4453,,directmemory_phase8,1900635,,,,object_08c.png,,,49,,,1,,object_04a.png,object_06c.png,object_03c.png,object_04a.png,,0.7,,1,,,,,,,,
5640.799999952316,,directmemory_phase8,1906280,,,,object_03c.png,,,49,,,0,,object_01c.png,object_11a.png,object_14b.png,object_14b.png,,0.6936936936936937,,0,,,,,,,,
2823.0999999046326,,directmemory_phase8,1909107,,,,object_12b.png,,,51,,,1,,object_04c.png,object_14a.png,object_15b.png,object_15b.png,,0.6964285714285714,,1,,,,,,,,
2319.7000000476837,,directmemory_phase8,1911430,,,,object_05a.png,,,49,,,1,,object_09a.png,object_10b.png,object_15b.png,object_09a.png,,0.6991150442477876,,1,,,,,,,,
3384.2000000476837,,directmemory_phase8,1914817,,,,object_11b.png,,,51,,,1,,object_10a.png,object_04a.png,object_07c.png,object_07c.png,,0.7017543859649122,,1,,,,,,,,
2725.399999856949,,directmemory_phase8,1917544,,,,object_01c.png,,,49,,,1,,object_02a.png,object_11a.png,object_10b.png,object_02a.png,,0.7043478260869566,,1,,,,,,,,
12697.400000095367,,directmemory_phase8,1930244,,,,object_15c.png,,,50,,,1,,object_12b.png,object_04c.png,object_10a.png,object_04c.png,,0.7068965517241379,,1,,,,,,,,
5944.099999904633,,directmemory_phase8,1936192,,,,object_15a.png,,,50,,,0,,object_13a.png,object_02a.png,object_03a.png,object_13a.png,,0.7008547008547008,,0,,,,,,,,
4834.799999952316,,directmemory_phase8,1941031,,,,object_01b.png,,,49,,,1,,object_06c.png,object_12b.png,object_05a.png,object_06c.png,,0.7033898305084746,,1,,,,,,,,
1924.7999999523163,,directmemory_phase8,1942959,,,,object_10b.png,,,50,,,1,,object_14b.png,object_02b.png,object_13a.png,object_02b.png,,0.7058823529411765,,1,,,,,,,,
8640.600000143051,,directmemory_phase8,1951603,,,,object_10c.png,,,51,,,1,,object_08c.png,object_04a.png,object_14c.png,object_14c.png,,0.7083333333333334,,1,,,,,,,,
null,,thebreak,1951707,,,,<p></p>,,,null,,,,,,,,,,,,,,,,,,,,
5402,,intro_0,1957111,,,,instruct,,,32,,,,,,,,,,,,,,,,,,,,
15587.200000047684,,intro_1,1972700,,,,instruct,,,32,,,,,,,,,,,,,,,,,,,,
5626,,intro_2,1978328,,,,instruct,,,32,,,,,,,,,,,,,,,,,,,,
,,intro_3,2024448,,,,instruct,,,,,,,,,,,,,,,,,,,,,,,
7448.600000143051,,intro_4,2031898,,,,instruct,,,32,,,,,,,,,,,,,,,,,,,,
null,,thebreak,2032001,,,,<p></p>,,,null,,,,,,,,,,,,,,,,,,,,
2340.7999999523163,,intro_0,2034343,,,,instruct,,,32,,,,,,,,,,,,,,,,,,,,
7281.899999856949,,intro_1,2041627,,,,instruct,,,32,,,,,,,,,,,,,,,,,,,,
1788.2999999523163,,intro_2,2043417,,,,instruct,,,32,,,,,,,,,,,,,,,,,,,,
,,intro_3,2054585,,,,instruct,,,,,,,,,,,,,,,,,,,,,,,
2935.600000143051,,intro_4,2057523,,,,instruct,,,32,,,,,,,,,,,,,,,,,,,,
4594.5,,inference_phase,2062120,,,,object_06a.png,,,50,object_04c.png,object_09a.png,0,,,,,object_09a.png,,0,,,object_14b.png,,,,,,,
4949.200000047684,,inference_phase,2067075,,,,object_04a.png,,,51,object_09b.png,object_13c.png,0,,,,,object_09b.png,,0,,,object_02a.png,,,,,,,
8713.200000047684,,inference_phase,2075791,,,,object_15c.png,,,51,object_12c.png,object_07c.png,0,,,,,object_08a.png,,0,,,object_08a.png,,,,,,,
7040,,inference_phase,2082834,,,,object_05c.png,,,51,object_07a.png,object_11a.png,0,,,,,object_12a.png,,0,,,object_12a.png,,,,,,,
4376.400000095367,,inference_phase,2087216,,,,object_12b.png,,,50,object_06a.png,object_12c.png,0,,,,,object_12c.png,,0,,,object_05b.png,,,,,,,
5316.700000047684,,inference_phase,2092537,,,,object_01c.png,,,49,object_13c.png,object_07a.png,1,,,,,object_13c.png,,0.16666666666666666,,,object_03c.png,,,,,,,
6548.799999952316,,inference_phase,2099090,,,,object_14a.png,,,49,object_09c.png,object_08a.png,1,,,,,object_09c.png,,0.2857142857142857,,,object_07c.png,,,,,,,
5767.5,,inference_phase,2104861,,,,object_06c.png,,,49,object_01a.png,object_06b.png,0,,,,,object_06b.png,,0.25,,,object_03c.png,,,,,,,
6155.5,,inference_phase,2111021,,,,object_10b.png,,,51,object_08b.png,object_02c.png,1,,,,,object_02c.png,,0.3333333333333333,,,object_02a.png,,,,,,,
3710.2999999523163,,inference_phase,2114734,,,,object_03b.png,,,50,object_01a.png,object_09c.png,0,,,,,object_01a.png,,0.3,,,object_01b.png,,,,,,,
4112.599999904633,,inference_phase,2118850,,,,object_03a.png,,,49,object_08a.png,object_07a.png,0,,,,,object_07a.png,,0.2727272727272727,,,object_13a.png,,,,,,,
2987.5,,inference_phase,2121840,,,,object_15a.png,,,51,object_12c.png,object_04b.png,1,,,,,object_04b.png,,0.3333333333333333,,,object_11a.png,,,,,,,
3457.5999999046326,,inference_phase,2125302,,,,object_08b.png,,,51,object_11a.png,object_14b.png,1,,,,,object_14b.png,,0.38461538461538464,,,object_04a.png,,,,,,,
5168.799999952316,,inference_phase,2130474,,,,object_11c.png,,,51,object_01b.png,object_01c.png,0,,,,,object_11b.png,,0.35714285714285715,,,object_11b.png,,,,,,,
4064.7000000476837,,inference_phase,2134543,,,,object_10c.png,,,49,object_13c.png,object_13b.png,0,,,,,object_13b.png,,0.3333333333333333,,,object_01b.png,,,,,,,
,,survey,2347208,,,,survey-questions,,,,,,,,,,,,,,,,,none,high,No, I was focus on the experiment through out.,I try memorizing the shape and color of the object.,No, both the trial was difficult to learn.,No, I haven't done this study before.,The task was difficult, but it was very interesting and fun.
