rt,responses,trial_type,time_elapsed,identifier_a,identifier_b,identifier_c,stimulus,button_pressed,response,key_press,stimulus_left,stimulus_right,accuracy,practice_cumulative_accuracy,stimulus_down_left,stimulus_down_mid,stimulus_down_right,stimulus_correct,prac_weighted_accuracy,cumulative_accuracy,failed_practice,weighted_accuracy,stimulus_middle,problems,smooth,distraction,strategies,easier,similar,comments
5175.5,{worker_id:663a8a591f436a85bb4d90c2},id_enter,5177,object_15a.png; object_10a.png; object_04a.png; object_06c.png; object_14a.png; object_11b.png; object_03a.png; object_04c.png; object_01c.png; object_10b.png; object_05c.png; object_07a.png; object_01b.png; object_12b.png; object_02c.png,object_07b.png; object_10c.png; object_01a.png; object_02a.png; object_06a.png; object_15b.png; object_06b.png; object_09c.png; object_15c.png; object_13c.png; object_09a.png; object_05a.png; object_13b.png; object_13a.png; object_11a.png,object_12a.png; object_08c.png; object_09b.png; object_11c.png; object_07c.png; object_04b.png; object_08a.png; object_02b.png; object_03b.png; object_03c.png; object_14c.png; object_12c.png; object_14b.png; object_08b.png; object_05b.png,,,,,,,,,,,,,,,,,,,,,,,,
2107.7000000029802,,make_fullscreen,7288,,,,fullscreen,0,,,,,,,,,,,,,,,,,,,,,,
1177.5,,instruct_1,8467,,,,instruct,0,Next,,,,,,,,,,,,,,,,,,,,,
1869,,instruct_2,10338,,,,instruct,1,Next,,,,,,,,,,,,,,,,,,,,,
1104.0999999940395,,instruct_3,11443,,,,instruct,1,Next,,,,,,,,,,,,,,,,,,,,,
1652.7000000029802,,instruct_4,13097,,,,instruct,1,Next,,,,,,,,,,,,,,,,,,,,,
993.7000000029802,,instruct_5,14092,,,,instruct,1,Next,,,,,,,,,,,,,,,,,,,,,
926.0999999940395,,instruct_6,15019,,,,instruct,1,Next,,,,,,,,,,,,,,,,,,,,,
1526.5,,instruct_7,16547,,,,instruct,1,Next,,,,,,,,,,,,,,,,,,,,,
null,,prac_atten_color_black,17297,,,,black_plus_sign,,,null,,,,,,,,,,,,,,,,,,,,
null,,prac_atten_color,17964,,,,<p style='position:absolute;top: 50%;right: 50%;transform: translate(50%, -50%);font-size: 125px;color: blue;'>+</p>,,,null,,,,,,,,,,,,,,,,,,,,
null,,prac_atten_color_black,19967,,,,black_plus_sign,,,null,,,,,,,,,,,,,,,,,,,,
3707.3999999910593,,attentioncheck_help,23677,,,,instruct,,,32,,,,,,,,,,,,,,,,,,,,
null,,prac_atten_color_black,24428,,,,black_plus_sign,,,null,,,,,,,,,,,,,,,,,,,,
null,,prac_atten_color,24842,,,,<p style='position:absolute;top: 50%;right: 50%;transform: translate(50%, -50%);font-size: 125px;color: green;'>+</p>,,,null,,,,,,,,,,,,,,,,,,,,
298.3999999910593,,prac_atten_color_black,26852,,,,black_plus_sign,,,50,,,,,,,,,,,,,,,,,,,,
null,,prac_atten_color_black,27844,,,,black_plus_sign,,,null,,,,,,,,,,,,,,,,,,,,
null,,prac_atten_color,28355,,,,<p style='position:absolute;top: 50%;right: 50%;transform: translate(50%, -50%);font-size: 125px;color: green;'>+</p>,,,null,,,,,,,,,,,,,,,,,,,,
472.29999999701977,,prac_atten_color_black,30357,,,,black_plus_sign,,,50,,,,,,,,,,,,,,,,,,,,
null,,prac_atten_color_black,31251,,,,black_plus_sign,,,null,,,,,,,,,,,,,,,,,,,,
466.20000000298023,,prac_atten_color,32041,,,,<p style='position:absolute;top: 50%;right: 50%;transform: translate(50%, -50%);font-size: 125px;color: blue;'>+</p>,,,49,,,,,,,,,,,,,,,,,,,,
null,,prac_atten_color_black,34043,,,,black_plus_sign,,,null,,,,,,,,,,,,,,,,,,,,
null,,prac_atten_color_black,34657,,,,black_plus_sign,,,null,,,,,,,,,,,,,,,,,,,,
null,,prac_atten_color,35135,,,,<p style='position:absolute;top: 50%;right: 50%;transform: translate(50%, -50%);font-size: 125px;color: green;'>+</p>,,,null,,,,,,,,,,,,,,,,,,,,
76,,prac_atten_color_black,37137,,,,black_plus_sign,,,50,,,,,,,,,,,,,,,,,,,,
null,,prac_atten_color_black,38065,,,,black_plus_sign,,,null,,,,,,,,,,,,,,,,,,,,
787.6000000089407,,prac_atten_color,39070,,,,<p style='position:absolute;top: 50%;right: 50%;transform: translate(50%, -50%);font-size: 125px;color: green;'>+</p>,,,50,,,,,,,,,,,,,,,,,,,,
null,,prac_atten_color_black,41071,,,,black_plus_sign,,,null,,,,,,,,,,,,,,,,,,,,
null,,prac_atten_color_black,41470,,,,black_plus_sign,,,null,,,,,,,,,,,,,,,,,,,,
null,,prac_atten_color,42027,,,,<p style='position:absolute;top: 50%;right: 50%;transform: translate(50%, -50%);font-size: 125px;color: blue;'>+</p>,,,null,,,,,,,,,,,,,,,,,,,,
520.5,,prac_atten_color_black,44030,,,,black_plus_sign,,,49,,,,,,,,,,,,,,,,,,,,
null,,prac_atten_color_black,44876,,,,black_plus_sign,,,null,,,,,,,,,,,,,,,,,,,,
648.2999999970198,,prac_atten_color,45783,,,,<p style='position:absolute;top: 50%;right: 50%;transform: translate(50%, -50%);font-size: 125px;color: green;'>+</p>,,,50,,,,,,,,,,,,,,,,,,,,
null,,prac_atten_color_black,47785,,,,black_plus_sign,,,null,,,,,,,,,,,,,,,,,,,,
null,,prac_atten_color_black,48280,,,,black_plus_sign,,,null,,,,,,,,,,,,,,,,,,,,
null,,prac_atten_color,48702,,,,<p style='position:absolute;top: 50%;right: 50%;transform: translate(50%, -50%);font-size: 125px;color: blue;'>+</p>,,,null,,,,,,,,,,,,,,,,,,,,
399.20000000298023,,prac_atten_color_black,50704,,,,black_plus_sign,,,49,,,,,,,,,,,,,,,,,,,,
null,,prac_atten_color_black,51690,,,,black_plus_sign,,,null,,,,,,,,,,,,,,,,,,,,
null,,prac_atten_color,52126,,,,<p style='position:absolute;top: 50%;right: 50%;transform: translate(50%, -50%);font-size: 125px;color: blue;'>+</p>,,,null,,,,,,,,,,,,,,,,,,,,
231.40000000596046,,prac_atten_color_black,54127,,,,black_plus_sign,,,49,,,,,,,,,,,,,,,,,,,,
1505,,attentioncheck_feedback,55633,,,,cross_check_feedback,0,,,,,,,,,,,,,,,,,,,,,,
2428.2000000029802,,last_instruct,58063,,,,instruct,,,32,,,,,,,,,,,,,,,,,,,,
null,,prac_learn_phase(without_color),61564,,,,black_plus_sign,,,null,object_03a.png,object_06b.png,,,,,,,,,,,,,,,,,,
null,,prac_black_cross(without_color),62379,,,,blue,,,null,object_03a.png,object_06b.png,,,,,,,,,,,,,,,,,,
null,,prac_rt_plussign_withcolor,62881,,,,blue,,,null,object_03a.png,object_06b.png,,,,,,,,,,,,,,,,,,
1685.7999999970198,,prac_rt_thecrossant_black,64070,,,,black_plus_sign,,,49,,,1,1,,,,,,,,,,,,,,,,
null,,prac_color_black,64172,,,,black_plus_sign,,,null,,,,,,,,,,,,,,,,,,,,
null,,prac_learn_phase(without_color),67676,,,,black_plus_sign,,,null,object_05c.png,object_09a.png,,,,,,,,,,,,,,,,,,
null,,black_cross(without_color)1,68614,,,,blue,,,null,object_03a.png,object_06b.png,,,,,,,,,,,,,,,,,,
null,,prac_rt_plussign_withcolor,69116,,,,green,,,null,object_05c.png,object_09a.png,,,,,,,,,,,,,,,,,,
666,,prac_rt_thecrossant_black,70197,,,,black_plus_sign,,,50,,,1,1,,,,,,,,,,,,,,,,
null,,prac_color_black,70300,,,,black_plus_sign,,,null,,,,,,,,,,,,,,,,,,,,
null,,prac_learn_phase(without_color),73801,,,,black_plus_sign,,,null,object_01a.png,object_04a.png,,,,,,,,,,,,,,,,,,
null,,black_cross(without_color)1,74740,,,,blue,,,null,object_03a.png,object_06b.png,,,,,,,,,,,,,,,,,,
null,,prac_rt_plussign_withcolor,75242,,,,green,,,null,object_01a.png,object_04a.png,,,,,,,,,,,,,,,,,,
1286,,prac_rt_thecrossant_black,76582,,,,black_plus_sign,,,50,,,1,1,,,,,,,,,,,,,,,,
null,,prac_color_black,76685,,,,black_plus_sign,,,null,,,,,,,,,,,,,,,,,,,,
null,,prac_learn_phase(without_color),80188,,,,black_plus_sign,,,null,object_01b.png,object_13b.png,,,,,,,,,,,,,,,,,,
null,,black_cross(without_color)1,81126,,,,blue,,,null,object_03a.png,object_06b.png,,,,,,,,,,,,,,,,,,
null,,prac_rt_plussign_withcolor,81628,,,,green,,,null,object_01b.png,object_13b.png,,,,,,,,,,,,,,,,,,
1029.2999999970198,,prac_rt_thecrossant_black,83025,,,,black_plus_sign,,,50,,,1,1,,,,,,,,,,,,,,,,
null,,prac_color_black,83128,,,,black_plus_sign,,,null,,,,,,,,,,,,,,,,,,,,
1980.2000000029802,,instruct_dir_01,85109,,,,instruct,0,Next,,,,,,,,,,,,,,,,,,,,,
1414.3999999910593,,instruct_dir_2,86525,,,,instruct,1,Next,,,,,,,,,,,,,,,,,,,,,
1636,,instruct_dir_3,88163,,,,instruct,1,Next,,,,,,,,,,,,,,,,,,,,,
1354.5999999940395,,instruct_dir_4,89519,,,,instruct,1,Start,,,,,,,,,,,,,,,,,,,,,
null,,thebreak,89621,,,,<p></p>,,,null,,,,,,,,,,,,,,,,,,,,
2093.7000000029802,,intro_0,91717,,,,instruct,,,32,,,,,,,,,,,,,,,,,,,,
4783,,prac_directmemory_phase,96501,,,,practice/object_04a.png,,,49,,,1,,practice/object_04b.png,practice/object_01b.png,practice/object_02a.png,practice/object_04b.png,1,1,,,,,,,,,,
5422.0999999940395,,prac_directmemory_phase,101925,,,,practice/object_02a.png,,,50,,,1,,practice/object_04a.png,practice/object_02b.png,practice/object_04b.png,practice/object_02b.png,1,1,,,,,,,,,,
4582.4000000059605,,prac_directmemory_phase,106509,,,,practice/object_03a.png,,,49,,,0,,practice/object_02b.png,practice/object_01a.png,practice/object_03b.png,practice/object_03b.png,0,0.6666666666666666,,,,,,,,,,
5542.5999999940395,,prac_directmemory_phase,112054,,,,practice/object_01a.png,,,51,,,0,,practice/object_01b.png,practice/object_02b.png,practice/object_03a.png,practice/object_01b.png,0,0.5,,,,,,,,,,
2912.199999988079,,practice_feedback_force_restart,114967,,,,practice_feedback,0,,,,,,,,,,,,,1,,,,,,,,,
2581.800000011921,,last_instruct,117550,,,,instruct,,,32,,,,,,,,,,,,,,,,,,,,
null,,prac_learn_phase(without_color),121053,,,,black_plus_sign,,,null,object_03a.png,object_06b.png,,,,,,,,,,,,,,,,,,
null,,prac_black_cross(without_color),121956,,,,blue,,,null,object_03a.png,object_06b.png,,,,,,,,,,,,,,,,,,
null,,prac_rt_plussign_withcolor,122458,,,,blue,,,null,object_03a.png,object_06b.png,,,,,,,,,,,,,,,,,,
1463.5,,prac_rt_thecrossant_black,123560,,,,black_plus_sign,,,49,,,1,1,,,,,,,,,,,,,,,,
null,,prac_color_black,123662,,,,black_plus_sign,,,null,,,,,,,,,,,,,,,,,,,,
null,,prac_learn_phase(without_color),127164,,,,black_plus_sign,,,null,object_05c.png,object_09a.png,,,,,,,,,,,,,,,,,,
null,,black_cross(without_color)1,128102,,,,blue,,,null,object_03a.png,object_06b.png,,,,,,,,,,,,,,,,,,
null,,prac_rt_plussign_withcolor,128604,,,,green,,,null,object_05c.png,object_09a.png,,,,,,,,,,,,,,,,,,
1096.4000000059605,,prac_rt_thecrossant_black,129571,,,,black_plus_sign,,,50,,,1,1,,,,,,,,,,,,,,,,
null,,prac_color_black,129673,,,,black_plus_sign,,,null,,,,,,,,,,,,,,,,,,,,
null,,prac_learn_phase(without_color),133175,,,,black_plus_sign,,,null,object_01a.png,object_04a.png,,,,,,,,,,,,,,,,,,
null,,black_cross(without_color)1,134113,,,,blue,,,null,object_03a.png,object_06b.png,,,,,,,,,,,,,,,,,,
null,,prac_rt_plussign_withcolor,134615,,,,green,,,null,object_01a.png,object_04a.png,,,,,,,,,,,,,,,,,,
1571.9000000059605,,prac_rt_thecrossant_black,136000,,,,black_plus_sign,,,50,,,1,1,,,,,,,,,,,,,,,,
null,,prac_color_black,136102,,,,black_plus_sign,,,null,,,,,,,,,,,,,,,,,,,,
null,,prac_learn_phase(without_color),139604,,,,black_plus_sign,,,null,object_01b.png,object_13b.png,,,,,,,,,,,,,,,,,,
null,,black_cross(without_color)1,140542,,,,blue,,,null,object_03a.png,object_06b.png,,,,,,,,,,,,,,,,,,
null,,prac_rt_plussign_withcolor,141044,,,,green,,,null,object_01b.png,object_13b.png,,,,,,,,,,,,,,,,,,
1126.7000000029802,,prac_rt_thecrossant_black,142478,,,,black_plus_sign,,,50,,,1,1,,,,,,,,,,,,,,,,
null,,prac_color_black,142580,,,,black_plus_sign,,,null,,,,,,,,,,,,,,,,,,,,
1497.3999999910593,,instruct_dir_01,144079,,,,instruct,0,Next,,,,,,,,,,,,,,,,,,,,,
1188.2000000029802,,instruct_dir_2,145269,,,,instruct,1,Next,,,,,,,,,,,,,,,,,,,,,
1814.2000000029802,,instruct_dir_3,147084,,,,instruct,1,Next,,,,,,,,,,,,,,,,,,,,,
1315.8999999910593,,instruct_dir_4,148401,,,,instruct,1,Start,,,,,,,,,,,,,,,,,,,,,
null,,thebreak,148503,,,,<p></p>,,,null,,,,,,,,,,,,,,,,,,,,
2020.4000000059605,,intro_0,150524,,,,instruct,,,32,,,,,,,,,,,,,,,,,,,,
4832.70000000298,,prac_directmemory_phase,155358,,,,practice/object_04a.png,,,49,,,1,,practice/object_04b.png,practice/object_01b.png,practice/object_02a.png,practice/object_04b.png,1,1,,,,,,,,,,
4358.5999999940395,,prac_directmemory_phase,159718,,,,practice/object_02a.png,,,50,,,1,,practice/object_04a.png,practice/object_02b.png,practice/object_04b.png,practice/object_02b.png,1,1,,,,,,,,,,
2724.2000000029802,,prac_directmemory_phase,162444,,,,practice/object_03a.png,,,51,,,1,,practice/object_02b.png,practice/object_01a.png,practice/object_03b.png,practice/object_03b.png,1,1,,,,,,,,,,
2769.2000000029802,,prac_directmemory_phase,165215,,,,practice/object_01a.png,,,49,,,1,,practice/object_01b.png,practice/object_02b.png,practice/object_03a.png,practice/object_01b.png,1,1,,,,,,,,,,
4214.70000000298,,practice_feedback,169432,,,,practice_feedback,1,,,,,,,,,,,,,,,,,,,,,,
9754.29999999702,,proceed_actualTask,179187,,,,proceed_actualTask,1,Continue,,,,,,,,,,,,,,,,,,,,,
11433,,last_inst,190621,,,,last_inst,,,32,,,,,,,,,,,,,,,,,,,,
null,,learn_phase(without_color)1,194123,,,,black_plus_sign,,,null,object_03a.png,object_06b.png,,,,,,,,,,,,,,,,,,
null,,black_cross(without_color)1,195061,,,,blue,,,null,object_03a.png,object_06b.png,,,,,,,,,,,,,,,,,,
null,,rt_plussign_withcolor1,195563,,,,blue,,,null,object_03a.png,object_06b.png,,,,,,,,,,,,,,,,,,
1236.7000000029802,,rt_thecrossant_black1,196629,,,,black_plus_sign,,,49,,,1,,,,,,,1,,,,,,,,,,
null,,color_black1,196732,,,,black_plus_sign,,,null,,,,,,,,,,,,,,,,,,,,
null,,learn_phase(without_color)1,200235,,,,black_plus_sign,,,null,object_05c.png,object_09a.png,,,,,,,,,,,,,,,,,,
null,,black_cross(without_color)1,200757,,,,blue,,,null,object_05c.png,object_09a.png,,,,,,,,,,,,,,,,,,
null,,rt_plussign_withcolor1,201260,,,,blue,,,null,object_05c.png,object_09a.png,,,,,,,,,,,,,,,,,,
1423.7000000029802,,rt_thecrossant_black1,202741,,,,black_plus_sign,,,49,,,1,,,,,,,1,,,,,,,,,,
null,,color_black1,202844,,,,black_plus_sign,,,null,,,,,,,,,,,,,,,,,,,,
null,,learn_phase(without_color)1,206347,,,,black_plus_sign,,,null,object_01a.png,object_04a.png,,,,,,,,,,,,,,,,,,
null,,black_cross(without_color)1,207148,,,,blue,,,null,object_01a.png,object_04a.png,,,,,,,,,,,,,,,,,,
null,,rt_plussign_withcolor1,207651,,,,blue,,,null,object_01a.png,object_04a.png,,,,,,,,,,,,,,,,,,
860.8999999910593,,rt_thecrossant_black1,208854,,,,black_plus_sign,,,49,,,1,,,,,,,1,,,,,,,,,,
null,,color_black1,208957,,,,black_plus_sign,,,null,,,,,,,,,,,,,,,,,,,,
null,,learn_phase(without_color)1,212459,,,,black_plus_sign,,,null,object_01b.png,object_13b.png,,,,,,,,,,,,,,,,,,
null,,black_cross(without_color)1,213411,,,,blue,,,null,object_01b.png,object_13b.png,,,,,,,,,,,,,,,,,,
null,,rt_plussign_withcolor1,213912,,,,blue,,,null,object_01b.png,object_13b.png,,,,,,,,,,,,,,,,,,
1231.4000000059605,,rt_thecrossant_black1,214966,,,,black_plus_sign,,,49,,,1,,,,,,,1,,,,,,,,,,
null,,color_black1,215068,,,,black_plus_sign,,,null,,,,,,,,,,,,,,,,,,,,
null,,learn_phase(without_color)1,218578,,,,black_plus_sign,,,null,object_02a.png,object_06c.png,,,,,,,,,,,,,,,,,,
null,,black_cross(without_color)1,219150,,,,green,,,null,object_02a.png,object_06c.png,,,,,,,,,,,,,,,,,,
null,,rt_plussign_withcolor1,219654,,,,green,,,null,object_02a.png,object_06c.png,,,,,,,,,,,,,,,,,,
1479,,rt_thecrossant_black1,221086,,,,black_plus_sign,,,50,,,1,,,,,,,1,,,,,,,,,,
null,,color_black1,221189,,,,black_plus_sign,,,null,,,,,,,,,,,,,,,,,,,,
null,,learn_phase(without_color)1,224692,,,,black_plus_sign,,,null,object_15a.png,object_07b.png,,,,,,,,,,,,,,,,,,
null,,black_cross(without_color)1,225707,,,,green,,,null,object_15a.png,object_07b.png,,,,,,,,,,,,,,,,,,
null,,rt_plussign_withcolor1,226209,,,,green,,,null,object_15a.png,object_07b.png,,,,,,,,,,,,,,,,,,
1001.6000000089407,,rt_thecrossant_black1,227211,,,,black_plus_sign,,,50,,,1,,,,,,,1,,,,,,,,,,
null,,color_black1,227314,,,,black_plus_sign,,,null,,,,,,,,,,,,,,,,,,,,
null,,learn_phase(without_color)1,230816,,,,black_plus_sign,,,null,object_11b.png,object_15b.png,,,,,,,,,,,,,,,,,,
null,,black_cross(without_color)1,231547,,,,green,,,null,object_11b.png,object_15b.png,,,,,,,,,,,,,,,,,,
null,,rt_plussign_withcolor1,232049,,,,green,,,null,object_11b.png,object_15b.png,,,,,,,,,,,,,,,,,,
1196.5,,rt_thecrossant_black1,233335,,,,black_plus_sign,,,50,,,1,,,,,,,1,,,,,,,,,,
null,,color_black1,233437,,,,black_plus_sign,,,null,,,,,,,,,,,,,,,,,,,,
null,,learn_phase(without_color)1,236941,,,,black_plus_sign,,,null,object_14a.png,object_06a.png,,,,,,,,,,,,,,,,,,
null,,black_cross(without_color)1,237399,,,,green,,,null,object_14a.png,object_06a.png,,,,,,,,,,,,,,,,,,
444.29999999701977,,rt_plussign_withcolor1,237901,,,,green,,,50,object_14a.png,object_06a.png,,,,,,,,,,,,,,,,,,
null,,rt_thecrossant_black1,239448,,,,black_plus_sign,,,null,,,1,,,,,,,1,,,,,,,,,,
null,,color_black1,239551,,,,black_plus_sign,,,null,,,,,,,,,,,,,,,,,,,,
null,,learn_phase(without_color)1,243054,,,,black_plus_sign,,,null,object_10a.png,object_10c.png,,,,,,,,,,,,,,,,,,
null,,black_cross(without_color)1,243925,,,,green,,,null,object_10a.png,object_10c.png,,,,,,,,,,,,,,,,,,
null,,rt_plussign_withcolor1,244427,,,,green,,,null,object_10a.png,object_10c.png,,,,,,,,,,,,,,,,,,
589.9000000059605,,rt_thecrossant_black1,245560,,,,black_plus_sign,,,50,,,1,,,,,,,1,,,,,,,,,,
null,,color_black1,245663,,,,black_plus_sign,,,null,,,,,,,,,,,,,,,,,,,,
null,,learn_phase(without_color)1,249165,,,,black_plus_sign,,,null,object_11a.png,object_02c.png,,,,,,,,,,,,,,,,,,
null,,black_cross(without_color)1,249868,,,,blue,,,null,object_11a.png,object_02c.png,,,,,,,,,,,,,,,,,,
null,,rt_plussign_withcolor1,250370,,,,blue,,,null,object_11a.png,object_02c.png,,,,,,,,,,,,,,,,,,
1515.5,,rt_thecrossant_black1,251671,,,,black_plus_sign,,,49,,,1,,,,,,,1,,,,,,,,,,
null,,color_black1,251772,,,,black_plus_sign,,,null,,,,,,,,,,,,,,,,,,,,
null,,learn_phase(without_color)1,255275,,,,black_plus_sign,,,null,object_12b.png,object_13a.png,,,,,,,,,,,,,,,,,,
null,,black_cross(without_color)1,256261,,,,green,,,null,object_12b.png,object_13a.png,,,,,,,,,,,,,,,,,,
455.3999999910593,,rt_plussign_withcolor1,256763,,,,green,,,50,object_12b.png,object_13a.png,,,,,,,,,,,,,,,,,,
null,,rt_thecrossant_black1,257782,,,,black_plus_sign,,,null,,,1,,,,,,,1,,,,,,,,,,
null,,color_black1,257885,,,,black_plus_sign,,,null,,,,,,,,,,,,,,,,,,,,
null,,learn_phase(without_color)1,261389,,,,black_plus_sign,,,null,object_07a.png,object_05a.png,,,,,,,,,,,,,,,,,,
null,,black_cross(without_color)1,261919,,,,green,,,null,object_07a.png,object_05a.png,,,,,,,,,,,,,,,,,,
null,,rt_plussign_withcolor1,262420,,,,green,,,null,object_07a.png,object_05a.png,,,,,,,,,,,,,,,,,,
1626.6000000089407,,rt_thecrossant_black1,263895,,,,black_plus_sign,,,50,,,1,,,,,,,1,,,,,,,,,,
null,,color_black1,263997,,,,black_plus_sign,,,null,,,,,,,,,,,,,,,,,,,,
null,,learn_phase(without_color)1,267499,,,,black_plus_sign,,,null,object_09c.png,object_04c.png,,,,,,,,,,,,,,,,,,
null,,black_cross(without_color)1,268144,,,,green,,,null,object_09c.png,object_04c.png,,,,,,,,,,,,,,,,,,
null,,rt_plussign_withcolor1,268646,,,,green,,,null,object_09c.png,object_04c.png,,,,,,,,,,,,,,,,,,
1274.2000000029802,,rt_thecrossant_black1,270005,,,,black_plus_sign,,,50,,,1,,,,,,,1,,,,,,,,,,
null,,color_black1,270107,,,,black_plus_sign,,,null,,,,,,,,,,,,,,,,,,,,
null,,learn_phase(without_color)1,273611,,,,black_plus_sign,,,null,object_13c.png,object_10b.png,,,,,,,,,,,,,,,,,,
null,,black_cross(without_color)1,274126,,,,blue,,,null,object_13c.png,object_10b.png,,,,,,,,,,,,,,,,,,
null,,rt_plussign_withcolor1,274628,,,,blue,,,null,object_13c.png,object_10b.png,,,,,,,,,,,,,,,,,,
1318.2999999970198,,rt_thecrossant_black1,276117,,,,black_plus_sign,,,49,,,1,,,,,,,1,,,,,,,,,,
null,,color_black1,276219,,,,black_plus_sign,,,null,,,,,,,,,,,,,,,,,,,,
null,,learn_phase(without_color)1,279721,,,,black_plus_sign,,,null,object_15c.png,object_01c.png,,,,,,,,,,,,,,,,,,
null,,black_cross(without_color)1,280711,,,,blue,,,null,object_15c.png,object_01c.png,,,,,,,,,,,,,,,,,,
null,,rt_plussign_withcolor1,281213,,,,blue,,,null,object_15c.png,object_01c.png,,,,,,,,,,,,,,,,,,
964.3999999910593,,rt_thecrossant_black1,282227,,,,black_plus_sign,,,49,,,1,,,,,,,1,,,,,,,,,,
null,,color_black1,282328,,,,black_plus_sign,,,null,,,,,,,,,,,,,,,,,,,,
null,,thebreak,282432,,,,<p></p>,,,null,,,,,,,,,,,,,,,,,,,,
2779.5999999940395,,intro_0,285213,,,,instruct,,,32,,,,,,,,,,,,,,,,,,,,
4487.20000000298,,directmemory_phase1,289701,,,,object_11b.png,,,49,,,1,,object_15b.png,object_10c.png,object_05c.png,object_15b.png,,1,,1,,,,,,,,
5039.100000008941,,directmemory_phase1,294742,,,,object_07a.png,,,51,,,1,,object_09c.png,object_03a.png,object_05a.png,object_05a.png,,1,,1,,,,,,,,
5341.70000000298,,directmemory_phase1,300085,,,,object_01b.png,,,49,,,1,,object_13b.png,object_15b.png,object_06c.png,object_13b.png,,1,,1,,,,,,,,
5647.5,,directmemory_phase1,305735,,,,object_04c.png,,,49,,,0,,object_06c.png,object_09c.png,object_07b.png,object_09c.png,,0.75,,0,,,,,,,,
4331.699999988079,,directmemory_phase1,310068,,,,object_15a.png,,,49,,,1,,object_07b.png,object_02a.png,object_01c.png,object_07b.png,,0.8,,1,,,,,,,,
3728,,directmemory_phase1,313797,,,,object_10a.png,,,50,,,0,,object_10c.png,object_13c.png,object_11b.png,object_10c.png,,0.6666666666666666,,0,,,,,,,,
4405.899999991059,,directmemory_phase1,318205,,,,object_01c.png,,,51,,,0,,object_15c.png,object_09a.png,object_03a.png,object_15c.png,,0.5714285714285714,,0,,,,,,,,
3805.699999988079,,directmemory_phase1,322013,,,,object_14a.png,,,50,,,0,,object_06a.png,object_02a.png,object_10a.png,object_06a.png,,0.5,,0,,,,,,,,
2823.1000000089407,,directmemory_phase1,324837,,,,object_04a.png,,,51,,,1,,object_15b.png,object_01b.png,object_01a.png,object_01a.png,,0.5555555555555556,,1,,,,,,,,
6086.9000000059605,,directmemory_phase1,330925,,,,object_12b.png,,,50,,,0,,object_13a.png,object_13b.png,object_07a.png,object_13a.png,,0.5,,0,,,,,,,,
4718.29999999702,,directmemory_phase1,335646,,,,object_05c.png,,,50,,,0,,object_13a.png,object_01c.png,object_09a.png,object_09a.png,,0.45454545454545453,,0,,,,,,,,
4295.5,,directmemory_phase1,339944,,,,object_06c.png,,,51,,,1,,object_05a.png,object_01b.png,object_02a.png,object_02a.png,,0.5,,1,,,,,,,,
3452,,directmemory_phase1,343397,,,,object_02c.png,,,51,,,1,,object_01a.png,object_04a.png,object_11a.png,object_11a.png,,0.5384615384615384,,1,,,,,,,,
2870.5,,directmemory_phase1,346270,,,,object_03a.png,,,49,,,1,,object_06b.png,object_01a.png,object_04c.png,object_06b.png,,0.5714285714285714,,1,,,,,,,,
5519.699999988079,,directmemory_phase1,351792,,,,object_10b.png,,,50,,,1,,object_12b.png,object_13c.png,object_07b.png,object_13c.png,,0.6,,1,,,,,,,,
null,,thebreak,351895,,,,<p></p>,,,null,,,,,,,,,,,,,,,,,,,,
1684.5999999940395,,intro_0,353582,,,,instruct,,,32,,,,,,,,,,,,,,,,,,,,
null,,learn_phase(without_color)2,357083,,,,black_plus_sign,,,null,object_11b.png,object_15b.png,,,,,,,,,,,,,,,,,,
null,,black_cross(without_color)2,357844,,,,green,,,null,object_11b.png,object_15b.png,,,,,,,,,,,,,,,,,,
null,,rt_plussign_withcolor2,358346,,,,green,,,null,object_11b.png,object_15b.png,,,,,,,,,,,,,,,,,,
1669.2000000029802,,rt_thecrossant_black2,359591,,,,black_plus_sign,,,50,,,1,,,,,,,1,,,,,,,,,,
null,,color_black2,359692,,,,black_plus_sign,,,null,,,,,,,,,,,,,,,,,,,,
null,,learn_phase(without_color)2,363195,,,,black_plus_sign,,,null,object_01b.png,object_13b.png,,,,,,,,,,,,,,,,,,
null,,black_cross(without_color)2,363879,,,,green,,,null,object_01b.png,object_13b.png,,,,,,,,,,,,,,,,,,
null,,rt_plussign_withcolor2,364382,,,,green,,,null,object_01b.png,object_13b.png,,,,,,,,,,,,,,,,,,
881,,rt_thecrossant_black2,365700,,,,black_plus_sign,,,50,,,1,,,,,,,1,,,,,,,,,,
null,,color_black2,365803,,,,black_plus_sign,,,null,,,,,,,,,,,,,,,,,,,,
null,,learn_phase(without_color)2,369306,,,,black_plus_sign,,,null,object_02c.png,object_11a.png,,,,,,,,,,,,,,,,,,
null,,black_cross(without_color)2,369755,,,,green,,,null,object_02c.png,object_11a.png,,,,,,,,,,,,,,,,,,
null,,rt_plussign_withcolor2,370257,,,,green,,,null,object_02c.png,object_11a.png,,,,,,,,,,,,,,,,,,
850.7000000029802,,rt_thecrossant_black2,371813,,,,black_plus_sign,,,50,,,1,,,,,,,1,,,,,,,,,,
null,,color_black2,371915,,,,black_plus_sign,,,null,,,,,,,,,,,,,,,,,,,,
null,,learn_phase(without_color)2,375418,,,,black_plus_sign,,,null,object_12b.png,object_13a.png,,,,,,,,,,,,,,,,,,
null,,black_cross(without_color)2,376020,,,,blue,,,null,object_12b.png,object_13a.png,,,,,,,,,,,,,,,,,,
null,,rt_plussign_withcolor2,376521,,,,blue,,,null,object_12b.png,object_13a.png,,,,,,,,,,,,,,,,,,
1005.2999999970198,,rt_thecrossant_black2,377923,,,,black_plus_sign,,,49,,,1,,,,,,,1,,,,,,,,,,
null,,color_black2,378026,,,,black_plus_sign,,,null,,,,,,,,,,,,,,,,,,,,
null,,learn_phase(without_color)2,381528,,,,black_plus_sign,,,null,object_05c.png,object_09a.png,,,,,,,,,,,,,,,,,,
null,,black_cross(without_color)2,382481,,,,blue,,,null,object_05c.png,object_09a.png,,,,,,,,,,,,,,,,,,
null,,rt_plussign_withcolor2,382984,,,,blue,,,null,object_05c.png,object_09a.png,,,,,,,,,,,,,,,,,,
1216.0999999940395,,rt_thecrossant_black2,384036,,,,black_plus_sign,,,49,,,1,,,,,,,1,,,,,,,,,,
null,,color_black2,384138,,,,black_plus_sign,,,null,,,,,,,,,,,,,,,,,,,,
null,,learn_phase(without_color)2,387640,,,,black_plus_sign,,,null,object_10c.png,object_10a.png,,,,,,,,,,,,,,,,,,
null,,black_cross(without_color)2,388698,,,,green,,,null,object_10c.png,object_10a.png,,,,,,,,,,,,,,,,,,
482.29999999701977,,rt_plussign_withcolor2,389200,,,,green,,,50,object_10c.png,object_10a.png,,,,,,,,,,,,,,,,,,
null,,rt_thecrossant_black2,390147,,,,black_plus_sign,,,null,,,1,,,,,,,1,,,,,,,,,,
null,,color_black2,390248,,,,black_plus_sign,,,null,,,,,,,,,,,,,,,,,,,,
null,,learn_phase(without_color)2,393751,,,,black_plus_sign,,,null,object_15c.png,object_01c.png,,,,,,,,,,,,,,,,,,
null,,black_cross(without_color)2,394619,,,,blue,,,null,object_15c.png,object_01c.png,,,,,,,,,,,,,,,,,,
null,,rt_plussign_withcolor2,395120,,,,blue,,,null,object_15c.png,object_01c.png,,,,,,,,,,,,,,,,,,
1757.8999999910593,,rt_thecrossant_black2,396258,,,,black_plus_sign,,,49,,,1,,,,,,,1,,,,,,,,,,
null,,color_black2,396360,,,,black_plus_sign,,,null,,,,,,,,,,,,,,,,,,,,
null,,learn_phase(without_color)2,399862,,,,black_plus_sign,,,null,object_14a.png,object_06a.png,,,,,,,,,,,,,,,,,,
null,,black_cross(without_color)2,400891,,,,blue,,,null,object_14a.png,object_06a.png,,,,,,,,,,,,,,,,,,
null,,rt_plussign_withcolor2,401395,,,,blue,,,null,object_14a.png,object_06a.png,,,,,,,,,,,,,,,,,,
1332.9000000059605,,rt_thecrossant_black2,402369,,,,black_plus_sign,,,49,,,1,,,,,,,1,,,,,,,,,,
null,,color_black2,402472,,,,black_plus_sign,,,null,,,,,,,,,,,,,,,,,,,,
null,,learn_phase(without_color)2,405974,,,,black_plus_sign,,,null,object_13c.png,object_10b.png,,,,,,,,,,,,,,,,,,
null,,black_cross(without_color)2,406605,,,,green,,,null,object_13c.png,object_10b.png,,,,,,,,,,,,,,,,,,
null,,rt_plussign_withcolor2,407107,,,,green,,,null,object_13c.png,object_10b.png,,,,,,,,,,,,,,,,,,
1361.7000000029802,,rt_thecrossant_black2,408481,,,,black_plus_sign,,,50,,,1,,,,,,,1,,,,,,,,,,
null,,color_black2,408582,,,,black_plus_sign,,,null,,,,,,,,,,,,,,,,,,,,
null,,learn_phase(without_color)2,412085,,,,black_plus_sign,,,null,object_04a.png,object_01a.png,,,,,,,,,,,,,,,,,,
null,,black_cross(without_color)2,412739,,,,blue,,,null,object_04a.png,object_01a.png,,,,,,,,,,,,,,,,,,
null,,rt_plussign_withcolor2,413242,,,,blue,,,null,object_04a.png,object_01a.png,,,,,,,,,,,,,,,,,,
1313,,rt_thecrossant_black2,414594,,,,black_plus_sign,,,49,,,1,,,,,,,1,,,,,,,,,,
null,,color_black2,414696,,,,black_plus_sign,,,null,,,,,,,,,,,,,,,,,,,,
null,,learn_phase(without_color)2,418199,,,,black_plus_sign,,,null,object_02a.png,object_06c.png,,,,,,,,,,,,,,,,,,
null,,black_cross(without_color)2,419280,,,,blue,,,null,object_02a.png,object_06c.png,,,,,,,,,,,,,,,,,,
null,,rt_plussign_withcolor2,419781,,,,blue,,,null,object_02a.png,object_06c.png,,,,,,,,,,,,,,,,,,
1616.0999999940395,,rt_thecrossant_black2,420703,,,,black_plus_sign,,,49,,,1,,,,,,,1,,,,,,,,,,
null,,color_black2,420810,,,,black_plus_sign,,,null,,,,,,,,,,,,,,,,,,,,
null,,learn_phase(without_color)2,424314,,,,black_plus_sign,,,null,object_06b.png,object_03a.png,,,,,,,,,,,,,,,,,,
null,,black_cross(without_color)2,424817,,,,green,,,null,object_06b.png,object_03a.png,,,,,,,,,,,,,,,,,,
null,,rt_plussign_withcolor2,425319,,,,green,,,null,object_06b.png,object_03a.png,,,,,,,,,,,,,,,,,,
1639.1000000089407,,rt_thecrossant_black2,426822,,,,black_plus_sign,,,50,,,1,,,,,,,1,,,,,,,,,,
null,,color_black2,426924,,,,black_plus_sign,,,null,,,,,,,,,,,,,,,,,,,,
null,,learn_phase(without_color)2,430427,,,,black_plus_sign,,,null,object_15a.png,object_07b.png,,,,,,,,,,,,,,,,,,
null,,black_cross(without_color)2,431241,,,,blue,,,null,object_15a.png,object_07b.png,,,,,,,,,,,,,,,,,,
null,,rt_plussign_withcolor2,431743,,,,blue,,,null,object_15a.png,object_07b.png,,,,,,,,,,,,,,,,,,
981.6000000089407,,rt_thecrossant_black2,432934,,,,black_plus_sign,,,49,,,1,,,,,,,1,,,,,,,,,,
null,,color_black2,433036,,,,black_plus_sign,,,null,,,,,,,,,,,,,,,,,,,,
null,,learn_phase(without_color)2,436539,,,,black_plus_sign,,,null,object_05a.png,object_07a.png,,,,,,,,,,,,,,,,,,
null,,black_cross(without_color)2,437377,,,,blue,,,null,object_05a.png,object_07a.png,,,,,,,,,,,,,,,,,,
null,,rt_plussign_withcolor2,437879,,,,blue,,,null,object_05a.png,object_07a.png,,,,,,,,,,,,,,,,,,
1419.2000000029802,,rt_thecrossant_black2,439046,,,,black_plus_sign,,,49,,,1,,,,,,,1,,,,,,,,,,
null,,color_black2,439148,,,,black_plus_sign,,,null,,,,,,,,,,,,,,,,,,,,
null,,learn_phase(without_color)2,442651,,,,black_plus_sign,,,null,object_04c.png,object_09c.png,,,,,,,,,,,,,,,,,,
null,,black_cross(without_color)2,443654,,,,green,,,null,object_04c.png,object_09c.png,,,,,,,,,,,,,,,,,,
null,,rt_plussign_withcolor2,444156,,,,green,,,null,object_04c.png,object_09c.png,,,,,,,,,,,,,,,,,,
1297.2999999970198,,rt_thecrossant_black2,445156,,,,black_plus_sign,,,50,,,1,,,,,,,1,,,,,,,,,,
null,,color_black2,445258,,,,black_plus_sign,,,null,,,,,,,,,,,,,,,,,,,,
null,,thebreak,445361,,,,<p></p>,,,null,,,,,,,,,,,,,,,,,,,,
1635.699999988079,,intro_0,446997,,,,instruct,,,32,,,,,,,,,,,,,,,,,,,,
6191.0999999940395,,directmemory_phase2,453190,,,,object_14a.png,,,51,,,1,,object_02a.png,object_10b.png,object_06a.png,object_06a.png,,0.625,,1,,,,,,,,
6510.0999999940395,,directmemory_phase2,459702,,,,object_04c.png,,,50,,,0,,object_09c.png,object_05a.png,object_15a.png,object_09c.png,,0.5882352941176471,,0,,,,,,,,
3973.5999999940395,,directmemory_phase2,463677,,,,object_15a.png,,,50,,,1,,object_10b.png,object_07b.png,object_15b.png,object_07b.png,,0.6111111111111112,,1,,,,,,,,
4054.7999999970198,,directmemory_phase2,467733,,,,object_11b.png,,,49,,,1,,object_15b.png,object_09c.png,object_03a.png,object_15b.png,,0.631578947368421,,1,,,,,,,,
5238.300000011921,,directmemory_phase2,472974,,,,object_06c.png,,,51,,,1,,object_06b.png,object_01c.png,object_02a.png,object_02a.png,,0.65,,1,,,,,,,,
3573.2999999970198,,directmemory_phase2,476549,,,,object_05c.png,,,49,,,1,,object_09a.png,object_01a.png,object_04a.png,object_09a.png,,0.6666666666666666,,1,,,,,,,,
2710.4000000059605,,directmemory_phase2,479261,,,,object_03a.png,,,50,,,1,,object_11b.png,object_06b.png,object_09a.png,object_06b.png,,0.6818181818181818,,1,,,,,,,,
3192.3999999910593,,directmemory_phase2,482454,,,,object_10a.png,,,49,,,0,,object_15b.png,object_04a.png,object_10c.png,object_10c.png,,0.6521739130434783,,0,,,,,,,,
4877.20000000298,,directmemory_phase2,487333,,,,object_01b.png,,,51,,,1,,object_06a.png,object_04c.png,object_13b.png,object_13b.png,,0.6666666666666666,,1,,,,,,,,
4204.79999999702,,directmemory_phase2,491540,,,,object_12b.png,,,49,,,0,,object_15a.png,object_13a.png,object_15c.png,object_13a.png,,0.64,,0,,,,,,,,
2001.2999999970198,,directmemory_phase2,493543,,,,object_07a.png,,,50,,,1,,object_06c.png,object_05a.png,object_13b.png,object_05a.png,,0.6538461538461539,,1,,,,,,,,
3797.7000000029802,,directmemory_phase2,497343,,,,object_02c.png,,,49,,,0,,object_06a.png,object_04c.png,object_11a.png,object_11a.png,,0.6296296296296297,,0,,,,,,,,
3028.5,,directmemory_phase2,500373,,,,object_10b.png,,,51,,,1,,object_06b.png,object_03a.png,object_13c.png,object_13c.png,,0.6428571428571429,,1,,,,,,,,
5551,,directmemory_phase2,505926,,,,object_01c.png,,,49,,,0,,object_06c.png,object_15c.png,object_07b.png,object_15c.png,,0.6206896551724138,,0,,,,,,,,
2332.0999999940395,,directmemory_phase2,508260,,,,object_04a.png,,,50,,,1,,object_01c.png,object_01a.png,object_13b.png,object_01a.png,,0.6333333333333333,,1,,,,,,,,
null,,thebreak,508365,,,,<p></p>,,,null,,,,,,,,,,,,,,,,,,,,
1479,,intro_0,509846,,,,instruct,,,32,,,,,,,,,,,,,,,,,,,,
null,,learn_phase(without_color)3,513348,,,,black_plus_sign,,,null,object_06a.png,object_14a.png,,,,,,,,,,,,,,,,,,
null,,black_cross(without_color)3,513754,,,,green,,,null,object_06a.png,object_14a.png,,,,,,,,,,,,,,,,,,
null,,rt_plussign_withcolor3,514256,,,,green,,,null,object_06a.png,object_14a.png,,,,,,,,,,,,,,,,,,
1588.2000000029802,,rt_thecrossant_black3,515853,,,,black_plus_sign,,,50,,,1,,,,,,,1,,,,,,,,,,
null,,color_black3,515957,,,,black_plus_sign,,,null,,,,,,,,,,,,,,,,,,,,
null,,learn_phase(without_color)3,519461,,,,black_plus_sign,,,null,object_07a.png,object_05a.png,,,,,,,,,,,,,,,,,,
null,,black_cross(without_color)3,520376,,,,green,,,null,object_07a.png,object_05a.png,,,,,,,,,,,,,,,,,,
null,,rt_plussign_withcolor3,520878,,,,green,,,null,object_07a.png,object_05a.png,,,,,,,,,,,,,,,,,,
752.0999999940395,,rt_thecrossant_black3,521967,,,,black_plus_sign,,,50,,,1,,,,,,,1,,,,,,,,,,
null,,color_black3,522068,,,,black_plus_sign,,,null,,,,,,,,,,,,,,,,,,,,
null,,learn_phase(without_color)3,525572,,,,black_plus_sign,,,null,object_13b.png,object_01b.png,,,,,,,,,,,,,,,,,,
null,,black_cross(without_color)3,526218,,,,blue,,,null,object_13b.png,object_01b.png,,,,,,,,,,,,,,,,,,
null,,rt_plussign_withcolor3,526720,,,,blue,,,null,object_13b.png,object_01b.png,,,,,,,,,,,,,,,,,,
1458.2999999970198,,rt_thecrossant_black3,528078,,,,black_plus_sign,,,49,,,1,,,,,,,1,,,,,,,,,,
null,,color_black3,528181,,,,black_plus_sign,,,null,,,,,,,,,,,,,,,,,,,,
null,,learn_phase(without_color)3,531683,,,,black_plus_sign,,,null,object_07b.png,object_15a.png,,,,,,,,,,,,,,,,,,
null,,black_cross(without_color)3,532748,,,,blue,,,null,object_07b.png,object_15a.png,,,,,,,,,,,,,,,,,,
null,,rt_plussign_withcolor3,533250,,,,blue,,,null,object_07b.png,object_15a.png,,,,,,,,,,,,,,,,,,
985,,rt_thecrossant_black3,534190,,,,black_plus_sign,,,50,,,0,,,,,,,0.75,,,,,,,,,,
null,,color_black3,534294,,,,black_plus_sign,,,null,,,,,,,,,,,,,,,,,,,,
null,,learn_phase(without_color)3,537797,,,,black_plus_sign,,,null,object_06c.png,object_02a.png,,,,,,,,,,,,,,,,,,
null,,black_cross(without_color)3,538392,,,,blue,,,null,object_06c.png,object_02a.png,,,,,,,,,,,,,,,,,,
null,,rt_plussign_withcolor3,538894,,,,blue,,,null,object_06c.png,object_02a.png,,,,,,,,,,,,,,,,,,
1352.5,,rt_thecrossant_black3,540304,,,,black_plus_sign,,,49,,,1,,,,,,,0.8,,,,,,,,,,
null,,color_black3,540407,,,,black_plus_sign,,,null,,,,,,,,,,,,,,,,,,,,
null,,learn_phase(without_color)3,543909,,,,black_plus_sign,,,null,object_05c.png,object_09a.png,,,,,,,,,,,,,,,,,,
null,,black_cross(without_color)3,544588,,,,green,,,null,object_05c.png,object_09a.png,,,,,,,,,,,,,,,,,,
null,,rt_plussign_withcolor3,545090,,,,green,,,null,object_05c.png,object_09a.png,,,,,,,,,,,,,,,,,,
1183.0999999940395,,rt_thecrossant_black3,546415,,,,black_plus_sign,,,50,,,1,,,,,,,0.8333333333333334,,,,,,,,,,
null,,color_black3,546517,,,,black_plus_sign,,,null,,,,,,,,,,,,,,,,,,,,
null,,learn_phase(without_color)3,550019,,,,black_plus_sign,,,null,object_11a.png,object_02c.png,,,,,,,,,,,,,,,,,,
null,,black_cross(without_color)3,550952,,,,blue,,,null,object_11a.png,object_02c.png,,,,,,,,,,,,,,,,,,
null,,rt_plussign_withcolor3,551454,,,,blue,,,null,object_11a.png,object_02c.png,,,,,,,,,,,,,,,,,,
1054.7000000029802,,rt_thecrossant_black3,552527,,,,black_plus_sign,,,49,,,1,,,,,,,0.8571428571428571,,,,,,,,,,
null,,color_black3,552629,,,,black_plus_sign,,,null,,,,,,,,,,,,,,,,,,,,
null,,learn_phase(without_color)3,556133,,,,black_plus_sign,,,null,object_15b.png,object_11b.png,,,,,,,,,,,,,,,,,,
null,,black_cross(without_color)3,557194,,,,blue,,,null,object_15b.png,object_11b.png,,,,,,,,,,,,,,,,,,
null,,rt_plussign_withcolor3,557695,,,,blue,,,null,object_15b.png,object_11b.png,,,,,,,,,,,,,,,,,,
1626.7000000029802,,rt_thecrossant_black3,558639,,,,black_plus_sign,,,49,,,1,,,,,,,0.875,,,,,,,,,,
null,,color_black3,558742,,,,black_plus_sign,,,null,,,,,,,,,,,,,,,,,,,,
null,,learn_phase(without_color)3,562244,,,,black_plus_sign,,,null,object_13a.png,object_12b.png,,,,,,,,,,,,,,,,,,
null,,black_cross(without_color)3,562780,,,,green,,,null,object_13a.png,object_12b.png,,,,,,,,,,,,,,,,,,
null,,rt_plussign_withcolor3,563282,,,,green,,,null,object_13a.png,object_12b.png,,,,,,,,,,,,,,,,,,
1438.2999999970198,,rt_thecrossant_black3,564751,,,,black_plus_sign,,,50,,,1,,,,,,,0.8888888888888888,,,,,,,,,,
null,,color_black3,564855,,,,black_plus_sign,,,null,,,,,,,,,,,,,,,,,,,,
null,,learn_phase(without_color)3,568366,,,,black_plus_sign,,,null,object_03a.png,object_06b.png,,,,,,,,,,,,,,,,,,
null,,black_cross(without_color)3,568811,,,,blue,,,null,object_03a.png,object_06b.png,,,,,,,,,,,,,,,,,,
null,,rt_plussign_withcolor3,569312,,,,blue,,,null,object_03a.png,object_06b.png,,,,,,,,,,,,,,,,,,
1053.1000000089407,,rt_thecrossant_black3,570870,,,,black_plus_sign,,,49,,,1,,,,,,,0.9,,,,,,,,,,
null,,color_black3,570974,,,,black_plus_sign,,,null,,,,,,,,,,,,,,,,,,,,
null,,learn_phase(without_color)3,574477,,,,black_plus_sign,,,null,object_15c.png,object_01c.png,,,,,,,,,,,,,,,,,,
null,,black_cross(without_color)3,575133,,,,blue,,,null,object_15c.png,object_01c.png,,,,,,,,,,,,,,,,,,
null,,rt_plussign_withcolor3,575635,,,,blue,,,null,object_15c.png,object_01c.png,,,,,,,,,,,,,,,,,,
936.5,,rt_thecrossant_black3,576985,,,,black_plus_sign,,,49,,,1,,,,,,,0.9090909090909091,,,,,,,,,,
null,,color_black3,577087,,,,black_plus_sign,,,null,,,,,,,,,,,,,,,,,,,,
null,,learn_phase(without_color)3,580591,,,,black_plus_sign,,,null,object_13c.png,object_10b.png,,,,,,,,,,,,,,,,,,
null,,black_cross(without_color)3,581478,,,,blue,,,null,object_13c.png,object_10b.png,,,,,,,,,,,,,,,,,,
null,,rt_plussign_withcolor3,581979,,,,blue,,,null,object_13c.png,object_10b.png,,,,,,,,,,,,,,,,,,
1417.2999999970198,,rt_thecrossant_black3,583097,,,,black_plus_sign,,,49,,,1,,,,,,,0.9166666666666666,,,,,,,,,,
null,,color_black3,583199,,,,black_plus_sign,,,null,,,,,,,,,,,,,,,,,,,,
null,,learn_phase(without_color)3,586702,,,,black_plus_sign,,,null,object_10a.png,object_10c.png,,,,,,,,,,,,,,,,,,
null,,black_cross(without_color)3,587231,,,,blue,,,null,object_10a.png,object_10c.png,,,,,,,,,,,,,,,,,,
null,,rt_plussign_withcolor3,587734,,,,blue,,,null,object_10a.png,object_10c.png,,,,,,,,,,,,,,,,,,
1518,,rt_thecrossant_black3,589208,,,,black_plus_sign,,,49,,,1,,,,,,,0.9230769230769231,,,,,,,,,,
null,,color_black3,589310,,,,black_plus_sign,,,null,,,,,,,,,,,,,,,,,,,,
null,,learn_phase(without_color)3,592811,,,,black_plus_sign,,,null,object_04c.png,object_09c.png,,,,,,,,,,,,,,,,,,
null,,black_cross(without_color)3,593361,,,,green,,,null,object_04c.png,object_09c.png,,,,,,,,,,,,,,,,,,
null,,rt_plussign_withcolor3,593863,,,,green,,,null,object_04c.png,object_09c.png,,,,,,,,,,,,,,,,,,
1472.2000000029802,,rt_thecrossant_black3,595327,,,,black_plus_sign,,,50,,,1,,,,,,,0.9285714285714286,,,,,,,,,,
null,,color_black3,595429,,,,black_plus_sign,,,null,,,,,,,,,,,,,,,,,,,,
null,,learn_phase(without_color)3,598931,,,,black_plus_sign,,,null,object_04a.png,object_01a.png,,,,,,,,,,,,,,,,,,
null,,black_cross(without_color)3,599421,,,,blue,,,null,object_04a.png,object_01a.png,,,,,,,,,,,,,,,,,,
null,,rt_plussign_withcolor3,599923,,,,blue,,,null,object_04a.png,object_01a.png,,,,,,,,,,,,,,,,,,
1440,,rt_thecrossant_black3,601438,,,,black_plus_sign,,,49,,,1,,,,,,,0.9333333333333333,,,,,,,,,,
null,,color_black3,601541,,,,black_plus_sign,,,null,,,,,,,,,,,,,,,,,,,,
null,,thebreak,601643,,,,<p></p>,,,null,,,,,,,,,,,,,,,,,,,,
1425.1000000089407,,intro_0,603070,,,,instruct,,,32,,,,,,,,,,,,,,,,,,,,
6237.70000000298,,directmemory_phase3,609308,,,,object_10a.png,,,49,,,0,,object_15c.png,object_14a.png,object_10c.png,object_10c.png,,0.6129032258064516,,0,,,,,,,,
4719.5999999940395,,directmemory_phase3,614029,,,,object_04c.png,,,49,,,0,,object_01c.png,object_09c.png,object_05a.png,object_09c.png,,0.59375,,0,,,,,,,,
6124.70000000298,,directmemory_phase3,620156,,,,object_06c.png,,,51,,,0,,object_04c.png,object_02a.png,object_06a.png,object_02a.png,,0.5757575757575758,,0,,,,,,,,
2240.2999999970198,,directmemory_phase3,622398,,,,object_15a.png,,,49,,,1,,object_07b.png,object_15c.png,object_03a.png,object_07b.png,,0.5882352941176471,,1,,,,,,,,
1717.9000000059605,,directmemory_phase3,624117,,,,object_07a.png,,,50,,,1,,object_10b.png,object_05a.png,object_06a.png,object_05a.png,,0.6,,1,,,,,,,,
5134.5,,directmemory_phase3,629253,,,,object_01c.png,,,51,,,1,,object_02a.png,object_14a.png,object_15c.png,object_15c.png,,0.6111111111111112,,1,,,,,,,,
2038.9000000059605,,directmemory_phase3,631294,,,,object_14a.png,,,50,,,0,,object_06a.png,object_06b.png,object_03a.png,object_06a.png,,0.5945945945945946,,0,,,,,,,,
6131.600000008941,,directmemory_phase3,637428,,,,object_12b.png,,,50,,,0,,object_05a.png,object_10b.png,object_13a.png,object_13a.png,,0.5789473684210527,,0,,,,,,,,
3808.4000000059605,,directmemory_phase3,641238,,,,object_11b.png,,,50,,,0,,object_15b.png,object_09a.png,object_01b.png,object_15b.png,,0.5641025641025641,,0,,,,,,,,
2462,,directmemory_phase3,643703,,,,object_03a.png,,,51,,,1,,object_09a.png,object_11b.png,object_06b.png,object_06b.png,,0.575,,1,,,,,,,,
3634.9000000059605,,directmemory_phase3,647341,,,,object_10b.png,,,49,,,1,,object_13c.png,object_09a.png,object_12b.png,object_13c.png,,0.5853658536585366,,1,,,,,,,,
4678.20000000298,,directmemory_phase3,652021,,,,object_01b.png,,,50,,,1,,object_04a.png,object_13b.png,object_06b.png,object_13b.png,,0.5952380952380952,,1,,,,,,,,
5893.70000000298,,directmemory_phase3,657918,,,,object_02c.png,,,51,,,1,,object_06b.png,object_05c.png,object_11a.png,object_11a.png,,0.6046511627906976,,1,,,,,,,,
5839.5999999940395,,directmemory_phase3,663759,,,,object_05c.png,,,49,,,0,,object_11b.png,object_09a.png,object_02a.png,object_09a.png,,0.5909090909090909,,0,,,,,,,,
3181.5999999940395,,directmemory_phase3,666943,,,,object_04a.png,,,51,,,1,,object_05a.png,object_04c.png,object_01a.png,object_01a.png,,0.6,,1,,,,,,,,
null,,thebreak,667045,,,,<p></p>,,,null,,,,,,,,,,,,,,,,,,,,
1551.2999999970198,,intro_0,668598,,,,instruct,,,32,,,,,,,,,,,,,,,,,,,,
null,,learn_phase(without_color)4,672099,,,,black_plus_sign,,,null,object_05a.png,object_07a.png,,,,,,,,,,,,,,,,,,
null,,black_cross(without_color)4,672693,,,,blue,,,null,object_05a.png,object_07a.png,,,,,,,,,,,,,,,,,,
null,,rt_plussign_withcolor4,673194,,,,blue,,,null,object_05a.png,object_07a.png,,,,,,,,,,,,,,,,,,
1485.5,,rt_thecrossant_black4,674605,,,,black_plus_sign,,,49,,,1,,,,,,,1,,,,,,,,,,
null,,color_black4,674708,,,,black_plus_sign,,,null,,,,,,,,,,,,,,,,,,,,
null,,learn_phase(without_color)4,678209,,,,black_plus_sign,,,null,object_15a.png,object_07b.png,,,,,,,,,,,,,,,,,,
null,,black_cross(without_color)4,678612,,,,blue,,,null,object_15a.png,object_07b.png,,,,,,,,,,,,,,,,,,
null,,rt_plussign_withcolor4,679114,,,,blue,,,null,object_15a.png,object_07b.png,,,,,,,,,,,,,,,,,,
1332.2999999970198,,rt_thecrossant_black4,680716,,,,black_plus_sign,,,49,,,1,,,,,,,1,,,,,,,,,,
null,,color_black4,680819,,,,black_plus_sign,,,null,,,,,,,,,,,,,,,,,,,,
null,,learn_phase(without_color)4,684321,,,,black_plus_sign,,,null,object_09a.png,object_05c.png,,,,,,,,,,,,,,,,,,
null,,black_cross(without_color)4,685370,,,,blue,,,null,object_09a.png,object_05c.png,,,,,,,,,,,,,,,,,,
null,,rt_plussign_withcolor4,685872,,,,blue,,,null,object_09a.png,object_05c.png,,,,,,,,,,,,,,,,,,
648.6000000089407,,rt_thecrossant_black4,686827,,,,black_plus_sign,,,49,,,1,,,,,,,1,,,,,,,,,,
null,,color_black4,686929,,,,black_plus_sign,,,null,,,,,,,,,,,,,,,,,,,,
null,,learn_phase(without_color)4,690431,,,,black_plus_sign,,,null,object_12b.png,object_13a.png,,,,,,,,,,,,,,,,,,
null,,black_cross(without_color)4,691409,,,,blue,,,null,object_12b.png,object_13a.png,,,,,,,,,,,,,,,,,,
null,,rt_plussign_withcolor4,691911,,,,blue,,,null,object_12b.png,object_13a.png,,,,,,,,,,,,,,,,,,
1360.7999999970198,,rt_thecrossant_black4,692937,,,,black_plus_sign,,,49,,,1,,,,,,,1,,,,,,,,,,
null,,color_black4,693039,,,,black_plus_sign,,,null,,,,,,,,,,,,,,,,,,,,
null,,learn_phase(without_color)4,696542,,,,black_plus_sign,,,null,object_10c.png,object_10a.png,,,,,,,,,,,,,,,,,,
null,,black_cross(without_color)4,697098,,,,green,,,null,object_10c.png,object_10a.png,,,,,,,,,,,,,,,,,,
null,,rt_plussign_withcolor4,697600,,,,green,,,null,object_10c.png,object_10a.png,,,,,,,,,,,,,,,,,,
1664.199999988079,,rt_thecrossant_black4,699048,,,,black_plus_sign,,,50,,,1,,,,,,,1,,,,,,,,,,
null,,color_black4,699150,,,,black_plus_sign,,,null,,,,,,,,,,,,,,,,,,,,
null,,learn_phase(without_color)4,702654,,,,black_plus_sign,,,null,object_06b.png,object_03a.png,,,,,,,,,,,,,,,,,,
null,,black_cross(without_color)4,703611,,,,blue,,,null,object_06b.png,object_03a.png,,,,,,,,,,,,,,,,,,
null,,rt_plussign_withcolor4,704113,,,,blue,,,null,object_06b.png,object_03a.png,,,,,,,,,,,,,,,,,,
1288.1000000089407,,rt_thecrossant_black4,705161,,,,black_plus_sign,,,49,,,1,,,,,,,1,,,,,,,,,,
null,,color_black4,705264,,,,black_plus_sign,,,null,,,,,,,,,,,,,,,,,,,,
null,,learn_phase(without_color)4,708767,,,,black_plus_sign,,,null,object_15b.png,object_11b.png,,,,,,,,,,,,,,,,,,
null,,black_cross(without_color)4,709571,,,,blue,,,null,object_15b.png,object_11b.png,,,,,,,,,,,,,,,,,,
null,,rt_plussign_withcolor4,710074,,,,blue,,,null,object_15b.png,object_11b.png,,,,,,,,,,,,,,,,,,
1122.2000000029802,,rt_thecrossant_black4,711284,,,,black_plus_sign,,,49,,,1,,,,,,,1,,,,,,,,,,
null,,color_black4,711387,,,,black_plus_sign,,,null,,,,,,,,,,,,,,,,,,,,
null,,learn_phase(without_color)4,714889,,,,black_plus_sign,,,null,object_15c.png,object_01c.png,,,,,,,,,,,,,,,,,,
null,,black_cross(without_color)4,715985,,,,blue,,,null,object_15c.png,object_01c.png,,,,,,,,,,,,,,,,,,
null,,rt_plussign_withcolor4,716488,,,,blue,,,null,object_15c.png,object_01c.png,,,,,,,,,,,,,,,,,,
1312.4000000059605,,rt_thecrossant_black4,717396,,,,black_plus_sign,,,49,,,1,,,,,,,1,,,,,,,,,,
null,,color_black4,717500,,,,black_plus_sign,,,null,,,,,,,,,,,,,,,,,,,,
null,,learn_phase(without_color)4,721003,,,,black_plus_sign,,,null,object_06c.png,object_02a.png,,,,,,,,,,,,,,,,,,
null,,black_cross(without_color)4,721416,,,,green,,,null,object_06c.png,object_02a.png,,,,,,,,,,,,,,,,,,
null,,rt_plussign_withcolor4,721918,,,,green,,,null,object_06c.png,object_02a.png,,,,,,,,,,,,,,,,,,
2103,,rt_thecrossant_black4,723509,,,,black_plus_sign,,,50,,,1,,,,,,,1,,,,,,,,,,
null,,color_black4,723611,,,,black_plus_sign,,,null,,,,,,,,,,,,,,,,,,,,
null,,learn_phase(without_color)4,727115,,,,black_plus_sign,,,null,object_04c.png,object_09c.png,,,,,,,,,,,,,,,,,,
null,,black_cross(without_color)4,727686,,,,green,,,null,object_04c.png,object_09c.png,,,,,,,,,,,,,,,,,,
null,,rt_plussign_withcolor4,728197,,,,green,,,null,object_04c.png,object_09c.png,,,,,,,,,,,,,,,,,,
1014.6000000089407,,rt_thecrossant_black4,729629,,,,black_plus_sign,,,50,,,1,,,,,,,1,,,,,,,,,,
null,,color_black4,729731,,,,black_plus_sign,,,null,,,,,,,,,,,,,,,,,,,,
null,,learn_phase(without_color)4,733233,,,,black_plus_sign,,,null,object_14a.png,object_06a.png,,,,,,,,,,,,,,,,,,
null,,black_cross(without_color)4,734060,,,,green,,,null,object_14a.png,object_06a.png,,,,,,,,,,,,,,,,,,
null,,rt_plussign_withcolor4,734562,,,,green,,,null,object_14a.png,object_06a.png,,,,,,,,,,,,,,,,,,
775.6000000089407,,rt_thecrossant_black4,735740,,,,black_plus_sign,,,50,,,1,,,,,,,1,,,,,,,,,,
null,,color_black4,735842,,,,black_plus_sign,,,null,,,,,,,,,,,,,,,,,,,,
null,,learn_phase(without_color)4,739345,,,,black_plus_sign,,,null,object_13b.png,object_01b.png,,,,,,,,,,,,,,,,,,
null,,black_cross(without_color)4,740364,,,,blue,,,null,object_13b.png,object_01b.png,,,,,,,,,,,,,,,,,,
null,,rt_plussign_withcolor4,740866,,,,blue,,,null,object_13b.png,object_01b.png,,,,,,,,,,,,,,,,,,
1774.4000000059605,,rt_thecrossant_black4,741852,,,,black_plus_sign,,,49,,,1,,,,,,,1,,,,,,,,,,
null,,color_black4,741954,,,,black_plus_sign,,,null,,,,,,,,,,,,,,,,,,,,
null,,learn_phase(without_color)4,745457,,,,black_plus_sign,,,null,object_02c.png,object_11a.png,,,,,,,,,,,,,,,,,,
null,,black_cross(without_color)4,746116,,,,blue,,,null,object_02c.png,object_11a.png,,,,,,,,,,,,,,,,,,
null,,rt_plussign_withcolor4,746617,,,,blue,,,null,object_02c.png,object_11a.png,,,,,,,,,,,,,,,,,,
1503.2000000029802,,rt_thecrossant_black4,747962,,,,black_plus_sign,,,49,,,1,,,,,,,1,,,,,,,,,,
null,,color_black4,748065,,,,black_plus_sign,,,null,,,,,,,,,,,,,,,,,,,,
null,,learn_phase(without_color)4,751568,,,,black_plus_sign,,,null,object_13c.png,object_10b.png,,,,,,,,,,,,,,,,,,
null,,black_cross(without_color)4,752294,,,,blue,,,null,object_13c.png,object_10b.png,,,,,,,,,,,,,,,,,,
null,,rt_plussign_withcolor4,752795,,,,blue,,,null,object_13c.png,object_10b.png,,,,,,,,,,,,,,,,,,
1878.2999999970198,,rt_thecrossant_black4,754074,,,,black_plus_sign,,,49,,,1,,,,,,,1,,,,,,,,,,
null,,color_black4,754176,,,,black_plus_sign,,,null,,,,,,,,,,,,,,,,,,,,
null,,learn_phase(without_color)4,757678,,,,black_plus_sign,,,null,object_01a.png,object_04a.png,,,,,,,,,,,,,,,,,,
null,,black_cross(without_color)4,758133,,,,green,,,null,object_01a.png,object_04a.png,,,,,,,,,,,,,,,,,,
null,,rt_plussign_withcolor4,758635,,,,green,,,null,object_01a.png,object_04a.png,,,,,,,,,,,,,,,,,,
1296,,rt_thecrossant_black4,760185,,,,black_plus_sign,,,50,,,1,,,,,,,1,,,,,,,,,,
null,,color_black4,760287,,,,black_plus_sign,,,null,,,,,,,,,,,,,,,,,,,,
null,,thebreak,760390,,,,<p></p>,,,null,,,,,,,,,,,,,,,,,,,,
1940,,intro_0,762332,,,,instruct,,,32,,,,,,,,,,,,,,,,,,,,
5151.9000000059605,,directmemory_phase4,767484,,,,object_12b.png,,,50,,,1,,object_01c.png,object_13a.png,object_13c.png,object_13a.png,,0.6086956521739131,,1,,,,,,,,
2552.5,,directmemory_phase4,770038,,,,object_10a.png,,,49,,,1,,object_10c.png,object_15c.png,object_01b.png,object_10c.png,,0.6170212765957447,,1,,,,,,,,
4388.800000011921,,directmemory_phase4,774429,,,,object_11b.png,,,49,,,1,,object_15b.png,object_05a.png,object_04a.png,object_15b.png,,0.625,,1,,,,,,,,
2246,,directmemory_phase4,776677,,,,object_03a.png,,,50,,,1,,object_05c.png,object_06b.png,object_02a.png,object_06b.png,,0.6326530612244898,,1,,,,,,,,
4903.0999999940395,,directmemory_phase4,781582,,,,object_05c.png,,,51,,,1,,object_15c.png,object_14a.png,object_09a.png,object_09a.png,,0.64,,1,,,,,,,,
3997,,directmemory_phase4,785581,,,,object_02c.png,,,49,,,1,,object_11a.png,object_02a.png,object_10a.png,object_11a.png,,0.6470588235294118,,1,,,,,,,,
4614.399999991059,,directmemory_phase4,790198,,,,object_10b.png,,,51,,,1,,object_09a.png,object_15a.png,object_13c.png,object_13c.png,,0.6538461538461539,,1,,,,,,,,
5836.5999999940395,,directmemory_phase4,796036,,,,object_06c.png,,,51,,,1,,object_15b.png,object_11b.png,object_02a.png,object_02a.png,,0.660377358490566,,1,,,,,,,,
2663.699999988079,,directmemory_phase4,798701,,,,object_04a.png,,,50,,,1,,object_10b.png,object_01a.png,object_07b.png,object_01a.png,,0.6666666666666666,,1,,,,,,,,
5045.600000008941,,directmemory_phase4,803748,,,,object_01c.png,,,49,,,0,,object_06c.png,object_15c.png,object_02a.png,object_15c.png,,0.6545454545454545,,0,,,,,,,,
4536.0999999940395,,directmemory_phase4,808286,,,,object_01b.png,,,49,,,1,,object_13b.png,object_05a.png,object_04a.png,object_13b.png,,0.6607142857142857,,1,,,,,,,,
4062.5999999940395,,directmemory_phase4,812351,,,,object_04c.png,,,51,,,1,,object_09a.png,object_12b.png,object_09c.png,object_09c.png,,0.6666666666666666,,1,,,,,,,,
5795.79999999702,,directmemory_phase4,818149,,,,object_14a.png,,,50,,,1,,object_10b.png,object_06a.png,object_13b.png,object_06a.png,,0.6724137931034483,,1,,,,,,,,
2167.7999999970198,,directmemory_phase4,820319,,,,object_07a.png,,,51,,,1,,object_02a.png,object_11b.png,object_05a.png,object_05a.png,,0.6779661016949152,,1,,,,,,,,
3108.7999999970198,,directmemory_phase4,823430,,,,object_15a.png,,,51,,,1,,object_09c.png,object_05c.png,object_07b.png,object_07b.png,,0.6833333333333333,,1,,,,,,,,
null,,thebreak,823547,,,,<p></p>,,,null,,,,,,,,,,,,,,,,,,,,
1601.5,,intro_0,825150,,,,instruct,,,32,,,,,,,,,,,,,,,,,,,,
null,,learn_phase(without_color)5,828651,,,,black_plus_sign,,,null,object_11c.png,object_02a.png,,,,,,,,,,,,,,,,,,
null,,black_cross(without_color)5,829230,,,,green,,,null,object_11c.png,object_02a.png,,,,,,,,,,,,,,,,,,
null,,rt_plussign_withcolor5,829732,,,,green,,,null,object_11c.png,object_02a.png,,,,,,,,,,,,,,,,,,
1389.0999999940395,,rt_thecrossant_black5,831158,,,,black_plus_sign,,,50,,,1,,,,,,,1,,,,,,,,,,
null,,color_black5,831260,,,,black_plus_sign,,,null,,,,,,,,,,,,,,,,,,,,
null,,learn_phase(without_color)5,834763,,,,black_plus_sign,,,null,object_14b.png,object_13b.png,,,,,,,,,,,,,,,,,,
null,,black_cross(without_color)5,835864,,,,green,,,null,object_14b.png,object_13b.png,,,,,,,,,,,,,,,,,,
null,,rt_plussign_withcolor5,836367,,,,green,,,null,object_14b.png,object_13b.png,,,,,,,,,,,,,,,,,,
738.7999999970198,,rt_thecrossant_black5,837270,,,,black_plus_sign,,,50,,,1,,,,,,,1,,,,,,,,,,
null,,color_black5,837372,,,,black_plus_sign,,,null,,,,,,,,,,,,,,,,,,,,
null,,learn_phase(without_color)5,840874,,,,black_plus_sign,,,null,object_12a.png,object_07b.png,,,,,,,,,,,,,,,,,,
null,,black_cross(without_color)5,841329,,,,blue,,,null,object_12a.png,object_07b.png,,,,,,,,,,,,,,,,,,
null,,rt_plussign_withcolor5,841831,,,,blue,,,null,object_12a.png,object_07b.png,,,,,,,,,,,,,,,,,,
1859.2999999970198,,rt_thecrossant_black5,843380,,,,black_plus_sign,,,50,,,0,,,,,,,0.6666666666666666,,,,,,,,,,
null,,color_black5,843482,,,,black_plus_sign,,,null,,,,,,,,,,,,,,,,,,,,
null,,learn_phase(without_color)5,846984,,,,black_plus_sign,,,null,object_08c.png,object_10c.png,,,,,,,,,,,,,,,,,,
null,,black_cross(without_color)5,848065,,,,blue,,,null,object_08c.png,object_10c.png,,,,,,,,,,,,,,,,,,
null,,rt_plussign_withcolor5,848567,,,,blue,,,null,object_08c.png,object_10c.png,,,,,,,,,,,,,,,,,,
935.2999999970198,,rt_thecrossant_black5,849491,,,,black_plus_sign,,,49,,,1,,,,,,,0.75,,,,,,,,,,
null,,color_black5,849592,,,,black_plus_sign,,,null,,,,,,,,,,,,,,,,,,,,
null,,learn_phase(without_color)5,853094,,,,black_plus_sign,,,null,object_15b.png,object_04b.png,,,,,,,,,,,,,,,,,,
null,,black_cross(without_color)5,853891,,,,green,,,null,object_15b.png,object_04b.png,,,,,,,,,,,,,,,,,,
null,,rt_plussign_withcolor5,854393,,,,green,,,null,object_15b.png,object_04b.png,,,,,,,,,,,,,,,,,,
1669,,rt_thecrossant_black5,855602,,,,black_plus_sign,,,50,,,1,,,,,,,0.8,,,,,,,,,,
null,,color_black5,855703,,,,black_plus_sign,,,null,,,,,,,,,,,,,,,,,,,,
null,,learn_phase(without_color)5,859205,,,,black_plus_sign,,,null,object_09c.png,object_02b.png,,,,,,,,,,,,,,,,,,
null,,black_cross(without_color)5,859695,,,,green,,,null,object_09c.png,object_02b.png,,,,,,,,,,,,,,,,,,
null,,rt_plussign_withcolor5,860197,,,,green,,,null,object_09c.png,object_02b.png,,,,,,,,,,,,,,,,,,
1420.8999999910593,,rt_thecrossant_black5,861712,,,,black_plus_sign,,,50,,,1,,,,,,,0.8333333333333334,,,,,,,,,,
null,,color_black5,861814,,,,black_plus_sign,,,null,,,,,,,,,,,,,,,,,,,,
null,,learn_phase(without_color)5,865317,,,,black_plus_sign,,,null,object_06a.png,object_07c.png,,,,,,,,,,,,,,,,,,
null,,black_cross(without_color)5,866268,,,,green,,,null,object_06a.png,object_07c.png,,,,,,,,,,,,,,,,,,
null,,rt_plussign_withcolor5,866770,,,,green,,,null,object_06a.png,object_07c.png,,,,,,,,,,,,,,,,,,
774.4000000059605,,rt_thecrossant_black5,867824,,,,black_plus_sign,,,50,,,1,,,,,,,0.8571428571428571,,,,,,,,,,
null,,color_black5,867926,,,,black_plus_sign,,,null,,,,,,,,,,,,,,,,,,,,
null,,learn_phase(without_color)5,871429,,,,black_plus_sign,,,null,object_09b.png,object_01a.png,,,,,,,,,,,,,,,,,,
null,,black_cross(without_color)5,871965,,,,blue,,,null,object_09b.png,object_01a.png,,,,,,,,,,,,,,,,,,
null,,rt_plussign_withcolor5,872466,,,,blue,,,null,object_09b.png,object_01a.png,,,,,,,,,,,,,,,,,,
1561.2000000029802,,rt_thecrossant_black5,873934,,,,black_plus_sign,,,49,,,1,,,,,,,0.875,,,,,,,,,,
null,,color_black5,874037,,,,black_plus_sign,,,null,,,,,,,,,,,,,,,,,,,,
null,,learn_phase(without_color)5,877538,,,,black_plus_sign,,,null,object_15c.png,object_03b.png,,,,,,,,,,,,,,,,,,
null,,black_cross(without_color)5,878553,,,,green,,,null,object_15c.png,object_03b.png,,,,,,,,,,,,,,,,,,
null,,rt_plussign_withcolor5,879056,,,,green,,,null,object_15c.png,object_03b.png,,,,,,,,,,,,,,,,,,
1044.5,,rt_thecrossant_black5,880046,,,,black_plus_sign,,,50,,,1,,,,,,,0.8888888888888888,,,,,,,,,,
null,,color_black5,880148,,,,black_plus_sign,,,null,,,,,,,,,,,,,,,,,,,,
null,,learn_phase(without_color)5,883652,,,,black_plus_sign,,,null,object_06b.png,object_08a.png,,,,,,,,,,,,,,,,,,
null,,black_cross(without_color)5,884374,,,,blue,,,null,object_06b.png,object_08a.png,,,,,,,,,,,,,,,,,,
null,,rt_plussign_withcolor5,884876,,,,blue,,,null,object_06b.png,object_08a.png,,,,,,,,,,,,,,,,,,
1553.5999999940395,,rt_thecrossant_black5,886158,,,,black_plus_sign,,,49,,,1,,,,,,,0.9,,,,,,,,,,
null,,color_black5,886260,,,,black_plus_sign,,,null,,,,,,,,,,,,,,,,,,,,
null,,learn_phase(without_color)5,889764,,,,black_plus_sign,,,null,object_05b.png,object_11a.png,,,,,,,,,,,,,,,,,,
null,,black_cross(without_color)5,890384,,,,green,,,null,object_05b.png,object_11a.png,,,,,,,,,,,,,,,,,,
501.20000000298023,,rt_plussign_withcolor5,890887,,,,green,,,50,object_05b.png,object_11a.png,,,,,,,,,,,,,,,,,,
null,,rt_thecrossant_black5,892272,,,,black_plus_sign,,,null,,,1,,,,,,,0.9090909090909091,,,,,,,,,,
null,,color_black5,892374,,,,black_plus_sign,,,null,,,,,,,,,,,,,,,,,,,,
null,,learn_phase(without_color)5,895876,,,,black_plus_sign,,,null,object_13a.png,object_08b.png,,,,,,,,,,,,,,,,,,
null,,black_cross(without_color)5,896649,,,,blue,,,null,object_13a.png,object_08b.png,,,,,,,,,,,,,,,,,,
null,,rt_plussign_withcolor5,897152,,,,blue,,,null,object_13a.png,object_08b.png,,,,,,,,,,,,,,,,,,
955,,rt_thecrossant_black5,898384,,,,black_plus_sign,,,49,,,1,,,,,,,0.9166666666666666,,,,,,,,,,
null,,color_black5,898486,,,,black_plus_sign,,,null,,,,,,,,,,,,,,,,,,,,
null,,learn_phase(without_color)5,901989,,,,black_plus_sign,,,null,object_12c.png,object_05a.png,,,,,,,,,,,,,,,,,,
null,,black_cross(without_color)5,902693,,,,green,,,null,object_12c.png,object_05a.png,,,,,,,,,,,,,,,,,,
null,,rt_plussign_withcolor5,903194,,,,green,,,null,object_12c.png,object_05a.png,,,,,,,,,,,,,,,,,,
1233.5999999940395,,rt_thecrossant_black5,904496,,,,black_plus_sign,,,50,,,1,,,,,,,0.9230769230769231,,,,,,,,,,
null,,color_black5,904598,,,,black_plus_sign,,,null,,,,,,,,,,,,,,,,,,,,
null,,learn_phase(without_color)5,908100,,,,black_plus_sign,,,null,object_03c.png,object_13c.png,,,,,,,,,,,,,,,,,,
null,,black_cross(without_color)5,908808,,,,green,,,null,object_03c.png,object_13c.png,,,,,,,,,,,,,,,,,,
null,,rt_plussign_withcolor5,909310,,,,green,,,null,object_03c.png,object_13c.png,,,,,,,,,,,,,,,,,,
1063.7999999970198,,rt_thecrossant_black5,910608,,,,black_plus_sign,,,50,,,1,,,,,,,0.9285714285714286,,,,,,,,,,
null,,color_black5,910711,,,,black_plus_sign,,,null,,,,,,,,,,,,,,,,,,,,
null,,learn_phase(without_color)5,914215,,,,black_plus_sign,,,null,object_14c.png,object_09a.png,,,,,,,,,,,,,,,,,,
null,,black_cross(without_color)5,915145,,,,blue,,,null,object_14c.png,object_09a.png,,,,,,,,,,,,,,,,,,
null,,rt_plussign_withcolor5,915646,,,,blue,,,null,object_14c.png,object_09a.png,,,,,,,,,,,,,,,,,,
1314.800000011921,,rt_thecrossant_black5,916720,,,,black_plus_sign,,,49,,,1,,,,,,,0.9333333333333333,,,,,,,,,,
null,,color_black5,916824,,,,black_plus_sign,,,null,,,,,,,,,,,,,,,,,,,,
null,,thebreak,916928,,,,<p></p>,,,null,,,,,,,,,,,,,,,,,,,,
1867.5,,intro_0,918797,,,,instruct,,,32,,,,,,,,,,,,,,,,,,,,
6511.20000000298,,directmemory_phase5,925309,,,,object_03b.png,,,50,,,0,,object_13b.png,object_14c.png,object_15c.png,object_15c.png,,0.6721311475409836,,0,,,,,,,,
5464.5,,directmemory_phase5,930776,,,,object_14b.png,,,49,,,0,,object_08b.png,object_13b.png,object_09a.png,object_13b.png,,0.6612903225806451,,0,,,,,,,,
4260.5999999940395,,directmemory_phase5,935039,,,,object_14c.png,,,49,,,0,,object_11c.png,object_09a.png,object_02a.png,object_09a.png,,0.6507936507936508,,0,,,,,,,,
4452.29999999702,,directmemory_phase5,939494,,,,object_06a.png,,,50,,,0,,object_07c.png,object_11c.png,object_09c.png,object_07c.png,,0.640625,,0,,,,,,,,
3381.5999999940395,,directmemory_phase5,942877,,,,object_02a.png,,,51,,,0,,object_11c.png,object_08b.png,object_10c.png,object_11c.png,,0.6307692307692307,,0,,,,,,,,
5918.5999999940395,,directmemory_phase5,948797,,,,object_01a.png,,,49,,,1,,object_09b.png,object_12c.png,object_09c.png,object_09b.png,,0.6363636363636364,,1,,,,,,,,
3894.5999999940395,,directmemory_phase5,952694,,,,object_06b.png,,,51,,,1,,object_11c.png,object_15b.png,object_08a.png,object_08a.png,,0.6417910447761194,,1,,,,,,,,
3821.2000000029802,,directmemory_phase5,956517,,,,object_09c.png,,,49,,,0,,object_12c.png,object_13a.png,object_02b.png,object_02b.png,,0.6323529411764706,,0,,,,,,,,
4327.9000000059605,,directmemory_phase5,960846,,,,object_12c.png,,,50,,,0,,object_02a.png,object_08a.png,object_05a.png,object_05a.png,,0.6231884057971014,,0,,,,,,,,
3924.0999999940395,,directmemory_phase5,964773,,,,object_13c.png,,,51,,,1,,object_07c.png,object_09a.png,object_03c.png,object_03c.png,,0.6285714285714286,,1,,,,,,,,
6031.899999991059,,directmemory_phase5,970806,,,,object_12a.png,,,49,,,1,,object_07b.png,object_09c.png,object_02b.png,object_07b.png,,0.6338028169014085,,1,,,,,,,,
5150,,directmemory_phase5,975959,,,,object_11a.png,,,50,,,0,,object_05b.png,object_14c.png,object_01a.png,object_05b.png,,0.625,,0,,,,,,,,
5468.600000008941,,directmemory_phase5,981430,,,,object_08c.png,,,51,,,1,,object_13b.png,object_11c.png,object_10c.png,object_10c.png,,0.6301369863013698,,1,,,,,,,,
4396.9000000059605,,directmemory_phase5,985829,,,,object_08b.png,,,50,,,0,,object_09a.png,object_07c.png,object_13a.png,object_13a.png,,0.6216216216216216,,0,,,,,,,,
4559,,directmemory_phase5,990390,,,,object_04b.png,,,51,,,1,,object_05a.png,object_07c.png,object_15b.png,object_15b.png,,0.6266666666666667,,1,,,,,,,,
null,,thebreak,990493,,,,<p></p>,,,null,,,,,,,,,,,,,,,,,,,,
1526.3999999910593,,intro_0,992021,,,,instruct,,,32,,,,,,,,,,,,,,,,,,,,
null,,learn_phase(without_color)6,995524,,,,black_plus_sign,,,null,object_15b.png,object_04b.png,,,,,,,,,,,,,,,,,,
null,,black_cross(without_color)6,996614,,,,green,,,null,object_15b.png,object_04b.png,,,,,,,,,,,,,,,,,,
null,,rt_plussign_withcolor6,997115,,,,green,,,null,object_15b.png,object_04b.png,,,,,,,,,,,,,,,,,,
1827.300000011921,,rt_thecrossant_black6,998032,,,,black_plus_sign,,,50,,,1,,,,,,,1,,,,,,,,,,
null,,color_black6,998134,,,,black_plus_sign,,,null,,,,,,,,,,,,,,,,,,,,
null,,learn_phase(without_color)6,1001637,,,,black_plus_sign,,,null,object_12a.png,object_07b.png,,,,,,,,,,,,,,,,,,
null,,black_cross(without_color)6,1002379,,,,blue,,,null,object_12a.png,object_07b.png,,,,,,,,,,,,,,,,,,
null,,rt_plussign_withcolor6,1002881,,,,blue,,,null,object_12a.png,object_07b.png,,,,,,,,,,,,,,,,,,
1652.2999999970198,,rt_thecrossant_black6,1004145,,,,black_plus_sign,,,49,,,1,,,,,,,1,,,,,,,,,,
null,,color_black6,1004248,,,,black_plus_sign,,,null,,,,,,,,,,,,,,,,,,,,
null,,learn_phase(without_color)6,1007751,,,,black_plus_sign,,,null,object_05a.png,object_12c.png,,,,,,,,,,,,,,,,,,
null,,black_cross(without_color)6,1008599,,,,green,,,null,object_05a.png,object_12c.png,,,,,,,,,,,,,,,,,,
null,,rt_plussign_withcolor6,1009102,,,,green,,,null,object_05a.png,object_12c.png,,,,,,,,,,,,,,,,,,
868.6000000089407,,rt_thecrossant_black6,1010259,,,,black_plus_sign,,,50,,,1,,,,,,,1,,,,,,,,,,
null,,color_black6,1010361,,,,black_plus_sign,,,null,,,,,,,,,,,,,,,,,,,,
null,,learn_phase(without_color)6,1013864,,,,black_plus_sign,,,null,object_09b.png,object_01a.png,,,,,,,,,,,,,,,,,,
null,,black_cross(without_color)6,1014849,,,,blue,,,null,object_09b.png,object_01a.png,,,,,,,,,,,,,,,,,,
null,,rt_plussign_withcolor6,1015351,,,,blue,,,null,object_09b.png,object_01a.png,,,,,,,,,,,,,,,,,,
1276.300000011921,,rt_thecrossant_black6,1016371,,,,black_plus_sign,,,49,,,1,,,,,,,1,,,,,,,,,,
null,,color_black6,1016473,,,,black_plus_sign,,,null,,,,,,,,,,,,,,,,,,,,
null,,learn_phase(without_color)6,1019975,,,,black_plus_sign,,,null,object_08b.png,object_13a.png,,,,,,,,,,,,,,,,,,
null,,black_cross(without_color)6,1020771,,,,blue,,,null,object_08b.png,object_13a.png,,,,,,,,,,,,,,,,,,
null,,rt_plussign_withcolor6,1021274,,,,blue,,,null,object_08b.png,object_13a.png,,,,,,,,,,,,,,,,,,
1652.5999999940395,,rt_thecrossant_black6,1022483,,,,black_plus_sign,,,49,,,1,,,,,,,1,,,,,,,,,,
null,,color_black6,1022586,,,,black_plus_sign,,,null,,,,,,,,,,,,,,,,,,,,
null,,learn_phase(without_color)6,1026089,,,,black_plus_sign,,,null,object_06b.png,object_08a.png,,,,,,,,,,,,,,,,,,
null,,black_cross(without_color)6,1026554,,,,green,,,null,object_06b.png,object_08a.png,,,,,,,,,,,,,,,,,,
null,,rt_plussign_withcolor6,1027056,,,,green,,,null,object_06b.png,object_08a.png,,,,,,,,,,,,,,,,,,
1658.3999999910593,,rt_thecrossant_black6,1028596,,,,black_plus_sign,,,50,,,1,,,,,,,1,,,,,,,,,,
null,,color_black6,1028698,,,,black_plus_sign,,,null,,,,,,,,,,,,,,,,,,,,
null,,learn_phase(without_color)6,1032202,,,,black_plus_sign,,,null,object_13c.png,object_03c.png,,,,,,,,,,,,,,,,,,
null,,black_cross(without_color)6,1032942,,,,blue,,,null,object_13c.png,object_03c.png,,,,,,,,,,,,,,,,,,
null,,rt_plussign_withcolor6,1033444,,,,blue,,,null,object_13c.png,object_03c.png,,,,,,,,,,,,,,,,,,
1082.2999999970198,,rt_thecrossant_black6,1034707,,,,black_plus_sign,,,49,,,1,,,,,,,1,,,,,,,,,,
null,,color_black6,1034810,,,,black_plus_sign,,,null,,,,,,,,,,,,,,,,,,,,
null,,learn_phase(without_color)6,1038312,,,,black_plus_sign,,,null,object_07c.png,object_06a.png,,,,,,,,,,,,,,,,,,
null,,black_cross(without_color)6,1039005,,,,blue,,,null,object_07c.png,object_06a.png,,,,,,,,,,,,,,,,,,
null,,rt_plussign_withcolor6,1039508,,,,blue,,,null,object_07c.png,object_06a.png,,,,,,,,,,,,,,,,,,
1567.9000000059605,,rt_thecrossant_black6,1040819,,,,black_plus_sign,,,49,,,1,,,,,,,1,,,,,,,,,,
null,,color_black6,1040921,,,,black_plus_sign,,,null,,,,,,,,,,,,,,,,,,,,
null,,learn_phase(without_color)6,1044424,,,,black_plus_sign,,,null,object_11a.png,object_05b.png,,,,,,,,,,,,,,,,,,
null,,black_cross(without_color)6,1044957,,,,blue,,,null,object_11a.png,object_05b.png,,,,,,,,,,,,,,,,,,
null,,rt_plussign_withcolor6,1045459,,,,blue,,,null,object_11a.png,object_05b.png,,,,,,,,,,,,,,,,,,
1121,,rt_thecrossant_black6,1046933,,,,black_plus_sign,,,49,,,1,,,,,,,1,,,,,,,,,,
null,,color_black6,1047035,,,,black_plus_sign,,,null,,,,,,,,,,,,,,,,,,,,
null,,learn_phase(without_color)6,1050537,,,,black_plus_sign,,,null,object_02a.png,object_11c.png,,,,,,,,,,,,,,,,,,
null,,black_cross(without_color)6,1051503,,,,green,,,null,object_02a.png,object_11c.png,,,,,,,,,,,,,,,,,,
null,,rt_plussign_withcolor6,1052004,,,,green,,,null,object_02a.png,object_11c.png,,,,,,,,,,,,,,,,,,
822.4000000059605,,rt_thecrossant_black6,1053043,,,,black_plus_sign,,,50,,,1,,,,,,,1,,,,,,,,,,
null,,color_black6,1053145,,,,black_plus_sign,,,null,,,,,,,,,,,,,,,,,,,,
null,,learn_phase(without_color)6,1056648,,,,black_plus_sign,,,null,object_03b.png,object_15c.png,,,,,,,,,,,,,,,,,,
null,,black_cross(without_color)6,1057168,,,,green,,,null,object_03b.png,object_15c.png,,,,,,,,,,,,,,,,,,
null,,rt_plussign_withcolor6,1057670,,,,green,,,null,object_03b.png,object_15c.png,,,,,,,,,,,,,,,,,,
1356.699999988079,,rt_thecrossant_black6,1059157,,,,black_plus_sign,,,50,,,1,,,,,,,1,,,,,,,,,,
null,,color_black6,1059259,,,,black_plus_sign,,,null,,,,,,,,,,,,,,,,,,,,
null,,learn_phase(without_color)6,1062762,,,,black_plus_sign,,,null,object_14b.png,object_13b.png,,,,,,,,,,,,,,,,,,
null,,black_cross(without_color)6,1063237,,,,blue,,,null,object_14b.png,object_13b.png,,,,,,,,,,,,,,,,,,
null,,rt_plussign_withcolor6,1063739,,,,blue,,,null,object_14b.png,object_13b.png,,,,,,,,,,,,,,,,,,
1088.7999999970198,,rt_thecrossant_black6,1065268,,,,black_plus_sign,,,49,,,1,,,,,,,1,,,,,,,,,,
null,,color_black6,1065369,,,,black_plus_sign,,,null,,,,,,,,,,,,,,,,,,,,
null,,learn_phase(without_color)6,1068872,,,,black_plus_sign,,,null,object_02b.png,object_09c.png,,,,,,,,,,,,,,,,,,
null,,black_cross(without_color)6,1069589,,,,green,,,null,object_02b.png,object_09c.png,,,,,,,,,,,,,,,,,,
null,,rt_plussign_withcolor6,1070092,,,,green,,,null,object_02b.png,object_09c.png,,,,,,,,,,,,,,,,,,
605.5,,rt_thecrossant_black6,1071381,,,,black_plus_sign,,,50,,,1,,,,,,,1,,,,,,,,,,
null,,color_black6,1071484,,,,black_plus_sign,,,null,,,,,,,,,,,,,,,,,,,,
null,,learn_phase(without_color)6,1074986,,,,black_plus_sign,,,null,object_08c.png,object_10c.png,,,,,,,,,,,,,,,,,,
null,,black_cross(without_color)6,1076058,,,,green,,,null,object_08c.png,object_10c.png,,,,,,,,,,,,,,,,,,
490.6000000089407,,rt_plussign_withcolor6,1076560,,,,green,,,50,object_08c.png,object_10c.png,,,,,,,,,,,,,,,,,,
null,,rt_thecrossant_black6,1077493,,,,black_plus_sign,,,null,,,1,,,,,,,1,,,,,,,,,,
null,,color_black6,1077595,,,,black_plus_sign,,,null,,,,,,,,,,,,,,,,,,,,
null,,learn_phase(without_color)6,1081097,,,,black_plus_sign,,,null,object_09a.png,object_14c.png,,,,,,,,,,,,,,,,,,
null,,black_cross(without_color)6,1081666,,,,green,,,null,object_09a.png,object_14c.png,,,,,,,,,,,,,,,,,,
null,,rt_plussign_withcolor6,1082168,,,,green,,,null,object_09a.png,object_14c.png,,,,,,,,,,,,,,,,,,
1277.2999999970198,,rt_thecrossant_black6,1083606,,,,black_plus_sign,,,50,,,1,,,,,,,1,,,,,,,,,,
null,,color_black6,1083708,,,,black_plus_sign,,,null,,,,,,,,,,,,,,,,,,,,
null,,thebreak,1083810,,,,<p></p>,,,null,,,,,,,,,,,,,,,,,,,,
2129.5999999940395,,intro_0,1085940,,,,instruct,,,32,,,,,,,,,,,,,,,,,,,,
5072.20000000298,,directmemory_phase6,1091014,,,,object_13a.png,,,49,,,1,,object_08b.png,object_02b.png,object_05a.png,object_08b.png,,0.631578947368421,,1,,,,,,,,
5797.70000000298,,directmemory_phase6,1096813,,,,object_14c.png,,,50,,,1,,object_08c.png,object_09a.png,object_13c.png,object_09a.png,,0.6363636363636364,,1,,,,,,,,
5166.4000000059605,,directmemory_phase6,1101982,,,,object_03c.png,,,49,,,0,,object_03b.png,object_13c.png,object_10c.png,object_13c.png,,0.6282051282051282,,0,,,,,,,,
5717.399999991059,,directmemory_phase6,1107701,,,,object_05b.png,,,50,,,1,,object_12c.png,object_11a.png,object_13b.png,object_11a.png,,0.6329113924050633,,1,,,,,,,,
3461.5,,directmemory_phase6,1111165,,,,object_07b.png,,,51,,,1,,object_03c.png,object_05a.png,object_12a.png,object_12a.png,,0.6375,,1,,,,,,,,
2837,,directmemory_phase6,1114004,,,,object_06b.png,,,51,,,1,,object_03c.png,object_13a.png,object_08a.png,object_08a.png,,0.6419753086419753,,1,,,,,,,,
3072,,directmemory_phase6,1117077,,,,object_12c.png,,,51,,,0,,object_05a.png,object_09c.png,object_03c.png,object_05a.png,,0.6341463414634146,,0,,,,,,,,
3318.7000000029802,,directmemory_phase6,1120397,,,,object_10c.png,,,49,,,1,,object_08c.png,object_02b.png,object_05a.png,object_08c.png,,0.6385542168674698,,1,,,,,,,,
9735.40000000596,,directmemory_phase6,1130135,,,,object_03b.png,,,49,,,1,,object_15c.png,object_09c.png,object_14b.png,object_15c.png,,0.6428571428571429,,1,,,,,,,,
2460.9000000059605,,directmemory_phase6,1132598,,,,object_06a.png,,,50,,,1,,object_01a.png,object_07c.png,object_12a.png,object_07c.png,,0.6470588235294118,,1,,,,,,,,
5028.20000000298,,directmemory_phase6,1137628,,,,object_02b.png,,,49,,,0,,object_02a.png,object_07c.png,object_09c.png,object_09c.png,,0.6395348837209303,,0,,,,,,,,
4600.79999999702,,directmemory_phase6,1142230,,,,object_01a.png,,,51,,,1,,object_12c.png,object_13a.png,object_09b.png,object_09b.png,,0.6436781609195402,,1,,,,,,,,
5877.79999999702,,directmemory_phase6,1148110,,,,object_04b.png,,,51,,,0,,object_12a.png,object_15b.png,object_02a.png,object_15b.png,,0.6363636363636364,,0,,,,,,,,
2957.5,,directmemory_phase6,1151070,,,,object_13b.png,,,50,,,1,,object_13a.png,object_14b.png,object_03c.png,object_14b.png,,0.6404494382022472,,1,,,,,,,,
5230.100000008941,,directmemory_phase6,1156303,,,,object_11c.png,,,50,,,1,,object_02b.png,object_02a.png,object_07b.png,object_02a.png,,0.6444444444444445,,1,,,,,,,,
null,,thebreak,1156405,,,,<p></p>,,,null,,,,,,,,,,,,,,,,,,,,
1726.1000000089407,,intro_0,1158132,,,,instruct,,,32,,,,,,,,,,,,,,,,,,,,
null,,learn_phase(without_color)7,1161635,,,,black_plus_sign,,,null,object_08a.png,object_06b.png,,,,,,,,,,,,,,,,,,
null,,black_cross(without_color)7,1162429,,,,blue,,,null,object_08a.png,object_06b.png,,,,,,,,,,,,,,,,,,
null,,rt_plussign_withcolor7,1162932,,,,blue,,,null,object_08a.png,object_06b.png,,,,,,,,,,,,,,,,,,
1693,,rt_thecrossant_black7,1164142,,,,black_plus_sign,,,49,,,1,,,,,,,1,,,,,,,,,,
null,,color_black7,1164245,,,,black_plus_sign,,,null,,,,,,,,,,,,,,,,,,,,
null,,learn_phase(without_color)7,1167748,,,,black_plus_sign,,,null,object_14b.png,object_13b.png,,,,,,,,,,,,,,,,,,
null,,black_cross(without_color)7,1168190,,,,green,,,null,object_14b.png,object_13b.png,,,,,,,,,,,,,,,,,,
null,,rt_plussign_withcolor7,1168692,,,,green,,,null,object_14b.png,object_13b.png,,,,,,,,,,,,,,,,,,
1612.4000000059605,,rt_thecrossant_black7,1170255,,,,black_plus_sign,,,50,,,1,,,,,,,1,,,,,,,,,,
null,,color_black7,1170357,,,,black_plus_sign,,,null,,,,,,,,,,,,,,,,,,,,
null,,learn_phase(without_color)7,1173860,,,,black_plus_sign,,,null,object_07c.png,object_06a.png,,,,,,,,,,,,,,,,,,
null,,black_cross(without_color)7,1174438,,,,green,,,null,object_07c.png,object_06a.png,,,,,,,,,,,,,,,,,,
null,,rt_plussign_withcolor7,1174950,,,,green,,,null,object_07c.png,object_06a.png,,,,,,,,,,,,,,,,,,
842.7999999970198,,rt_thecrossant_black7,1176377,,,,black_plus_sign,,,50,,,1,,,,,,,1,,,,,,,,,,
null,,color_black7,1176479,,,,black_plus_sign,,,null,,,,,,,,,,,,,,,,,,,,
null,,learn_phase(without_color)7,1179983,,,,black_plus_sign,,,null,object_08b.png,object_13a.png,,,,,,,,,,,,,,,,,,
null,,black_cross(without_color)7,1180878,,,,green,,,null,object_08b.png,object_13a.png,,,,,,,,,,,,,,,,,,
null,,rt_plussign_withcolor7,1181380,,,,green,,,null,object_08b.png,object_13a.png,,,,,,,,,,,,,,,,,,
884.3999999910593,,rt_thecrossant_black7,1182489,,,,black_plus_sign,,,50,,,1,,,,,,,1,,,,,,,,,,
null,,color_black7,1182599,,,,black_plus_sign,,,null,,,,,,,,,,,,,,,,,,,,
null,,learn_phase(without_color)7,1186110,,,,black_plus_sign,,,null,object_02a.png,object_11c.png,,,,,,,,,,,,,,,,,,
null,,black_cross(without_color)7,1186554,,,,green,,,null,object_02a.png,object_11c.png,,,,,,,,,,,,,,,,,,
null,,rt_plussign_withcolor7,1187055,,,,green,,,null,object_02a.png,object_11c.png,,,,,,,,,,,,,,,,,,
1311.5,,rt_thecrossant_black7,1188616,,,,black_plus_sign,,,50,,,1,,,,,,,1,,,,,,,,,,
null,,color_black7,1188719,,,,black_plus_sign,,,null,,,,,,,,,,,,,,,,,,,,
null,,learn_phase(without_color)7,1192221,,,,black_plus_sign,,,null,object_15c.png,object_03b.png,,,,,,,,,,,,,,,,,,
null,,black_cross(without_color)7,1192772,,,,blue,,,null,object_15c.png,object_03b.png,,,,,,,,,,,,,,,,,,
null,,rt_plussign_withcolor7,1193274,,,,blue,,,null,object_15c.png,object_03b.png,,,,,,,,,,,,,,,,,,
945.1000000089407,,rt_thecrossant_black7,1194727,,,,black_plus_sign,,,49,,,1,,,,,,,1,,,,,,,,,,
null,,color_black7,1194829,,,,black_plus_sign,,,null,,,,,,,,,,,,,,,,,,,,
null,,learn_phase(without_color)7,1198332,,,,black_plus_sign,,,null,object_07b.png,object_12a.png,,,,,,,,,,,,,,,,,,
null,,black_cross(without_color)7,1198888,,,,blue,,,null,object_07b.png,object_12a.png,,,,,,,,,,,,,,,,,,
null,,rt_plussign_withcolor7,1199390,,,,blue,,,null,object_07b.png,object_12a.png,,,,,,,,,,,,,,,,,,
1031.8999999910593,,rt_thecrossant_black7,1200839,,,,black_plus_sign,,,49,,,1,,,,,,,1,,,,,,,,,,
null,,color_black7,1200942,,,,black_plus_sign,,,null,,,,,,,,,,,,,,,,,,,,
null,,learn_phase(without_color)7,1204447,,,,black_plus_sign,,,null,object_04b.png,object_15b.png,,,,,,,,,,,,,,,,,,
null,,black_cross(without_color)7,1205480,,,,blue,,,null,object_04b.png,object_15b.png,,,,,,,,,,,,,,,,,,
null,,rt_plussign_withcolor7,1205982,,,,blue,,,null,object_04b.png,object_15b.png,,,,,,,,,,,,,,,,,,
1234.4000000059605,,rt_thecrossant_black7,1206955,,,,black_plus_sign,,,49,,,1,,,,,,,1,,,,,,,,,,
null,,color_black7,1207058,,,,black_plus_sign,,,null,,,,,,,,,,,,,,,,,,,,
null,,learn_phase(without_color)7,1210561,,,,black_plus_sign,,,null,object_14c.png,object_09a.png,,,,,,,,,,,,,,,,,,
null,,black_cross(without_color)7,1211638,,,,green,,,null,object_14c.png,object_09a.png,,,,,,,,,,,,,,,,,,
null,,rt_plussign_withcolor7,1212140,,,,green,,,null,object_14c.png,object_09a.png,,,,,,,,,,,,,,,,,,
1186.4000000059605,,rt_thecrossant_black7,1213066,,,,black_plus_sign,,,50,,,1,,,,,,,1,,,,,,,,,,
null,,color_black7,1213169,,,,black_plus_sign,,,null,,,,,,,,,,,,,,,,,,,,
null,,learn_phase(without_color)7,1216674,,,,black_plus_sign,,,null,object_09b.png,object_01a.png,,,,,,,,,,,,,,,,,,
null,,black_cross(without_color)7,1217184,,,,green,,,null,object_09b.png,object_01a.png,,,,,,,,,,,,,,,,,,
null,,rt_plussign_withcolor7,1217687,,,,green,,,null,object_09b.png,object_01a.png,,,,,,,,,,,,,,,,,,
1363.1000000089407,,rt_thecrossant_black7,1219183,,,,black_plus_sign,,,50,,,1,,,,,,,1,,,,,,,,,,
null,,color_black7,1219286,,,,black_plus_sign,,,null,,,,,,,,,,,,,,,,,,,,
null,,learn_phase(without_color)7,1222790,,,,black_plus_sign,,,null,object_08c.png,object_10c.png,,,,,,,,,,,,,,,,,,
null,,black_cross(without_color)7,1223340,,,,green,,,null,object_08c.png,object_10c.png,,,,,,,,,,,,,,,,,,
455.3999999910593,,rt_plussign_withcolor7,1223842,,,,green,,,50,object_08c.png,object_10c.png,,,,,,,,,,,,,,,,,,
null,,rt_thecrossant_black7,1225298,,,,black_plus_sign,,,null,,,1,,,,,,,1,,,,,,,,,,
null,,color_black7,1225402,,,,black_plus_sign,,,null,,,,,,,,,,,,,,,,,,,,
null,,learn_phase(without_color)7,1228905,,,,black_plus_sign,,,null,object_05a.png,object_12c.png,,,,,,,,,,,,,,,,,,
null,,black_cross(without_color)7,1229309,,,,blue,,,null,object_05a.png,object_12c.png,,,,,,,,,,,,,,,,,,
null,,rt_plussign_withcolor7,1229811,,,,blue,,,null,object_05a.png,object_12c.png,,,,,,,,,,,,,,,,,,
1128.199999988079,,rt_thecrossant_black7,1231412,,,,black_plus_sign,,,49,,,1,,,,,,,1,,,,,,,,,,
null,,color_black7,1231515,,,,black_plus_sign,,,null,,,,,,,,,,,,,,,,,,,,
null,,learn_phase(without_color)7,1235018,,,,black_plus_sign,,,null,object_03c.png,object_13c.png,,,,,,,,,,,,,,,,,,
null,,black_cross(without_color)7,1235934,,,,green,,,null,object_03c.png,object_13c.png,,,,,,,,,,,,,,,,,,
null,,rt_plussign_withcolor7,1236436,,,,green,,,null,object_03c.png,object_13c.png,,,,,,,,,,,,,,,,,,
631,,rt_thecrossant_black7,1237525,,,,black_plus_sign,,,50,,,1,,,,,,,1,,,,,,,,,,
null,,color_black7,1237628,,,,black_plus_sign,,,null,,,,,,,,,,,,,,,,,,,,
null,,learn_phase(without_color)7,1241131,,,,black_plus_sign,,,null,object_09c.png,object_02b.png,,,,,,,,,,,,,,,,,,
null,,black_cross(without_color)7,1241853,,,,blue,,,null,object_09c.png,object_02b.png,,,,,,,,,,,,,,,,,,
null,,rt_plussign_withcolor7,1242354,,,,blue,,,null,object_09c.png,object_02b.png,,,,,,,,,,,,,,,,,,
null,,rt_thecrossant_black7,1243636,,,,black_plus_sign,,,null,,,,,,,,,,1,,,,,,,,,,
null,,color_black7,1243738,,,,black_plus_sign,,,null,,,,,,,,,,,,,,,,,,,,
null,,learn_phase(without_color)7,1247241,,,,black_plus_sign,,,null,object_11a.png,object_05b.png,,,,,,,,,,,,,,,,,,
null,,black_cross(without_color)7,1247837,,,,green,,,null,object_11a.png,object_05b.png,,,,,,,,,,,,,,,,,,
null,,rt_plussign_withcolor7,1248339,,,,green,,,null,object_11a.png,object_05b.png,,,,,,,,,,,,,,,,,,
876.3999999910593,,rt_thecrossant_black7,1249749,,,,black_plus_sign,,,50,,,1,,,,,,,1,,,,,,,,,,
null,,color_black7,1249851,,,,black_plus_sign,,,null,,,,,,,,,,,,,,,,,,,,
null,,thebreak,1249954,,,,<p></p>,,,null,,,,,,,,,,,,,,,,,,,,
1346.300000011921,,intro_0,1251302,,,,instruct,,,32,,,,,,,,,,,,,,,,,,,,
7039.100000008941,,directmemory_phase7,1258343,,,,object_09c.png,,,49,,,1,,object_02b.png,object_09b.png,object_02a.png,object_02b.png,,0.6483516483516484,,1,,,,,,,,
2124.9000000059605,,directmemory_phase7,1260470,,,,object_08b.png,,,49,,,1,,object_13a.png,object_09a.png,object_03b.png,object_13a.png,,0.6521739130434783,,1,,,,,,,,
7052.79999999702,,directmemory_phase7,1267526,,,,object_08a.png,,,50,,,1,,object_04b.png,object_06b.png,object_09c.png,object_06b.png,,0.6559139784946236,,1,,,,,,,,
6597.300000011921,,directmemory_phase7,1274125,,,,object_13c.png,,,50,,,1,,object_06a.png,object_03c.png,object_09b.png,object_03c.png,,0.6595744680851063,,1,,,,,,,,
4031.5999999940395,,directmemory_phase7,1278158,,,,object_15b.png,,,50,,,0,,object_09b.png,object_15c.png,object_04b.png,object_04b.png,,0.6526315789473685,,0,,,,,,,,
3556.5,,directmemory_phase7,1281717,,,,object_08c.png,,,49,,,0,,object_13b.png,object_14b.png,object_10c.png,object_10c.png,,0.6458333333333334,,0,,,,,,,,
2919.7999999970198,,directmemory_phase7,1284637,,,,object_07b.png,,,49,,,1,,object_12a.png,object_08a.png,object_09c.png,object_12a.png,,0.6494845360824743,,1,,,,,,,,
4350.20000000298,,directmemory_phase7,1288990,,,,object_05a.png,,,49,,,1,,object_12c.png,object_14b.png,object_13b.png,object_12c.png,,0.6530612244897959,,1,,,,,,,,
5108.29999999702,,directmemory_phase7,1294101,,,,object_03b.png,,,51,,,1,,object_15b.png,object_04b.png,object_15c.png,object_15c.png,,0.6565656565656566,,1,,,,,,,,
7159.399999991059,,directmemory_phase7,1301261,,,,object_11c.png,,,49,,,1,,object_02a.png,object_15c.png,object_09b.png,object_02a.png,,0.66,,1,,,,,,,,
3350.2000000029802,,directmemory_phase7,1304614,,,,object_13b.png,,,51,,,1,,object_08c.png,object_05a.png,object_14b.png,object_14b.png,,0.6633663366336634,,1,,,,,,,,
3526.7000000029802,,directmemory_phase7,1308142,,,,object_01a.png,,,49,,,1,,object_09b.png,object_03b.png,object_15b.png,object_09b.png,,0.6666666666666666,,1,,,,,,,,
4221,,directmemory_phase7,1312366,,,,object_07c.png,,,49,,,1,,object_06a.png,object_13c.png,object_02b.png,object_06a.png,,0.6699029126213593,,1,,,,,,,,
4397.399999991059,,directmemory_phase7,1316765,,,,object_09a.png,,,51,,,1,,object_07c.png,object_05a.png,object_14c.png,object_14c.png,,0.6730769230769231,,1,,,,,,,,
4653.29999999702,,directmemory_phase7,1321420,,,,object_05b.png,,,51,,,1,,object_09a.png,object_14b.png,object_11a.png,object_11a.png,,0.6761904761904762,,1,,,,,,,,
null,,thebreak,1321528,,,,<p></p>,,,null,,,,,,,,,,,,,,,,,,,,
1764.9000000059605,,intro_0,1323294,,,,instruct,,,32,,,,,,,,,,,,,,,,,,,,
null,,learn_phase(without_color)8,1326796,,,,black_plus_sign,,,null,object_08c.png,object_10c.png,,,,,,,,,,,,,,,,,,
null,,black_cross(without_color)8,1327898,,,,green,,,null,object_08c.png,object_10c.png,,,,,,,,,,,,,,,,,,
null,,rt_plussign_withcolor8,1328401,,,,green,,,null,object_08c.png,object_10c.png,,,,,,,,,,,,,,,,,,
2082.2000000029802,,rt_thecrossant_black8,1329304,,,,black_plus_sign,,,50,,,1,,,,,,,1,,,,,,,,,,
null,,color_black8,1329407,,,,black_plus_sign,,,null,,,,,,,,,,,,,,,,,,,,
null,,learn_phase(without_color)8,1332910,,,,black_plus_sign,,,null,object_06a.png,object_07c.png,,,,,,,,,,,,,,,,,,
null,,black_cross(without_color)8,1334012,,,,green,,,null,object_06a.png,object_07c.png,,,,,,,,,,,,,,,,,,
456.20000000298023,,rt_plussign_withcolor8,1334514,,,,green,,,50,object_06a.png,object_07c.png,,,,,,,,,,,,,,,,,,
null,,rt_thecrossant_black8,1335416,,,,black_plus_sign,,,null,,,1,,,,,,,1,,,,,,,,,,
null,,color_black8,1335519,,,,black_plus_sign,,,null,,,,,,,,,,,,,,,,,,,,
null,,learn_phase(without_color)8,1339023,,,,black_plus_sign,,,null,object_02a.png,object_11c.png,,,,,,,,,,,,,,,,,,
null,,black_cross(without_color)8,1339433,,,,blue,,,null,object_02a.png,object_11c.png,,,,,,,,,,,,,,,,,,
null,,rt_plussign_withcolor8,1339935,,,,blue,,,null,object_02a.png,object_11c.png,,,,,,,,,,,,,,,,,,
2387.4000000059605,,rt_thecrossant_black8,1341530,,,,black_plus_sign,,,49,,,1,,,,,,,1,,,,,,,,,,
null,,color_black8,1341632,,,,black_plus_sign,,,null,,,,,,,,,,,,,,,,,,,,
null,,learn_phase(without_color)8,1345135,,,,black_plus_sign,,,null,object_05b.png,object_11a.png,,,,,,,,,,,,,,,,,,
null,,black_cross(without_color)8,1345921,,,,blue,,,null,object_05b.png,object_11a.png,,,,,,,,,,,,,,,,,,
null,,rt_plussign_withcolor8,1346423,,,,blue,,,null,object_05b.png,object_11a.png,,,,,,,,,,,,,,,,,,
1531.9000000059605,,rt_thecrossant_black8,1347642,,,,black_plus_sign,,,49,,,1,,,,,,,1,,,,,,,,,,
null,,color_black8,1347744,,,,black_plus_sign,,,null,,,,,,,,,,,,,,,,,,,,
null,,learn_phase(without_color)8,1351247,,,,black_plus_sign,,,null,object_08b.png,object_13a.png,,,,,,,,,,,,,,,,,,
null,,black_cross(without_color)8,1352249,,,,blue,,,null,object_08b.png,object_13a.png,,,,,,,,,,,,,,,,,,
null,,rt_plussign_withcolor8,1352752,,,,blue,,,null,object_08b.png,object_13a.png,,,,,,,,,,,,,,,,,,
1431.5,,rt_thecrossant_black8,1353755,,,,black_plus_sign,,,49,,,1,,,,,,,1,,,,,,,,,,
null,,color_black8,1353857,,,,black_plus_sign,,,null,,,,,,,,,,,,,,,,,,,,
null,,learn_phase(without_color)8,1357360,,,,black_plus_sign,,,null,object_15c.png,object_03b.png,,,,,,,,,,,,,,,,,,
null,,black_cross(without_color)8,1358163,,,,blue,,,null,object_15c.png,object_03b.png,,,,,,,,,,,,,,,,,,
null,,rt_plussign_withcolor8,1358666,,,,blue,,,null,object_15c.png,object_03b.png,,,,,,,,,,,,,,,,,,
1262.4000000059605,,rt_thecrossant_black8,1359867,,,,black_plus_sign,,,49,,,1,,,,,,,1,,,,,,,,,,
null,,color_black8,1359969,,,,black_plus_sign,,,null,,,,,,,,,,,,,,,,,,,,
null,,learn_phase(without_color)8,1363472,,,,black_plus_sign,,,null,object_15b.png,object_04b.png,,,,,,,,,,,,,,,,,,
null,,black_cross(without_color)8,1364040,,,,green,,,null,object_15b.png,object_04b.png,,,,,,,,,,,,,,,,,,
null,,rt_plussign_withcolor8,1364542,,,,green,,,null,object_15b.png,object_04b.png,,,,,,,,,,,,,,,,,,
1754.5999999940395,,rt_thecrossant_black8,1365979,,,,black_plus_sign,,,50,,,1,,,,,,,1,,,,,,,,,,
null,,color_black8,1366081,,,,black_plus_sign,,,null,,,,,,,,,,,,,,,,,,,,
null,,learn_phase(without_color)8,1369584,,,,black_plus_sign,,,null,object_03c.png,object_13c.png,,,,,,,,,,,,,,,,,,
null,,black_cross(without_color)8,1370170,,,,blue,,,null,object_03c.png,object_13c.png,,,,,,,,,,,,,,,,,,
null,,rt_plussign_withcolor8,1370673,,,,blue,,,null,object_03c.png,object_13c.png,,,,,,,,,,,,,,,,,,
1173.0999999940395,,rt_thecrossant_black8,1372091,,,,black_plus_sign,,,49,,,1,,,,,,,1,,,,,,,,,,
null,,color_black8,1372195,,,,black_plus_sign,,,null,,,,,,,,,,,,,,,,,,,,
null,,learn_phase(without_color)8,1375696,,,,black_plus_sign,,,null,object_14b.png,object_13b.png,,,,,,,,,,,,,,,,,,
null,,black_cross(without_color)8,1376394,,,,blue,,,null,object_14b.png,object_13b.png,,,,,,,,,,,,,,,,,,
null,,rt_plussign_withcolor8,1376897,,,,blue,,,null,object_14b.png,object_13b.png,,,,,,,,,,,,,,,,,,
1015.7000000029802,,rt_thecrossant_black8,1378203,,,,black_plus_sign,,,49,,,1,,,,,,,1,,,,,,,,,,
null,,color_black8,1378305,,,,black_plus_sign,,,null,,,,,,,,,,,,,,,,,,,,
null,,learn_phase(without_color)8,1381809,,,,black_plus_sign,,,null,object_08a.png,object_06b.png,,,,,,,,,,,,,,,,,,
null,,black_cross(without_color)8,1382556,,,,green,,,null,object_08a.png,object_06b.png,,,,,,,,,,,,,,,,,,
null,,rt_plussign_withcolor8,1383058,,,,green,,,null,object_08a.png,object_06b.png,,,,,,,,,,,,,,,,,,
1326.5999999940395,,rt_thecrossant_black8,1384317,,,,black_plus_sign,,,50,,,1,,,,,,,1,,,,,,,,,,
null,,color_black8,1384418,,,,black_plus_sign,,,null,,,,,,,,,,,,,,,,,,,,
null,,learn_phase(without_color)8,1387920,,,,black_plus_sign,,,null,object_09a.png,object_14c.png,,,,,,,,,,,,,,,,,,
null,,black_cross(without_color)8,1388568,,,,green,,,null,object_09a.png,object_14c.png,,,,,,,,,,,,,,,,,,
null,,rt_plussign_withcolor8,1389070,,,,green,,,null,object_09a.png,object_14c.png,,,,,,,,,,,,,,,,,,
1117,,rt_thecrossant_black8,1390428,,,,black_plus_sign,,,50,,,1,,,,,,,1,,,,,,,,,,
null,,color_black8,1390532,,,,black_plus_sign,,,null,,,,,,,,,,,,,,,,,,,,
null,,learn_phase(without_color)8,1394035,,,,black_plus_sign,,,null,object_09b.png,object_01a.png,,,,,,,,,,,,,,,,,,
null,,black_cross(without_color)8,1394848,,,,green,,,null,object_09b.png,object_01a.png,,,,,,,,,,,,,,,,,,
null,,rt_plussign_withcolor8,1395350,,,,green,,,null,object_09b.png,object_01a.png,,,,,,,,,,,,,,,,,,
1591.3999999910593,,rt_thecrossant_black8,1396541,,,,black_plus_sign,,,50,,,1,,,,,,,1,,,,,,,,,,
null,,color_black8,1396643,,,,black_plus_sign,,,null,,,,,,,,,,,,,,,,,,,,
null,,learn_phase(without_color)8,1400147,,,,black_plus_sign,,,null,object_07b.png,object_12a.png,,,,,,,,,,,,,,,,,,
null,,black_cross(without_color)8,1401138,,,,green,,,null,object_07b.png,object_12a.png,,,,,,,,,,,,,,,,,,
498.70000000298023,,rt_plussign_withcolor8,1401639,,,,green,,,50,object_07b.png,object_12a.png,,,,,,,,,,,,,,,,,,
null,,rt_thecrossant_black8,1402652,,,,black_plus_sign,,,null,,,1,,,,,,,1,,,,,,,,,,
null,,color_black8,1402754,,,,black_plus_sign,,,null,,,,,,,,,,,,,,,,,,,,
null,,learn_phase(without_color)8,1406257,,,,black_plus_sign,,,null,object_02b.png,object_09c.png,,,,,,,,,,,,,,,,,,
null,,black_cross(without_color)8,1406704,,,,green,,,null,object_02b.png,object_09c.png,,,,,,,,,,,,,,,,,,
null,,rt_plussign_withcolor8,1407207,,,,green,,,null,object_02b.png,object_09c.png,,,,,,,,,,,,,,,,,,
1679,,rt_thecrossant_black8,1408767,,,,black_plus_sign,,,50,,,1,,,,,,,1,,,,,,,,,,
null,,color_black8,1408869,,,,black_plus_sign,,,null,,,,,,,,,,,,,,,,,,,,
null,,learn_phase(without_color)8,1412372,,,,black_plus_sign,,,null,object_05a.png,object_12c.png,,,,,,,,,,,,,,,,,,
null,,black_cross(without_color)8,1412921,,,,green,,,null,object_05a.png,object_12c.png,,,,,,,,,,,,,,,,,,
null,,rt_plussign_withcolor8,1413423,,,,green,,,null,object_05a.png,object_12c.png,,,,,,,,,,,,,,,,,,
716.1000000089407,,rt_thecrossant_black8,1414880,,,,black_plus_sign,,,50,,,1,,,,,,,1,,,,,,,,,,
null,,color_black8,1414982,,,,black_plus_sign,,,null,,,,,,,,,,,,,,,,,,,,
null,,thebreak,1415085,,,,<p></p>,,,null,,,,,,,,,,,,,,,,,,,,
1422.699999988079,,intro_0,1416511,,,,instruct,,,32,,,,,,,,,,,,,,,,,,,,
5223.79999999702,,directmemory_phase8,1421736,,,,object_09b.png,,,50,,,1,,object_14b.png,object_01a.png,object_15c.png,object_01a.png,,0.6792452830188679,,1,,,,,,,,
5338,,directmemory_phase8,1427078,,,,object_15c.png,,,51,,,0,,object_02a.png,object_03b.png,object_14c.png,object_03b.png,,0.6728971962616822,,0,,,,,,,,
5597.79999999702,,directmemory_phase8,1432677,,,,object_14b.png,,,50,,,1,,object_12a.png,object_13b.png,object_13c.png,object_13b.png,,0.6759259259259259,,1,,,,,,,,
2422,,directmemory_phase8,1435101,,,,object_05a.png,,,49,,,1,,object_12c.png,object_12a.png,object_15b.png,object_12c.png,,0.6788990825688074,,1,,,,,,,,
4493.399999991059,,directmemory_phase8,1439596,,,,object_11a.png,,,49,,,0,,object_14c.png,object_07b.png,object_05b.png,object_05b.png,,0.6727272727272727,,0,,,,,,,,
4783.79999999702,,directmemory_phase8,1444381,,,,object_08c.png,,,50,,,1,,object_12a.png,object_10c.png,object_06b.png,object_10c.png,,0.6756756756756757,,1,,,,,,,,
3152.4000000059605,,directmemory_phase8,1447535,,,,object_07b.png,,,49,,,1,,object_12a.png,object_03b.png,object_09a.png,object_12a.png,,0.6785714285714286,,1,,,,,,,,
2580.1000000089407,,directmemory_phase8,1450118,,,,object_06b.png,,,50,,,1,,object_13a.png,object_08a.png,object_12c.png,object_08a.png,,0.6814159292035398,,1,,,,,,,,
3245,,directmemory_phase8,1453365,,,,object_03c.png,,,49,,,0,,object_12c.png,object_13c.png,object_10c.png,object_13c.png,,0.6754385964912281,,0,,,,,,,,
5644.899999991059,,directmemory_phase8,1459012,,,,object_14c.png,,,51,,,0,,object_09a.png,object_05a.png,object_02b.png,object_09a.png,,0.6695652173913044,,0,,,,,,,,
6183.899999991059,,directmemory_phase8,1465198,,,,object_11c.png,,,50,,,0,,object_06b.png,object_08a.png,object_02a.png,object_02a.png,,0.6637931034482759,,0,,,,,,,,
4605.20000000298,,directmemory_phase8,1469805,,,,object_04b.png,,,50,,,0,,object_10c.png,object_08c.png,object_15b.png,object_15b.png,,0.6581196581196581,,0,,,,,,,,
3712.3999999910593,,directmemory_phase8,1473519,,,,object_06a.png,,,49,,,0,,object_15b.png,object_07c.png,object_08a.png,object_07c.png,,0.652542372881356,,0,,,,,,,,
2284.2999999970198,,directmemory_phase8,1475806,,,,object_08b.png,,,49,,,1,,object_13a.png,object_02a.png,object_14b.png,object_13a.png,,0.6554621848739496,,1,,,,,,,,
2173.0999999940395,,directmemory_phase8,1477982,,,,object_02b.png,,,49,,,1,,object_09c.png,object_10c.png,object_14b.png,object_09c.png,,0.6583333333333333,,1,,,,,,,,
null,,thebreak,1478085,,,,<p></p>,,,null,,,,,,,,,,,,,,,,,,,,
4632.100000008941,,intro_0,1482718,,,,instruct,,,32,,,,,,,,,,,,,,,,,,,,
28181.70000000298,,intro_1,1510901,,,,instruct,,,32,,,,,,,,,,,,,,,,,,,,
5103.5999999940395,,intro_2,1516006,,,,instruct,,,32,,,,,,,,,,,,,,,,,,,,
,,intro_3,1535915,,,,instruct,,,,,,,,,,,,,,,,,,,,,,,
7058.5,,intro_4,1542975,,,,instruct,,,32,,,,,,,,,,,,,,,,,,,,
7140.9000000059605,,inference_phase,1550118,,,,object_08b.png,,,50,object_05c.png,object_13b.png,1,,,,,object_12b.png,,1,,,object_12b.png,,,,,,,
4909.9000000059605,,inference_phase,1555030,,,,object_11b.png,,,49,object_09c.png,object_04b.png,0,,,,,object_04b.png,,0.5,,,object_02b.png,,,,,,,
5718.5,,inference_phase,1560751,,,,object_08a.png,,,50,object_14a.png,object_15c.png,1,,,,,object_03a.png,,0.6666666666666666,,,object_03a.png,,,,,,,
5412,,inference_phase,1566165,,,,object_09b.png,,,50,object_06c.png,object_09c.png,1,,,,,object_04a.png,,0.75,,,object_04a.png,,,,,,,
4349.699999988079,,inference_phase,1570517,,,,object_10a.png,,,50,object_09c.png,object_08c.png,0,,,,,object_08c.png,,0.6,,,object_03c.png,,,,,,,
5461.70000000298,,inference_phase,1575981,,,,object_12a.png,,,50,object_15a.png,object_04a.png,0,,,,,object_15a.png,,0.5,,,object_10c.png,,,,,,,
4393.100000008941,,inference_phase,1580375,,,,object_07a.png,,,49,object_12c.png,object_08b.png,1,,,,,object_12c.png,,0.5714285714285714,,,object_06b.png,,,,,,,
4404.20000000298,,inference_phase,1584781,,,,object_01b.png,,,49,object_05a.png,object_14b.png,0,,,,,object_14b.png,,0.5,,,object_08b.png,,,,,,,
4989.399999991059,,inference_phase,1589773,,,,object_06c.png,,,51,object_01a.png,object_08c.png,0,,,,,object_11c.png,,0.4444444444444444,,,object_11c.png,,,,,,,
3663.2999999970198,,inference_phase,1593438,,,,object_10b.png,,,49,object_02a.png,object_08b.png,0,,,,,object_03c.png,,0.4,,,object_03c.png,,,,,,,
3941.7000000029802,,inference_phase,1597382,,,,object_02c.png,,,49,object_15b.png,object_08a.png,0,,,,,object_05b.png,,0.36363636363636365,,,object_05b.png,,,,,,,
4092.2000000029802,,inference_phase,1601476,,,,object_14a.png,,,49,object_07c.png,object_02b.png,1,,,,,object_07c.png,,0.4166666666666667,,,object_06b.png,,,,,,,
5087.899999991059,,inference_phase,1606566,,,,object_01c.png,,,50,object_03b.png,object_08a.png,0,,,,,object_03b.png,,0.38461538461538464,,,object_15b.png,,,,,,,
4997.29999999702,,inference_phase,1611565,,,,object_14c.png,,,50,object_10b.png,object_13b.png,1,,,,,object_05c.png,,0.42857142857142855,,,object_05c.png,,,,,,,
3558.2000000029802,,inference_phase,1615124,,,,object_02b.png,,,49,object_04c.png,object_14a.png,1,,,,,object_04c.png,,0.4666666666666667,,,object_15b.png,,,,,,,
,,survey,1728809,,,,survey-questions,,,,,,,,,,,,,,,,,connection,med,No this was very intense focusing,color patterns,No not really,No,It was interesting and certainly a memory challenge
