rt,responses,trial_type,time_elapsed,identifier_a,identifier_b,identifier_c,stimulus,button_pressed,response,key_press,stimulus_left,stimulus_right,accuracy,practice_cumulative_accuracy,stimulus_down_left,stimulus_down_mid,stimulus_down_right,stimulus_correct,prac_weighted_accuracy,cumulative_accuracy,failed_practice,weighted_accuracy,tooquick,stimulus_middle,problems,smooth,distraction,strategies,easier,similar,comments
13371.100000000559,{worker_id:67e73459f6f2f5a2addca351},id_enter,13375,object_06a.png; object_11c.png; object_12c.png; object_15a.png; object_05a.png; object_05c.png; object_11b.png; object_10a.png; object_11a.png; object_08c.png; object_04c.png; object_07a.png; object_06b.png; object_14b.png; object_12a.png,object_09c.png; object_09b.png; object_13c.png; object_04b.png; object_08b.png; object_06c.png; object_03b.png; object_10b.png; object_02a.png; object_14a.png; object_09a.png; object_02c.png; object_04a.png; object_07c.png; object_12b.png,object_01a.png; object_13a.png; object_15b.png; object_03a.png; object_10c.png; object_02b.png; object_01b.png; object_15c.png; object_13b.png; object_01c.png; object_03c.png; object_08a.png; object_14c.png; object_05b.png; object_07b.png,,,,,,,,,,,,,,,,,,,,,,,,,
13087.100000000559,,make_fullscreen,26470,,,,fullscreen,0,,,,,,,,,,,,,,,,,,,,,,,
9476.800000000745,,instruct_1,35949,,,,instruct,0,Next,,,,,,,,,,,,,,,,,,,,,,
56453.40000000037,,instruct_2,92405,,,,instruct,1,Next,,,,,,,,,,,,,,,,,,,,,,
12261.900000000373,,instruct_3,104669,,,,instruct,1,Next,,,,,,,,,,,,,,,,,,,,,,
30909.299999999814,,instruct_4,135581,,,,instruct,1,Next,,,,,,,,,,,,,,,,,,,,,,
11644.700000000186,,instruct_5,147228,,,,instruct,1,Next,,,,,,,,,,,,,,,,,,,,,,
12230.200000000186,,instruct_6,159460,,,,instruct,1,Next,,,,,,,,,,,,,,,,,,,,,,
32717.699999999255,,instruct_7,192180,,,,instruct,1,Next,,,,,,,,,,,,,,,,,,,,,,
null,,prac_atten_color_black,192646,,,,black_plus_sign,,,null,,,,,,,,,,,,,,,,,,,,,
null,,prac_atten_color,193603,,,,<p style='position:absolute;top: 50%;right: 50%;transform: translate(50%, -50%);font-size: 125px;color: blue;'>+</p>,,,null,,,,,,,,,,,,,,,,,,,,,
1590.5999999996275,,prac_atten_color_black,195607,,,,black_plus_sign,,,49,,,,,,,,,,,,,,,,,,,,,
null,,prac_atten_color_black,196064,,,,black_plus_sign,,,null,,,,,,,,,,,,,,,,,,,,,
null,,prac_atten_color,196635,,,,<p style='position:absolute;top: 50%;right: 50%;transform: translate(50%, -50%);font-size: 125px;color: green;'>+</p>,,,null,,,,,,,,,,,,,,,,,,,,,
1965.9000000003725,,prac_atten_color_black,198639,,,,black_plus_sign,,,50,,,,,,,,,,,,,,,,,,,,,
null,,prac_atten_color_black,199476,,,,black_plus_sign,,,null,,,,,,,,,,,,,,,,,,,,,
null,,prac_atten_color,199928,,,,<p style='position:absolute;top: 50%;right: 50%;transform: translate(50%, -50%);font-size: 125px;color: green;'>+</p>,,,null,,,,,,,,,,,,,,,,,,,,,
680.2000000001863,,prac_atten_color_black,201931,,,,black_plus_sign,,,50,,,,,,,,,,,,,,,,,,,,,
null,,prac_atten_color_black,202884,,,,black_plus_sign,,,null,,,,,,,,,,,,,,,,,,,,,
null,,prac_atten_color,203492,,,,<p style='position:absolute;top: 50%;right: 50%;transform: translate(50%, -50%);font-size: 125px;color: blue;'>+</p>,,,null,,,,,,,,,,,,,,,,,,,,,
330.5,,prac_atten_color_black,205496,,,,black_plus_sign,,,49,,,,,,,,,,,,,,,,,,,,,
null,,prac_atten_color_black,206295,,,,black_plus_sign,,,null,,,,,,,,,,,,,,,,,,,,,
467.5,,prac_atten_color,207119,,,,<p style='position:absolute;top: 50%;right: 50%;transform: translate(50%, -50%);font-size: 125px;color: green;'>+</p>,,,50,,,,,,,,,,,,,,,,,,,,,
null,,prac_atten_color_black,209123,,,,black_plus_sign,,,null,,,,,,,,,,,,,,,,,,,,,
null,,prac_atten_color_black,209709,,,,black_plus_sign,,,null,,,,,,,,,,,,,,,,,,,,,
605.7999999998137,,prac_atten_color,210542,,,,<p style='position:absolute;top: 50%;right: 50%;transform: translate(50%, -50%);font-size: 125px;color: green;'>+</p>,,,50,,,,,,,,,,,,,,,,,,,,,
null,,prac_atten_color_black,212544,,,,black_plus_sign,,,null,,,,,,,,,,,,,,,,,,,,,
null,,prac_atten_color_black,213118,,,,black_plus_sign,,,null,,,,,,,,,,,,,,,,,,,,,
481.79999999981374,,prac_atten_color,213706,,,,<p style='position:absolute;top: 50%;right: 50%;transform: translate(50%, -50%);font-size: 125px;color: blue;'>+</p>,,,49,,,,,,,,,,,,,,,,,,,,,
null,,prac_atten_color_black,215709,,,,black_plus_sign,,,null,,,,,,,,,,,,,,,,,,,,,
null,,prac_atten_color_black,216531,,,,black_plus_sign,,,null,,,,,,,,,,,,,,,,,,,,,
634.4000000003725,,prac_atten_color,217398,,,,<p style='position:absolute;top: 50%;right: 50%;transform: translate(50%, -50%);font-size: 125px;color: green;'>+</p>,,,50,,,,,,,,,,,,,,,,,,,,,
null,,prac_atten_color_black,219400,,,,black_plus_sign,,,null,,,,,,,,,,,,,,,,,,,,,
null,,prac_atten_color_black,219942,,,,black_plus_sign,,,null,,,,,,,,,,,,,,,,,,,,,
338.20000000018626,,prac_atten_color,220801,,,,<p style='position:absolute;top: 50%;right: 50%;transform: translate(50%, -50%);font-size: 125px;color: blue;'>+</p>,,,49,,,,,,,,,,,,,,,,,,,,,
null,,prac_atten_color_black,222805,,,,black_plus_sign,,,null,,,,,,,,,,,,,,,,,,,,,
null,,prac_atten_color_black,223358,,,,black_plus_sign,,,null,,,,,,,,,,,,,,,,,,,,,
568,,prac_atten_color,224013,,,,<p style='position:absolute;top: 50%;right: 50%;transform: translate(50%, -50%);font-size: 125px;color: blue;'>+</p>,,,49,,,,,,,,,,,,,,,,,,,,,
null,,prac_atten_color_black,226015,,,,black_plus_sign,,,null,,,,,,,,,,,,,,,,,,,,,
7689.5,,attentioncheck_feedback,233708,,,,cross_check_feedback,0,,,,,,,,,,,,,,,,,,,,,,,
12421.900000000373,,last_instruct,246133,,,,instruct,,,32,,,,,,,,,,,,,,,,,,,,,
null,,prac_learn_phase(without_color),249638,,,,black_plus_sign,,,null,object_05a.png,object_08b.png,,,,,,,,,,,,,,,,,,,
null,,prac_black_cross(without_color),250117,,,,blue,,,null,object_05a.png,object_08b.png,,,,,,,,,,,,,,,,,,,
null,,prac_rt_plussign_withcolor,250620,,,,blue,,,null,object_05a.png,object_08b.png,,,,,,,,,,,,,,,,,,,
1109.2000000001863,,prac_rt_thecrossant_black,252149,,,,black_plus_sign,,,49,,,1,1,,,,,,,,,,,,,,,,,
null,,prac_color_black,252255,,,,black_plus_sign,,,null,,,,,,,,,,,,,,,,,,,,,
null,,prac_learn_phase(without_color),255762,,,,black_plus_sign,,,null,object_02c.png,object_07a.png,,,,,,,,,,,,,,,,,,,
null,,black_cross(without_color)1,256210,,,,green,,,null,object_05a.png,object_08b.png,,,,,,,,,,,,,,,,,,,
489.29999999981374,,prac_rt_plussign_withcolor,256713,,,,green,,,50,object_02c.png,object_07a.png,,,,,,,,,,,,,,,,,,,
null,,prac_rt_thecrossant_black,257968,,,,black_plus_sign,,,null,,,1,1,,,,,,,,,,,,,,,,,
null,,prac_color_black,258071,,,,black_plus_sign,,,null,,,,,,,,,,,,,,,,,,,,,
null,,prac_learn_phase(without_color),261577,,,,black_plus_sign,,,null,object_04a.png,object_06b.png,,,,,,,,,,,,,,,,,,,
null,,black_cross(without_color)1,262025,,,,green,,,null,object_05a.png,object_08b.png,,,,,,,,,,,,,,,,,,,
null,,prac_rt_plussign_withcolor,262541,,,,blue,,,null,object_04a.png,object_06b.png,,,,,,,,,,,,,,,,,,,
953.2999999998137,,prac_rt_thecrossant_black,263969,,,,black_plus_sign,,,49,,,1,1,,,,,,,,,,,,,,,,,
null,,prac_color_black,264085,,,,black_plus_sign,,,null,,,,,,,,,,,,,,,,,,,,,
null,,prac_learn_phase(without_color),267590,,,,black_plus_sign,,,null,object_09a.png,object_04c.png,,,,,,,,,,,,,,,,,,,
null,,black_cross(without_color)1,268038,,,,green,,,null,object_05a.png,object_08b.png,,,,,,,,,,,,,,,,,,,
null,,prac_rt_plussign_withcolor,268540,,,,green,,,null,object_09a.png,object_04c.png,,,,,,,,,,,,,,,,,,,
1138,,prac_rt_thecrossant_black,269908,,,,black_plus_sign,,,50,,,1,1,,,,,,,,,,,,,,,,,
null,,prac_color_black,270011,,,,black_plus_sign,,,null,,,,,,,,,,,,,,,,,,,,,
8883.400000000373,,instruct_dir_01,278899,,,,instruct,0,Next,,,,,,,,,,,,,,,,,,,,,,
10102.100000000559,,instruct_dir_2,289004,,,,instruct,1,Next,,,,,,,,,,,,,,,,,,,,,,
5820.799999999814,,instruct_dir_3,294827,,,,instruct,1,Next,,,,,,,,,,,,,,,,,,,,,,
17278.200000000186,,instruct_dir_4,312107,,,,instruct,1,Start,,,,,,,,,,,,,,,,,,,,,,
null,,thebreak,312210,,,,<p></p>,,,null,,,,,,,,,,,,,,,,,,,,,
1956.6000000005588,,intro_0,314169,,,,instruct,,,32,,,,,,,,,,,,,,,,,,,,,
11985.399999999441,,prac_directmemory_phase,326159,,,,practice/object_02a.png,,,51,,,1,,practice/object_01b.png,practice/object_03a.png,practice/object_02b.png,practice/object_02b.png,1,1,,,,,,,,,,,
6209.700000000186,,prac_directmemory_phase,332376,,,,practice/object_01a.png,,,50,,,0,,practice/object_01b.png,practice/object_03b.png,practice/object_04a.png,practice/object_01b.png,0,0.5,,,,,,,,,,,
4385,,prac_directmemory_phase,336767,,,,practice/object_04a.png,,,50,,,1,,practice/object_02a.png,practice/object_04b.png,practice/object_02b.png,practice/object_04b.png,1,0.6666666666666666,,,,,,,,,,,
2534.899999999441,,prac_directmemory_phase,339306,,,,practice/object_03a.png,,,51,,,0,,practice/object_04a.png,practice/object_03b.png,practice/object_04b.png,practice/object_03b.png,0,0.5,,,,,,,,,,,
11403.899999999441,,practice_feedback_force_restart,350713,,,,practice_feedback,0,,,,,,,,,,,,,1,,,,,,,,,,
2735.9000000003725,,last_instruct,353450,,,,instruct,,,32,,,,,,,,,,,,,,,,,,,,,
null,,prac_learn_phase(without_color),356955,,,,black_plus_sign,,,null,object_05a.png,object_08b.png,,,,,,,,,,,,,,,,,,,
null,,prac_black_cross(without_color),357786,,,,blue,,,null,object_05a.png,object_08b.png,,,,,,,,,,,,,,,,,,,
null,,prac_rt_plussign_withcolor,358289,,,,blue,,,null,object_05a.png,object_08b.png,,,,,,,,,,,,,,,,,,,
1581.2999999998137,,prac_rt_thecrossant_black,359466,,,,black_plus_sign,,,49,,,1,1,,,,,,,,,,,,,,,,,
null,,prac_color_black,359570,,,,black_plus_sign,,,null,,,,,,,,,,,,,,,,,,,,,
null,,prac_learn_phase(without_color),363077,,,,black_plus_sign,,,null,object_02c.png,object_07a.png,,,,,,,,,,,,,,,,,,,
null,,black_cross(without_color)1,363525,,,,green,,,null,object_05a.png,object_08b.png,,,,,,,,,,,,,,,,,,,
null,,prac_rt_plussign_withcolor,364028,,,,green,,,null,object_02c.png,object_07a.png,,,,,,,,,,,,,,,,,,,
1185.7999999998137,,prac_rt_thecrossant_black,364947,,,,black_plus_sign,,,50,,,1,1,,,,,,,,,,,,,,,,,
null,,prac_color_black,365059,,,,black_plus_sign,,,null,,,,,,,,,,,,,,,,,,,,,
null,,prac_learn_phase(without_color),368564,,,,black_plus_sign,,,null,object_04a.png,object_06b.png,,,,,,,,,,,,,,,,,,,
null,,black_cross(without_color)1,369011,,,,green,,,null,object_05a.png,object_08b.png,,,,,,,,,,,,,,,,,,,
null,,prac_rt_plussign_withcolor,369515,,,,blue,,,null,object_04a.png,object_06b.png,,,,,,,,,,,,,,,,,,,
1599.0999999996275,,prac_rt_thecrossant_black,370906,,,,black_plus_sign,,,49,,,1,1,,,,,,,,,,,,,,,,,
null,,prac_color_black,371012,,,,black_plus_sign,,,null,,,,,,,,,,,,,,,,,,,,,
null,,prac_learn_phase(without_color),374518,,,,black_plus_sign,,,null,object_09a.png,object_04c.png,,,,,,,,,,,,,,,,,,,
null,,black_cross(without_color)1,374965,,,,green,,,null,object_05a.png,object_08b.png,,,,,,,,,,,,,,,,,,,
null,,prac_rt_plussign_withcolor,375467,,,,green,,,null,object_09a.png,object_04c.png,,,,,,,,,,,,,,,,,,,
1044.2999999998137,,prac_rt_thecrossant_black,376930,,,,black_plus_sign,,,50,,,1,1,,,,,,,,,,,,,,,,,
null,,prac_color_black,377035,,,,black_plus_sign,,,null,,,,,,,,,,,,,,,,,,,,,
4410.799999999814,,instruct_dir_01,381450,,,,instruct,0,Next,,,,,,,,,,,,,,,,,,,,,,
6774,,instruct_dir_2,388226,,,,instruct,1,Next,,,,,,,,,,,,,,,,,,,,,,
2054.2000000001863,,instruct_dir_3,390282,,,,instruct,1,Next,,,,,,,,,,,,,,,,,,,,,,
8021.9000000003725,,instruct_dir_4,398306,,,,instruct,1,Start,,,,,,,,,,,,,,,,,,,,,,
null,,thebreak,398408,,,,<p></p>,,,null,,,,,,,,,,,,,,,,,,,,,
2164.4000000003725,,intro_0,400574,,,,instruct,,,32,,,,,,,,,,,,,,,,,,,,,
9898.100000000559,,prac_directmemory_phase,410476,,,,practice/object_02a.png,,,51,,,1,,practice/object_01b.png,practice/object_03a.png,practice/object_02b.png,practice/object_02b.png,1,1,,,,,,,,,,,
4866.100000000559,,prac_directmemory_phase,415347,,,,practice/object_01a.png,,,49,,,1,,practice/object_01b.png,practice/object_03b.png,practice/object_04a.png,practice/object_01b.png,1,1,,,,,,,,,,,
10672,,prac_directmemory_phase,426024,,,,practice/object_04a.png,,,50,,,1,,practice/object_02a.png,practice/object_04b.png,practice/object_02b.png,practice/object_04b.png,1,1,,,,,,,,,,,
5934.4000000003725,,prac_directmemory_phase,431962,,,,practice/object_03a.png,,,50,,,1,,practice/object_04a.png,practice/object_03b.png,practice/object_04b.png,practice/object_03b.png,1,1,,,,,,,,,,,
4197.799999999814,,practice_feedback,436162,,,,practice_feedback,1,,,,,,,,,,,,,,,,,,,,,,,
8365.200000000186,,proceed_actualTask,444529,,,,proceed_actualTask,1,Continue,,,,,,,,,,,,,,,,,,,,,,
7438.200000000186,,last_inst,451970,,,,last_inst,,,32,,,,,,,,,,,,,,,,,,,,,
null,,learn_phase(without_color)1,455473,,,,black_plus_sign,,,null,object_05a.png,object_08b.png,,,,,,,,,,,,,,,,,,,
null,,black_cross(without_color)1,455921,,,,green,,,null,object_05a.png,object_08b.png,,,,,,,,,,,,,,,,,,,
null,,rt_plussign_withcolor1,456423,,,,green,,,null,object_05a.png,object_08b.png,,,,,,,,,,,,,,,,,,,
1340.800000000745,,rt_thecrossant_black1,457984,,,,black_plus_sign,,,50,,,1,,,,,,,1,,,,,,,,,,,
null,,color_black1,458089,,,,black_plus_sign,,,null,,,,,,,,,,,,,,,,,,,,,
null,,learn_phase(without_color)1,461596,,,,black_plus_sign,,,null,object_02c.png,object_07a.png,,,,,,,,,,,,,,,,,,,
null,,black_cross(without_color)1,462650,,,,blue,,,null,object_02c.png,object_07a.png,,,,,,,,,,,,,,,,,,,
null,,rt_plussign_withcolor1,463153,,,,blue,,,null,object_02c.png,object_07a.png,,,,,,,,,,,,,,,,,,,
1289.5,,rt_thecrossant_black1,464109,,,,black_plus_sign,,,49,,,1,,,,,,,1,,,,,,,,,,,
null,,color_black1,464212,,,,black_plus_sign,,,null,,,,,,,,,,,,,,,,,,,,,
null,,learn_phase(without_color)1,467720,,,,black_plus_sign,,,null,object_04a.png,object_06b.png,,,,,,,,,,,,,,,,,,,
null,,black_cross(without_color)1,468411,,,,green,,,null,object_04a.png,object_06b.png,,,,,,,,,,,,,,,,,,,
null,,rt_plussign_withcolor1,468916,,,,green,,,null,object_04a.png,object_06b.png,,,,,,,,,,,,,,,,,,,
1416.0999999996275,,rt_thecrossant_black1,470235,,,,black_plus_sign,,,50,,,1,,,,,,,1,,,,,,,,,,,
null,,color_black1,470339,,,,black_plus_sign,,,null,,,,,,,,,,,,,,,,,,,,,
null,,learn_phase(without_color)1,473844,,,,black_plus_sign,,,null,object_09a.png,object_04c.png,,,,,,,,,,,,,,,,,,,
null,,black_cross(without_color)1,474506,,,,green,,,null,object_09a.png,object_04c.png,,,,,,,,,,,,,,,,,,,
null,,rt_plussign_withcolor1,475011,,,,green,,,null,object_09a.png,object_04c.png,,,,,,,,,,,,,,,,,,,
1108.8999999994412,,rt_thecrossant_black1,476357,,,,black_plus_sign,,,50,,,1,,,,,,,1,,,,,,,,,,,
null,,color_black1,476462,,,,black_plus_sign,,,null,,,,,,,,,,,,,,,,,,,,,
null,,learn_phase(without_color)1,479976,,,,black_plus_sign,,,null,object_09c.png,object_06a.png,,,,,,,,,,,,,,,,,,,
null,,black_cross(without_color)1,480818,,,,blue,,,null,object_09c.png,object_06a.png,,,,,,,,,,,,,,,,,,,
null,,rt_plussign_withcolor1,481322,,,,blue,,,null,object_09c.png,object_06a.png,,,,,,,,,,,,,,,,,,,
1679,,rt_thecrossant_black1,482487,,,,black_plus_sign,,,49,,,1,,,,,,,1,,,,,,,,,,,
null,,color_black1,482589,,,,black_plus_sign,,,null,,,,,,,,,,,,,,,,,,,,,
null,,learn_phase(without_color)1,486093,,,,black_plus_sign,,,null,object_11c.png,object_09b.png,,,,,,,,,,,,,,,,,,,
null,,black_cross(without_color)1,486859,,,,blue,,,null,object_11c.png,object_09b.png,,,,,,,,,,,,,,,,,,,
null,,rt_plussign_withcolor1,487376,,,,blue,,,null,object_11c.png,object_09b.png,,,,,,,,,,,,,,,,,,,
1307.7000000001863,,rt_thecrossant_black1,488618,,,,black_plus_sign,,,49,,,1,,,,,,,1,,,,,,,,,,,
null,,color_black1,488723,,,,black_plus_sign,,,null,,,,,,,,,,,,,,,,,,,,,
null,,learn_phase(without_color)1,492226,,,,black_plus_sign,,,null,object_08c.png,object_14a.png,,,,,,,,,,,,,,,,,,,
null,,black_cross(without_color)1,492962,,,,green,,,null,object_08c.png,object_14a.png,,,,,,,,,,,,,,,,,,,
null,,rt_plussign_withcolor1,493466,,,,green,,,null,object_08c.png,object_14a.png,,,,,,,,,,,,,,,,,,,
1154.2999999998137,,rt_thecrossant_black1,494739,,,,black_plus_sign,,,50,,,1,,,,,,,1,,,,,,,,,,,
null,,color_black1,494856,,,,black_plus_sign,,,null,,,,,,,,,,,,,,,,,,,,,
null,,learn_phase(without_color)1,498362,,,,black_plus_sign,,,null,object_11a.png,object_02a.png,,,,,,,,,,,,,,,,,,,
null,,black_cross(without_color)1,499231,,,,green,,,null,object_11a.png,object_02a.png,,,,,,,,,,,,,,,,,,,
null,,rt_plussign_withcolor1,499735,,,,green,,,null,object_11a.png,object_02a.png,,,,,,,,,,,,,,,,,,,
1251.2999999998137,,rt_thecrossant_black1,500877,,,,black_plus_sign,,,50,,,1,,,,,,,1,,,,,,,,,,,
null,,color_black1,500984,,,,black_plus_sign,,,null,,,,,,,,,,,,,,,,,,,,,
null,,learn_phase(without_color)1,504491,,,,black_plus_sign,,,null,object_15a.png,object_04b.png,,,,,,,,,,,,,,,,,,,
null,,black_cross(without_color)1,505074,,,,blue,,,null,object_15a.png,object_04b.png,,,,,,,,,,,,,,,,,,,
null,,rt_plussign_withcolor1,505576,,,,blue,,,null,object_15a.png,object_04b.png,,,,,,,,,,,,,,,,,,,
1067.699999999255,,rt_thecrossant_black1,507003,,,,black_plus_sign,,,49,,,1,,,,,,,1,,,,,,,,,,,
null,,color_black1,507107,,,,black_plus_sign,,,null,,,,,,,,,,,,,,,,,,,,,
null,,learn_phase(without_color)1,510614,,,,black_plus_sign,,,null,object_10a.png,object_10b.png,,,,,,,,,,,,,,,,,,,
null,,black_cross(without_color)1,511665,,,,blue,,,null,object_10a.png,object_10b.png,,,,,,,,,,,,,,,,,,,
null,,rt_plussign_withcolor1,512168,,,,blue,,,null,object_10a.png,object_10b.png,,,,,,,,,,,,,,,,,,,
1087.7000000001863,,rt_thecrossant_black1,513133,,,,black_plus_sign,,,49,,,1,,,,,,,1,,,,,,,,,,,
null,,color_black1,513237,,,,black_plus_sign,,,null,,,,,,,,,,,,,,,,,,,,,
null,,learn_phase(without_color)1,516741,,,,black_plus_sign,,,null,object_03b.png,object_11b.png,,,,,,,,,,,,,,,,,,,
null,,black_cross(without_color)1,517448,,,,blue,,,null,object_03b.png,object_11b.png,,,,,,,,,,,,,,,,,,,
null,,rt_plussign_withcolor1,517950,,,,blue,,,null,object_03b.png,object_11b.png,,,,,,,,,,,,,,,,,,,
1451.5999999996275,,rt_thecrossant_black1,519251,,,,black_plus_sign,,,49,,,1,,,,,,,1,,,,,,,,,,,
null,,color_black1,519357,,,,black_plus_sign,,,null,,,,,,,,,,,,,,,,,,,,,
null,,learn_phase(without_color)1,522864,,,,black_plus_sign,,,null,object_14b.png,object_07c.png,,,,,,,,,,,,,,,,,,,
null,,black_cross(without_color)1,523674,,,,blue,,,null,object_14b.png,object_07c.png,,,,,,,,,,,,,,,,,,,
null,,rt_plussign_withcolor1,524176,,,,blue,,,null,object_14b.png,object_07c.png,,,,,,,,,,,,,,,,,,,
1109.6000000005588,,rt_thecrossant_black1,525374,,,,black_plus_sign,,,49,,,1,,,,,,,1,,,,,,,,,,,
null,,color_black1,525477,,,,black_plus_sign,,,null,,,,,,,,,,,,,,,,,,,,,
null,,learn_phase(without_color)1,528982,,,,black_plus_sign,,,null,object_06c.png,object_05c.png,,,,,,,,,,,,,,,,,,,
null,,black_cross(without_color)1,530009,,,,blue,,,null,object_06c.png,object_05c.png,,,,,,,,,,,,,,,,,,,
null,,rt_plussign_withcolor1,530513,,,,blue,,,null,object_06c.png,object_05c.png,,,,,,,,,,,,,,,,,,,
1222.7000000001863,,rt_thecrossant_black1,531494,,,,black_plus_sign,,,49,,,1,,,,,,,1,,,,,,,,,,,
null,,color_black1,531598,,,,black_plus_sign,,,null,,,,,,,,,,,,,,,,,,,,,
null,,learn_phase(without_color)1,535103,,,,black_plus_sign,,,null,object_12a.png,object_12b.png,,,,,,,,,,,,,,,,,,,
null,,black_cross(without_color)1,536120,,,,green,,,null,object_12a.png,object_12b.png,,,,,,,,,,,,,,,,,,,
null,,rt_plussign_withcolor1,536623,,,,green,,,null,object_12a.png,object_12b.png,,,,,,,,,,,,,,,,,,,
1470.6000000005588,,rt_thecrossant_black1,537614,,,,black_plus_sign,,,50,,,1,,,,,,,1,,,,,,,,,,,
null,,color_black1,537717,,,,black_plus_sign,,,null,,,,,,,,,,,,,,,,,,,,,
null,,learn_phase(without_color)1,541220,,,,black_plus_sign,,,null,object_13c.png,object_12c.png,,,,,,,,,,,,,,,,,,,
null,,black_cross(without_color)1,541642,,,,green,,,null,object_13c.png,object_12c.png,,,,,,,,,,,,,,,,,,,
null,,rt_plussign_withcolor1,542146,,,,green,,,null,object_13c.png,object_12c.png,,,,,,,,,,,,,,,,,,,
1343.0999999996275,,rt_thecrossant_black1,543731,,,,black_plus_sign,,,50,,,1,,,,,,,1,,,,,,,,,,,
null,,color_black1,543835,,,,black_plus_sign,,,null,,,,,,,,,,,,,,,,,,,,,
null,,thebreak,543947,,,,<p></p>,,,null,,,,,,,,,,,,,,,,,,,,,
2790,,intro_0,546740,,,,instruct,,,32,,,,,,,,,,,,,,,,,,,,,
10466,,directmemory_phase1,557209,,,,object_06b.png,,,50,,,1,,object_11c.png,object_04a.png,object_03b.png,object_04a.png,,1,,1,,,,,,,,,
7861.200000000186,,directmemory_phase1,565075,,,,object_15a.png,,,49,,,1,,object_04b.png,object_14a.png,object_11a.png,object_04b.png,,1,,1,,,,,,,,,
5347.799999999814,,directmemory_phase1,570428,,,,object_11b.png,,,49,,,1,,object_03b.png,object_04b.png,object_04c.png,object_03b.png,,1,,1,,,,,,,,,
null,,directmemory_phase1,585434,,,,object_04c.png,,,null,,,0,,object_06c.png,object_10a.png,object_09a.png,object_09a.png,,0.75,,0,,,,,,,,,
null,,warning_page,590441,,,,warning,,,null,,,,,,,,,,,,,,,,,,,,,
13477.299999999814,,directmemory_phase1,603923,,,,object_11c.png,,,51,,,1,,object_03b.png,object_14b.png,object_09b.png,object_09b.png,,0.8,,1,,,,,,,,,
6124,,directmemory_phase1,610054,,,,object_05a.png,,,50,,,1,,object_14b.png,object_08b.png,object_04b.png,object_08b.png,,0.8333333333333334,,1,,,,,,,,,
4295.899999999441,,directmemory_phase1,614356,,,,object_06a.png,,,51,,,1,,object_02a.png,object_05a.png,object_09c.png,object_09c.png,,0.8571428571428571,,1,,,,,,,,,
6025.5,,directmemory_phase1,620387,,,,object_07a.png,,,50,,,1,,object_04c.png,object_02c.png,object_10b.png,object_02c.png,,0.875,,1,,,,,,,,,
5678.200000000186,,directmemory_phase1,626071,,,,object_08c.png,,,49,,,0,,object_09c.png,object_06a.png,object_14a.png,object_14a.png,,0.7777777777777778,,0,,,,,,,,,
9561.799999999814,,directmemory_phase1,635639,,,,object_10a.png,,,49,,,1,,object_10b.png,object_09b.png,object_14b.png,object_10b.png,,0.8,,1,,,,,,,,,
12188,,directmemory_phase1,647834,,,,object_12c.png,,,50,,,1,,object_06b.png,object_13c.png,object_14a.png,object_13c.png,,0.8181818181818182,,1,,,,,,,,,
3297.199999999255,,directmemory_phase1,651135,,,,object_12a.png,,,50,,,1,,object_14b.png,object_12b.png,object_02c.png,object_12b.png,,0.8333333333333334,,1,,,,,,,,,
5958.300000000745,,directmemory_phase1,657098,,,,object_05c.png,,,51,,,1,,object_09a.png,object_04c.png,object_06c.png,object_06c.png,,0.8461538461538461,,1,,,,,,,,,
4061.5,,directmemory_phase1,661164,,,,object_14b.png,,,49,,,1,,object_07c.png,object_06c.png,object_05a.png,object_07c.png,,0.8571428571428571,,1,,,,,,,,,
5050.800000000745,,directmemory_phase1,666221,,,,object_11a.png,,,51,,,0,,object_04c.png,object_02a.png,object_06c.png,object_02a.png,,0.8,,0,,,,,,,,,
null,,thebreak,666326,,,,<p></p>,,,null,,,,,,,,,,,,,,,,,,,,,
1134.6000000005588,,intro_0,667464,,,,instruct,,,32,,,,,,,,,,,,,,,,,,,,,
null,,learn_phase(without_color)2,670967,,,,black_plus_sign,,,null,object_03b.png,object_11b.png,,,,,,,,,,,,,,,,,,,
null,,black_cross(without_color)2,671755,,,,green,,,null,object_03b.png,object_11b.png,,,,,,,,,,,,,,,,,,,
null,,rt_plussign_withcolor2,672256,,,,green,,,null,object_03b.png,object_11b.png,,,,,,,,,,,,,,,,,,,
1607.4000000003725,,rt_thecrossant_black2,673477,,,,black_plus_sign,,,50,,,1,,,,,,,1,,,,,,,,,,,
null,,color_black2,673579,,,,black_plus_sign,,,null,,,,,,,,,,,,,,,,,,,,,
null,,learn_phase(without_color)2,677084,,,,black_plus_sign,,,null,object_11c.png,object_09b.png,,,,,,,,,,,,,,,,,,,
null,,black_cross(without_color)2,677914,,,,blue,,,null,object_11c.png,object_09b.png,,,,,,,,,,,,,,,,,,,
null,,rt_plussign_withcolor2,678417,,,,blue,,,null,object_11c.png,object_09b.png,,,,,,,,,,,,,,,,,,,
null,,rt_thecrossant_black2,679597,,,,black_plus_sign,,,null,,,,,,,,,,1,,,,,,,,,,,
null,,color_black2,679709,,,,black_plus_sign,,,null,,,,,,,,,,,,,,,,,,,,,
null,,learn_phase(without_color)2,683215,,,,black_plus_sign,,,null,object_06a.png,object_09c.png,,,,,,,,,,,,,,,,,,,
null,,black_cross(without_color)2,684068,,,,blue,,,null,object_06a.png,object_09c.png,,,,,,,,,,,,,,,,,,,
null,,rt_plussign_withcolor2,684571,,,,blue,,,null,object_06a.png,object_09c.png,,,,,,,,,,,,,,,,,,,
1227,,rt_thecrossant_black2,685726,,,,black_plus_sign,,,49,,,1,,,,,,,1,,,,,,,,,,,
null,,color_black2,685829,,,,black_plus_sign,,,null,,,,,,,,,,,,,,,,,,,,,
null,,learn_phase(without_color)2,689333,,,,black_plus_sign,,,null,object_06b.png,object_04a.png,,,,,,,,,,,,,,,,,,,
null,,black_cross(without_color)2,689758,,,,green,,,null,object_06b.png,object_04a.png,,,,,,,,,,,,,,,,,,,
null,,rt_plussign_withcolor2,690261,,,,green,,,null,object_06b.png,object_04a.png,,,,,,,,,,,,,,,,,,,
1505.7000000001863,,rt_thecrossant_black2,691846,,,,black_plus_sign,,,50,,,1,,,,,,,1,,,,,,,,,,,
null,,color_black2,691950,,,,black_plus_sign,,,null,,,,,,,,,,,,,,,,,,,,,
null,,learn_phase(without_color)2,695455,,,,black_plus_sign,,,null,object_11a.png,object_02a.png,,,,,,,,,,,,,,,,,,,
null,,black_cross(without_color)2,695860,,,,green,,,null,object_11a.png,object_02a.png,,,,,,,,,,,,,,,,,,,
null,,rt_plussign_withcolor2,696363,,,,green,,,null,object_11a.png,object_02a.png,,,,,,,,,,,,,,,,,,,
586,,rt_thecrossant_black2,697967,,,,black_plus_sign,,,50,,,1,,,,,,,1,,,,,,,,,,,
null,,color_black2,698081,,,,black_plus_sign,,,null,,,,,,,,,,,,,,,,,,,,,
null,,learn_phase(without_color)2,701587,,,,black_plus_sign,,,null,object_05c.png,object_06c.png,,,,,,,,,,,,,,,,,,,
null,,black_cross(without_color)2,702233,,,,green,,,null,object_05c.png,object_06c.png,,,,,,,,,,,,,,,,,,,
null,,rt_plussign_withcolor2,702736,,,,green,,,null,object_05c.png,object_06c.png,,,,,,,,,,,,,,,,,,,
686.7999999998137,,rt_thecrossant_black2,704102,,,,black_plus_sign,,,50,,,1,,,,,,,1,,,,,,,,,,,
null,,color_black2,704207,,,,black_plus_sign,,,null,,,,,,,,,,,,,,,,,,,,,
null,,learn_phase(without_color)2,707712,,,,black_plus_sign,,,null,object_14a.png,object_08c.png,,,,,,,,,,,,,,,,,,,
null,,black_cross(without_color)2,708515,,,,green,,,null,object_14a.png,object_08c.png,,,,,,,,,,,,,,,,,,,
null,,rt_plussign_withcolor2,709018,,,,green,,,null,object_14a.png,object_08c.png,,,,,,,,,,,,,,,,,,,
1012,,rt_thecrossant_black2,710225,,,,black_plus_sign,,,50,,,1,,,,,,,1,,,,,,,,,,,
null,,color_black2,710328,,,,black_plus_sign,,,null,,,,,,,,,,,,,,,,,,,,,
null,,learn_phase(without_color)2,713835,,,,black_plus_sign,,,null,object_02c.png,object_07a.png,,,,,,,,,,,,,,,,,,,
null,,black_cross(without_color)2,714922,,,,blue,,,null,object_02c.png,object_07a.png,,,,,,,,,,,,,,,,,,,
null,,rt_plussign_withcolor2,715425,,,,blue,,,null,object_02c.png,object_07a.png,,,,,,,,,,,,,,,,,,,
1039.5999999996275,,rt_thecrossant_black2,716345,,,,black_plus_sign,,,49,,,1,,,,,,,1,,,,,,,,,,,
null,,color_black2,716449,,,,black_plus_sign,,,null,,,,,,,,,,,,,,,,,,,,,
null,,learn_phase(without_color)2,719953,,,,black_plus_sign,,,null,object_09a.png,object_04c.png,,,,,,,,,,,,,,,,,,,
null,,black_cross(without_color)2,720474,,,,blue,,,null,object_09a.png,object_04c.png,,,,,,,,,,,,,,,,,,,
null,,rt_plussign_withcolor2,720976,,,,blue,,,null,object_09a.png,object_04c.png,,,,,,,,,,,,,,,,,,,
1529.6000000005588,,rt_thecrossant_black2,722463,,,,black_plus_sign,,,49,,,1,,,,,,,1,,,,,,,,,,,
null,,color_black2,722566,,,,black_plus_sign,,,null,,,,,,,,,,,,,,,,,,,,,
null,,learn_phase(without_color)2,726071,,,,black_plus_sign,,,null,object_07c.png,object_14b.png,,,,,,,,,,,,,,,,,,,
null,,black_cross(without_color)2,726985,,,,green,,,null,object_07c.png,object_14b.png,,,,,,,,,,,,,,,,,,,
null,,rt_plussign_withcolor2,727488,,,,green,,,null,object_07c.png,object_14b.png,,,,,,,,,,,,,,,,,,,
729.2000000001863,,rt_thecrossant_black2,728583,,,,black_plus_sign,,,50,,,1,,,,,,,1,,,,,,,,,,,
null,,color_black2,728687,,,,black_plus_sign,,,null,,,,,,,,,,,,,,,,,,,,,
null,,learn_phase(without_color)2,732192,,,,black_plus_sign,,,null,object_15a.png,object_04b.png,,,,,,,,,,,,,,,,,,,
null,,black_cross(without_color)2,733048,,,,blue,,,null,object_15a.png,object_04b.png,,,,,,,,,,,,,,,,,,,
null,,rt_plussign_withcolor2,733551,,,,blue,,,null,object_15a.png,object_04b.png,,,,,,,,,,,,,,,,,,,
1112.5,,rt_thecrossant_black2,734704,,,,black_plus_sign,,,49,,,1,,,,,,,1,,,,,,,,,,,
null,,color_black2,734809,,,,black_plus_sign,,,null,,,,,,,,,,,,,,,,,,,,,
null,,learn_phase(without_color)2,738313,,,,black_plus_sign,,,null,object_13c.png,object_12c.png,,,,,,,,,,,,,,,,,,,
null,,black_cross(without_color)2,739045,,,,blue,,,null,object_13c.png,object_12c.png,,,,,,,,,,,,,,,,,,,
null,,rt_plussign_withcolor2,739547,,,,blue,,,null,object_13c.png,object_12c.png,,,,,,,,,,,,,,,,,,,
null,,rt_thecrossant_black2,740834,,,,black_plus_sign,,,null,,,,,,,,,,1,,,,,,,,,,,
null,,color_black2,740937,,,,black_plus_sign,,,null,,,,,,,,,,,,,,,,,,,,,
null,,learn_phase(without_color)2,744443,,,,black_plus_sign,,,null,object_08b.png,object_05a.png,,,,,,,,,,,,,,,,,,,
null,,black_cross(without_color)2,745451,,,,green,,,null,object_08b.png,object_05a.png,,,,,,,,,,,,,,,,,,,
null,,rt_plussign_withcolor2,745953,,,,green,,,null,object_08b.png,object_05a.png,,,,,,,,,,,,,,,,,,,
946.7000000001863,,rt_thecrossant_black2,746953,,,,black_plus_sign,,,50,,,1,,,,,,,1,,,,,,,,,,,
null,,color_black2,747057,,,,black_plus_sign,,,null,,,,,,,,,,,,,,,,,,,,,
null,,learn_phase(without_color)2,750565,,,,black_plus_sign,,,null,object_10b.png,object_10a.png,,,,,,,,,,,,,,,,,,,
null,,black_cross(without_color)2,751635,,,,blue,,,null,object_10b.png,object_10a.png,,,,,,,,,,,,,,,,,,,
null,,rt_plussign_withcolor2,752138,,,,blue,,,null,object_10b.png,object_10a.png,,,,,,,,,,,,,,,,,,,
1189,,rt_thecrossant_black2,753078,,,,black_plus_sign,,,49,,,1,,,,,,,1,,,,,,,,,,,
null,,color_black2,753180,,,,black_plus_sign,,,null,,,,,,,,,,,,,,,,,,,,,
null,,learn_phase(without_color)2,756687,,,,black_plus_sign,,,null,object_12a.png,object_12b.png,,,,,,,,,,,,,,,,,,,
null,,black_cross(without_color)2,757410,,,,blue,,,null,object_12a.png,object_12b.png,,,,,,,,,,,,,,,,,,,
null,,rt_plussign_withcolor2,757913,,,,blue,,,null,object_12a.png,object_12b.png,,,,,,,,,,,,,,,,,,,
1831,,rt_thecrossant_black2,759199,,,,black_plus_sign,,,49,,,1,,,,,,,1,,,,,,,,,,,
null,,color_black2,759308,,,,black_plus_sign,,,null,,,,,,,,,,,,,,,,,,,,,
null,,thebreak,759412,,,,<p></p>,,,null,,,,,,,,,,,,,,,,,,,,,
37213.09999999963,,intro_0,796627,,,,instruct,,,32,,,,,,,,,,,,,,,,,,,,,
7105.100000000559,,directmemory_phase2,803735,,,,object_12a.png,,,50,,,0,,object_04a.png,object_12c.png,object_12b.png,object_12b.png,,0.75,,0,,,,,,,,,
5556.0999999996275,,directmemory_phase2,809298,,,,object_06b.png,,,51,,,1,,object_09c.png,object_15a.png,object_04a.png,object_04a.png,,0.7647058823529411,,1,,,,,,,,,
11545.099999999627,,directmemory_phase2,820849,,,,object_11c.png,,,50,,,1,,object_12c.png,object_09b.png,object_09c.png,object_09b.png,,0.7777777777777778,,1,,,,,,,,,
2740.9000000003725,,directmemory_phase2,823594,,,,object_07a.png,,,51,,,1,,object_09b.png,object_11b.png,object_02c.png,object_02c.png,,0.7894736842105263,,1,,,,,,,,,
2421.5999999996275,,directmemory_phase2,826022,,,,object_04c.png,,,49,,,1,,object_09a.png,object_06c.png,object_11c.png,object_09a.png,,0.8,,1,,,,,,,,,
3342.699999999255,,directmemory_phase2,829370,,,,object_05c.png,,,50,,,1,,object_05a.png,object_06c.png,object_04a.png,object_06c.png,,0.8095238095238095,,1,,,,,,,,,
4392.5999999996275,,directmemory_phase2,833766,,,,object_11a.png,,,51,,,1,,object_09a.png,object_11b.png,object_02a.png,object_02a.png,,0.8181818181818182,,1,,,,,,,,,
9934,,directmemory_phase2,843706,,,,object_11b.png,,,51,,,0,,object_11c.png,object_03b.png,object_04b.png,object_03b.png,,0.782608695652174,,0,,,,,,,,,
6467,,directmemory_phase2,850178,,,,object_10a.png,,,49,,,1,,object_10b.png,object_09c.png,object_04c.png,object_10b.png,,0.7916666666666666,,1,,,,,,,,,
3438,,directmemory_phase2,853621,,,,object_06a.png,,,49,,,1,,object_09c.png,object_03b.png,object_05a.png,object_09c.png,,0.8,,1,,,,,,,,,
3665.2000000001863,,directmemory_phase2,857293,,,,object_14b.png,,,49,,,1,,object_07c.png,object_09b.png,object_06a.png,object_07c.png,,0.8076923076923077,,1,,,,,,,,,
7663.5,,directmemory_phase2,864961,,,,object_08c.png,,,50,,,1,,object_05c.png,object_14a.png,object_04b.png,object_14a.png,,0.8148148148148148,,1,,,,,,,,,
3423.2999999998137,,directmemory_phase2,868389,,,,object_15a.png,,,51,,,1,,object_09b.png,object_11a.png,object_04b.png,object_04b.png,,0.8214285714285714,,1,,,,,,,,,
6676.5,,directmemory_phase2,875069,,,,object_12c.png,,,51,,,1,,object_08b.png,object_04c.png,object_13c.png,object_13c.png,,0.8275862068965517,,1,,,,,,,,,
7478.399999999441,,directmemory_phase2,882552,,,,object_05a.png,,,51,,,1,,object_02c.png,object_11a.png,object_08b.png,object_08b.png,,0.8333333333333334,,1,,,,,,,,,
null,,thebreak,882656,,,,<p></p>,,,null,,,,,,,,,,,,,,,,,,,,,
30079.200000000186,,intro_0,912739,,,,instruct,,,32,,,,,,,,,,,,,,,,,,,,,
null,,learn_phase(without_color)3,916258,,,,black_plus_sign,,,null,object_11b.png,object_03b.png,,,,,,,,,,,,,,,,,,,
null,,black_cross(without_color)3,917106,,,,blue,,,null,object_11b.png,object_03b.png,,,,,,,,,,,,,,,,,,,
null,,rt_plussign_withcolor3,917608,,,,blue,,,null,object_11b.png,object_03b.png,,,,,,,,,,,,,,,,,,,
null,,rt_thecrossant_black3,918770,,,,black_plus_sign,,,null,,,,,,,,,,NaN,,,,,,,,,,,
null,,color_black3,918875,,,,black_plus_sign,,,null,,,,,,,,,,,,,,,,,,,,,
null,,learn_phase(without_color)3,922384,,,,black_plus_sign,,,null,object_04c.png,object_09a.png,,,,,,,,,,,,,,,,,,,
null,,black_cross(without_color)3,923045,,,,blue,,,null,object_04c.png,object_09a.png,,,,,,,,,,,,,,,,,,,
null,,rt_plussign_withcolor3,923548,,,,blue,,,null,object_04c.png,object_09a.png,,,,,,,,,,,,,,,,,,,
1046.8999999994412,,rt_thecrossant_black3,924915,,,,black_plus_sign,,,49,,,1,,,,,,,1,,,,,,,,,,,
null,,color_black3,925020,,,,black_plus_sign,,,null,,,,,,,,,,,,,,,,,,,,,
null,,learn_phase(without_color)3,928524,,,,black_plus_sign,,,null,object_02a.png,object_11a.png,,,,,,,,,,,,,,,,,,,
null,,black_cross(without_color)3,929060,,,,blue,,,null,object_02a.png,object_11a.png,,,,,,,,,,,,,,,,,,,
null,,rt_plussign_withcolor3,929563,,,,blue,,,null,object_02a.png,object_11a.png,,,,,,,,,,,,,,,,,,,
803.9000000003725,,rt_thecrossant_black3,931034,,,,black_plus_sign,,,49,,,1,,,,,,,1,,,,,,,,,,,
null,,color_black3,931138,,,,black_plus_sign,,,null,,,,,,,,,,,,,,,,,,,,,
null,,learn_phase(without_color)3,934641,,,,black_plus_sign,,,null,object_07a.png,object_02c.png,,,,,,,,,,,,,,,,,,,
null,,black_cross(without_color)3,935255,,,,blue,,,null,object_07a.png,object_02c.png,,,,,,,,,,,,,,,,,,,
null,,rt_plussign_withcolor3,935761,,,,blue,,,null,object_07a.png,object_02c.png,,,,,,,,,,,,,,,,,,,
738.7000000001863,,rt_thecrossant_black3,937158,,,,black_plus_sign,,,49,,,1,,,,,,,1,,,,,,,,,,,
null,,color_black3,937262,,,,black_plus_sign,,,null,,,,,,,,,,,,,,,,,,,,,
null,,learn_phase(without_color)3,940775,,,,black_plus_sign,,,null,object_13c.png,object_12c.png,,,,,,,,,,,,,,,,,,,
null,,black_cross(without_color)3,941481,,,,green,,,null,object_13c.png,object_12c.png,,,,,,,,,,,,,,,,,,,
null,,rt_plussign_withcolor3,941985,,,,green,,,null,object_13c.png,object_12c.png,,,,,,,,,,,,,,,,,,,
896.5999999996275,,rt_thecrossant_black3,943287,,,,black_plus_sign,,,50,,,1,,,,,,,1,,,,,,,,,,,
null,,color_black3,943407,,,,black_plus_sign,,,null,,,,,,,,,,,,,,,,,,,,,
null,,learn_phase(without_color)3,946917,,,,black_plus_sign,,,null,object_09b.png,object_11c.png,,,,,,,,,,,,,,,,,,,
null,,black_cross(without_color)3,947831,,,,blue,,,null,object_09b.png,object_11c.png,,,,,,,,,,,,,,,,,,,
null,,rt_plussign_withcolor3,948335,,,,blue,,,null,object_09b.png,object_11c.png,,,,,,,,,,,,,,,,,,,
1087.4000000003725,,rt_thecrossant_black3,949435,,,,black_plus_sign,,,49,,,1,,,,,,,1,,,,,,,,,,,
null,,color_black3,949540,,,,black_plus_sign,,,null,,,,,,,,,,,,,,,,,,,,,
null,,learn_phase(without_color)3,953047,,,,black_plus_sign,,,null,object_06a.png,object_09c.png,,,,,,,,,,,,,,,,,,,
null,,black_cross(without_color)3,953795,,,,blue,,,null,object_06a.png,object_09c.png,,,,,,,,,,,,,,,,,,,
null,,rt_plussign_withcolor3,954308,,,,blue,,,null,object_06a.png,object_09c.png,,,,,,,,,,,,,,,,,,,
1128.300000000745,,rt_thecrossant_black3,955568,,,,black_plus_sign,,,49,,,1,,,,,,,1,,,,,,,,,,,
null,,color_black3,955672,,,,black_plus_sign,,,null,,,,,,,,,,,,,,,,,,,,,
null,,learn_phase(without_color)3,959181,,,,black_plus_sign,,,null,object_08b.png,object_05a.png,,,,,,,,,,,,,,,,,,,
null,,black_cross(without_color)3,959618,,,,green,,,null,object_08b.png,object_05a.png,,,,,,,,,,,,,,,,,,,
null,,rt_plussign_withcolor3,960121,,,,green,,,null,object_08b.png,object_05a.png,,,,,,,,,,,,,,,,,,,
1621.2999999998137,,rt_thecrossant_black3,961691,,,,black_plus_sign,,,50,,,1,,,,,,,1,,,,,,,,,,,
null,,color_black3,961793,,,,black_plus_sign,,,null,,,,,,,,,,,,,,,,,,,,,
null,,learn_phase(without_color)3,965306,,,,black_plus_sign,,,null,object_06b.png,object_04a.png,,,,,,,,,,,,,,,,,,,
null,,black_cross(without_color)3,966187,,,,blue,,,null,object_06b.png,object_04a.png,,,,,,,,,,,,,,,,,,,
null,,rt_plussign_withcolor3,966689,,,,blue,,,null,object_06b.png,object_04a.png,,,,,,,,,,,,,,,,,,,
657.2000000001863,,rt_thecrossant_black3,967814,,,,black_plus_sign,,,49,,,1,,,,,,,1,,,,,,,,,,,
null,,color_black3,967917,,,,black_plus_sign,,,null,,,,,,,,,,,,,,,,,,,,,
null,,learn_phase(without_color)3,971424,,,,black_plus_sign,,,null,object_12a.png,object_12b.png,,,,,,,,,,,,,,,,,,,
null,,black_cross(without_color)3,972165,,,,green,,,null,object_12a.png,object_12b.png,,,,,,,,,,,,,,,,,,,
null,,rt_plussign_withcolor3,972668,,,,green,,,null,object_12a.png,object_12b.png,,,,,,,,,,,,,,,,,,,
1243.8999999994412,,rt_thecrossant_black3,973935,,,,black_plus_sign,,,50,,,1,,,,,,,1,,,,,,,,,,,
null,,color_black3,974040,,,,black_plus_sign,,,null,,,,,,,,,,,,,,,,,,,,,
null,,learn_phase(without_color)3,977549,,,,black_plus_sign,,,null,object_07c.png,object_14b.png,,,,,,,,,,,,,,,,,,,
null,,black_cross(without_color)3,978653,,,,green,,,null,object_07c.png,object_14b.png,,,,,,,,,,,,,,,,,,,
null,,rt_plussign_withcolor3,979156,,,,green,,,null,object_07c.png,object_14b.png,,,,,,,,,,,,,,,,,,,
1051.7999999998137,,rt_thecrossant_black3,980060,,,,black_plus_sign,,,50,,,1,,,,,,,1,,,,,,,,,,,
null,,color_black3,980164,,,,black_plus_sign,,,null,,,,,,,,,,,,,,,,,,,,,
null,,learn_phase(without_color)3,983679,,,,black_plus_sign,,,null,object_10b.png,object_10a.png,,,,,,,,,,,,,,,,,,,
null,,black_cross(without_color)3,984388,,,,blue,,,null,object_10b.png,object_10a.png,,,,,,,,,,,,,,,,,,,
null,,rt_plussign_withcolor3,984892,,,,blue,,,null,object_10b.png,object_10a.png,,,,,,,,,,,,,,,,,,,
1426.5,,rt_thecrossant_black3,986195,,,,black_plus_sign,,,49,,,1,,,,,,,1,,,,,,,,,,,
null,,color_black3,986300,,,,black_plus_sign,,,null,,,,,,,,,,,,,,,,,,,,,
null,,learn_phase(without_color)3,989805,,,,black_plus_sign,,,null,object_14a.png,object_08c.png,,,,,,,,,,,,,,,,,,,
null,,black_cross(without_color)3,990901,,,,green,,,null,object_14a.png,object_08c.png,,,,,,,,,,,,,,,,,,,
null,,rt_plussign_withcolor3,991404,,,,green,,,null,object_14a.png,object_08c.png,,,,,,,,,,,,,,,,,,,
1031.2999999998137,,rt_thecrossant_black3,992318,,,,black_plus_sign,,,50,,,1,,,,,,,1,,,,,,,,,,,
null,,color_black3,992423,,,,black_plus_sign,,,null,,,,,,,,,,,,,,,,,,,,,
null,,learn_phase(without_color)3,995939,,,,black_plus_sign,,,null,object_15a.png,object_04b.png,,,,,,,,,,,,,,,,,,,
null,,black_cross(without_color)3,996660,,,,green,,,null,object_15a.png,object_04b.png,,,,,,,,,,,,,,,,,,,
null,,rt_plussign_withcolor3,997175,,,,green,,,null,object_15a.png,object_04b.png,,,,,,,,,,,,,,,,,,,
1375,,rt_thecrossant_black3,998473,,,,black_plus_sign,,,50,,,1,,,,,,,1,,,,,,,,,,,
null,,color_black3,998578,,,,black_plus_sign,,,null,,,,,,,,,,,,,,,,,,,,,
null,,learn_phase(without_color)3,1002084,,,,black_plus_sign,,,null,object_05c.png,object_06c.png,,,,,,,,,,,,,,,,,,,
null,,black_cross(without_color)3,1003011,,,,blue,,,null,object_05c.png,object_06c.png,,,,,,,,,,,,,,,,,,,
495,,rt_plussign_withcolor3,1003515,,,,blue,,,49,object_05c.png,object_06c.png,,,,,,,,,,,,,,,,,,,
null,,rt_thecrossant_black3,1004617,,,,black_plus_sign,,,null,,,1,,,,,,,1,,,,,,,,,,,
null,,color_black3,1004721,,,,black_plus_sign,,,null,,,,,,,,,,,,,,,,,,,,,
null,,thebreak,1004827,,,,<p></p>,,,null,,,,,,,,,,,,,,,,,,,,,
37220.200000000186,,intro_0,1042051,,,,instruct,,,32,,,,,,,,,,,,,,,,,,,,,
2423,,directmemory_phase3,1044478,,,,object_06b.png,,,50,,,1,,object_11c.png,object_04a.png,object_06c.png,object_04a.png,,0.8387096774193549,,1,,,,,,,,,
6086.0999999996275,,directmemory_phase3,1050571,,,,object_05c.png,,,51,,,1,,object_04a.png,object_11c.png,object_06c.png,object_06c.png,,0.84375,,1,,,,,,,,,
9954.600000000559,,directmemory_phase3,1060529,,,,object_04c.png,,,51,,,0,,object_09a.png,object_10b.png,object_11a.png,object_09a.png,,0.8181818181818182,,0,,,,,,,,,
11621,,directmemory_phase3,1072154,,,,object_14b.png,,,49,,,1,,object_07c.png,object_04b.png,object_06b.png,object_07c.png,,0.8235294117647058,,1,,,,,,,,,
10971.300000000745,,directmemory_phase3,1083131,,,,object_08c.png,,,51,,,0,,object_14a.png,object_02c.png,object_11b.png,object_14a.png,,0.8,,0,,,,,,,,,
5047.9000000003725,,directmemory_phase3,1088183,,,,object_15a.png,,,51,,,1,,object_14a.png,object_14b.png,object_04b.png,object_04b.png,,0.8055555555555556,,1,,,,,,,,,
3319.0999999996275,,directmemory_phase3,1091510,,,,object_05a.png,,,50,,,1,,object_10a.png,object_08b.png,object_03b.png,object_08b.png,,0.8108108108108109,,1,,,,,,,,,
9241.599999999627,,directmemory_phase3,1100757,,,,object_12a.png,,,50,,,1,,object_12c.png,object_12b.png,object_04b.png,object_12b.png,,0.8157894736842105,,1,,,,,,,,,
2142.5999999996275,,directmemory_phase3,1102906,,,,object_06a.png,,,49,,,1,,object_09c.png,object_04a.png,object_15a.png,object_09c.png,,0.8205128205128205,,1,,,,,,,,,
2122.2999999998137,,directmemory_phase3,1105034,,,,object_11c.png,,,50,,,0,,object_07c.png,object_04c.png,object_09b.png,object_09b.png,,0.8,,0,,,,,,,,,
1145.5,,directmemory_phase3,1106182,,,,object_11b.png,,,49,,,1,,object_03b.png,object_04a.png,object_11a.png,object_03b.png,,0.8048780487804879,,1,,,,,,,,,
2953.2000000001863,,directmemory_phase3,1109138,,,,object_10a.png,,,50,,,0,,object_10b.png,object_06c.png,object_07a.png,object_10b.png,,0.7857142857142857,,0,,,,,,,,,
2582.2000000001863,,directmemory_phase3,1111722,,,,object_07a.png,,,50,,,1,,object_15a.png,object_02c.png,object_14a.png,object_02c.png,,0.7906976744186046,,1,,,,,,,,,
1261.1000000005588,,directmemory_phase3,1112986,,,,object_11a.png,,,49,,,0,,object_05c.png,object_02a.png,object_02c.png,object_02a.png,,0.7727272727272727,,0,,,,,,,,,
5725.5,,directmemory_phase3,1118715,,,,object_12c.png,,,51,,,1,,object_03b.png,object_10a.png,object_13c.png,object_13c.png,,0.7777777777777778,,1,,,,,,,,,
null,,thebreak,1118820,,,,<p></p>,,,null,,,,,,,,,,,,,,,,,,,,,
26996.5,,intro_0,1145821,,,,instruct,,,32,,,,,,,,,,,,,,,,,,,,,
null,,learn_phase(without_color)4,1149324,,,,black_plus_sign,,,null,object_14b.png,object_07c.png,,,,,,,,,,,,,,,,,,,
null,,black_cross(without_color)4,1149872,,,,green,,,null,object_14b.png,object_07c.png,,,,,,,,,,,,,,,,,,,
null,,rt_plussign_withcolor4,1150375,,,,green,,,null,object_14b.png,object_07c.png,,,,,,,,,,,,,,,,,,,
717.7000000001863,,rt_thecrossant_black4,1151835,,,,black_plus_sign,,,50,,,1,,,,,,,1,,,,,,,,,,,
null,,color_black4,1151940,,,,black_plus_sign,,,null,,,,,,,,,,,,,,,,,,,,,
null,,learn_phase(without_color)4,1155446,,,,black_plus_sign,,,null,object_12a.png,object_12b.png,,,,,,,,,,,,,,,,,,,
null,,black_cross(without_color)4,1156426,,,,blue,,,null,object_12a.png,object_12b.png,,,,,,,,,,,,,,,,,,,
null,,rt_plussign_withcolor4,1156928,,,,blue,,,null,object_12a.png,object_12b.png,,,,,,,,,,,,,,,,,,,
687.7999999998137,,rt_thecrossant_black4,1157955,,,,black_plus_sign,,,49,,,1,,,,,,,1,,,,,,,,,,,
null,,color_black4,1158071,,,,black_plus_sign,,,null,,,,,,,,,,,,,,,,,,,,,
null,,learn_phase(without_color)4,1161576,,,,black_plus_sign,,,null,object_09c.png,object_06a.png,,,,,,,,,,,,,,,,,,,
null,,black_cross(without_color)4,1162194,,,,blue,,,null,object_09c.png,object_06a.png,,,,,,,,,,,,,,,,,,,
null,,rt_plussign_withcolor4,1162701,,,,blue,,,null,object_09c.png,object_06a.png,,,,,,,,,,,,,,,,,,,
1350.6000000005588,,rt_thecrossant_black4,1164094,,,,black_plus_sign,,,49,,,1,,,,,,,1,,,,,,,,,,,
null,,color_black4,1164198,,,,black_plus_sign,,,null,,,,,,,,,,,,,,,,,,,,,
null,,learn_phase(without_color)4,1167703,,,,black_plus_sign,,,null,object_10a.png,object_10b.png,,,,,,,,,,,,,,,,,,,
null,,black_cross(without_color)4,1168291,,,,blue,,,null,object_10a.png,object_10b.png,,,,,,,,,,,,,,,,,,,
null,,rt_plussign_withcolor4,1168794,,,,blue,,,null,object_10a.png,object_10b.png,,,,,,,,,,,,,,,,,,,
1364.4000000003725,,rt_thecrossant_black4,1170215,,,,black_plus_sign,,,49,,,1,,,,,,,1,,,,,,,,,,,
null,,color_black4,1170321,,,,black_plus_sign,,,null,,,,,,,,,,,,,,,,,,,,,
null,,learn_phase(without_color)4,1173828,,,,black_plus_sign,,,null,object_11c.png,object_09b.png,,,,,,,,,,,,,,,,,,,
null,,black_cross(without_color)4,1174527,,,,green,,,null,object_11c.png,object_09b.png,,,,,,,,,,,,,,,,,,,
null,,rt_plussign_withcolor4,1175031,,,,green,,,null,object_11c.png,object_09b.png,,,,,,,,,,,,,,,,,,,
793.4000000003725,,rt_thecrossant_black4,1176340,,,,black_plus_sign,,,50,,,1,,,,,,,1,,,,,,,,,,,
null,,color_black4,1176457,,,,black_plus_sign,,,null,,,,,,,,,,,,,,,,,,,,,
null,,learn_phase(without_color)4,1179960,,,,black_plus_sign,,,null,object_05a.png,object_08b.png,,,,,,,,,,,,,,,,,,,
null,,black_cross(without_color)4,1180854,,,,blue,,,null,object_05a.png,object_08b.png,,,,,,,,,,,,,,,,,,,
null,,rt_plussign_withcolor4,1181356,,,,blue,,,null,object_05a.png,object_08b.png,,,,,,,,,,,,,,,,,,,
982.2000000001863,,rt_thecrossant_black4,1182470,,,,black_plus_sign,,,49,,,1,,,,,,,1,,,,,,,,,,,
null,,color_black4,1182574,,,,black_plus_sign,,,null,,,,,,,,,,,,,,,,,,,,,
null,,learn_phase(without_color)4,1186079,,,,black_plus_sign,,,null,object_02c.png,object_07a.png,,,,,,,,,,,,,,,,,,,
null,,black_cross(without_color)4,1186837,,,,blue,,,null,object_02c.png,object_07a.png,,,,,,,,,,,,,,,,,,,
null,,rt_plussign_withcolor4,1187341,,,,blue,,,null,object_02c.png,object_07a.png,,,,,,,,,,,,,,,,,,,
992.2999999998137,,rt_thecrossant_black4,1188589,,,,black_plus_sign,,,49,,,1,,,,,,,1,,,,,,,,,,,
null,,color_black4,1188692,,,,black_plus_sign,,,null,,,,,,,,,,,,,,,,,,,,,
null,,learn_phase(without_color)4,1192197,,,,black_plus_sign,,,null,object_04c.png,object_09a.png,,,,,,,,,,,,,,,,,,,
null,,black_cross(without_color)4,1193076,,,,blue,,,null,object_04c.png,object_09a.png,,,,,,,,,,,,,,,,,,,
null,,rt_plussign_withcolor4,1193579,,,,blue,,,null,object_04c.png,object_09a.png,,,,,,,,,,,,,,,,,,,
1191.4000000003725,,rt_thecrossant_black4,1194709,,,,black_plus_sign,,,49,,,1,,,,,,,1,,,,,,,,,,,
null,,color_black4,1194811,,,,black_plus_sign,,,null,,,,,,,,,,,,,,,,,,,,,
null,,learn_phase(without_color)4,1198316,,,,black_plus_sign,,,null,object_02a.png,object_11a.png,,,,,,,,,,,,,,,,,,,
null,,black_cross(without_color)4,1199374,,,,green,,,null,object_02a.png,object_11a.png,,,,,,,,,,,,,,,,,,,
null,,rt_plussign_withcolor4,1199878,,,,green,,,null,object_02a.png,object_11a.png,,,,,,,,,,,,,,,,,,,
1523.2000000001863,,rt_thecrossant_black4,1200827,,,,black_plus_sign,,,50,,,1,,,,,,,1,,,,,,,,,,,
null,,color_black4,1200930,,,,black_plus_sign,,,null,,,,,,,,,,,,,,,,,,,,,
null,,learn_phase(without_color)4,1204437,,,,black_plus_sign,,,null,object_03b.png,object_11b.png,,,,,,,,,,,,,,,,,,,
null,,black_cross(without_color)4,1205287,,,,green,,,null,object_03b.png,object_11b.png,,,,,,,,,,,,,,,,,,,
null,,rt_plussign_withcolor4,1205791,,,,green,,,null,object_03b.png,object_11b.png,,,,,,,,,,,,,,,,,,,
1261.9000000003725,,rt_thecrossant_black4,1206949,,,,black_plus_sign,,,50,,,1,,,,,,,1,,,,,,,,,,,
null,,color_black4,1207054,,,,black_plus_sign,,,null,,,,,,,,,,,,,,,,,,,,,
null,,learn_phase(without_color)4,1210560,,,,black_plus_sign,,,null,object_14a.png,object_08c.png,,,,,,,,,,,,,,,,,,,
null,,black_cross(without_color)4,1211188,,,,blue,,,null,object_14a.png,object_08c.png,,,,,,,,,,,,,,,,,,,
null,,rt_plussign_withcolor4,1211691,,,,blue,,,null,object_14a.png,object_08c.png,,,,,,,,,,,,,,,,,,,
1168.2999999998137,,rt_thecrossant_black4,1213069,,,,black_plus_sign,,,49,,,1,,,,,,,1,,,,,,,,,,,
null,,color_black4,1213172,,,,black_plus_sign,,,null,,,,,,,,,,,,,,,,,,,,,
null,,learn_phase(without_color)4,1216677,,,,black_plus_sign,,,null,object_15a.png,object_04b.png,,,,,,,,,,,,,,,,,,,
null,,black_cross(without_color)4,1217607,,,,blue,,,null,object_15a.png,object_04b.png,,,,,,,,,,,,,,,,,,,
null,,rt_plussign_withcolor4,1218112,,,,blue,,,null,object_15a.png,object_04b.png,,,,,,,,,,,,,,,,,,,
null,,rt_thecrossant_black4,1219191,,,,black_plus_sign,,,null,,,,,,,,,,1,,,,,,,,,,,
null,,color_black4,1219295,,,,black_plus_sign,,,null,,,,,,,,,,,,,,,,,,,,,
null,,learn_phase(without_color)4,1222801,,,,black_plus_sign,,,null,object_06c.png,object_05c.png,,,,,,,,,,,,,,,,,,,
null,,black_cross(without_color)4,1223570,,,,green,,,null,object_06c.png,object_05c.png,,,,,,,,,,,,,,,,,,,
null,,rt_plussign_withcolor4,1224073,,,,green,,,null,object_06c.png,object_05c.png,,,,,,,,,,,,,,,,,,,
1442.2999999998137,,rt_thecrossant_black4,1225311,,,,black_plus_sign,,,50,,,1,,,,,,,1,,,,,,,,,,,
null,,color_black4,1225416,,,,black_plus_sign,,,null,,,,,,,,,,,,,,,,,,,,,
null,,learn_phase(without_color)4,1228922,,,,black_plus_sign,,,null,object_04a.png,object_06b.png,,,,,,,,,,,,,,,,,,,
null,,black_cross(without_color)4,1229357,,,,green,,,null,object_04a.png,object_06b.png,,,,,,,,,,,,,,,,,,,
null,,rt_plussign_withcolor4,1229861,,,,green,,,null,object_04a.png,object_06b.png,,,,,,,,,,,,,,,,,,,
904,,rt_thecrossant_black4,1231436,,,,black_plus_sign,,,50,,,1,,,,,,,1,,,,,,,,,,,
null,,color_black4,1231541,,,,black_plus_sign,,,null,,,,,,,,,,,,,,,,,,,,,
null,,learn_phase(without_color)4,1235045,,,,black_plus_sign,,,null,object_12c.png,object_13c.png,,,,,,,,,,,,,,,,,,,
null,,black_cross(without_color)4,1235647,,,,blue,,,null,object_12c.png,object_13c.png,,,,,,,,,,,,,,,,,,,
null,,rt_plussign_withcolor4,1236149,,,,blue,,,null,object_12c.png,object_13c.png,,,,,,,,,,,,,,,,,,,
829.9000000003725,,rt_thecrossant_black4,1237554,,,,black_plus_sign,,,49,,,1,,,,,,,1,,,,,,,,,,,
null,,color_black4,1237659,,,,black_plus_sign,,,null,,,,,,,,,,,,,,,,,,,,,
null,,thebreak,1237763,,,,<p></p>,,,null,,,,,,,,,,,,,,,,,,,,,
49900.199999999255,,intro_0,1287666,,,,instruct,,,32,,,,,,,,,,,,,,,,,,,,,
3539.7999999998137,,directmemory_phase4,1291209,,,,object_12a.png,,,49,,,1,,object_12b.png,object_04b.png,object_06b.png,object_12b.png,,0.782608695652174,,1,,,,,,,,,
3024.0999999996275,,directmemory_phase4,1294238,,,,object_11c.png,,,50,,,1,,object_06b.png,object_09b.png,object_06c.png,object_09b.png,,0.7872340425531915,,1,,,,,,,,,
1546,,directmemory_phase4,1295790,,,,object_08c.png,,,49,,,0,,object_10b.png,object_07a.png,object_14a.png,object_14a.png,,0.7708333333333334,,0,,,,,,,,,
1282.3999999994412,,directmemory_phase4,1297075,,,,object_10a.png,,,51,,,1,,object_02a.png,object_05c.png,object_10b.png,object_10b.png,,0.7755102040816326,,1,,,,,,,,,
2620.4000000003725,,directmemory_phase4,1299703,,,,object_07a.png,,,51,,,1,,object_02a.png,object_11a.png,object_02c.png,object_02c.png,,0.78,,1,,,,,,,,,
1639.4000000003725,,directmemory_phase4,1301349,,,,object_11a.png,,,49,,,1,,object_02a.png,object_09c.png,object_04c.png,object_02a.png,,0.7843137254901961,,1,,,,,,,,,
1209.4000000003725,,directmemory_phase4,1302565,,,,object_15a.png,,,50,,,0,,object_04b.png,object_02a.png,object_07a.png,object_04b.png,,0.7692307692307693,,0,,,,,,,,,
1109.9000000003725,,directmemory_phase4,1303681,,,,object_06b.png,,,51,,,0,,object_04a.png,object_14a.png,object_08c.png,object_04a.png,,0.7547169811320755,,0,,,,,,,,,
2323.4000000003725,,directmemory_phase4,1306010,,,,object_04c.png,,,51,,,1,,object_09c.png,object_15a.png,object_09a.png,object_09a.png,,0.7592592592592593,,1,,,,,,,,,
2671.2999999998137,,directmemory_phase4,1308685,,,,object_12c.png,,,49,,,1,,object_13c.png,object_02c.png,object_11b.png,object_13c.png,,0.7636363636363637,,1,,,,,,,,,
2869,,directmemory_phase4,1311560,,,,object_06a.png,,,49,,,1,,object_09c.png,object_03b.png,object_06b.png,object_09c.png,,0.7678571428571429,,1,,,,,,,,,
2737.7999999998137,,directmemory_phase4,1314302,,,,object_05a.png,,,51,,,1,,object_09b.png,object_04c.png,object_08b.png,object_08b.png,,0.7719298245614035,,1,,,,,,,,,
1055.2999999998137,,directmemory_phase4,1315362,,,,object_11b.png,,,50,,,0,,object_09b.png,object_11a.png,object_03b.png,object_03b.png,,0.7586206896551724,,0,,,,,,,,,
684.3999999994412,,directmemory_phase4,1316052,,,,object_14b.png,,,51,,,1,,object_09a.png,object_10a.png,object_07c.png,object_07c.png,,0.7627118644067796,,1,,,,,,,,,
490.5,,directmemory_phase4,1316548,,,,object_05c.png,,,50,,,0,,object_06c.png,object_07c.png,object_11b.png,object_06c.png,,0.75,,0,,,,,,,,,
null,,thebreak,1316654,,,,<p></p>,,,null,,,,,,,,,,,,,,,,,,,,,
7243.199999999255,,intro_0,1323901,,,,instruct,,,32,,,,,,,,,,,,,,,,,,,,,
null,,learn_phase(without_color)5,1327405,,,,black_plus_sign,,,null,object_03a.png,object_04b.png,,,,,,,,,,,,,,,,,,,
null,,black_cross(without_color)5,1327823,,,,blue,,,null,object_03a.png,object_04b.png,,,,,,,,,,,,,,,,,,,
null,,rt_plussign_withcolor5,1328327,,,,blue,,,null,object_03a.png,object_04b.png,,,,,,,,,,,,,,,,,,,
864,,rt_thecrossant_black5,1329919,,,,black_plus_sign,,,49,,,1,,,,,,,1,,,,,,,,,,,
null,,color_black5,1330022,,,,black_plus_sign,,,null,,,,,,,,,,,,,,,,,,,,,
null,,learn_phase(without_color)5,1333526,,,,black_plus_sign,,,null,object_06c.png,object_02b.png,,,,,,,,,,,,,,,,,,,
null,,black_cross(without_color)5,1334445,,,,blue,,,null,object_06c.png,object_02b.png,,,,,,,,,,,,,,,,,,,
null,,rt_plussign_withcolor5,1334949,,,,blue,,,null,object_06c.png,object_02b.png,,,,,,,,,,,,,,,,,,,
819.5999999996275,,rt_thecrossant_black5,1336039,,,,black_plus_sign,,,49,,,1,,,,,,,1,,,,,,,,,,,
null,,color_black5,1336142,,,,black_plus_sign,,,null,,,,,,,,,,,,,,,,,,,,,
null,,learn_phase(without_color)5,1339648,,,,black_plus_sign,,,null,object_02c.png,object_08a.png,,,,,,,,,,,,,,,,,,,
null,,black_cross(without_color)5,1340584,,,,blue,,,null,object_02c.png,object_08a.png,,,,,,,,,,,,,,,,,,,
null,,rt_plussign_withcolor5,1341088,,,,blue,,,null,object_02c.png,object_08a.png,,,,,,,,,,,,,,,,,,,
1089.1000000005588,,rt_thecrossant_black5,1342173,,,,black_plus_sign,,,49,,,1,,,,,,,1,,,,,,,,,,,
null,,color_black5,1342277,,,,black_plus_sign,,,null,,,,,,,,,,,,,,,,,,,,,
null,,learn_phase(without_color)5,1345785,,,,black_plus_sign,,,null,object_13c.png,object_15b.png,,,,,,,,,,,,,,,,,,,
null,,black_cross(without_color)5,1346520,,,,blue,,,null,object_13c.png,object_15b.png,,,,,,,,,,,,,,,,,,,
null,,rt_plussign_withcolor5,1347024,,,,blue,,,null,object_13c.png,object_15b.png,,,,,,,,,,,,,,,,,,,
1095.8999999994412,,rt_thecrossant_black5,1348306,,,,black_plus_sign,,,49,,,1,,,,,,,1,,,,,,,,,,,
null,,color_black5,1348411,,,,black_plus_sign,,,null,,,,,,,,,,,,,,,,,,,,,
null,,learn_phase(without_color)5,1351918,,,,black_plus_sign,,,null,object_09c.png,object_01a.png,,,,,,,,,,,,,,,,,,,
null,,black_cross(without_color)5,1352992,,,,blue,,,null,object_09c.png,object_01a.png,,,,,,,,,,,,,,,,,,,
456.8999999994412,,rt_plussign_withcolor5,1353497,,,,blue,,,49,object_09c.png,object_01a.png,,,,,,,,,,,,,,,,,,,
null,,rt_thecrossant_black5,1354437,,,,black_plus_sign,,,null,,,1,,,,,,,1,,,,,,,,,,,
null,,color_black5,1354543,,,,black_plus_sign,,,null,,,,,,,,,,,,,,,,,,,,,
null,,learn_phase(without_color)5,1358050,,,,black_plus_sign,,,null,object_09a.png,object_03c.png,,,,,,,,,,,,,,,,,,,
null,,black_cross(without_color)5,1358730,,,,green,,,null,object_09a.png,object_03c.png,,,,,,,,,,,,,,,,,,,
null,,rt_plussign_withcolor5,1359232,,,,green,,,null,object_09a.png,object_03c.png,,,,,,,,,,,,,,,,,,,
1357.7000000001863,,rt_thecrossant_black5,1360560,,,,black_plus_sign,,,50,,,1,,,,,,,1,,,,,,,,,,,
null,,color_black5,1360665,,,,black_plus_sign,,,null,,,,,,,,,,,,,,,,,,,,,
null,,learn_phase(without_color)5,1364174,,,,black_plus_sign,,,null,object_04a.png,object_14c.png,,,,,,,,,,,,,,,,,,,
null,,black_cross(without_color)5,1364909,,,,green,,,null,object_04a.png,object_14c.png,,,,,,,,,,,,,,,,,,,
null,,rt_plussign_withcolor5,1365411,,,,green,,,null,object_04a.png,object_14c.png,,,,,,,,,,,,,,,,,,,
1303.2000000001863,,rt_thecrossant_black5,1366688,,,,black_plus_sign,,,50,,,1,,,,,,,1,,,,,,,,,,,
null,,color_black5,1366793,,,,black_plus_sign,,,null,,,,,,,,,,,,,,,,,,,,,
null,,learn_phase(without_color)5,1370299,,,,black_plus_sign,,,null,object_01c.png,object_14a.png,,,,,,,,,,,,,,,,,,,
null,,black_cross(without_color)5,1370897,,,,blue,,,null,object_01c.png,object_14a.png,,,,,,,,,,,,,,,,,,,
null,,rt_plussign_withcolor5,1371400,,,,blue,,,null,object_01c.png,object_14a.png,,,,,,,,,,,,,,,,,,,
953.2000000001863,,rt_thecrossant_black5,1372811,,,,black_plus_sign,,,49,,,1,,,,,,,1,,,,,,,,,,,
null,,color_black5,1372914,,,,black_plus_sign,,,null,,,,,,,,,,,,,,,,,,,,,
null,,learn_phase(without_color)5,1376418,,,,black_plus_sign,,,null,object_09b.png,object_13a.png,,,,,,,,,,,,,,,,,,,
null,,black_cross(without_color)5,1377463,,,,blue,,,null,object_09b.png,object_13a.png,,,,,,,,,,,,,,,,,,,
null,,rt_plussign_withcolor5,1377966,,,,blue,,,null,object_09b.png,object_13a.png,,,,,,,,,,,,,,,,,,,
1391.300000000745,,rt_thecrossant_black5,1378928,,,,black_plus_sign,,,49,,,1,,,,,,,1,,,,,,,,,,,
null,,color_black5,1379030,,,,black_plus_sign,,,null,,,,,,,,,,,,,,,,,,,,,
null,,learn_phase(without_color)5,1382533,,,,black_plus_sign,,,null,object_07b.png,object_12b.png,,,,,,,,,,,,,,,,,,,
null,,black_cross(without_color)5,1383325,,,,blue,,,null,object_07b.png,object_12b.png,,,,,,,,,,,,,,,,,,,
null,,rt_plussign_withcolor5,1383830,,,,blue,,,null,object_07b.png,object_12b.png,,,,,,,,,,,,,,,,,,,
1208.7000000001863,,rt_thecrossant_black5,1385046,,,,black_plus_sign,,,49,,,1,,,,,,,1,,,,,,,,,,,
null,,color_black5,1385150,,,,black_plus_sign,,,null,,,,,,,,,,,,,,,,,,,,,
null,,learn_phase(without_color)5,1388655,,,,black_plus_sign,,,null,object_10c.png,object_08b.png,,,,,,,,,,,,,,,,,,,
null,,black_cross(without_color)5,1389358,,,,green,,,null,object_10c.png,object_08b.png,,,,,,,,,,,,,,,,,,,
409.19999999925494,,rt_plussign_withcolor5,1389860,,,,green,,,50,object_10c.png,object_08b.png,,,,,,,,,,,,,,,,,,,
null,,rt_thecrossant_black5,1391165,,,,black_plus_sign,,,null,,,1,,,,,,,1,,,,,,,,,,,
null,,color_black5,1391275,,,,black_plus_sign,,,null,,,,,,,,,,,,,,,,,,,,,
null,,learn_phase(without_color)5,1394785,,,,black_plus_sign,,,null,object_07c.png,object_05b.png,,,,,,,,,,,,,,,,,,,
null,,black_cross(without_color)5,1395229,,,,green,,,null,object_07c.png,object_05b.png,,,,,,,,,,,,,,,,,,,
361.5,,rt_plussign_withcolor5,1395731,,,,green,,,50,object_07c.png,object_05b.png,,,,,,,,,,,,,,,,,,,
null,,rt_thecrossant_black5,1397297,,,,black_plus_sign,,,null,,,1,,,,,,,1,,,,,,,,,,,
null,,color_black5,1397403,,,,black_plus_sign,,,null,,,,,,,,,,,,,,,,,,,,,
null,,learn_phase(without_color)5,1400912,,,,black_plus_sign,,,null,object_10b.png,object_15c.png,,,,,,,,,,,,,,,,,,,
null,,black_cross(without_color)5,1401365,,,,green,,,null,object_10b.png,object_15c.png,,,,,,,,,,,,,,,,,,,
407.5,,rt_plussign_withcolor5,1401868,,,,green,,,50,object_10b.png,object_15c.png,,,,,,,,,,,,,,,,,,,
null,,rt_thecrossant_black5,1403424,,,,black_plus_sign,,,null,,,1,,,,,,,1,,,,,,,,,,,
null,,color_black5,1403528,,,,black_plus_sign,,,null,,,,,,,,,,,,,,,,,,,,,
null,,learn_phase(without_color)5,1407032,,,,black_plus_sign,,,null,object_01b.png,object_03b.png,,,,,,,,,,,,,,,,,,,
null,,black_cross(without_color)5,1408051,,,,green,,,null,object_01b.png,object_03b.png,,,,,,,,,,,,,,,,,,,
null,,rt_plussign_withcolor5,1408554,,,,green,,,null,object_01b.png,object_03b.png,,,,,,,,,,,,,,,,,,,
737.0999999996275,,rt_thecrossant_black5,1409540,,,,black_plus_sign,,,50,,,1,,,,,,,1,,,,,,,,,,,
null,,color_black5,1409643,,,,black_plus_sign,,,null,,,,,,,,,,,,,,,,,,,,,
null,,learn_phase(without_color)5,1413149,,,,black_plus_sign,,,null,object_13b.png,object_02a.png,,,,,,,,,,,,,,,,,,,
null,,black_cross(without_color)5,1413728,,,,blue,,,null,object_13b.png,object_02a.png,,,,,,,,,,,,,,,,,,,
null,,rt_plussign_withcolor5,1414233,,,,blue,,,null,object_13b.png,object_02a.png,,,,,,,,,,,,,,,,,,,
1345.2999999998137,,rt_thecrossant_black5,1415665,,,,black_plus_sign,,,49,,,1,,,,,,,1,,,,,,,,,,,
null,,color_black5,1415769,,,,black_plus_sign,,,null,,,,,,,,,,,,,,,,,,,,,
null,,thebreak,1415875,,,,<p></p>,,,null,,,,,,,,,,,,,,,,,,,,,
11077.200000000186,,intro_0,1426956,,,,instruct,,,32,,,,,,,,,,,,,,,,,,,,,
7013.4000000003725,,directmemory_phase5,1433973,,,,object_07c.png,,,51,,,1,,object_02b.png,object_04a.png,object_05b.png,object_05b.png,,0.7540983606557377,,1,,,,,,,,,
2327.2999999998137,,directmemory_phase5,1436307,,,,object_14a.png,,,50,,,1,,object_04a.png,object_01c.png,object_05b.png,object_01c.png,,0.7580645161290323,,1,,,,,,,,,
1189.4000000003725,,directmemory_phase5,1437502,,,,object_13b.png,,,51,,,1,,object_03b.png,object_03c.png,object_02a.png,object_02a.png,,0.7619047619047619,,1,,,,,,,,,
1275.7000000001863,,directmemory_phase5,1438784,,,,object_12b.png,,,50,,,0,,object_07b.png,object_10c.png,object_13c.png,object_07b.png,,0.75,,0,,,,,,,,,
766.1999999992549,,directmemory_phase5,1439555,,,,object_04b.png,,,49,,,0,,object_09b.png,object_03a.png,object_01b.png,object_03a.png,,0.7384615384615385,,0,1,,,,,,,,
null,,slowdown_page,1449560,,,,too_quick,,,null,,,,,,,,,,,,,,,,,,,,,
4377,,directmemory_phase5,1453941,,,,object_09a.png,,,51,,,1,,object_08a.png,object_08b.png,object_03c.png,object_03c.png,,0.7424242424242424,,1,,,,,,,,,
4038.5,,directmemory_phase5,1457987,,,,object_01a.png,,,50,,,1,,object_15b.png,object_09c.png,object_10b.png,object_09c.png,,0.746268656716418,,1,,,,,,,,,
4053.2999999998137,,directmemory_phase5,1462045,,,,object_08b.png,,,51,,,1,,object_02b.png,object_09a.png,object_10c.png,object_10c.png,,0.75,,1,,,,,,,,,
2932.7999999998137,,directmemory_phase5,1464985,,,,object_15c.png,,,49,,,1,,object_10b.png,object_02a.png,object_13b.png,object_10b.png,,0.7536231884057971,,1,,,,,,,,,
6550.5,,directmemory_phase5,1471542,,,,object_13c.png,,,50,,,1,,object_03b.png,object_15b.png,object_02b.png,object_15b.png,,0.7571428571428571,,1,,,,,,,,,
4399.200000000186,,directmemory_phase5,1475945,,,,object_02c.png,,,51,,,1,,object_03c.png,object_09a.png,object_08a.png,object_08a.png,,0.7605633802816901,,1,,,,,,,,,
4363.299999999814,,directmemory_phase5,1480313,,,,object_14c.png,,,51,,,1,,object_09a.png,object_10c.png,object_04a.png,object_04a.png,,0.7638888888888888,,1,,,,,,,,,
12876.100000000559,,directmemory_phase5,1493195,,,,object_13a.png,,,51,,,1,,object_08b.png,object_08a.png,object_09b.png,object_09b.png,,0.7671232876712328,,1,,,,,,,,,
2724.5,,directmemory_phase5,1495927,,,,object_01b.png,,,50,,,1,,object_03a.png,object_03b.png,object_10b.png,object_03b.png,,0.7702702702702703,,1,,,,,,,,,
5815.5999999996275,,directmemory_phase5,1501748,,,,object_06c.png,,,49,,,1,,object_02b.png,object_15c.png,object_10b.png,object_02b.png,,0.7733333333333333,,1,,,,,,,,,
null,,thebreak,1501860,,,,<p></p>,,,null,,,,,,,,,,,,,,,,,,,,,
16046.300000000745,,intro_0,1517910,,,,instruct,,,32,,,,,,,,,,,,,,,,,,,,,
null,,learn_phase(without_color)6,1521415,,,,black_plus_sign,,,null,object_08a.png,object_02c.png,,,,,,,,,,,,,,,,,,,
null,,black_cross(without_color)6,1521894,,,,green,,,null,object_08a.png,object_02c.png,,,,,,,,,,,,,,,,,,,
null,,rt_plussign_withcolor6,1522406,,,,green,,,null,object_08a.png,object_02c.png,,,,,,,,,,,,,,,,,,,
1483.9000000003725,,rt_thecrossant_black6,1523936,,,,black_plus_sign,,,50,,,1,,,,,,,1,,,,,,,,,,,
null,,color_black6,1524053,,,,black_plus_sign,,,null,,,,,,,,,,,,,,,,,,,,,
null,,learn_phase(without_color)6,1527561,,,,black_plus_sign,,,null,object_01a.png,object_09c.png,,,,,,,,,,,,,,,,,,,
null,,black_cross(without_color)6,1528547,,,,green,,,null,object_01a.png,object_09c.png,,,,,,,,,,,,,,,,,,,
null,,rt_plussign_withcolor6,1529049,,,,green,,,null,object_01a.png,object_09c.png,,,,,,,,,,,,,,,,,,,
1501.5999999996275,,rt_thecrossant_black6,1530074,,,,black_plus_sign,,,50,,,1,,,,,,,1,,,,,,,,,,,
null,,color_black6,1530178,,,,black_plus_sign,,,null,,,,,,,,,,,,,,,,,,,,,
null,,learn_phase(without_color)6,1533685,,,,black_plus_sign,,,null,object_02a.png,object_13b.png,,,,,,,,,,,,,,,,,,,
null,,black_cross(without_color)6,1534623,,,,green,,,null,object_02a.png,object_13b.png,,,,,,,,,,,,,,,,,,,
null,,rt_plussign_withcolor6,1535127,,,,green,,,null,object_02a.png,object_13b.png,,,,,,,,,,,,,,,,,,,
1471.8999999994412,,rt_thecrossant_black6,1536200,,,,black_plus_sign,,,50,,,1,,,,,,,1,,,,,,,,,,,
null,,color_black6,1536305,,,,black_plus_sign,,,null,,,,,,,,,,,,,,,,,,,,,
null,,learn_phase(without_color)6,1539812,,,,black_plus_sign,,,null,object_13a.png,object_09b.png,,,,,,,,,,,,,,,,,,,
null,,black_cross(without_color)6,1540333,,,,blue,,,null,object_13a.png,object_09b.png,,,,,,,,,,,,,,,,,,,
null,,rt_plussign_withcolor6,1540837,,,,blue,,,null,object_13a.png,object_09b.png,,,,,,,,,,,,,,,,,,,
1213.1000000005588,,rt_thecrossant_black6,1542326,,,,black_plus_sign,,,49,,,1,,,,,,,1,,,,,,,,,,,
null,,color_black6,1542430,,,,black_plus_sign,,,null,,,,,,,,,,,,,,,,,,,,,
null,,learn_phase(without_color)6,1545936,,,,black_plus_sign,,,null,object_04b.png,object_03a.png,,,,,,,,,,,,,,,,,,,
null,,black_cross(without_color)6,1546442,,,,green,,,null,object_04b.png,object_03a.png,,,,,,,,,,,,,,,,,,,
null,,rt_plussign_withcolor6,1546944,,,,green,,,null,object_04b.png,object_03a.png,,,,,,,,,,,,,,,,,,,
761,,rt_thecrossant_black6,1548443,,,,black_plus_sign,,,50,,,1,,,,,,,1,,,,,,,,,,,
null,,color_black6,1548546,,,,black_plus_sign,,,null,,,,,,,,,,,,,,,,,,,,,
null,,learn_phase(without_color)6,1552052,,,,black_plus_sign,,,null,object_14c.png,object_04a.png,,,,,,,,,,,,,,,,,,,
null,,black_cross(without_color)6,1552725,,,,blue,,,null,object_14c.png,object_04a.png,,,,,,,,,,,,,,,,,,,
null,,rt_plussign_withcolor6,1553228,,,,blue,,,null,object_14c.png,object_04a.png,,,,,,,,,,,,,,,,,,,
836,,rt_thecrossant_black6,1554565,,,,black_plus_sign,,,49,,,1,,,,,,,1,,,,,,,,,,,
null,,color_black6,1554669,,,,black_plus_sign,,,null,,,,,,,,,,,,,,,,,,,,,
null,,learn_phase(without_color)6,1558175,,,,black_plus_sign,,,null,object_14a.png,object_01c.png,,,,,,,,,,,,,,,,,,,
null,,black_cross(without_color)6,1559040,,,,blue,,,null,object_14a.png,object_01c.png,,,,,,,,,,,,,,,,,,,
null,,rt_plussign_withcolor6,1559544,,,,blue,,,null,object_14a.png,object_01c.png,,,,,,,,,,,,,,,,,,,
974.2999999998137,,rt_thecrossant_black6,1560690,,,,black_plus_sign,,,49,,,1,,,,,,,1,,,,,,,,,,,
null,,color_black6,1560795,,,,black_plus_sign,,,null,,,,,,,,,,,,,,,,,,,,,
null,,learn_phase(without_color)6,1564304,,,,black_plus_sign,,,null,object_12b.png,object_07b.png,,,,,,,,,,,,,,,,,,,
null,,black_cross(without_color)6,1565103,,,,blue,,,null,object_12b.png,object_07b.png,,,,,,,,,,,,,,,,,,,
null,,rt_plussign_withcolor6,1565606,,,,blue,,,null,object_12b.png,object_07b.png,,,,,,,,,,,,,,,,,,,
1118.2999999998137,,rt_thecrossant_black6,1566823,,,,black_plus_sign,,,49,,,1,,,,,,,1,,,,,,,,,,,
null,,color_black6,1566928,,,,black_plus_sign,,,null,,,,,,,,,,,,,,,,,,,,,
null,,learn_phase(without_color)6,1570435,,,,black_plus_sign,,,null,object_02b.png,object_06c.png,,,,,,,,,,,,,,,,,,,
null,,black_cross(without_color)6,1571275,,,,blue,,,null,object_02b.png,object_06c.png,,,,,,,,,,,,,,,,,,,
null,,rt_plussign_withcolor6,1571788,,,,blue,,,null,object_02b.png,object_06c.png,,,,,,,,,,,,,,,,,,,
1003.3000000007451,,rt_thecrossant_black6,1572955,,,,black_plus_sign,,,49,,,1,,,,,,,1,,,,,,,,,,,
null,,color_black6,1573057,,,,black_plus_sign,,,null,,,,,,,,,,,,,,,,,,,,,
null,,learn_phase(without_color)6,1576568,,,,black_plus_sign,,,null,object_03c.png,object_09a.png,,,,,,,,,,,,,,,,,,,
null,,black_cross(without_color)6,1577336,,,,blue,,,null,object_03c.png,object_09a.png,,,,,,,,,,,,,,,,,,,
null,,rt_plussign_withcolor6,1577840,,,,blue,,,null,object_03c.png,object_09a.png,,,,,,,,,,,,,,,,,,,
1190,,rt_thecrossant_black6,1579081,,,,black_plus_sign,,,49,,,1,,,,,,,1,,,,,,,,,,,
null,,color_black6,1579186,,,,black_plus_sign,,,null,,,,,,,,,,,,,,,,,,,,,
null,,learn_phase(without_color)6,1582693,,,,black_plus_sign,,,null,object_15c.png,object_10b.png,,,,,,,,,,,,,,,,,,,
null,,black_cross(without_color)6,1583535,,,,blue,,,null,object_15c.png,object_10b.png,,,,,,,,,,,,,,,,,,,
485,,rt_plussign_withcolor6,1584037,,,,blue,,,49,object_15c.png,object_10b.png,,,,,,,,,,,,,,,,,,,
null,,rt_thecrossant_black6,1585205,,,,black_plus_sign,,,49,,,1,,,,,,,1,,,,,,,,,,,
null,,color_black6,1585309,,,,black_plus_sign,,,null,,,,,,,,,,,,,,,,,,,,,
null,,learn_phase(without_color)6,1588815,,,,black_plus_sign,,,null,object_03b.png,object_01b.png,,,,,,,,,,,,,,,,,,,
null,,black_cross(without_color)6,1589377,,,,green,,,null,object_03b.png,object_01b.png,,,,,,,,,,,,,,,,,,,
null,,rt_plussign_withcolor6,1589879,,,,green,,,null,object_03b.png,object_01b.png,,,,,,,,,,,,,,,,,,,
1523.1000000005588,,rt_thecrossant_black6,1591325,,,,black_plus_sign,,,50,,,1,,,,,,,1,,,,,,,,,,,
null,,color_black6,1591429,,,,black_plus_sign,,,null,,,,,,,,,,,,,,,,,,,,,
null,,learn_phase(without_color)6,1594935,,,,black_plus_sign,,,null,object_07c.png,object_05b.png,,,,,,,,,,,,,,,,,,,
null,,black_cross(without_color)6,1595671,,,,green,,,null,object_07c.png,object_05b.png,,,,,,,,,,,,,,,,,,,
null,,rt_plussign_withcolor6,1596174,,,,green,,,null,object_07c.png,object_05b.png,,,,,,,,,,,,,,,,,,,
962.8000000007451,,rt_thecrossant_black6,1597458,,,,black_plus_sign,,,50,,,1,,,,,,,1,,,,,,,,,,,
null,,color_black6,1597562,,,,black_plus_sign,,,null,,,,,,,,,,,,,,,,,,,,,
null,,learn_phase(without_color)6,1601068,,,,black_plus_sign,,,null,object_15b.png,object_13c.png,,,,,,,,,,,,,,,,,,,
null,,black_cross(without_color)6,1601824,,,,green,,,null,object_15b.png,object_13c.png,,,,,,,,,,,,,,,,,,,
null,,rt_plussign_withcolor6,1602329,,,,green,,,null,object_15b.png,object_13c.png,,,,,,,,,,,,,,,,,,,
949.8999999994412,,rt_thecrossant_black6,1603583,,,,black_plus_sign,,,50,,,1,,,,,,,1,,,,,,,,,,,
null,,color_black6,1603689,,,,black_plus_sign,,,null,,,,,,,,,,,,,,,,,,,,,
null,,learn_phase(without_color)6,1607195,,,,black_plus_sign,,,null,object_10c.png,object_08b.png,,,,,,,,,,,,,,,,,,,
null,,black_cross(without_color)6,1607839,,,,blue,,,null,object_10c.png,object_08b.png,,,,,,,,,,,,,,,,,,,
null,,rt_plussign_withcolor6,1608342,,,,blue,,,null,object_10c.png,object_08b.png,,,,,,,,,,,,,,,,,,,
null,,rt_thecrossant_black6,1609704,,,,black_plus_sign,,,null,,,,,,,,,,1,,,,,,,,,,,
null,,color_black6,1609807,,,,black_plus_sign,,,null,,,,,,,,,,,,,,,,,,,,,
null,,thebreak,1609910,,,,<p></p>,,,null,,,,,,,,,,,,,,,,,,,,,
9042.199999999255,,intro_0,1618954,,,,instruct,,,32,,,,,,,,,,,,,,,,,,,,,
8853.899999999441,,directmemory_phase6,1627812,,,,object_03c.png,,,49,,,0,,object_01b.png,object_09a.png,object_09c.png,object_09a.png,,0.7631578947368421,,0,,,,,,,,,
4968.200000000186,,directmemory_phase6,1632787,,,,object_09b.png,,,50,,,1,,object_08b.png,object_13a.png,object_14c.png,object_13a.png,,0.7662337662337663,,1,,,,,,,,,
4023.5,,directmemory_phase6,1636814,,,,object_03b.png,,,51,,,1,,object_02b.png,object_02c.png,object_01b.png,object_01b.png,,0.7692307692307693,,1,,,,,,,,,
5611.5999999996275,,directmemory_phase6,1642428,,,,object_01a.png,,,49,,,1,,object_09c.png,object_03b.png,object_01b.png,object_09c.png,,0.7721518987341772,,1,,,,,,,,,
5111.799999999814,,directmemory_phase6,1647544,,,,object_07b.png,,,49,,,1,,object_12b.png,object_09b.png,object_08a.png,object_12b.png,,0.775,,1,,,,,,,,,
4088.800000000745,,directmemory_phase6,1651640,,,,object_15c.png,,,49,,,1,,object_10b.png,object_13c.png,object_01a.png,object_10b.png,,0.7777777777777778,,1,,,,,,,,,
3052.600000000559,,directmemory_phase6,1654697,,,,object_04b.png,,,49,,,1,,object_03a.png,object_01b.png,object_02a.png,object_03a.png,,0.7804878048780488,,1,,,,,,,,,
3496.899999999441,,directmemory_phase6,1658201,,,,object_07c.png,,,50,,,0,,object_05b.png,object_13b.png,object_04a.png,object_05b.png,,0.7710843373493976,,0,,,,,,,,,
8253.700000000186,,directmemory_phase6,1666462,,,,object_15b.png,,,49,,,1,,object_13c.png,object_09c.png,object_03a.png,object_13c.png,,0.7738095238095238,,1,,,,,,,,,
3360.899999999441,,directmemory_phase6,1669827,,,,object_13b.png,,,49,,,1,,object_02a.png,object_06c.png,object_08a.png,object_02a.png,,0.7764705882352941,,1,,,,,,,,,
2192.2999999998137,,directmemory_phase6,1672025,,,,object_01c.png,,,51,,,1,,object_10b.png,object_15c.png,object_14a.png,object_14a.png,,0.7790697674418605,,1,,,,,,,,,
3764.2000000001863,,directmemory_phase6,1675793,,,,object_02b.png,,,50,,,0,,object_06c.png,object_09a.png,object_03a.png,object_06c.png,,0.7701149425287356,,0,,,,,,,,,
5660.199999999255,,directmemory_phase6,1681460,,,,object_08a.png,,,51,,,1,,object_09b.png,object_05b.png,object_02c.png,object_02c.png,,0.7727272727272727,,1,,,,,,,,,
3661,,directmemory_phase6,1685128,,,,object_14c.png,,,51,,,0,,object_04a.png,object_09b.png,object_03c.png,object_04a.png,,0.7640449438202247,,0,,,,,,,,,
4971,,directmemory_phase6,1690103,,,,object_08b.png,,,51,,,1,,object_08a.png,object_04a.png,object_10c.png,object_10c.png,,0.7666666666666667,,1,,,,,,,,,
null,,thebreak,1690208,,,,<p></p>,,,null,,,,,,,,,,,,,,,,,,,,,
22874.5,,intro_0,1713086,,,,instruct,,,32,,,,,,,,,,,,,,,,,,,,,
null,,learn_phase(without_color)7,1716590,,,,black_plus_sign,,,null,object_14c.png,object_04a.png,,,,,,,,,,,,,,,,,,,
null,,black_cross(without_color)7,1717600,,,,blue,,,null,object_14c.png,object_04a.png,,,,,,,,,,,,,,,,,,,
null,,rt_plussign_withcolor7,1718102,,,,blue,,,null,object_14c.png,object_04a.png,,,,,,,,,,,,,,,,,,,
1332.9000000003725,,rt_thecrossant_black7,1719100,,,,black_plus_sign,,,49,,,1,,,,,,,1,,,,,,,,,,,
null,,color_black7,1719204,,,,black_plus_sign,,,null,,,,,,,,,,,,,,,,,,,,,
null,,learn_phase(without_color)7,1722710,,,,black_plus_sign,,,null,object_04b.png,object_03a.png,,,,,,,,,,,,,,,,,,,
null,,black_cross(without_color)7,1723561,,,,blue,,,null,object_04b.png,object_03a.png,,,,,,,,,,,,,,,,,,,
null,,rt_plussign_withcolor7,1724064,,,,blue,,,null,object_04b.png,object_03a.png,,,,,,,,,,,,,,,,,,,
1328.7999999998137,,rt_thecrossant_black7,1725221,,,,black_plus_sign,,,49,,,1,,,,,,,1,,,,,,,,,,,
null,,color_black7,1725327,,,,black_plus_sign,,,null,,,,,,,,,,,,,,,,,,,,,
null,,learn_phase(without_color)7,1728833,,,,black_plus_sign,,,null,object_13c.png,object_15b.png,,,,,,,,,,,,,,,,,,,
null,,black_cross(without_color)7,1729640,,,,blue,,,null,object_13c.png,object_15b.png,,,,,,,,,,,,,,,,,,,
null,,rt_plussign_withcolor7,1730145,,,,blue,,,null,object_13c.png,object_15b.png,,,,,,,,,,,,,,,,,,,
1119.7999999998137,,rt_thecrossant_black7,1731348,,,,black_plus_sign,,,49,,,1,,,,,,,1,,,,,,,,,,,
null,,color_black7,1731454,,,,black_plus_sign,,,null,,,,,,,,,,,,,,,,,,,,,
null,,learn_phase(without_color)7,1734963,,,,black_plus_sign,,,null,object_09b.png,object_13a.png,,,,,,,,,,,,,,,,,,,
null,,black_cross(without_color)7,1735497,,,,blue,,,null,object_09b.png,object_13a.png,,,,,,,,,,,,,,,,,,,
null,,rt_plussign_withcolor7,1736001,,,,blue,,,null,object_09b.png,object_13a.png,,,,,,,,,,,,,,,,,,,
1286.8999999994412,,rt_thecrossant_black7,1737497,,,,black_plus_sign,,,49,,,1,,,,,,,1,,,,,,,,,,,
null,,color_black7,1737603,,,,black_plus_sign,,,null,,,,,,,,,,,,,,,,,,,,,
null,,learn_phase(without_color)7,1741112,,,,black_plus_sign,,,null,object_01a.png,object_09c.png,,,,,,,,,,,,,,,,,,,
null,,black_cross(without_color)7,1741840,,,,blue,,,null,object_01a.png,object_09c.png,,,,,,,,,,,,,,,,,,,
null,,rt_plussign_withcolor7,1742344,,,,blue,,,null,object_01a.png,object_09c.png,,,,,,,,,,,,,,,,,,,
641.7000000001863,,rt_thecrossant_black7,1743627,,,,black_plus_sign,,,49,,,1,,,,,,,1,,,,,,,,,,,
null,,color_black7,1743730,,,,black_plus_sign,,,null,,,,,,,,,,,,,,,,,,,,,
null,,learn_phase(without_color)7,1747237,,,,black_plus_sign,,,null,object_01b.png,object_03b.png,,,,,,,,,,,,,,,,,,,
null,,black_cross(without_color)7,1748112,,,,blue,,,null,object_01b.png,object_03b.png,,,,,,,,,,,,,,,,,,,
null,,rt_plussign_withcolor7,1748615,,,,blue,,,null,object_01b.png,object_03b.png,,,,,,,,,,,,,,,,,,,
906.4000000003725,,rt_thecrossant_black7,1749751,,,,black_plus_sign,,,49,,,1,,,,,,,1,,,,,,,,,,,
null,,color_black7,1749855,,,,black_plus_sign,,,null,,,,,,,,,,,,,,,,,,,,,
null,,learn_phase(without_color)7,1753362,,,,black_plus_sign,,,null,object_10c.png,object_08b.png,,,,,,,,,,,,,,,,,,,
null,,black_cross(without_color)7,1754428,,,,blue,,,null,object_10c.png,object_08b.png,,,,,,,,,,,,,,,,,,,
null,,rt_plussign_withcolor7,1754930,,,,blue,,,null,object_10c.png,object_08b.png,,,,,,,,,,,,,,,,,,,
1222.5,,rt_thecrossant_black7,1755875,,,,black_plus_sign,,,49,,,1,,,,,,,1,,,,,,,,,,,
null,,color_black7,1755981,,,,black_plus_sign,,,null,,,,,,,,,,,,,,,,,,,,,
null,,learn_phase(without_color)7,1759488,,,,black_plus_sign,,,null,object_02a.png,object_13b.png,,,,,,,,,,,,,,,,,,,
null,,black_cross(without_color)7,1760240,,,,blue,,,null,object_02a.png,object_13b.png,,,,,,,,,,,,,,,,,,,
null,,rt_plussign_withcolor7,1760744,,,,blue,,,null,object_02a.png,object_13b.png,,,,,,,,,,,,,,,,,,,
1221.5,,rt_thecrossant_black7,1762004,,,,black_plus_sign,,,49,,,1,,,,,,,1,,,,,,,,,,,
null,,color_black7,1762109,,,,black_plus_sign,,,null,,,,,,,,,,,,,,,,,,,,,
null,,learn_phase(without_color)7,1765615,,,,black_plus_sign,,,null,object_15c.png,object_10b.png,,,,,,,,,,,,,,,,,,,
null,,black_cross(without_color)7,1766387,,,,blue,,,null,object_15c.png,object_10b.png,,,,,,,,,,,,,,,,,,,
null,,rt_plussign_withcolor7,1766891,,,,blue,,,null,object_15c.png,object_10b.png,,,,,,,,,,,,,,,,,,,
896,,rt_thecrossant_black7,1768127,,,,black_plus_sign,,,49,,,1,,,,,,,1,,,,,,,,,,,
null,,color_black7,1768232,,,,black_plus_sign,,,null,,,,,,,,,,,,,,,,,,,,,
null,,learn_phase(without_color)7,1771741,,,,black_plus_sign,,,null,object_12b.png,object_07b.png,,,,,,,,,,,,,,,,,,,
null,,black_cross(without_color)7,1772420,,,,green,,,null,object_12b.png,object_07b.png,,,,,,,,,,,,,,,,,,,
null,,rt_plussign_withcolor7,1772923,,,,green,,,null,object_12b.png,object_07b.png,,,,,,,,,,,,,,,,,,,
1538.1000000005588,,rt_thecrossant_black7,1774255,,,,black_plus_sign,,,50,,,1,,,,,,,1,,,,,,,,,,,
null,,color_black7,1774360,,,,black_plus_sign,,,null,,,,,,,,,,,,,,,,,,,,,
null,,learn_phase(without_color)7,1777871,,,,black_plus_sign,,,null,object_06c.png,object_02b.png,,,,,,,,,,,,,,,,,,,
null,,black_cross(without_color)7,1778392,,,,blue,,,null,object_06c.png,object_02b.png,,,,,,,,,,,,,,,,,,,
null,,rt_plussign_withcolor7,1778895,,,,blue,,,null,object_06c.png,object_02b.png,,,,,,,,,,,,,,,,,,,
872.6000000005588,,rt_thecrossant_black7,1780381,,,,black_plus_sign,,,49,,,1,,,,,,,1,,,,,,,,,,,
null,,color_black7,1780486,,,,black_plus_sign,,,null,,,,,,,,,,,,,,,,,,,,,
null,,learn_phase(without_color)7,1783994,,,,black_plus_sign,,,null,object_09a.png,object_03c.png,,,,,,,,,,,,,,,,,,,
null,,black_cross(without_color)7,1784597,,,,green,,,null,object_09a.png,object_03c.png,,,,,,,,,,,,,,,,,,,
null,,rt_plussign_withcolor7,1785100,,,,green,,,null,object_09a.png,object_03c.png,,,,,,,,,,,,,,,,,,,
800.2000000001863,,rt_thecrossant_black7,1786507,,,,black_plus_sign,,,50,,,1,,,,,,,1,,,,,,,,,,,
null,,color_black7,1786612,,,,black_plus_sign,,,null,,,,,,,,,,,,,,,,,,,,,
null,,learn_phase(without_color)7,1790117,,,,black_plus_sign,,,null,object_01c.png,object_14a.png,,,,,,,,,,,,,,,,,,,
null,,black_cross(without_color)7,1791046,,,,blue,,,null,object_01c.png,object_14a.png,,,,,,,,,,,,,,,,,,,
null,,rt_plussign_withcolor7,1791549,,,,blue,,,null,object_01c.png,object_14a.png,,,,,,,,,,,,,,,,,,,
739.1000000005588,,rt_thecrossant_black7,1792630,,,,black_plus_sign,,,49,,,1,,,,,,,1,,,,,,,,,,,
null,,color_black7,1792736,,,,black_plus_sign,,,null,,,,,,,,,,,,,,,,,,,,,
null,,learn_phase(without_color)7,1796242,,,,black_plus_sign,,,null,object_02c.png,object_08a.png,,,,,,,,,,,,,,,,,,,
null,,black_cross(without_color)7,1797174,,,,green,,,null,object_02c.png,object_08a.png,,,,,,,,,,,,,,,,,,,
null,,rt_plussign_withcolor7,1797678,,,,green,,,null,object_02c.png,object_08a.png,,,,,,,,,,,,,,,,,,,
1269.7000000001863,,rt_thecrossant_black7,1798758,,,,black_plus_sign,,,50,,,1,,,,,,,1,,,,,,,,,,,
null,,color_black7,1798864,,,,black_plus_sign,,,null,,,,,,,,,,,,,,,,,,,,,
null,,learn_phase(without_color)7,1802372,,,,black_plus_sign,,,null,object_05b.png,object_07c.png,,,,,,,,,,,,,,,,,,,
null,,black_cross(without_color)7,1803236,,,,green,,,null,object_05b.png,object_07c.png,,,,,,,,,,,,,,,,,,,
null,,rt_plussign_withcolor7,1803740,,,,green,,,null,object_05b.png,object_07c.png,,,,,,,,,,,,,,,,,,,
1318.1000000005588,,rt_thecrossant_black7,1804886,,,,black_plus_sign,,,50,,,1,,,,,,,1,,,,,,,,,,,
null,,color_black7,1804992,,,,black_plus_sign,,,null,,,,,,,,,,,,,,,,,,,,,
null,,thebreak,1805100,,,,<p></p>,,,null,,,,,,,,,,,,,,,,,,,,,
16840.700000000186,,intro_0,1821945,,,,instruct,,,32,,,,,,,,,,,,,,,,,,,,,
4376.299999999814,,directmemory_phase7,1826326,,,,object_13a.png,,,49,,,1,,object_09b.png,object_13c.png,object_03a.png,object_09b.png,,0.7692307692307693,,1,,,,,,,,,
2933.899999999441,,directmemory_phase7,1829264,,,,object_08a.png,,,49,,,1,,object_02c.png,object_09c.png,object_03a.png,object_02c.png,,0.7717391304347826,,1,,,,,,,,,
3188.5,,directmemory_phase7,1832460,,,,object_01a.png,,,51,,,1,,object_04b.png,object_14c.png,object_09c.png,object_09c.png,,0.7741935483870968,,1,,,,,,,,,
3760.2000000001863,,directmemory_phase7,1836227,,,,object_08b.png,,,51,,,1,,object_15c.png,object_07c.png,object_10c.png,object_10c.png,,0.776595744680851,,1,,,,,,,,,
5264.799999999814,,directmemory_phase7,1841499,,,,object_01b.png,,,51,,,1,,object_13c.png,object_15b.png,object_03b.png,object_03b.png,,0.7789473684210526,,1,,,,,,,,,
3587.7999999998137,,directmemory_phase7,1845096,,,,object_07b.png,,,49,,,1,,object_12b.png,object_09b.png,object_14c.png,object_12b.png,,0.78125,,1,,,,,,,,,
4603.299999999814,,directmemory_phase7,1849706,,,,object_09a.png,,,50,,,1,,object_09c.png,object_03c.png,object_05b.png,object_03c.png,,0.7835051546391752,,1,,,,,,,,,
4833.299999999814,,directmemory_phase7,1854543,,,,object_13c.png,,,49,,,1,,object_15b.png,object_14c.png,object_06c.png,object_15b.png,,0.7857142857142857,,1,,,,,,,,,
11969.5,,directmemory_phase7,1866517,,,,object_04a.png,,,50,,,1,,object_02a.png,object_14c.png,object_13b.png,object_14c.png,,0.7878787878787878,,1,,,,,,,,,
10974.099999999627,,directmemory_phase7,1877496,,,,object_06c.png,,,49,,,1,,object_02b.png,object_13a.png,object_14a.png,object_02b.png,,0.79,,1,,,,,,,,,
4435.700000000186,,directmemory_phase7,1881941,,,,object_13b.png,,,51,,,1,,object_04b.png,object_14c.png,object_02a.png,object_02a.png,,0.7920792079207921,,1,,,,,,,,,
4009.5,,directmemory_phase7,1885956,,,,object_14a.png,,,49,,,0,,object_05b.png,object_03b.png,object_01c.png,object_01c.png,,0.7843137254901961,,0,,,,,,,,,
4516.5999999996275,,directmemory_phase7,1890481,,,,object_04b.png,,,51,,,1,,object_13b.png,object_14a.png,object_03a.png,object_03a.png,,0.7864077669902912,,1,,,,,,,,,
6502,,directmemory_phase7,1896989,,,,object_10b.png,,,50,,,0,,object_15c.png,object_13a.png,object_02a.png,object_15c.png,,0.7788461538461539,,0,,,,,,,,,
6244.0999999996275,,directmemory_phase7,1903242,,,,object_07c.png,,,51,,,0,,object_13c.png,object_05b.png,object_03a.png,object_05b.png,,0.7714285714285715,,0,,,,,,,,,
null,,thebreak,1903349,,,,<p></p>,,,null,,,,,,,,,,,,,,,,,,,,,
3160.7999999998137,,intro_0,1906514,,,,instruct,,,32,,,,,,,,,,,,,,,,,,,,,
null,,learn_phase(without_color)8,1910018,,,,black_plus_sign,,,null,object_13b.png,object_02a.png,,,,,,,,,,,,,,,,,,,
null,,black_cross(without_color)8,1911115,,,,green,,,null,object_13b.png,object_02a.png,,,,,,,,,,,,,,,,,,,
null,,rt_plussign_withcolor8,1911617,,,,green,,,null,object_13b.png,object_02a.png,,,,,,,,,,,,,,,,,,,
1661.5999999996275,,rt_thecrossant_black8,1912526,,,,black_plus_sign,,,50,,,1,,,,,,,1,,,,,,,,,,,
null,,color_black8,1912629,,,,black_plus_sign,,,null,,,,,,,,,,,,,,,,,,,,,
null,,learn_phase(without_color)8,1916136,,,,black_plus_sign,,,null,object_04a.png,object_14c.png,,,,,,,,,,,,,,,,,,,
null,,black_cross(without_color)8,1916780,,,,green,,,null,object_04a.png,object_14c.png,,,,,,,,,,,,,,,,,,,
null,,rt_plussign_withcolor8,1917284,,,,green,,,null,object_04a.png,object_14c.png,,,,,,,,,,,,,,,,,,,
1418.4000000003725,,rt_thecrossant_black8,1918649,,,,black_plus_sign,,,50,,,1,,,,,,,1,,,,,,,,,,,
null,,color_black8,1918766,,,,black_plus_sign,,,null,,,,,,,,,,,,,,,,,,,,,
null,,learn_phase(without_color)8,1922272,,,,black_plus_sign,,,null,object_03b.png,object_01b.png,,,,,,,,,,,,,,,,,,,
null,,black_cross(without_color)8,1923268,,,,green,,,null,object_03b.png,object_01b.png,,,,,,,,,,,,,,,,,,,
null,,rt_plussign_withcolor8,1923772,,,,green,,,null,object_03b.png,object_01b.png,,,,,,,,,,,,,,,,,,,
991.5,,rt_thecrossant_black8,1924788,,,,black_plus_sign,,,50,,,1,,,,,,,1,,,,,,,,,,,
null,,color_black8,1924894,,,,black_plus_sign,,,null,,,,,,,,,,,,,,,,,,,,,
null,,learn_phase(without_color)8,1928400,,,,black_plus_sign,,,null,object_04b.png,object_03a.png,,,,,,,,,,,,,,,,,,,
null,,black_cross(without_color)8,1929080,,,,blue,,,null,object_04b.png,object_03a.png,,,,,,,,,,,,,,,,,,,
471.30000000074506,,rt_plussign_withcolor8,1929582,,,,blue,,,49,object_04b.png,object_03a.png,,,,,,,,,,,,,,,,,,,
null,,rt_thecrossant_black8,1930909,,,,black_plus_sign,,,null,,,1,,,,,,,1,,,,,,,,,,,
null,,color_black8,1931013,,,,black_plus_sign,,,null,,,,,,,,,,,,,,,,,,,,,
null,,learn_phase(without_color)8,1934521,,,,black_plus_sign,,,null,object_14a.png,object_01c.png,,,,,,,,,,,,,,,,,,,
null,,black_cross(without_color)8,1935104,,,,blue,,,null,object_14a.png,object_01c.png,,,,,,,,,,,,,,,,,,,
null,,rt_plussign_withcolor8,1935617,,,,blue,,,null,object_14a.png,object_01c.png,,,,,,,,,,,,,,,,,,,
1302.9000000003725,,rt_thecrossant_black8,1937045,,,,black_plus_sign,,,49,,,1,,,,,,,1,,,,,,,,,,,
null,,color_black8,1937149,,,,black_plus_sign,,,null,,,,,,,,,,,,,,,,,,,,,
null,,learn_phase(without_color)8,1940658,,,,black_plus_sign,,,null,object_10c.png,object_08b.png,,,,,,,,,,,,,,,,,,,
null,,black_cross(without_color)8,1941691,,,,green,,,null,object_10c.png,object_08b.png,,,,,,,,,,,,,,,,,,,
null,,rt_plussign_withcolor8,1942195,,,,green,,,null,object_10c.png,object_08b.png,,,,,,,,,,,,,,,,,,,
826.3000000007451,,rt_thecrossant_black8,1943169,,,,black_plus_sign,,,50,,,1,,,,,,,1,,,,,,,,,,,
null,,color_black8,1943273,,,,black_plus_sign,,,null,,,,,,,,,,,,,,,,,,,,,
null,,learn_phase(without_color)8,1946781,,,,black_plus_sign,,,null,object_09a.png,object_03c.png,,,,,,,,,,,,,,,,,,,
null,,black_cross(without_color)8,1947863,,,,blue,,,null,object_09a.png,object_03c.png,,,,,,,,,,,,,,,,,,,
435.70000000018626,,rt_plussign_withcolor8,1948366,,,,blue,,,49,object_09a.png,object_03c.png,,,,,,,,,,,,,,,,,,,
null,,rt_thecrossant_black8,1949294,,,,black_plus_sign,,,null,,,1,,,,,,,1,,,,,,,,,,,
null,,color_black8,1949400,,,,black_plus_sign,,,null,,,,,,,,,,,,,,,,,,,,,
null,,learn_phase(without_color)8,1952907,,,,black_plus_sign,,,null,object_13a.png,object_09b.png,,,,,,,,,,,,,,,,,,,
null,,black_cross(without_color)8,1953743,,,,blue,,,null,object_13a.png,object_09b.png,,,,,,,,,,,,,,,,,,,
null,,rt_plussign_withcolor8,1954246,,,,blue,,,null,object_13a.png,object_09b.png,,,,,,,,,,,,,,,,,,,
1253.6000000005588,,rt_thecrossant_black8,1955429,,,,black_plus_sign,,,49,,,1,,,,,,,1,,,,,,,,,,,
null,,color_black8,1955533,,,,black_plus_sign,,,null,,,,,,,,,,,,,,,,,,,,,
null,,learn_phase(without_color)8,1959037,,,,black_plus_sign,,,null,object_06c.png,object_02b.png,,,,,,,,,,,,,,,,,,,
null,,black_cross(without_color)8,1959886,,,,blue,,,null,object_06c.png,object_02b.png,,,,,,,,,,,,,,,,,,,
null,,rt_plussign_withcolor8,1960390,,,,blue,,,null,object_06c.png,object_02b.png,,,,,,,,,,,,,,,,,,,
1244.2000000001863,,rt_thecrossant_black8,1961550,,,,black_plus_sign,,,49,,,1,,,,,,,1,,,,,,,,,,,
null,,color_black8,1961653,,,,black_plus_sign,,,null,,,,,,,,,,,,,,,,,,,,,
null,,learn_phase(without_color)8,1965158,,,,black_plus_sign,,,null,object_10b.png,object_15c.png,,,,,,,,,,,,,,,,,,,
null,,black_cross(without_color)8,1965848,,,,blue,,,null,object_10b.png,object_15c.png,,,,,,,,,,,,,,,,,,,
null,,rt_plussign_withcolor8,1966360,,,,blue,,,null,object_10b.png,object_15c.png,,,,,,,,,,,,,,,,,,,
null,,rt_thecrossant_black8,1967680,,,,black_plus_sign,,,null,,,,,,,,,,1,,,,,,,,,,,
null,,color_black8,1967784,,,,black_plus_sign,,,null,,,,,,,,,,,,,,,,,,,,,
null,,learn_phase(without_color)8,1971291,,,,black_plus_sign,,,null,object_09c.png,object_01a.png,,,,,,,,,,,,,,,,,,,
null,,black_cross(without_color)8,1972064,,,,blue,,,null,object_09c.png,object_01a.png,,,,,,,,,,,,,,,,,,,
null,,rt_plussign_withcolor8,1972567,,,,blue,,,null,object_09c.png,object_01a.png,,,,,,,,,,,,,,,,,,,
988.4000000003725,,rt_thecrossant_black8,1973802,,,,black_plus_sign,,,49,,,1,,,,,,,1,,,,,,,,,,,
null,,color_black8,1973909,,,,black_plus_sign,,,null,,,,,,,,,,,,,,,,,,,,,
null,,learn_phase(without_color)8,1977415,,,,black_plus_sign,,,null,object_02c.png,object_08a.png,,,,,,,,,,,,,,,,,,,
null,,black_cross(without_color)8,1978071,,,,blue,,,null,object_02c.png,object_08a.png,,,,,,,,,,,,,,,,,,,
null,,rt_plussign_withcolor8,1978590,,,,blue,,,null,object_02c.png,object_08a.png,,,,,,,,,,,,,,,,,,,
970.7999999998137,,rt_thecrossant_black8,1979940,,,,black_plus_sign,,,49,,,1,,,,,,,1,,,,,,,,,,,
null,,color_black8,1980054,,,,black_plus_sign,,,null,,,,,,,,,,,,,,,,,,,,,
null,,learn_phase(without_color)8,1983559,,,,black_plus_sign,,,null,object_13c.png,object_15b.png,,,,,,,,,,,,,,,,,,,
null,,black_cross(without_color)8,1984229,,,,blue,,,null,object_13c.png,object_15b.png,,,,,,,,,,,,,,,,,,,
null,,rt_plussign_withcolor8,1984734,,,,blue,,,null,object_13c.png,object_15b.png,,,,,,,,,,,,,,,,,,,
839.6999999992549,,rt_thecrossant_black8,1986073,,,,black_plus_sign,,,49,,,1,,,,,,,1,,,,,,,,,,,
null,,color_black8,1986178,,,,black_plus_sign,,,null,,,,,,,,,,,,,,,,,,,,,
null,,learn_phase(without_color)8,1989685,,,,black_plus_sign,,,null,object_07b.png,object_12b.png,,,,,,,,,,,,,,,,,,,
null,,black_cross(without_color)8,1990275,,,,green,,,null,object_07b.png,object_12b.png,,,,,,,,,,,,,,,,,,,
null,,rt_plussign_withcolor8,1990789,,,,green,,,null,object_07b.png,object_12b.png,,,,,,,,,,,,,,,,,,,
1122.0999999996275,,rt_thecrossant_black8,1992208,,,,black_plus_sign,,,50,,,1,,,,,,,1,,,,,,,,,,,
null,,color_black8,1992311,,,,black_plus_sign,,,null,,,,,,,,,,,,,,,,,,,,,
null,,learn_phase(without_color)8,1995819,,,,black_plus_sign,,,null,object_05b.png,object_07c.png,,,,,,,,,,,,,,,,,,,
null,,black_cross(without_color)8,1996424,,,,green,,,null,object_05b.png,object_07c.png,,,,,,,,,,,,,,,,,,,
null,,rt_plussign_withcolor8,1996928,,,,green,,,null,object_05b.png,object_07c.png,,,,,,,,,,,,,,,,,,,
1091.5999999996275,,rt_thecrossant_black8,1998335,,,,black_plus_sign,,,50,,,1,,,,,,,1,,,,,,,,,,,
null,,color_black8,1998440,,,,black_plus_sign,,,null,,,,,,,,,,,,,,,,,,,,,
null,,thebreak,1998545,,,,<p></p>,,,null,,,,,,,,,,,,,,,,,,,,,
1661.5,,intro_0,2000211,,,,instruct,,,32,,,,,,,,,,,,,,,,,,,,,
5184.799999999814,,directmemory_phase8,2005400,,,,object_09c.png,,,49,,,1,,object_01a.png,object_15b.png,object_14a.png,object_01a.png,,0.7735849056603774,,1,,,,,,,,,
5818.600000000559,,directmemory_phase8,2011225,,,,object_04a.png,,,49,,,1,,object_14c.png,object_02b.png,object_06c.png,object_14c.png,,0.7757009345794392,,1,,,,,,,,,
2133.2000000001863,,directmemory_phase8,2013364,,,,object_06c.png,,,49,,,1,,object_02b.png,object_03a.png,object_03b.png,object_02b.png,,0.7777777777777778,,1,,,,,,,,,
5528.299999999814,,directmemory_phase8,2018901,,,,object_01b.png,,,51,,,1,,object_14a.png,object_05b.png,object_03b.png,object_03b.png,,0.7798165137614679,,1,,,,,,,,,
3765.5,,directmemory_phase8,2022674,,,,object_13a.png,,,51,,,1,,object_09a.png,object_01c.png,object_09b.png,object_09b.png,,0.7818181818181819,,1,,,,,,,,,
6229.0999999996275,,directmemory_phase8,2028908,,,,object_10b.png,,,49,,,1,,object_15c.png,object_03a.png,object_03b.png,object_15c.png,,0.7837837837837838,,1,,,,,,,,,
2457.4000000003725,,directmemory_phase8,2031372,,,,object_13c.png,,,50,,,1,,object_06c.png,object_15b.png,object_01b.png,object_15b.png,,0.7857142857142857,,1,,,,,,,,,
2808.5,,directmemory_phase8,2034185,,,,object_09a.png,,,49,,,1,,object_03c.png,object_01c.png,object_02c.png,object_03c.png,,0.7876106194690266,,1,,,,,,,,,
2653.600000000559,,directmemory_phase8,2036846,,,,object_14a.png,,,49,,,1,,object_01c.png,object_02b.png,object_03b.png,object_01c.png,,0.7894736842105263,,1,,,,,,,,,
1601.8999999994412,,directmemory_phase8,2038455,,,,object_10c.png,,,50,,,1,,object_05b.png,object_08b.png,object_13c.png,object_08b.png,,0.7913043478260869,,1,,,,,,,,,
2037.2000000001863,,directmemory_phase8,2040502,,,,object_12b.png,,,50,,,1,,object_09b.png,object_07b.png,object_15c.png,object_07b.png,,0.7931034482758621,,1,,,,,,,,,
1525.2000000001863,,directmemory_phase8,2042034,,,,object_04b.png,,,49,,,1,,object_03a.png,object_08a.png,object_09a.png,object_03a.png,,0.7948717948717948,,1,,,,,,,,,
2165.800000000745,,directmemory_phase8,2044207,,,,object_02c.png,,,51,,,1,,object_13a.png,object_04b.png,object_08a.png,object_08a.png,,0.7966101694915254,,1,,,,,,,,,
6549.200000000186,,directmemory_phase8,2050763,,,,object_02a.png,,,51,,,1,,object_08a.png,object_10b.png,object_13b.png,object_13b.png,,0.7983193277310925,,1,,,,,,,,,
4422.5999999996275,,directmemory_phase8,2055190,,,,object_05b.png,,,51,,,0,,object_07c.png,object_09c.png,object_14c.png,object_07c.png,,0.7916666666666666,,0,,,,,,,,,
null,,thebreak,2055296,,,,<p></p>,,,null,,,,,,,,,,,,,,,,,,,,,
5298.700000000186,,intro_0,2060599,,,,instruct,,,32,,,,,,,,,,,,,,,,,,,,,
10474,,intro_1,2071076,,,,instruct,,,32,,,,,,,,,,,,,,,,,,,,,
15432.400000000373,,intro_2,2086510,,,,instruct,,,32,,,,,,,,,,,,,,,,,,,,,
,,intro_3,2113683,,,,instruct,,,,,,,,,,,,,,,,,,,,,,,,
5052.5999999996275,,intro_4,2118738,,,,instruct,,,32,,,,,,,,,,,,,,,,,,,,,
null,,thebreak,2118844,,,,<p></p>,,,null,,,,,,,,,,,,,,,,,,,,,
6557.799999999814,,intro_0,2125405,,,,instruct,,,32,,,,,,,,,,,,,,,,,,,,,
6698.799999999814,,intro_1,2132107,,,,instruct,,,32,,,,,,,,,,,,,,,,,,,,,
1469.5999999996275,,intro_2,2133579,,,,instruct,,,32,,,,,,,,,,,,,,,,,,,,,
,,intro_3,2156963,,,,instruct,,,,,,,,,,,,,,,,,,,,,,,,
2240.5,,intro_4,2159205,,,,instruct,,,32,,,,,,,,,,,,,,,,,,,,,
11760.099999999627,,inference_phase,2170969,,,,object_13b.png,,,49,object_08c.png,object_09b.png,0,,,,,object_11a.png,,0,,,,object_11a.png,,,,,,,
14440.399999999441,,inference_phase,2185420,,,,object_14c.png,,,50,object_10a.png,object_06b.png,0,,,,,object_06b.png,,0,,,,object_08b.png,,,,,,,
null,,inference_phase,2200427,,,,object_02b.png,,,null,object_07a.png,object_10b.png,0,,,,,object_05c.png,,0,,,,object_05c.png,,,,,,,
null,,warning_page,2205433,,,,warning,,,null,,,,,,,,,,,,,,,,,,,,,
1734.9000000003725,,inference_phase,2207173,,,,object_05a.png,,,51,object_14a.png,object_15c.png,0,,,,,object_10c.png,,0,,,,object_10c.png,,,,,,,
6854,,inference_phase,2214036,,,,object_13a.png,,,51,object_11b.png,object_04b.png,0,,,,,object_11c.png,,0,,,,object_11c.png,,,,,,,
3409.7000000001863,,inference_phase,2217453,,,,object_15b.png,,,49,object_05a.png,object_12c.png,0,,,,,object_12c.png,,0,,,,object_14a.png,,,,,,,
11053.300000000745,,inference_phase,2228513,,,,object_07b.png,,,50,object_11b.png,object_09a.png,1,,,,,object_12a.png,,0.14285714285714285,,,,object_12a.png,,,,,,,
3302.7000000001863,,inference_phase,2231821,,,,object_14b.png,,,51,object_03b.png,object_05b.png,1,,,,,object_05b.png,,0.25,,,,object_01b.png,,,,,,,
1605.2999999998137,,inference_phase,2233434,,,,object_03c.png,,,49,object_04c.png,object_06a.png,1,,,,,object_04c.png,,0.3333333333333333,,,,object_04a.png,,,,,,,
2330.7999999998137,,inference_phase,2235772,,,,object_01a.png,,,50,object_04c.png,object_06c.png,1,,,,,object_06a.png,,0.4,,,,object_06a.png,,,,,,,
2478.7000000001863,,inference_phase,2238257,,,,object_07a.png,,,50,object_03b.png,object_03a.png,1,,,,,object_08a.png,,0.45454545454545453,,,,object_08a.png,,,,,,,
1463.4000000003725,,inference_phase,2239726,,,,object_15a.png,,,51,object_09a.png,object_03a.png,1,,,,,object_03a.png,,0.5,,,,object_13a.png,,,,,,,
3107.2999999998137,,inference_phase,2242839,,,,object_01b.png,,,49,object_15a.png,object_11b.png,0,,,,,object_11b.png,,0.46153846153846156,,,,object_09b.png,,,,,,,
2317.4000000003725,,inference_phase,2245164,,,,object_10a.png,,,49,object_07c.png,object_14c.png,0,,,,,object_15c.png,,0.42857142857142855,,,,object_15c.png,,,,,,,
2803.4000000003725,,inference_phase,2247974,,,,object_08c.png,,,50,object_08b.png,object_14c.png,1,,,,,object_01c.png,,0.4666666666666667,,,,object_01c.png,,,,,,,
,,survey,2324682,,,,survey-questions,,,,,,,,,,,,,,,,,,none,med,Nothing i was very focused on the objects,Image Cramming and Markings  ,they were all tasking ,none,none
