rt,responses,trial_type,time_elapsed,identifier_a,identifier_b,identifier_c,stimulus,button_pressed,response,key_press,stimulus_left,stimulus_right,accuracy,practice_cumulative_accuracy,stimulus_down_left,stimulus_down_mid,stimulus_down_right,stimulus_correct,prac_weighted_accuracy,cumulative_accuracy,failed_practice,weighted_accuracy,stimulus_middle,problems,smooth,distraction,strategies,easier,similar,comments
70550.40000000224,{worker_id:67c8d8517a18038170f399a6},id_enter,70568,object_08c.png; object_06a.png; object_04c.png; object_09b.png; object_02a.png; object_14c.png; object_13c.png; object_05c.png; object_12b.png; object_11c.png; object_04a.png; object_06b.png; object_15b.png; object_10a.png; object_07a.png,object_11a.png; object_02c.png; object_02b.png; object_07c.png; object_10b.png; object_03c.png; object_03b.png; object_13a.png; object_01a.png; object_12c.png; object_01c.png; object_03a.png; object_14b.png; object_08b.png; object_10c.png,object_06c.png; object_15a.png; object_13b.png; object_05a.png; object_09c.png; object_08a.png; object_01b.png; object_04b.png; object_07b.png; object_15c.png; object_14a.png; object_05b.png; object_11b.png; object_12a.png; object_09a.png,,,,,,,,,,,,,,,,,,,,,,,,
68500.60000000149,,make_fullscreen,139087,,,,fullscreen,0,,,,,,,,,,,,,,,,,,,,,,
18031,,instruct_1,157179,,,,instruct,0,Next,,,,,,,,,,,,,,,,,,,,,
29268.199999999255,,instruct_2,186452,,,,instruct,1,Next,,,,,,,,,,,,,,,,,,,,,
19379.599999997765,,instruct_3,205839,,,,instruct,1,Next,,,,,,,,,,,,,,,,,,,,,
46313,,instruct_4,252156,,,,instruct,1,Next,,,,,,,,,,,,,,,,,,,,,
31888.5,,instruct_5,284051,,,,instruct,1,Next,,,,,,,,,,,,,,,,,,,,,
12396.60000000149,,instruct_6,296453,,,,instruct,1,Next,,,,,,,,,,,,,,,,,,,,,
59449,,instruct_7,355906,,,,instruct,1,Next,,,,,,,,,,,,,,,,,,,,,
null,,prac_atten_color_black,356698,,,,black_plus_sign,,,null,,,,,,,,,,,,,,,,,,,,
null,,prac_atten_color,357338,,,,<p style='position:absolute;top: 50%;right: 50%;transform: translate(50%, -50%);font-size: 125px;color: blue;'>+</p>,,,null,,,,,,,,,,,,,,,,,,,,
null,,prac_atten_color_black,359352,,,,black_plus_sign,,,null,,,,,,,,,,,,,,,,,,,,
15978.199999999255,,attentioncheck_help,375333,,,,instruct,,,32,,,,,,,,,,,,,,,,,,,,
null,,prac_atten_color_black,376122,,,,black_plus_sign,,,null,,,,,,,,,,,,,,,,,,,,
null,,prac_atten_color,376788,,,,<p style='position:absolute;top: 50%;right: 50%;transform: translate(50%, -50%);font-size: 125px;color: green;'>+</p>,,,null,,,,,,,,,,,,,,,,,,,,
159.60000000149012,,prac_atten_color_black,378800,,,,black_plus_sign,,,50,,,,,,,,,,,,,,,,,,,,
null,,prac_atten_color_black,379558,,,,black_plus_sign,,,null,,,,,,,,,,,,,,,,,,,,
506.19999999925494,,prac_atten_color,380252,,,,<p style='position:absolute;top: 50%;right: 50%;transform: translate(50%, -50%);font-size: 125px;color: green;'>+</p>,,,50,,,,,,,,,,,,,,,,,,,,
null,,prac_atten_color_black,382265,,,,black_plus_sign,,,null,,,,,,,,,,,,,,,,,,,,
null,,prac_atten_color_black,382992,,,,black_plus_sign,,,null,,,,,,,,,,,,,,,,,,,,
744.2999999970198,,prac_atten_color,383954,,,,<p style='position:absolute;top: 50%;right: 50%;transform: translate(50%, -50%);font-size: 125px;color: blue;'>+</p>,,,49,,,,,,,,,,,,,,,,,,,,
null,,prac_atten_color_black,385958,,,,black_plus_sign,,,null,,,,,,,,,,,,,,,,,,,,
null,,prac_atten_color_black,386422,,,,black_plus_sign,,,null,,,,,,,,,,,,,,,,,,,,
489.80000000074506,,prac_atten_color,387194,,,,<p style='position:absolute;top: 50%;right: 50%;transform: translate(50%, -50%);font-size: 125px;color: green;'>+</p>,,,50,,,,,,,,,,,,,,,,,,,,
null,,prac_atten_color_black,389210,,,,black_plus_sign,,,null,,,,,,,,,,,,,,,,,,,,
null,,prac_atten_color_black,389859,,,,black_plus_sign,,,null,,,,,,,,,,,,,,,,,,,,
605.3000000007451,,prac_atten_color,390478,,,,<p style='position:absolute;top: 50%;right: 50%;transform: translate(50%, -50%);font-size: 125px;color: green;'>+</p>,,,50,,,,,,,,,,,,,,,,,,,,
null,,prac_atten_color_black,392484,,,,black_plus_sign,,,null,,,,,,,,,,,,,,,,,,,,
null,,prac_atten_color_black,393279,,,,black_plus_sign,,,null,,,,,,,,,,,,,,,,,,,,
null,,prac_atten_color,393785,,,,<p style='position:absolute;top: 50%;right: 50%;transform: translate(50%, -50%);font-size: 125px;color: blue;'>+</p>,,,null,,,,,,,,,,,,,,,,,,,,
262.3999999985099,,prac_atten_color_black,395791,,,,black_plus_sign,,,49,,,,,,,,,,,,,,,,,,,,
null,,prac_atten_color_black,396699,,,,black_plus_sign,,,null,,,,,,,,,,,,,,,,,,,,
492.9000000022352,,prac_atten_color,397391,,,,<p style='position:absolute;top: 50%;right: 50%;transform: translate(50%, -50%);font-size: 125px;color: green;'>+</p>,,,50,,,,,,,,,,,,,,,,,,,,
null,,prac_atten_color_black,399395,,,,black_plus_sign,,,null,,,,,,,,,,,,,,,,,,,,
null,,prac_atten_color_black,400144,,,,black_plus_sign,,,null,,,,,,,,,,,,,,,,,,,,
577.1000000014901,,prac_atten_color,401231,,,,<p style='position:absolute;top: 50%;right: 50%;transform: translate(50%, -50%);font-size: 125px;color: blue;'>+</p>,,,49,,,,,,,,,,,,,,,,,,,,
null,,prac_atten_color_black,403240,,,,black_plus_sign,,,null,,,,,,,,,,,,,,,,,,,,
null,,prac_atten_color_black,403577,,,,black_plus_sign,,,null,,,,,,,,,,,,,,,,,,,,
865.5,,prac_atten_color,404623,,,,<p style='position:absolute;top: 50%;right: 50%;transform: translate(50%, -50%);font-size: 125px;color: blue;'>+</p>,,,49,,,,,,,,,,,,,,,,,,,,
null,,prac_atten_color_black,406640,,,,black_plus_sign,,,null,,,,,,,,,,,,,,,,,,,,
10795.699999999255,,attentioncheck_feedback,417440,,,,cross_check_feedback,0,,,,,,,,,,,,,,,,,,,,,,
20446.89999999851,,last_instruct,437890,,,,instruct,,,32,,,,,,,,,,,,,,,,,,,,
null,,prac_learn_phase(without_color),441401,,,,black_plus_sign,,,null,object_02b.png,object_04c.png,,,,,,,,,,,,,,,,,,
null,,prac_black_cross(without_color),442238,,,,blue,,,null,object_02b.png,object_04c.png,,,,,,,,,,,,,,,,,,
null,,prac_rt_plussign_withcolor,442743,,,,blue,,,null,object_02b.png,object_04c.png,,,,,,,,,,,,,,,,,,
1114.199999999255,,prac_rt_thecrossant_black,443941,,,,black_plus_sign,,,49,,,1,1,,,,,,,,,,,,,,,,
null,,prac_color_black,444050,,,,black_plus_sign,,,null,,,,,,,,,,,,,,,,,,,,
null,,prac_learn_phase(without_color),447560,,,,black_plus_sign,,,null,object_13c.png,object_03b.png,,,,,,,,,,,,,,,,,,
null,,black_cross(without_color)1,448287,,,,blue,,,null,object_02b.png,object_04c.png,,,,,,,,,,,,,,,,,,
null,,prac_rt_plussign_withcolor,448795,,,,green,,,null,object_13c.png,object_03b.png,,,,,,,,,,,,,,,,,,
1035.1000000014901,,prac_rt_thecrossant_black,450172,,,,black_plus_sign,,,50,,,1,1,,,,,,,,,,,,,,,,
null,,prac_color_black,450275,,,,black_plus_sign,,,null,,,,,,,,,,,,,,,,,,,,
null,,prac_learn_phase(without_color),453796,,,,black_plus_sign,,,null,object_10a.png,object_08b.png,,,,,,,,,,,,,,,,,,
null,,black_cross(without_color)1,454527,,,,blue,,,null,object_02b.png,object_04c.png,,,,,,,,,,,,,,,,,,
null,,prac_rt_plussign_withcolor,455041,,,,green,,,null,object_10a.png,object_08b.png,,,,,,,,,,,,,,,,,,
1043.9000000022352,,prac_rt_thecrossant_black,455962,,,,black_plus_sign,,,50,,,1,1,,,,,,,,,,,,,,,,
null,,prac_color_black,456074,,,,black_plus_sign,,,null,,,,,,,,,,,,,,,,,,,,
null,,prac_learn_phase(without_color),459588,,,,black_plus_sign,,,null,object_10c.png,object_07a.png,,,,,,,,,,,,,,,,,,
null,,black_cross(without_color)1,460317,,,,blue,,,null,object_02b.png,object_04c.png,,,,,,,,,,,,,,,,,,
null,,prac_rt_plussign_withcolor,460841,,,,blue,,,null,object_10c.png,object_07a.png,,,,,,,,,,,,,,,,,,
1370.699999999255,,prac_rt_thecrossant_black,462439,,,,black_plus_sign,,,49,,,1,1,,,,,,,,,,,,,,,,
null,,prac_color_black,462550,,,,black_plus_sign,,,null,,,,,,,,,,,,,,,,,,,,
19235.099999997765,,instruct_dir_01,481790,,,,instruct,0,Next,,,,,,,,,,,,,,,,,,,,,
43640.20000000298,,instruct_dir_2,525436,,,,instruct,1,Next,,,,,,,,,,,,,,,,,,,,,
15210.10000000149,,instruct_dir_3,540652,,,,instruct,1,Next,,,,,,,,,,,,,,,,,,,,,
32609.29999999702,,instruct_dir_4,573266,,,,instruct,1,Start,,,,,,,,,,,,,,,,,,,,,
null,,thebreak,573380,,,,<p></p>,,,null,,,,,,,,,,,,,,,,,,,,
3331.60000000149,,intro_0,576715,,,,instruct,,,32,,,,,,,,,,,,,,,,,,,,
3420.39999999851,,prac_directmemory_phase,580139,,,,practice/object_02a.png,,,49,,,0,,practice/object_01a.png,practice/object_02b.png,practice/object_01b.png,practice/object_02b.png,0,0,,,,,,,,,,
3058.2000000029802,,prac_directmemory_phase,583202,,,,practice/object_01a.png,,,49,,,0,,practice/object_02b.png,practice/object_02a.png,practice/object_01b.png,practice/object_01b.png,0,0,,,,,,,,,,
2826.89999999851,,prac_directmemory_phase,586034,,,,practice/object_04a.png,,,51,,,1,,practice/object_02b.png,practice/object_03a.png,practice/object_04b.png,practice/object_04b.png,1,0.3333333333333333,,,,,,,,,,
3027.5,,prac_directmemory_phase,589066,,,,practice/object_03a.png,,,49,,,0,,practice/object_04a.png,practice/object_03b.png,practice/object_02b.png,practice/object_03b.png,0,0.25,,,,,,,,,,
17933.199999999255,,practice_feedback_force_restart,607003,,,,practice_feedback,0,,,,,,,,,,,,,1,,,,,,,,,
37929.79999999702,,last_instruct,644936,,,,instruct,,,32,,,,,,,,,,,,,,,,,,,,
null,,prac_learn_phase(without_color),648452,,,,black_plus_sign,,,null,object_02b.png,object_04c.png,,,,,,,,,,,,,,,,,,
null,,prac_black_cross(without_color),648989,,,,blue,,,null,object_02b.png,object_04c.png,,,,,,,,,,,,,,,,,,
null,,prac_rt_plussign_withcolor,649505,,,,blue,,,null,object_02b.png,object_04c.png,,,,,,,,,,,,,,,,,,
1266.8999999985099,,prac_rt_thecrossant_black,650993,,,,black_plus_sign,,,49,,,1,1,,,,,,,,,,,,,,,,
null,,prac_color_black,651103,,,,black_plus_sign,,,null,,,,,,,,,,,,,,,,,,,,
null,,prac_learn_phase(without_color),654620,,,,black_plus_sign,,,null,object_13c.png,object_03b.png,,,,,,,,,,,,,,,,,,
null,,black_cross(without_color)1,655354,,,,blue,,,null,object_02b.png,object_04c.png,,,,,,,,,,,,,,,,,,
null,,prac_rt_plussign_withcolor,655872,,,,green,,,null,object_13c.png,object_03b.png,,,,,,,,,,,,,,,,,,
null,,prac_rt_thecrossant_black,657315,,,,black_plus_sign,,,null,,,,1,,,,,,,,,,,,,,,,
null,,prac_color_black,657424,,,,black_plus_sign,,,null,,,,,,,,,,,,,,,,,,,,
null,,prac_learn_phase(without_color),660936,,,,black_plus_sign,,,null,object_10a.png,object_08b.png,,,,,,,,,,,,,,,,,,
null,,black_cross(without_color)1,661664,,,,blue,,,null,object_02b.png,object_04c.png,,,,,,,,,,,,,,,,,,
null,,prac_rt_plussign_withcolor,662172,,,,green,,,null,object_10a.png,object_08b.png,,,,,,,,,,,,,,,,,,
797.7000000029802,,prac_rt_thecrossant_black,663525,,,,black_plus_sign,,,50,,,1,1,,,,,,,,,,,,,,,,
null,,prac_color_black,663635,,,,black_plus_sign,,,null,,,,,,,,,,,,,,,,,,,,
null,,prac_learn_phase(without_color),667152,,,,black_plus_sign,,,null,object_10c.png,object_07a.png,,,,,,,,,,,,,,,,,,
null,,black_cross(without_color)1,667885,,,,blue,,,null,object_02b.png,object_04c.png,,,,,,,,,,,,,,,,,,
null,,prac_rt_plussign_withcolor,668405,,,,blue,,,null,object_10c.png,object_07a.png,,,,,,,,,,,,,,,,,,
1620.300000000745,,prac_rt_thecrossant_black,669369,,,,black_plus_sign,,,49,,,1,1,,,,,,,,,,,,,,,,
null,,prac_color_black,669485,,,,black_plus_sign,,,null,,,,,,,,,,,,,,,,,,,,
32726,,instruct_dir_01,702215,,,,instruct,0,Next,,,,,,,,,,,,,,,,,,,,,
64997.699999999255,,instruct_dir_2,767217,,,,instruct,1,Next,,,,,,,,,,,,,,,,,,,,,
16173.800000000745,,instruct_dir_3,783396,,,,instruct,1,Next,,,,,,,,,,,,,,,,,,,,,
82824.30000000075,,instruct_dir_4,866228,,,,instruct,1,Start,,,,,,,,,,,,,,,,,,,,,
null,,thebreak,866334,,,,<p></p>,,,null,,,,,,,,,,,,,,,,,,,,
6884.199999999255,,intro_0,873220,,,,instruct,,,32,,,,,,,,,,,,,,,,,,,,
2257.5,,prac_directmemory_phase,875480,,,,practice/object_02a.png,,,50,,,1,,practice/object_01a.png,practice/object_02b.png,practice/object_01b.png,practice/object_02b.png,1,1,,,,,,,,,,
2161.400000002235,,prac_directmemory_phase,877647,,,,practice/object_01a.png,,,51,,,1,,practice/object_02b.png,practice/object_02a.png,practice/object_01b.png,practice/object_01b.png,1,1,,,,,,,,,,
2963.199999999255,,prac_directmemory_phase,880614,,,,practice/object_04a.png,,,51,,,1,,practice/object_02b.png,practice/object_03a.png,practice/object_04b.png,practice/object_04b.png,1,1,,,,,,,,,,
2051.400000002235,,prac_directmemory_phase,882671,,,,practice/object_03a.png,,,50,,,1,,practice/object_04a.png,practice/object_03b.png,practice/object_02b.png,practice/object_03b.png,1,1,,,,,,,,,,
13737.699999999255,,practice_feedback,896415,,,,practice_feedback,1,,,,,,,,,,,,,,,,,,,,,,
12887.10000000149,,proceed_actualTask,909307,,,,proceed_actualTask,1,Continue,,,,,,,,,,,,,,,,,,,,,
47854.699999999255,,last_inst,957165,,,,last_inst,,,32,,,,,,,,,,,,,,,,,,,,
null,,learn_phase(without_color)1,960670,,,,black_plus_sign,,,null,object_02b.png,object_04c.png,,,,,,,,,,,,,,,,,,
null,,black_cross(without_color)1,961400,,,,blue,,,null,object_02b.png,object_04c.png,,,,,,,,,,,,,,,,,,
null,,rt_plussign_withcolor1,961916,,,,blue,,,null,object_02b.png,object_04c.png,,,,,,,,,,,,,,,,,,
1972.800000000745,,rt_thecrossant_black1,963219,,,,black_plus_sign,,,49,,,1,,,,,,,1,,,,,,,,,,
null,,color_black1,963325,,,,black_plus_sign,,,null,,,,,,,,,,,,,,,,,,,,
null,,learn_phase(without_color)1,966853,,,,black_plus_sign,,,null,object_13c.png,object_03b.png,,,,,,,,,,,,,,,,,,
null,,black_cross(without_color)1,967640,,,,green,,,null,object_13c.png,object_03b.png,,,,,,,,,,,,,,,,,,
null,,rt_plussign_withcolor1,968159,,,,green,,,null,object_13c.png,object_03b.png,,,,,,,,,,,,,,,,,,
1145.3999999985099,,rt_thecrossant_black1,969403,,,,black_plus_sign,,,50,,,1,,,,,,,1,,,,,,,,,,
null,,color_black1,969510,,,,black_plus_sign,,,null,,,,,,,,,,,,,,,,,,,,
null,,learn_phase(without_color)1,973037,,,,black_plus_sign,,,null,object_10a.png,object_08b.png,,,,,,,,,,,,,,,,,,
null,,black_cross(without_color)1,973851,,,,blue,,,null,object_10a.png,object_08b.png,,,,,,,,,,,,,,,,,,
null,,rt_plussign_withcolor1,974359,,,,blue,,,null,object_10a.png,object_08b.png,,,,,,,,,,,,,,,,,,
934.6999999992549,,rt_thecrossant_black1,975572,,,,black_plus_sign,,,49,,,1,,,,,,,1,,,,,,,,,,
null,,color_black1,975683,,,,black_plus_sign,,,null,,,,,,,,,,,,,,,,,,,,
null,,learn_phase(without_color)1,979202,,,,black_plus_sign,,,null,object_10c.png,object_07a.png,,,,,,,,,,,,,,,,,,
null,,black_cross(without_color)1,980294,,,,green,,,null,object_10c.png,object_07a.png,,,,,,,,,,,,,,,,,,
null,,rt_plussign_withcolor1,980806,,,,green,,,null,object_10c.png,object_07a.png,,,,,,,,,,,,,,,,,,
1163.5,,rt_thecrossant_black1,981730,,,,black_plus_sign,,,50,,,1,,,,,,,1,,,,,,,,,,
null,,color_black1,981851,,,,black_plus_sign,,,null,,,,,,,,,,,,,,,,,,,,
null,,learn_phase(without_color)1,985371,,,,black_plus_sign,,,null,object_10b.png,object_02a.png,,,,,,,,,,,,,,,,,,
null,,black_cross(without_color)1,986180,,,,blue,,,null,object_10b.png,object_02a.png,,,,,,,,,,,,,,,,,,
null,,rt_plussign_withcolor1,986693,,,,blue,,,null,object_10b.png,object_02a.png,,,,,,,,,,,,,,,,,,
1255.300000000745,,rt_thecrossant_black1,987913,,,,black_plus_sign,,,49,,,1,,,,,,,1,,,,,,,,,,
null,,color_black1,988031,,,,black_plus_sign,,,null,,,,,,,,,,,,,,,,,,,,
null,,learn_phase(without_color)1,991536,,,,black_plus_sign,,,null,object_01c.png,object_04a.png,,,,,,,,,,,,,,,,,,
null,,black_cross(without_color)1,992016,,,,green,,,null,object_01c.png,object_04a.png,,,,,,,,,,,,,,,,,,
null,,rt_plussign_withcolor1,992525,,,,green,,,null,object_01c.png,object_04a.png,,,,,,,,,,,,,,,,,,
1180.699999999255,,rt_thecrossant_black1,994073,,,,black_plus_sign,,,50,,,1,,,,,,,1,,,,,,,,,,
null,,color_black1,994187,,,,black_plus_sign,,,null,,,,,,,,,,,,,,,,,,,,
null,,learn_phase(without_color)1,997693,,,,black_plus_sign,,,null,object_14c.png,object_03c.png,,,,,,,,,,,,,,,,,,
null,,black_cross(without_color)1,998225,,,,blue,,,null,object_14c.png,object_03c.png,,,,,,,,,,,,,,,,,,
null,,rt_plussign_withcolor1,998731,,,,blue,,,null,object_14c.png,object_03c.png,,,,,,,,,,,,,,,,,,
827.8000000007451,,rt_thecrossant_black1,1000226,,,,black_plus_sign,,,49,,,1,,,,,,,1,,,,,,,,,,
null,,color_black1,1000335,,,,black_plus_sign,,,null,,,,,,,,,,,,,,,,,,,,
null,,learn_phase(without_color)1,1003851,,,,black_plus_sign,,,null,object_11a.png,object_08c.png,,,,,,,,,,,,,,,,,,
null,,black_cross(without_color)1,1004869,,,,green,,,null,object_11a.png,object_08c.png,,,,,,,,,,,,,,,,,,
null,,rt_plussign_withcolor1,1005380,,,,green,,,null,object_11a.png,object_08c.png,,,,,,,,,,,,,,,,,,
659.6000000014901,,rt_thecrossant_black1,1006385,,,,black_plus_sign,,,50,,,1,,,,,,,1,,,,,,,,,,
null,,color_black1,1006489,,,,black_plus_sign,,,null,,,,,,,,,,,,,,,,,,,,
null,,learn_phase(without_color)1,1010010,,,,black_plus_sign,,,null,object_12b.png,object_01a.png,,,,,,,,,,,,,,,,,,
null,,black_cross(without_color)1,1010670,,,,blue,,,null,object_12b.png,object_01a.png,,,,,,,,,,,,,,,,,,
null,,rt_plussign_withcolor1,1011179,,,,blue,,,null,object_12b.png,object_01a.png,,,,,,,,,,,,,,,,,,
1268.2999999970198,,rt_thecrossant_black1,1012536,,,,black_plus_sign,,,49,,,1,,,,,,,1,,,,,,,,,,
null,,color_black1,1012646,,,,black_plus_sign,,,null,,,,,,,,,,,,,,,,,,,,
null,,learn_phase(without_color)1,1016163,,,,black_plus_sign,,,null,object_11c.png,object_12c.png,,,,,,,,,,,,,,,,,,
null,,black_cross(without_color)1,1017155,,,,blue,,,null,object_11c.png,object_12c.png,,,,,,,,,,,,,,,,,,
null,,rt_plussign_withcolor1,1017680,,,,blue,,,null,object_11c.png,object_12c.png,,,,,,,,,,,,,,,,,,
816.5,,rt_thecrossant_black1,1018714,,,,black_plus_sign,,,49,,,1,,,,,,,1,,,,,,,,,,
null,,color_black1,1018838,,,,black_plus_sign,,,null,,,,,,,,,,,,,,,,,,,,
null,,learn_phase(without_color)1,1022346,,,,black_plus_sign,,,null,object_06a.png,object_02c.png,,,,,,,,,,,,,,,,,,
null,,black_cross(without_color)1,1022884,,,,green,,,null,object_06a.png,object_02c.png,,,,,,,,,,,,,,,,,,
null,,rt_plussign_withcolor1,1023395,,,,green,,,null,object_06a.png,object_02c.png,,,,,,,,,,,,,,,,,,
1235.1000000014901,,rt_thecrossant_black1,1024885,,,,black_plus_sign,,,50,,,1,,,,,,,1,,,,,,,,,,
null,,color_black1,1024996,,,,black_plus_sign,,,null,,,,,,,,,,,,,,,,,,,,
null,,learn_phase(without_color)1,1028518,,,,black_plus_sign,,,null,object_14b.png,object_15b.png,,,,,,,,,,,,,,,,,,
null,,black_cross(without_color)1,1029606,,,,green,,,null,object_14b.png,object_15b.png,,,,,,,,,,,,,,,,,,
null,,rt_plussign_withcolor1,1030122,,,,green,,,null,object_14b.png,object_15b.png,,,,,,,,,,,,,,,,,,
672.5,,rt_thecrossant_black1,1031064,,,,black_plus_sign,,,50,,,1,,,,,,,1,,,,,,,,,,
null,,color_black1,1031172,,,,black_plus_sign,,,null,,,,,,,,,,,,,,,,,,,,
null,,learn_phase(without_color)1,1034685,,,,black_plus_sign,,,null,object_03a.png,object_06b.png,,,,,,,,,,,,,,,,,,
null,,black_cross(without_color)1,1035629,,,,green,,,null,object_03a.png,object_06b.png,,,,,,,,,,,,,,,,,,
null,,rt_plussign_withcolor1,1036145,,,,green,,,null,object_03a.png,object_06b.png,,,,,,,,,,,,,,,,,,
1372,,rt_thecrossant_black1,1037226,,,,black_plus_sign,,,50,,,1,,,,,,,1,,,,,,,,,,
null,,color_black1,1037332,,,,black_plus_sign,,,null,,,,,,,,,,,,,,,,,,,,
null,,learn_phase(without_color)1,1040846,,,,black_plus_sign,,,null,object_07c.png,object_09b.png,,,,,,,,,,,,,,,,,,
null,,black_cross(without_color)1,1041795,,,,green,,,null,object_07c.png,object_09b.png,,,,,,,,,,,,,,,,,,
null,,rt_plussign_withcolor1,1042305,,,,green,,,null,object_07c.png,object_09b.png,,,,,,,,,,,,,,,,,,
1246.2999999970198,,rt_thecrossant_black1,1043383,,,,black_plus_sign,,,50,,,1,,,,,,,1,,,,,,,,,,
null,,color_black1,1043490,,,,black_plus_sign,,,null,,,,,,,,,,,,,,,,,,,,
null,,learn_phase(without_color)1,1047008,,,,black_plus_sign,,,null,object_05c.png,object_13a.png,,,,,,,,,,,,,,,,,,
null,,black_cross(without_color)1,1047588,,,,green,,,null,object_05c.png,object_13a.png,,,,,,,,,,,,,,,,,,
null,,rt_plussign_withcolor1,1048124,,,,green,,,null,object_05c.png,object_13a.png,,,,,,,,,,,,,,,,,,
1221.5,,rt_thecrossant_black1,1049565,,,,black_plus_sign,,,50,,,1,,,,,,,1,,,,,,,,,,
null,,color_black1,1049681,,,,black_plus_sign,,,null,,,,,,,,,,,,,,,,,,,,
null,,thebreak,1049805,,,,<p></p>,,,null,,,,,,,,,,,,,,,,,,,,
167063,,intro_0,1216870,,,,instruct,,,32,,,,,,,,,,,,,,,,,,,,
2153.800000000745,,directmemory_phase1,1219027,,,,object_07a.png,,,51,,,1,,object_13a.png,object_08c.png,object_10c.png,object_10c.png,,1,,1,,,,,,,,
2135.199999999255,,directmemory_phase1,1221170,,,,object_15b.png,,,50,,,1,,object_06b.png,object_14b.png,object_12c.png,object_14b.png,,1,,1,,,,,,,,
1589.699999999255,,directmemory_phase1,1222763,,,,object_12b.png,,,49,,,1,,object_01a.png,object_01c.png,object_08c.png,object_01a.png,,1,,1,,,,,,,,
2795.300000000745,,directmemory_phase1,1225565,,,,object_08c.png,,,50,,,1,,object_15b.png,object_11a.png,object_02b.png,object_11a.png,,1,,1,,,,,,,,
2362.199999999255,,directmemory_phase1,1227932,,,,object_09b.png,,,50,,,1,,object_05c.png,object_07c.png,object_13a.png,object_07c.png,,1,,1,,,,,,,,
2454.10000000149,,directmemory_phase1,1230390,,,,object_06b.png,,,49,,,1,,object_03a.png,object_12c.png,object_13c.png,object_03a.png,,1,,1,,,,,,,,
2076.199999999255,,directmemory_phase1,1232472,,,,object_13c.png,,,50,,,1,,object_02a.png,object_03b.png,object_14b.png,object_03b.png,,1,,1,,,,,,,,
1442.0999999977648,,directmemory_phase1,1233918,,,,object_10a.png,,,51,,,1,,object_01a.png,object_09b.png,object_08b.png,object_08b.png,,1,,1,,,,,,,,
3258.89999999851,,directmemory_phase1,1237181,,,,object_11c.png,,,49,,,1,,object_12c.png,object_01c.png,object_12b.png,object_12c.png,,1,,1,,,,,,,,
2612.599999997765,,directmemory_phase1,1239798,,,,object_14c.png,,,49,,,1,,object_03c.png,object_07c.png,object_15b.png,object_03c.png,,1,,1,,,,,,,,
2520.400000002235,,directmemory_phase1,1242323,,,,object_02a.png,,,49,,,1,,object_10b.png,object_12c.png,object_04a.png,object_10b.png,,1,,1,,,,,,,,
1723.5,,directmemory_phase1,1244051,,,,object_06a.png,,,50,,,1,,object_06b.png,object_02c.png,object_03b.png,object_02c.png,,1,,1,,,,,,,,
2528.599999997765,,directmemory_phase1,1246585,,,,object_04a.png,,,50,,,1,,object_11c.png,object_01c.png,object_03b.png,object_01c.png,,1,,1,,,,,,,,
2520,,directmemory_phase1,1249109,,,,object_05c.png,,,50,,,1,,object_04c.png,object_13a.png,object_03b.png,object_13a.png,,1,,1,,,,,,,,
2446.699999999255,,directmemory_phase1,1251560,,,,object_04c.png,,,49,,,1,,object_02b.png,object_03b.png,object_10a.png,object_02b.png,,1,,1,,,,,,,,
null,,thebreak,1251668,,,,<p></p>,,,null,,,,,,,,,,,,,,,,,,,,
4646.29999999702,,intro_0,1256316,,,,instruct,,,32,,,,,,,,,,,,,,,,,,,,
null,,learn_phase(without_color)2,1259831,,,,black_plus_sign,,,null,object_11c.png,object_12c.png,,,,,,,,,,,,,,,,,,
null,,black_cross(without_color)2,1260591,,,,blue,,,null,object_11c.png,object_12c.png,,,,,,,,,,,,,,,,,,
null,,rt_plussign_withcolor2,1261102,,,,blue,,,null,object_11c.png,object_12c.png,,,,,,,,,,,,,,,,,,
1587.5999999977648,,rt_thecrossant_black2,1262363,,,,black_plus_sign,,,49,,,1,,,,,,,1,,,,,,,,,,
null,,color_black2,1262485,,,,black_plus_sign,,,null,,,,,,,,,,,,,,,,,,,,
null,,learn_phase(without_color)2,1265992,,,,black_plus_sign,,,null,object_14c.png,object_03c.png,,,,,,,,,,,,,,,,,,
null,,black_cross(without_color)2,1267024,,,,green,,,null,object_14c.png,object_03c.png,,,,,,,,,,,,,,,,,,
null,,rt_plussign_withcolor2,1267532,,,,green,,,null,object_14c.png,object_03c.png,,,,,,,,,,,,,,,,,,
1171.6000000014901,,rt_thecrossant_black2,1268511,,,,black_plus_sign,,,50,,,1,,,,,,,1,,,,,,,,,,
null,,color_black2,1268630,,,,black_plus_sign,,,null,,,,,,,,,,,,,,,,,,,,
null,,learn_phase(without_color)2,1272135,,,,black_plus_sign,,,null,object_10b.png,object_02a.png,,,,,,,,,,,,,,,,,,
null,,black_cross(without_color)2,1272927,,,,green,,,null,object_10b.png,object_02a.png,,,,,,,,,,,,,,,,,,
null,,rt_plussign_withcolor2,1273438,,,,green,,,null,object_10b.png,object_02a.png,,,,,,,,,,,,,,,,,,
1463.800000000745,,rt_thecrossant_black2,1274681,,,,black_plus_sign,,,50,,,1,,,,,,,1,,,,,,,,,,
null,,color_black2,1274784,,,,black_plus_sign,,,null,,,,,,,,,,,,,,,,,,,,
null,,learn_phase(without_color)2,1278297,,,,black_plus_sign,,,null,object_15b.png,object_14b.png,,,,,,,,,,,,,,,,,,
null,,black_cross(without_color)2,1278747,,,,blue,,,null,object_15b.png,object_14b.png,,,,,,,,,,,,,,,,,,
null,,rt_plussign_withcolor2,1279260,,,,blue,,,null,object_15b.png,object_14b.png,,,,,,,,,,,,,,,,,,
922.8000000007451,,rt_thecrossant_black2,1280858,,,,black_plus_sign,,,49,,,1,,,,,,,1,,,,,,,,,,
null,,color_black2,1280968,,,,black_plus_sign,,,null,,,,,,,,,,,,,,,,,,,,
null,,learn_phase(without_color)2,1284488,,,,black_plus_sign,,,null,object_08b.png,object_10a.png,,,,,,,,,,,,,,,,,,
null,,black_cross(without_color)2,1285601,,,,green,,,null,object_08b.png,object_10a.png,,,,,,,,,,,,,,,,,,
null,,rt_plussign_withcolor2,1286111,,,,green,,,null,object_08b.png,object_10a.png,,,,,,,,,,,,,,,,,,
757.1000000014901,,rt_thecrossant_black2,1287039,,,,black_plus_sign,,,50,,,1,,,,,,,1,,,,,,,,,,
null,,color_black2,1287143,,,,black_plus_sign,,,null,,,,,,,,,,,,,,,,,,,,
null,,learn_phase(without_color)2,1290655,,,,black_plus_sign,,,null,object_07a.png,object_10c.png,,,,,,,,,,,,,,,,,,
null,,black_cross(without_color)2,1291198,,,,green,,,null,object_07a.png,object_10c.png,,,,,,,,,,,,,,,,,,
null,,rt_plussign_withcolor2,1291702,,,,green,,,null,object_07a.png,object_10c.png,,,,,,,,,,,,,,,,,,
1521.3999999985099,,rt_thecrossant_black2,1293193,,,,black_plus_sign,,,50,,,1,,,,,,,1,,,,,,,,,,
null,,color_black2,1293306,,,,black_plus_sign,,,null,,,,,,,,,,,,,,,,,,,,
null,,learn_phase(without_color)2,1296813,,,,black_plus_sign,,,null,object_06a.png,object_02c.png,,,,,,,,,,,,,,,,,,
null,,black_cross(without_color)2,1297921,,,,blue,,,null,object_06a.png,object_02c.png,,,,,,,,,,,,,,,,,,
null,,rt_plussign_withcolor2,1298434,,,,blue,,,null,object_06a.png,object_02c.png,,,,,,,,,,,,,,,,,,
760.1000000014901,,rt_thecrossant_black2,1299355,,,,black_plus_sign,,,49,,,1,,,,,,,1,,,,,,,,,,
null,,color_black2,1299463,,,,black_plus_sign,,,null,,,,,,,,,,,,,,,,,,,,
null,,learn_phase(without_color)2,1302975,,,,black_plus_sign,,,null,object_07c.png,object_09b.png,,,,,,,,,,,,,,,,,,
null,,black_cross(without_color)2,1303820,,,,green,,,null,object_07c.png,object_09b.png,,,,,,,,,,,,,,,,,,
null,,rt_plussign_withcolor2,1304335,,,,green,,,null,object_07c.png,object_09b.png,,,,,,,,,,,,,,,,,,
1335.1000000014901,,rt_thecrossant_black2,1305523,,,,black_plus_sign,,,50,,,1,,,,,,,1,,,,,,,,,,
null,,color_black2,1305635,,,,black_plus_sign,,,null,,,,,,,,,,,,,,,,,,,,
null,,learn_phase(without_color)2,1309152,,,,black_plus_sign,,,null,object_03a.png,object_06b.png,,,,,,,,,,,,,,,,,,
null,,black_cross(without_color)2,1309581,,,,green,,,null,object_03a.png,object_06b.png,,,,,,,,,,,,,,,,,,
null,,rt_plussign_withcolor2,1310089,,,,green,,,null,object_03a.png,object_06b.png,,,,,,,,,,,,,,,,,,
1181.199999999255,,rt_thecrossant_black2,1311687,,,,black_plus_sign,,,50,,,1,,,,,,,1,,,,,,,,,,
null,,color_black2,1311800,,,,black_plus_sign,,,null,,,,,,,,,,,,,,,,,,,,
null,,learn_phase(without_color)2,1315315,,,,black_plus_sign,,,null,object_11a.png,object_08c.png,,,,,,,,,,,,,,,,,,
null,,black_cross(without_color)2,1315801,,,,blue,,,null,object_11a.png,object_08c.png,,,,,,,,,,,,,,,,,,
null,,rt_plussign_withcolor2,1316306,,,,blue,,,null,object_11a.png,object_08c.png,,,,,,,,,,,,,,,,,,
555.1000000014901,,rt_thecrossant_black2,1317843,,,,black_plus_sign,,,49,,,1,,,,,,,1,,,,,,,,,,
null,,color_black2,1317954,,,,black_plus_sign,,,null,,,,,,,,,,,,,,,,,,,,
null,,learn_phase(without_color)2,1321461,,,,black_plus_sign,,,null,object_05c.png,object_13a.png,,,,,,,,,,,,,,,,,,
null,,black_cross(without_color)2,1322400,,,,blue,,,null,object_05c.png,object_13a.png,,,,,,,,,,,,,,,,,,
null,,rt_plussign_withcolor2,1322910,,,,blue,,,null,object_05c.png,object_13a.png,,,,,,,,,,,,,,,,,,
924.1000000014901,,rt_thecrossant_black2,1324000,,,,black_plus_sign,,,49,,,1,,,,,,,1,,,,,,,,,,
null,,color_black2,1324111,,,,black_plus_sign,,,null,,,,,,,,,,,,,,,,,,,,
null,,learn_phase(without_color)2,1327630,,,,black_plus_sign,,,null,object_13c.png,object_03b.png,,,,,,,,,,,,,,,,,,
null,,black_cross(without_color)2,1328151,,,,blue,,,null,object_13c.png,object_03b.png,,,,,,,,,,,,,,,,,,
null,,rt_plussign_withcolor2,1328667,,,,blue,,,null,object_13c.png,object_03b.png,,,,,,,,,,,,,,,,,,
1137.0999999977648,,rt_thecrossant_black2,1330189,,,,black_plus_sign,,,49,,,1,,,,,,,1,,,,,,,,,,
null,,color_black2,1330295,,,,black_plus_sign,,,null,,,,,,,,,,,,,,,,,,,,
null,,learn_phase(without_color)2,1333815,,,,black_plus_sign,,,null,object_02b.png,object_04c.png,,,,,,,,,,,,,,,,,,
null,,black_cross(without_color)2,1334866,,,,blue,,,null,object_02b.png,object_04c.png,,,,,,,,,,,,,,,,,,
451.6000000014901,,rt_plussign_withcolor2,1335376,,,,blue,,,49,object_02b.png,object_04c.png,,,,,,,,,,,,,,,,,,
null,,rt_thecrossant_black2,1336346,,,,black_plus_sign,,,null,,,1,,,,,,,1,,,,,,,,,,
null,,color_black2,1336451,,,,black_plus_sign,,,null,,,,,,,,,,,,,,,,,,,,
null,,learn_phase(without_color)2,1339962,,,,black_plus_sign,,,null,object_01c.png,object_04a.png,,,,,,,,,,,,,,,,,,
null,,black_cross(without_color)2,1340508,,,,blue,,,null,object_01c.png,object_04a.png,,,,,,,,,,,,,,,,,,
null,,rt_plussign_withcolor2,1341021,,,,blue,,,null,object_01c.png,object_04a.png,,,,,,,,,,,,,,,,,,
1221.1000000014901,,rt_thecrossant_black2,1342487,,,,black_plus_sign,,,49,,,1,,,,,,,1,,,,,,,,,,
null,,color_black2,1342595,,,,black_plus_sign,,,null,,,,,,,,,,,,,,,,,,,,
null,,learn_phase(without_color)2,1346115,,,,black_plus_sign,,,null,object_01a.png,object_12b.png,,,,,,,,,,,,,,,,,,
null,,black_cross(without_color)2,1347068,,,,blue,,,null,object_01a.png,object_12b.png,,,,,,,,,,,,,,,,,,
null,,rt_plussign_withcolor2,1347571,,,,blue,,,null,object_01a.png,object_12b.png,,,,,,,,,,,,,,,,,,
839.9000000022352,,rt_thecrossant_black2,1348650,,,,black_plus_sign,,,49,,,1,,,,,,,1,,,,,,,,,,
null,,color_black2,1348754,,,,black_plus_sign,,,null,,,,,,,,,,,,,,,,,,,,
null,,thebreak,1348861,,,,<p></p>,,,null,,,,,,,,,,,,,,,,,,,,
38343.5,,intro_0,1387207,,,,instruct,,,32,,,,,,,,,,,,,,,,,,,,
2172.10000000149,,directmemory_phase2,1389382,,,,object_09b.png,,,50,,,1,,object_14c.png,object_07c.png,object_12c.png,object_07c.png,,1,,1,,,,,,,,
2173.7999999970198,,directmemory_phase2,1391562,,,,object_04c.png,,,51,,,1,,object_13a.png,object_08c.png,object_02b.png,object_02b.png,,1,,1,,,,,,,,
2729.599999997765,,directmemory_phase2,1394297,,,,object_11c.png,,,50,,,1,,object_04a.png,object_12c.png,object_07c.png,object_12c.png,,1,,1,,,,,,,,
2078.39999999851,,directmemory_phase2,1396380,,,,object_06b.png,,,50,,,1,,object_14c.png,object_03a.png,object_01c.png,object_03a.png,,1,,1,,,,,,,,
1481.2999999970198,,directmemory_phase2,1397867,,,,object_07a.png,,,49,,,1,,object_10c.png,object_12c.png,object_05c.png,object_10c.png,,1,,1,,,,,,,,
1814.9000000022352,,directmemory_phase2,1399687,,,,object_04a.png,,,50,,,1,,object_15b.png,object_01c.png,object_02b.png,object_01c.png,,1,,1,,,,,,,,
3614.199999999255,,directmemory_phase2,1403306,,,,object_13c.png,,,51,,,1,,object_10b.png,object_11c.png,object_03b.png,object_03b.png,,1,,1,,,,,,,,
1641.7999999970198,,directmemory_phase2,1404953,,,,object_10a.png,,,49,,,1,,object_08b.png,object_01a.png,object_04a.png,object_08b.png,,1,,1,,,,,,,,
3030.39999999851,,directmemory_phase2,1407988,,,,object_02a.png,,,49,,,1,,object_10b.png,object_08b.png,object_09b.png,object_10b.png,,1,,1,,,,,,,,
1673.9000000022352,,directmemory_phase2,1409667,,,,object_14c.png,,,50,,,1,,object_04a.png,object_03c.png,object_03a.png,object_03c.png,,1,,1,,,,,,,,
1998,,directmemory_phase2,1411669,,,,object_05c.png,,,51,,,1,,object_10b.png,object_02a.png,object_13a.png,object_13a.png,,1,,1,,,,,,,,
1826.3999999985099,,directmemory_phase2,1413501,,,,object_08c.png,,,49,,,1,,object_11a.png,object_03b.png,object_13c.png,object_11a.png,,1,,1,,,,,,,,
1346.6000000014901,,directmemory_phase2,1414852,,,,object_12b.png,,,50,,,1,,object_06b.png,object_01a.png,object_08b.png,object_01a.png,,1,,1,,,,,,,,
1532.4000000022352,,directmemory_phase2,1416389,,,,object_06a.png,,,51,,,1,,object_13a.png,object_04a.png,object_02c.png,object_02c.png,,1,,1,,,,,,,,
1912.8999999985099,,directmemory_phase2,1418307,,,,object_15b.png,,,49,,,1,,object_14b.png,object_03b.png,object_11c.png,object_14b.png,,1,,1,,,,,,,,
null,,thebreak,1418413,,,,<p></p>,,,null,,,,,,,,,,,,,,,,,,,,
7839.199999999255,,intro_0,1426255,,,,instruct,,,32,,,,,,,,,,,,,,,,,,,,
null,,learn_phase(without_color)3,1429768,,,,black_plus_sign,,,null,object_12c.png,object_11c.png,,,,,,,,,,,,,,,,,,
null,,black_cross(without_color)3,1430594,,,,blue,,,null,object_12c.png,object_11c.png,,,,,,,,,,,,,,,,,,
null,,rt_plussign_withcolor3,1431106,,,,blue,,,null,object_12c.png,object_11c.png,,,,,,,,,,,,,,,,,,
1527.300000000745,,rt_thecrossant_black3,1432321,,,,black_plus_sign,,,49,,,1,,,,,,,1,,,,,,,,,,
null,,color_black3,1432430,,,,black_plus_sign,,,null,,,,,,,,,,,,,,,,,,,,
null,,learn_phase(without_color)3,1435941,,,,black_plus_sign,,,null,object_06a.png,object_02c.png,,,,,,,,,,,,,,,,,,
null,,black_cross(without_color)3,1436364,,,,green,,,null,object_06a.png,object_02c.png,,,,,,,,,,,,,,,,,,
null,,rt_plussign_withcolor3,1436875,,,,green,,,null,object_06a.png,object_02c.png,,,,,,,,,,,,,,,,,,
1532.5999999977648,,rt_thecrossant_black3,1438486,,,,black_plus_sign,,,50,,,1,,,,,,,1,,,,,,,,,,
null,,color_black3,1438591,,,,black_plus_sign,,,null,,,,,,,,,,,,,,,,,,,,
null,,learn_phase(without_color)3,1442099,,,,black_plus_sign,,,null,object_11a.png,object_08c.png,,,,,,,,,,,,,,,,,,
null,,black_cross(without_color)3,1442785,,,,green,,,null,object_11a.png,object_08c.png,,,,,,,,,,,,,,,,,,
null,,rt_plussign_withcolor3,1443294,,,,green,,,null,object_11a.png,object_08c.png,,,,,,,,,,,,,,,,,,
863.6999999992549,,rt_thecrossant_black3,1444633,,,,black_plus_sign,,,50,,,1,,,,,,,1,,,,,,,,,,
null,,color_black3,1444738,,,,black_plus_sign,,,null,,,,,,,,,,,,,,,,,,,,
null,,learn_phase(without_color)3,1448250,,,,black_plus_sign,,,null,object_10b.png,object_02a.png,,,,,,,,,,,,,,,,,,
null,,black_cross(without_color)3,1449237,,,,blue,,,null,object_10b.png,object_02a.png,,,,,,,,,,,,,,,,,,
null,,rt_plussign_withcolor3,1449747,,,,blue,,,null,object_10b.png,object_02a.png,,,,,,,,,,,,,,,,,,
856.6000000014901,,rt_thecrossant_black3,1450776,,,,black_plus_sign,,,49,,,1,,,,,,,1,,,,,,,,,,
null,,color_black3,1450882,,,,black_plus_sign,,,null,,,,,,,,,,,,,,,,,,,,
null,,learn_phase(without_color)3,1454403,,,,black_plus_sign,,,null,object_12b.png,object_01a.png,,,,,,,,,,,,,,,,,,
null,,black_cross(without_color)3,1455137,,,,green,,,null,object_12b.png,object_01a.png,,,,,,,,,,,,,,,,,,
null,,rt_plussign_withcolor3,1455646,,,,green,,,null,object_12b.png,object_01a.png,,,,,,,,,,,,,,,,,,
1106,,rt_thecrossant_black3,1456945,,,,black_plus_sign,,,50,,,1,,,,,,,1,,,,,,,,,,
null,,color_black3,1457056,,,,black_plus_sign,,,null,,,,,,,,,,,,,,,,,,,,
null,,learn_phase(without_color)3,1460577,,,,black_plus_sign,,,null,object_07a.png,object_10c.png,,,,,,,,,,,,,,,,,,
null,,black_cross(without_color)3,1461511,,,,green,,,null,object_07a.png,object_10c.png,,,,,,,,,,,,,,,,,,
null,,rt_plussign_withcolor3,1462025,,,,green,,,null,object_07a.png,object_10c.png,,,,,,,,,,,,,,,,,,
932.0999999977648,,rt_thecrossant_black3,1463108,,,,black_plus_sign,,,50,,,1,,,,,,,1,,,,,,,,,,
null,,color_black3,1463215,,,,black_plus_sign,,,null,,,,,,,,,,,,,,,,,,,,
null,,learn_phase(without_color)3,1466737,,,,black_plus_sign,,,null,object_13c.png,object_03b.png,,,,,,,,,,,,,,,,,,
null,,black_cross(without_color)3,1467571,,,,blue,,,null,object_13c.png,object_03b.png,,,,,,,,,,,,,,,,,,
null,,rt_plussign_withcolor3,1468084,,,,blue,,,null,object_13c.png,object_03b.png,,,,,,,,,,,,,,,,,,
1242.4000000022352,,rt_thecrossant_black3,1469276,,,,black_plus_sign,,,49,,,1,,,,,,,1,,,,,,,,,,
null,,color_black3,1469389,,,,black_plus_sign,,,null,,,,,,,,,,,,,,,,,,,,
null,,learn_phase(without_color)3,1472915,,,,black_plus_sign,,,null,object_03c.png,object_14c.png,,,,,,,,,,,,,,,,,,
null,,black_cross(without_color)3,1473993,,,,blue,,,null,object_03c.png,object_14c.png,,,,,,,,,,,,,,,,,,
null,,rt_plussign_withcolor3,1474497,,,,blue,,,null,object_03c.png,object_14c.png,,,,,,,,,,,,,,,,,,
1032.699999999255,,rt_thecrossant_black3,1475449,,,,black_plus_sign,,,49,,,1,,,,,,,1,,,,,,,,,,
null,,color_black3,1475557,,,,black_plus_sign,,,null,,,,,,,,,,,,,,,,,,,,
null,,learn_phase(without_color)3,1479071,,,,black_plus_sign,,,null,object_07c.png,object_09b.png,,,,,,,,,,,,,,,,,,
null,,black_cross(without_color)3,1479579,,,,blue,,,null,object_07c.png,object_09b.png,,,,,,,,,,,,,,,,,,
null,,rt_plussign_withcolor3,1480096,,,,blue,,,null,object_07c.png,object_09b.png,,,,,,,,,,,,,,,,,,
1377.4000000022352,,rt_thecrossant_black3,1481605,,,,black_plus_sign,,,49,,,1,,,,,,,1,,,,,,,,,,
null,,color_black3,1481722,,,,black_plus_sign,,,null,,,,,,,,,,,,,,,,,,,,
null,,learn_phase(without_color)3,1485239,,,,black_plus_sign,,,null,object_04a.png,object_01c.png,,,,,,,,,,,,,,,,,,
null,,black_cross(without_color)3,1486215,,,,blue,,,null,object_04a.png,object_01c.png,,,,,,,,,,,,,,,,,,
null,,rt_plussign_withcolor3,1486728,,,,blue,,,null,object_04a.png,object_01c.png,,,,,,,,,,,,,,,,,,
623.1999999992549,,rt_thecrossant_black3,1487778,,,,black_plus_sign,,,49,,,1,,,,,,,1,,,,,,,,,,
null,,color_black3,1487890,,,,black_plus_sign,,,null,,,,,,,,,,,,,,,,,,,,
null,,learn_phase(without_color)3,1491411,,,,black_plus_sign,,,null,object_04c.png,object_02b.png,,,,,,,,,,,,,,,,,,
null,,black_cross(without_color)3,1491826,,,,blue,,,null,object_04c.png,object_02b.png,,,,,,,,,,,,,,,,,,
null,,rt_plussign_withcolor3,1492350,,,,blue,,,null,object_04c.png,object_02b.png,,,,,,,,,,,,,,,,,,
1212.9000000022352,,rt_thecrossant_black3,1493962,,,,black_plus_sign,,,49,,,1,,,,,,,1,,,,,,,,,,
null,,color_black3,1494069,,,,black_plus_sign,,,null,,,,,,,,,,,,,,,,,,,,
null,,learn_phase(without_color)3,1497584,,,,black_plus_sign,,,null,object_13a.png,object_05c.png,,,,,,,,,,,,,,,,,,
null,,black_cross(without_color)3,1498413,,,,blue,,,null,object_13a.png,object_05c.png,,,,,,,,,,,,,,,,,,
null,,rt_plussign_withcolor3,1498927,,,,blue,,,null,object_13a.png,object_05c.png,,,,,,,,,,,,,,,,,,
660.6999999992549,,rt_thecrossant_black3,1500127,,,,black_plus_sign,,,49,,,1,,,,,,,1,,,,,,,,,,
null,,color_black3,1500235,,,,black_plus_sign,,,null,,,,,,,,,,,,,,,,,,,,
null,,learn_phase(without_color)3,1503745,,,,black_plus_sign,,,null,object_03a.png,object_06b.png,,,,,,,,,,,,,,,,,,
null,,black_cross(without_color)3,1504746,,,,blue,,,null,object_03a.png,object_06b.png,,,,,,,,,,,,,,,,,,
null,,rt_plussign_withcolor3,1505258,,,,blue,,,null,object_03a.png,object_06b.png,,,,,,,,,,,,,,,,,,
1063.199999999255,,rt_thecrossant_black3,1506281,,,,black_plus_sign,,,49,,,1,,,,,,,1,,,,,,,,,,
null,,color_black3,1506400,,,,black_plus_sign,,,null,,,,,,,,,,,,,,,,,,,,
null,,learn_phase(without_color)3,1509912,,,,black_plus_sign,,,null,object_15b.png,object_14b.png,,,,,,,,,,,,,,,,,,
null,,black_cross(without_color)3,1510456,,,,blue,,,null,object_15b.png,object_14b.png,,,,,,,,,,,,,,,,,,
null,,rt_plussign_withcolor3,1510960,,,,blue,,,null,object_15b.png,object_14b.png,,,,,,,,,,,,,,,,,,
1123.199999999255,,rt_thecrossant_black3,1512438,,,,black_plus_sign,,,49,,,1,,,,,,,1,,,,,,,,,,
null,,color_black3,1512550,,,,black_plus_sign,,,null,,,,,,,,,,,,,,,,,,,,
null,,learn_phase(without_color)3,1516062,,,,black_plus_sign,,,null,object_10a.png,object_08b.png,,,,,,,,,,,,,,,,,,
null,,black_cross(without_color)3,1516624,,,,blue,,,null,object_10a.png,object_08b.png,,,,,,,,,,,,,,,,,,
null,,rt_plussign_withcolor3,1517143,,,,blue,,,null,object_10a.png,object_08b.png,,,,,,,,,,,,,,,,,,
700.2999999970198,,rt_thecrossant_black3,1518616,,,,black_plus_sign,,,49,,,1,,,,,,,1,,,,,,,,,,
null,,color_black3,1518724,,,,black_plus_sign,,,null,,,,,,,,,,,,,,,,,,,,
null,,thebreak,1518833,,,,<p></p>,,,null,,,,,,,,,,,,,,,,,,,,
2784.099999997765,,intro_0,1521621,,,,instruct,,,32,,,,,,,,,,,,,,,,,,,,
1655.699999999255,,directmemory_phase3,1523279,,,,object_15b.png,,,51,,,1,,object_10b.png,object_05c.png,object_14b.png,object_14b.png,,1,,1,,,,,,,,
2377.10000000149,,directmemory_phase3,1525664,,,,object_08c.png,,,51,,,1,,object_12c.png,object_13c.png,object_11a.png,object_11a.png,,1,,1,,,,,,,,
2323.5,,directmemory_phase3,1527992,,,,object_07a.png,,,51,,,1,,object_14b.png,object_12b.png,object_10c.png,object_10c.png,,1,,1,,,,,,,,
1538.0999999977648,,directmemory_phase3,1529536,,,,object_12b.png,,,49,,,1,,object_01a.png,object_02c.png,object_05c.png,object_01a.png,,1,,1,,,,,,,,
1497.699999999255,,directmemory_phase3,1531039,,,,object_10a.png,,,49,,,1,,object_08b.png,object_02c.png,object_15b.png,object_08b.png,,1,,1,,,,,,,,
2457.800000000745,,directmemory_phase3,1533501,,,,object_11c.png,,,51,,,1,,object_13a.png,object_06a.png,object_12c.png,object_12c.png,,1,,1,,,,,,,,
1575.199999999255,,directmemory_phase3,1535082,,,,object_05c.png,,,49,,,1,,object_13a.png,object_01c.png,object_08c.png,object_13a.png,,1,,1,,,,,,,,
2359.7000000029802,,directmemory_phase3,1537446,,,,object_04c.png,,,51,,,1,,object_07c.png,object_13c.png,object_02b.png,object_02b.png,,1,,1,,,,,,,,
2023.199999999255,,directmemory_phase3,1539475,,,,object_09b.png,,,50,,,1,,object_06a.png,object_07c.png,object_14b.png,object_07c.png,,1,,1,,,,,,,,
2693.099999997765,,directmemory_phase3,1542173,,,,object_14c.png,,,50,,,1,,object_06b.png,object_03c.png,object_13a.png,object_03c.png,,1,,1,,,,,,,,
1587.699999999255,,directmemory_phase3,1543766,,,,object_06a.png,,,50,,,1,,object_05c.png,object_02c.png,object_14b.png,object_02c.png,,1,,1,,,,,,,,
1736,,directmemory_phase3,1545506,,,,object_06b.png,,,49,,,1,,object_03a.png,object_02b.png,object_15b.png,object_03a.png,,1,,1,,,,,,,,
1924,,directmemory_phase3,1547436,,,,object_04a.png,,,50,,,1,,object_04c.png,object_01c.png,object_13a.png,object_01c.png,,1,,1,,,,,,,,
2839.300000000745,,directmemory_phase3,1550280,,,,object_02a.png,,,51,,,1,,object_07c.png,object_04c.png,object_10b.png,object_10b.png,,1,,1,,,,,,,,
2861.5,,directmemory_phase3,1553147,,,,object_13c.png,,,51,,,1,,object_01a.png,object_04a.png,object_03b.png,object_03b.png,,1,,1,,,,,,,,
null,,thebreak,1553254,,,,<p></p>,,,null,,,,,,,,,,,,,,,,,,,,
7196.199999999255,,intro_0,1560453,,,,instruct,,,32,,,,,,,,,,,,,,,,,,,,
null,,learn_phase(without_color)4,1563972,,,,black_plus_sign,,,null,object_01c.png,object_04a.png,,,,,,,,,,,,,,,,,,
null,,black_cross(without_color)4,1564470,,,,blue,,,null,object_01c.png,object_04a.png,,,,,,,,,,,,,,,,,,
null,,rt_plussign_withcolor4,1564980,,,,blue,,,null,object_01c.png,object_04a.png,,,,,,,,,,,,,,,,,,
615.3999999985099,,rt_thecrossant_black4,1566511,,,,black_plus_sign,,,49,,,1,,,,,,,1,,,,,,,,,,
null,,color_black4,1566619,,,,black_plus_sign,,,null,,,,,,,,,,,,,,,,,,,,
null,,learn_phase(without_color)4,1570131,,,,black_plus_sign,,,null,object_12c.png,object_11c.png,,,,,,,,,,,,,,,,,,
null,,black_cross(without_color)4,1570595,,,,green,,,null,object_12c.png,object_11c.png,,,,,,,,,,,,,,,,,,
null,,rt_plussign_withcolor4,1571114,,,,green,,,null,object_12c.png,object_11c.png,,,,,,,,,,,,,,,,,,
664.0999999977648,,rt_thecrossant_black4,1572676,,,,black_plus_sign,,,50,,,1,,,,,,,1,,,,,,,,,,
null,,color_black4,1572782,,,,black_plus_sign,,,null,,,,,,,,,,,,,,,,,,,,
null,,learn_phase(without_color)4,1576296,,,,black_plus_sign,,,null,object_10c.png,object_07a.png,,,,,,,,,,,,,,,,,,
null,,black_cross(without_color)4,1577136,,,,green,,,null,object_10c.png,object_07a.png,,,,,,,,,,,,,,,,,,
null,,rt_plussign_withcolor4,1577648,,,,green,,,null,object_10c.png,object_07a.png,,,,,,,,,,,,,,,,,,
640.8000000007451,,rt_thecrossant_black4,1578838,,,,black_plus_sign,,,50,,,1,,,,,,,1,,,,,,,,,,
null,,color_black4,1578945,,,,black_plus_sign,,,null,,,,,,,,,,,,,,,,,,,,
null,,learn_phase(without_color)4,1582452,,,,black_plus_sign,,,null,object_09b.png,object_07c.png,,,,,,,,,,,,,,,,,,
null,,black_cross(without_color)4,1582973,,,,blue,,,null,object_09b.png,object_07c.png,,,,,,,,,,,,,,,,,,
null,,rt_plussign_withcolor4,1583488,,,,blue,,,null,object_09b.png,object_07c.png,,,,,,,,,,,,,,,,,,
960.7000000029802,,rt_thecrossant_black4,1584986,,,,black_plus_sign,,,49,,,1,,,,,,,1,,,,,,,,,,
null,,color_black4,1585093,,,,black_plus_sign,,,null,,,,,,,,,,,,,,,,,,,,
null,,learn_phase(without_color)4,1588614,,,,black_plus_sign,,,null,object_11a.png,object_08c.png,,,,,,,,,,,,,,,,,,
null,,black_cross(without_color)4,1589475,,,,blue,,,null,object_11a.png,object_08c.png,,,,,,,,,,,,,,,,,,
null,,rt_plussign_withcolor4,1589997,,,,blue,,,null,object_11a.png,object_08c.png,,,,,,,,,,,,,,,,,,
785.3000000007451,,rt_thecrossant_black4,1591173,,,,black_plus_sign,,,49,,,1,,,,,,,1,,,,,,,,,,
null,,color_black4,1591277,,,,black_plus_sign,,,null,,,,,,,,,,,,,,,,,,,,
null,,learn_phase(without_color)4,1594786,,,,black_plus_sign,,,null,object_03c.png,object_14c.png,,,,,,,,,,,,,,,,,,
null,,black_cross(without_color)4,1595293,,,,blue,,,null,object_03c.png,object_14c.png,,,,,,,,,,,,,,,,,,
null,,rt_plussign_withcolor4,1595802,,,,blue,,,null,object_03c.png,object_14c.png,,,,,,,,,,,,,,,,,,
1071,,rt_thecrossant_black4,1597329,,,,black_plus_sign,,,49,,,1,,,,,,,1,,,,,,,,,,
null,,color_black4,1597436,,,,black_plus_sign,,,null,,,,,,,,,,,,,,,,,,,,
null,,learn_phase(without_color)4,1600951,,,,black_plus_sign,,,null,object_08b.png,object_10a.png,,,,,,,,,,,,,,,,,,
null,,black_cross(without_color)4,1601931,,,,green,,,null,object_08b.png,object_10a.png,,,,,,,,,,,,,,,,,,
null,,rt_plussign_withcolor4,1602437,,,,green,,,null,object_08b.png,object_10a.png,,,,,,,,,,,,,,,,,,
742.3000000007451,,rt_thecrossant_black4,1603476,,,,black_plus_sign,,,50,,,1,,,,,,,1,,,,,,,,,,
null,,color_black4,1603583,,,,black_plus_sign,,,null,,,,,,,,,,,,,,,,,,,,
null,,learn_phase(without_color)4,1607096,,,,black_plus_sign,,,null,object_13c.png,object_03b.png,,,,,,,,,,,,,,,,,,
null,,black_cross(without_color)4,1607937,,,,blue,,,null,object_13c.png,object_03b.png,,,,,,,,,,,,,,,,,,
null,,rt_plussign_withcolor4,1608450,,,,blue,,,null,object_13c.png,object_03b.png,,,,,,,,,,,,,,,,,,
1375.0999999977648,,rt_thecrossant_black4,1609638,,,,black_plus_sign,,,49,,,1,,,,,,,1,,,,,,,,,,
null,,color_black4,1609751,,,,black_plus_sign,,,null,,,,,,,,,,,,,,,,,,,,
null,,learn_phase(without_color)4,1613273,,,,black_plus_sign,,,null,object_01a.png,object_12b.png,,,,,,,,,,,,,,,,,,
null,,black_cross(without_color)4,1614150,,,,blue,,,null,object_01a.png,object_12b.png,,,,,,,,,,,,,,,,,,
null,,rt_plussign_withcolor4,1614665,,,,blue,,,null,object_01a.png,object_12b.png,,,,,,,,,,,,,,,,,,
996,,rt_thecrossant_black4,1615823,,,,black_plus_sign,,,49,,,1,,,,,,,1,,,,,,,,,,
null,,color_black4,1615933,,,,black_plus_sign,,,null,,,,,,,,,,,,,,,,,,,,
null,,learn_phase(without_color)4,1619444,,,,black_plus_sign,,,null,object_05c.png,object_13a.png,,,,,,,,,,,,,,,,,,
null,,black_cross(without_color)4,1620384,,,,blue,,,null,object_05c.png,object_13a.png,,,,,,,,,,,,,,,,,,
null,,rt_plussign_withcolor4,1620900,,,,blue,,,null,object_05c.png,object_13a.png,,,,,,,,,,,,,,,,,,
1006.2999999970198,,rt_thecrossant_black4,1621985,,,,black_plus_sign,,,49,,,1,,,,,,,1,,,,,,,,,,
null,,color_black4,1622094,,,,black_plus_sign,,,null,,,,,,,,,,,,,,,,,,,,
null,,learn_phase(without_color)4,1625613,,,,black_plus_sign,,,null,object_02b.png,object_04c.png,,,,,,,,,,,,,,,,,,
null,,black_cross(without_color)4,1626311,,,,blue,,,null,object_02b.png,object_04c.png,,,,,,,,,,,,,,,,,,
null,,rt_plussign_withcolor4,1626824,,,,blue,,,null,object_02b.png,object_04c.png,,,,,,,,,,,,,,,,,,
1233.1000000014901,,rt_thecrossant_black4,1628149,,,,black_plus_sign,,,49,,,1,,,,,,,1,,,,,,,,,,
null,,color_black4,1628258,,,,black_plus_sign,,,null,,,,,,,,,,,,,,,,,,,,
null,,learn_phase(without_color)4,1631768,,,,black_plus_sign,,,null,object_10b.png,object_02a.png,,,,,,,,,,,,,,,,,,
null,,black_cross(without_color)4,1632471,,,,green,,,null,object_10b.png,object_02a.png,,,,,,,,,,,,,,,,,,
null,,rt_plussign_withcolor4,1632994,,,,green,,,null,object_10b.png,object_02a.png,,,,,,,,,,,,,,,,,,
1228,,rt_thecrossant_black4,1634328,,,,black_plus_sign,,,50,,,1,,,,,,,1,,,,,,,,,,
null,,color_black4,1634440,,,,black_plus_sign,,,null,,,,,,,,,,,,,,,,,,,,
null,,learn_phase(without_color)4,1637946,,,,black_plus_sign,,,null,object_02c.png,object_06a.png,,,,,,,,,,,,,,,,,,
null,,black_cross(without_color)4,1638726,,,,blue,,,null,object_02c.png,object_06a.png,,,,,,,,,,,,,,,,,,
510.6000000014901,,rt_plussign_withcolor4,1639242,,,,blue,,,49,object_02c.png,object_06a.png,,,,,,,,,,,,,,,,,,
null,,rt_thecrossant_black4,1640486,,,,black_plus_sign,,,null,,,1,,,,,,,1,,,,,,,,,,
null,,color_black4,1640595,,,,black_plus_sign,,,null,,,,,,,,,,,,,,,,,,,,
null,,learn_phase(without_color)4,1644104,,,,black_plus_sign,,,null,object_06b.png,object_03a.png,,,,,,,,,,,,,,,,,,
null,,black_cross(without_color)4,1644760,,,,blue,,,null,object_06b.png,object_03a.png,,,,,,,,,,,,,,,,,,
466.8999999985099,,rt_plussign_withcolor4,1645265,,,,blue,,,49,object_06b.png,object_03a.png,,,,,,,,,,,,,,,,,,
null,,rt_thecrossant_black4,1646642,,,,black_plus_sign,,,null,,,1,,,,,,,1,,,,,,,,,,
null,,color_black4,1646761,,,,black_plus_sign,,,null,,,,,,,,,,,,,,,,,,,,
null,,learn_phase(without_color)4,1650276,,,,black_plus_sign,,,null,object_15b.png,object_14b.png,,,,,,,,,,,,,,,,,,
null,,black_cross(without_color)4,1651228,,,,blue,,,null,object_15b.png,object_14b.png,,,,,,,,,,,,,,,,,,
null,,rt_plussign_withcolor4,1651744,,,,blue,,,null,object_15b.png,object_14b.png,,,,,,,,,,,,,,,,,,
744.1000000014901,,rt_thecrossant_black4,1652843,,,,black_plus_sign,,,49,,,1,,,,,,,1,,,,,,,,,,
null,,color_black4,1652954,,,,black_plus_sign,,,null,,,,,,,,,,,,,,,,,,,,
null,,thebreak,1653060,,,,<p></p>,,,null,,,,,,,,,,,,,,,,,,,,
2574.7999999970198,,intro_0,1655637,,,,instruct,,,32,,,,,,,,,,,,,,,,,,,,
2740.199999999255,,directmemory_phase4,1658381,,,,object_02a.png,,,50,,,1,,object_14c.png,object_10b.png,object_11a.png,object_10b.png,,1,,1,,,,,,,,
2558.39999999851,,directmemory_phase4,1660945,,,,object_04c.png,,,51,,,1,,object_02c.png,object_02a.png,object_02b.png,object_02b.png,,1,,1,,,,,,,,
2012.5,,directmemory_phase4,1662964,,,,object_10a.png,,,50,,,1,,object_04a.png,object_08b.png,object_03b.png,object_08b.png,,1,,1,,,,,,,,
3291.800000000745,,directmemory_phase4,1666260,,,,object_14c.png,,,51,,,1,,object_10b.png,object_02a.png,object_03c.png,object_03c.png,,1,,1,,,,,,,,
1685.8999999985099,,directmemory_phase4,1667953,,,,object_15b.png,,,50,,,1,,object_02a.png,object_14b.png,object_07c.png,object_14b.png,,1,,1,,,,,,,,
1264.800000000745,,directmemory_phase4,1669222,,,,object_13c.png,,,49,,,1,,object_03b.png,object_10b.png,object_04a.png,object_03b.png,,1,,1,,,,,,,,
2262.800000000745,,directmemory_phase4,1671489,,,,object_08c.png,,,51,,,1,,object_02c.png,object_02a.png,object_11a.png,object_11a.png,,1,,1,,,,,,,,
2277.89999999851,,directmemory_phase4,1673773,,,,object_11c.png,,,49,,,1,,object_12c.png,object_14b.png,object_04a.png,object_12c.png,,1,,1,,,,,,,,
1977.9000000022352,,directmemory_phase4,1675757,,,,object_06b.png,,,51,,,1,,object_12c.png,object_02a.png,object_03a.png,object_03a.png,,1,,1,,,,,,,,
1424.300000000745,,directmemory_phase4,1677187,,,,object_12b.png,,,50,,,1,,object_11c.png,object_01a.png,object_13a.png,object_01a.png,,1,,1,,,,,,,,
1842.300000000745,,directmemory_phase4,1679036,,,,object_05c.png,,,51,,,1,,object_02b.png,object_11c.png,object_13a.png,object_13a.png,,1,,1,,,,,,,,
2637.099999997765,,directmemory_phase4,1681677,,,,object_04a.png,,,49,,,1,,object_01c.png,object_02b.png,object_06a.png,object_01c.png,,1,,1,,,,,,,,
1423.699999999255,,directmemory_phase4,1683106,,,,object_09b.png,,,50,,,1,,object_15b.png,object_07c.png,object_11a.png,object_07c.png,,1,,1,,,,,,,,
1338,,directmemory_phase4,1684450,,,,object_06a.png,,,49,,,1,,object_02c.png,object_07c.png,object_14c.png,object_02c.png,,1,,1,,,,,,,,
1340.6000000014901,,directmemory_phase4,1685795,,,,object_07a.png,,,49,,,1,,object_10c.png,object_02b.png,object_04c.png,object_10c.png,,1,,1,,,,,,,,
null,,thebreak,1685918,,,,<p></p>,,,null,,,,,,,,,,,,,,,,,,,,
1996.4000000022352,,intro_0,1687916,,,,instruct,,,32,,,,,,,,,,,,,,,,,,,,
null,,learn_phase(without_color)5,1691430,,,,black_plus_sign,,,null,object_01b.png,object_03b.png,,,,,,,,,,,,,,,,,,
null,,black_cross(without_color)5,1692471,,,,blue,,,null,object_01b.png,object_03b.png,,,,,,,,,,,,,,,,,,
null,,rt_plussign_withcolor5,1692990,,,,blue,,,null,object_01b.png,object_03b.png,,,,,,,,,,,,,,,,,,
1381.8999999985099,,rt_thecrossant_black5,1693979,,,,black_plus_sign,,,49,,,1,,,,,,,1,,,,,,,,,,
null,,color_black5,1694087,,,,black_plus_sign,,,null,,,,,,,,,,,,,,,,,,,,
null,,learn_phase(without_color)5,1697608,,,,black_plus_sign,,,null,object_07c.png,object_05a.png,,,,,,,,,,,,,,,,,,
null,,black_cross(without_color)5,1698505,,,,green,,,null,object_07c.png,object_05a.png,,,,,,,,,,,,,,,,,,
null,,rt_plussign_withcolor5,1699031,,,,green,,,null,object_07c.png,object_05a.png,,,,,,,,,,,,,,,,,,
1498,,rt_thecrossant_black5,1700163,,,,black_plus_sign,,,50,,,1,,,,,,,1,,,,,,,,,,
null,,color_black5,1700273,,,,black_plus_sign,,,null,,,,,,,,,,,,,,,,,,,,
null,,learn_phase(without_color)5,1703784,,,,black_plus_sign,,,null,object_08b.png,object_12a.png,,,,,,,,,,,,,,,,,,
null,,black_cross(without_color)5,1704600,,,,green,,,null,object_08b.png,object_12a.png,,,,,,,,,,,,,,,,,,
null,,rt_plussign_withcolor5,1705110,,,,green,,,null,object_08b.png,object_12a.png,,,,,,,,,,,,,,,,,,
1363.1000000014901,,rt_thecrossant_black5,1706321,,,,black_plus_sign,,,50,,,1,,,,,,,1,,,,,,,,,,
null,,color_black5,1706429,,,,black_plus_sign,,,null,,,,,,,,,,,,,,,,,,,,
null,,learn_phase(without_color)5,1709943,,,,black_plus_sign,,,null,object_14b.png,object_11b.png,,,,,,,,,,,,,,,,,,
null,,black_cross(without_color)5,1710777,,,,blue,,,null,object_14b.png,object_11b.png,,,,,,,,,,,,,,,,,,
null,,rt_plussign_withcolor5,1711294,,,,blue,,,null,object_14b.png,object_11b.png,,,,,,,,,,,,,,,,,,
1045.800000000745,,rt_thecrossant_black5,1712490,,,,black_plus_sign,,,49,,,1,,,,,,,1,,,,,,,,,,
null,,color_black5,1712597,,,,black_plus_sign,,,null,,,,,,,,,,,,,,,,,,,,
null,,learn_phase(without_color)5,1716104,,,,black_plus_sign,,,null,object_04b.png,object_13a.png,,,,,,,,,,,,,,,,,,
null,,black_cross(without_color)5,1716816,,,,blue,,,null,object_04b.png,object_13a.png,,,,,,,,,,,,,,,,,,
null,,rt_plussign_withcolor5,1717328,,,,blue,,,null,object_04b.png,object_13a.png,,,,,,,,,,,,,,,,,,
1350.3999999985099,,rt_thecrossant_black5,1718656,,,,black_plus_sign,,,49,,,1,,,,,,,1,,,,,,,,,,
null,,color_black5,1718762,,,,black_plus_sign,,,null,,,,,,,,,,,,,,,,,,,,
null,,learn_phase(without_color)5,1722276,,,,black_plus_sign,,,null,object_15c.png,object_12c.png,,,,,,,,,,,,,,,,,,
null,,black_cross(without_color)5,1723241,,,,green,,,null,object_15c.png,object_12c.png,,,,,,,,,,,,,,,,,,
null,,rt_plussign_withcolor5,1723758,,,,green,,,null,object_15c.png,object_12c.png,,,,,,,,,,,,,,,,,,
1183.0999999977648,,rt_thecrossant_black5,1724816,,,,black_plus_sign,,,50,,,1,,,,,,,1,,,,,,,,,,
null,,color_black5,1724921,,,,black_plus_sign,,,null,,,,,,,,,,,,,,,,,,,,
null,,learn_phase(without_color)5,1728433,,,,black_plus_sign,,,null,object_11a.png,object_06c.png,,,,,,,,,,,,,,,,,,
null,,black_cross(without_color)5,1728953,,,,green,,,null,object_11a.png,object_06c.png,,,,,,,,,,,,,,,,,,
null,,rt_plussign_withcolor5,1729462,,,,green,,,null,object_11a.png,object_06c.png,,,,,,,,,,,,,,,,,,
1388.4000000022352,,rt_thecrossant_black5,1730982,,,,black_plus_sign,,,50,,,1,,,,,,,1,,,,,,,,,,
null,,color_black5,1731090,,,,black_plus_sign,,,null,,,,,,,,,,,,,,,,,,,,
null,,learn_phase(without_color)5,1734596,,,,black_plus_sign,,,null,object_10b.png,object_09c.png,,,,,,,,,,,,,,,,,,
null,,black_cross(without_color)5,1735211,,,,blue,,,null,object_10b.png,object_09c.png,,,,,,,,,,,,,,,,,,
null,,rt_plussign_withcolor5,1735714,,,,blue,,,null,object_10b.png,object_09c.png,,,,,,,,,,,,,,,,,,
891.1999999992549,,rt_thecrossant_black5,1737120,,,,black_plus_sign,,,49,,,1,,,,,,,1,,,,,,,,,,
null,,color_black5,1737238,,,,black_plus_sign,,,null,,,,,,,,,,,,,,,,,,,,
null,,learn_phase(without_color)5,1740751,,,,black_plus_sign,,,null,object_07b.png,object_01a.png,,,,,,,,,,,,,,,,,,
null,,black_cross(without_color)5,1741404,,,,green,,,null,object_07b.png,object_01a.png,,,,,,,,,,,,,,,,,,
null,,rt_plussign_withcolor5,1741915,,,,green,,,null,object_07b.png,object_01a.png,,,,,,,,,,,,,,,,,,
1093.199999999255,,rt_thecrossant_black5,1743284,,,,black_plus_sign,,,50,,,1,,,,,,,1,,,,,,,,,,
null,,color_black5,1743394,,,,black_plus_sign,,,null,,,,,,,,,,,,,,,,,,,,
null,,learn_phase(without_color)5,1746915,,,,black_plus_sign,,,null,object_03c.png,object_08a.png,,,,,,,,,,,,,,,,,,
null,,black_cross(without_color)5,1747684,,,,green,,,null,object_03c.png,object_08a.png,,,,,,,,,,,,,,,,,,
null,,rt_plussign_withcolor5,1748192,,,,green,,,null,object_03c.png,object_08a.png,,,,,,,,,,,,,,,,,,
1128.699999999255,,rt_thecrossant_black5,1749452,,,,black_plus_sign,,,50,,,1,,,,,,,1,,,,,,,,,,
null,,color_black5,1749557,,,,black_plus_sign,,,null,,,,,,,,,,,,,,,,,,,,
null,,learn_phase(without_color)5,1753077,,,,black_plus_sign,,,null,object_03a.png,object_05b.png,,,,,,,,,,,,,,,,,,
null,,black_cross(without_color)5,1753652,,,,blue,,,null,object_03a.png,object_05b.png,,,,,,,,,,,,,,,,,,
null,,rt_plussign_withcolor5,1754163,,,,blue,,,null,object_03a.png,object_05b.png,,,,,,,,,,,,,,,,,,
1263.800000000745,,rt_thecrossant_black5,1755613,,,,black_plus_sign,,,49,,,1,,,,,,,1,,,,,,,,,,
null,,color_black5,1755724,,,,black_plus_sign,,,null,,,,,,,,,,,,,,,,,,,,
null,,learn_phase(without_color)5,1759239,,,,black_plus_sign,,,null,object_10c.png,object_09a.png,,,,,,,,,,,,,,,,,,
null,,black_cross(without_color)5,1759882,,,,blue,,,null,object_10c.png,object_09a.png,,,,,,,,,,,,,,,,,,
null,,rt_plussign_withcolor5,1760394,,,,blue,,,null,object_10c.png,object_09a.png,,,,,,,,,,,,,,,,,,
null,,rt_thecrossant_black5,1761776,,,,black_plus_sign,,,null,,,,,,,,,,1,,,,,,,,,,
null,,color_black5,1761888,,,,black_plus_sign,,,null,,,,,,,,,,,,,,,,,,,,
null,,learn_phase(without_color)5,1765399,,,,black_plus_sign,,,null,object_14a.png,object_01c.png,,,,,,,,,,,,,,,,,,
null,,black_cross(without_color)5,1766476,,,,green,,,null,object_14a.png,object_01c.png,,,,,,,,,,,,,,,,,,
null,,rt_plussign_withcolor5,1766986,,,,green,,,null,object_14a.png,object_01c.png,,,,,,,,,,,,,,,,,,
1067.3999999985099,,rt_thecrossant_black5,1767928,,,,black_plus_sign,,,50,,,1,,,,,,,1,,,,,,,,,,
null,,color_black5,1768034,,,,black_plus_sign,,,null,,,,,,,,,,,,,,,,,,,,
null,,learn_phase(without_color)5,1771552,,,,black_plus_sign,,,null,object_02b.png,object_13b.png,,,,,,,,,,,,,,,,,,
null,,black_cross(without_color)5,1772310,,,,green,,,null,object_02b.png,object_13b.png,,,,,,,,,,,,,,,,,,
null,,rt_plussign_withcolor5,1772820,,,,green,,,null,object_02b.png,object_13b.png,,,,,,,,,,,,,,,,,,
1403.5999999977648,,rt_thecrossant_black5,1774096,,,,black_plus_sign,,,50,,,1,,,,,,,1,,,,,,,,,,
null,,color_black5,1774207,,,,black_plus_sign,,,null,,,,,,,,,,,,,,,,,,,,
null,,learn_phase(without_color)5,1777717,,,,black_plus_sign,,,null,object_02c.png,object_15a.png,,,,,,,,,,,,,,,,,,
null,,black_cross(without_color)5,1778675,,,,blue,,,null,object_02c.png,object_15a.png,,,,,,,,,,,,,,,,,,
null,,rt_plussign_withcolor5,1779187,,,,blue,,,null,object_02c.png,object_15a.png,,,,,,,,,,,,,,,,,,
1098.5,,rt_thecrossant_black5,1780267,,,,black_plus_sign,,,49,,,1,,,,,,,1,,,,,,,,,,
null,,color_black5,1780370,,,,black_plus_sign,,,null,,,,,,,,,,,,,,,,,,,,
null,,thebreak,1780477,,,,<p></p>,,,null,,,,,,,,,,,,,,,,,,,,
173294.1000000015,,intro_0,1953775,,,,instruct,,,32,,,,,,,,,,,,,,,,,,,,
5475.199999999255,,directmemory_phase5,1959254,,,,object_10c.png,,,50,,,1,,object_12c.png,object_09a.png,object_11b.png,object_09a.png,,1,,1,,,,,,,,
3085.39999999851,,directmemory_phase5,1962345,,,,object_01b.png,,,51,,,0,,object_03b.png,object_02c.png,object_13b.png,object_03b.png,,0.9838709677419355,,0,,,,,,,,
1969.699999999255,,directmemory_phase5,1964321,,,,object_14b.png,,,49,,,1,,object_11b.png,object_04b.png,object_03a.png,object_11b.png,,0.9841269841269841,,1,,,,,,,,
1602.6000000014901,,directmemory_phase5,1965929,,,,object_01c.png,,,50,,,1,,object_03c.png,object_14a.png,object_11b.png,object_14a.png,,0.984375,,1,,,,,,,,
3650,,directmemory_phase5,1969587,,,,object_15c.png,,,49,,,1,,object_12c.png,object_07c.png,object_14a.png,object_12c.png,,0.9846153846153847,,1,,,,,,,,
1685.199999999255,,directmemory_phase5,1971278,,,,object_08a.png,,,50,,,1,,object_01b.png,object_03c.png,object_11a.png,object_03c.png,,0.9848484848484849,,1,,,,,,,,
2111.89999999851,,directmemory_phase5,1973396,,,,object_04b.png,,,51,,,1,,object_08b.png,object_01b.png,object_13a.png,object_13a.png,,0.9850746268656716,,1,,,,,,,,
1722.5,,directmemory_phase5,1975124,,,,object_08b.png,,,50,,,1,,object_01a.png,object_12a.png,object_15c.png,object_12a.png,,0.9852941176470589,,1,,,,,,,,
2012.300000000745,,directmemory_phase5,1977142,,,,object_03a.png,,,51,,,1,,object_13b.png,object_12c.png,object_05b.png,object_05b.png,,0.9855072463768116,,1,,,,,,,,
2693,,directmemory_phase5,1979841,,,,object_15a.png,,,51,,,1,,object_08b.png,object_07b.png,object_02c.png,object_02c.png,,0.9857142857142858,,1,,,,,,,,
3743.60000000149,,directmemory_phase5,1983591,,,,object_07c.png,,,49,,,1,,object_05a.png,object_15c.png,object_11a.png,object_05a.png,,0.9859154929577465,,1,,,,,,,,
1675.8999999985099,,directmemory_phase5,1985273,,,,object_11a.png,,,49,,,1,,object_06c.png,object_15c.png,object_08b.png,object_06c.png,,0.9861111111111112,,1,,,,,,,,
2962.699999999255,,directmemory_phase5,1988242,,,,object_10b.png,,,49,,,1,,object_09c.png,object_13b.png,object_11a.png,object_09c.png,,0.9863013698630136,,1,,,,,,,,
5161.20000000298,,directmemory_phase5,1993416,,,,object_01a.png,,,51,,,1,,object_12a.png,object_08b.png,object_07b.png,object_07b.png,,0.9864864864864865,,1,,,,,,,,
2890.39999999851,,directmemory_phase5,1996312,,,,object_13b.png,,,50,,,1,,object_12a.png,object_02b.png,object_13a.png,object_02b.png,,0.9866666666666667,,1,,,,,,,,
null,,thebreak,1996421,,,,<p></p>,,,null,,,,,,,,,,,,,,,,,,,,
35839.199999999255,,intro_0,2032266,,,,instruct,,,32,,,,,,,,,,,,,,,,,,,,
null,,learn_phase(without_color)6,2035773,,,,black_plus_sign,,,null,object_08a.png,object_03c.png,,,,,,,,,,,,,,,,,,
null,,black_cross(without_color)6,2036338,,,,blue,,,null,object_08a.png,object_03c.png,,,,,,,,,,,,,,,,,,
null,,rt_plussign_withcolor6,2036850,,,,blue,,,null,object_08a.png,object_03c.png,,,,,,,,,,,,,,,,,,
952.9000000022352,,rt_thecrossant_black6,2038321,,,,black_plus_sign,,,49,,,1,,,,,,,1,,,,,,,,,,
null,,color_black6,2038426,,,,black_plus_sign,,,null,,,,,,,,,,,,,,,,,,,,
null,,learn_phase(without_color)6,2041938,,,,black_plus_sign,,,null,object_15a.png,object_02c.png,,,,,,,,,,,,,,,,,,
null,,black_cross(without_color)6,2043020,,,,blue,,,null,object_15a.png,object_02c.png,,,,,,,,,,,,,,,,,,
null,,rt_plussign_withcolor6,2043525,,,,blue,,,null,object_15a.png,object_02c.png,,,,,,,,,,,,,,,,,,
992.8000000007451,,rt_thecrossant_black6,2044458,,,,black_plus_sign,,,49,,,1,,,,,,,1,,,,,,,,,,
null,,color_black6,2044567,,,,black_plus_sign,,,null,,,,,,,,,,,,,,,,,,,,
null,,learn_phase(without_color)6,2048083,,,,black_plus_sign,,,null,object_13b.png,object_02b.png,,,,,,,,,,,,,,,,,,
null,,black_cross(without_color)6,2048570,,,,blue,,,null,object_13b.png,object_02b.png,,,,,,,,,,,,,,,,,,
null,,rt_plussign_withcolor6,2049077,,,,blue,,,null,object_13b.png,object_02b.png,,,,,,,,,,,,,,,,,,
1329.199999999255,,rt_thecrossant_black6,2050622,,,,black_plus_sign,,,49,,,1,,,,,,,1,,,,,,,,,,
null,,color_black6,2050733,,,,black_plus_sign,,,null,,,,,,,,,,,,,,,,,,,,
null,,learn_phase(without_color)6,2054250,,,,black_plus_sign,,,null,object_04b.png,object_13a.png,,,,,,,,,,,,,,,,,,
null,,black_cross(without_color)6,2054818,,,,blue,,,null,object_04b.png,object_13a.png,,,,,,,,,,,,,,,,,,
null,,rt_plussign_withcolor6,2055329,,,,blue,,,null,object_04b.png,object_13a.png,,,,,,,,,,,,,,,,,,
604.8000000007451,,rt_thecrossant_black6,2056781,,,,black_plus_sign,,,49,,,1,,,,,,,1,,,,,,,,,,
null,,color_black6,2056895,,,,black_plus_sign,,,null,,,,,,,,,,,,,,,,,,,,
null,,learn_phase(without_color)6,2060413,,,,black_plus_sign,,,null,object_14b.png,object_11b.png,,,,,,,,,,,,,,,,,,
null,,black_cross(without_color)6,2060966,,,,blue,,,null,object_14b.png,object_11b.png,,,,,,,,,,,,,,,,,,
null,,rt_plussign_withcolor6,2061477,,,,blue,,,null,object_14b.png,object_11b.png,,,,,,,,,,,,,,,,,,
671.6999999992549,,rt_thecrossant_black6,2062944,,,,black_plus_sign,,,49,,,1,,,,,,,1,,,,,,,,,,
null,,color_black6,2063054,,,,black_plus_sign,,,null,,,,,,,,,,,,,,,,,,,,
null,,learn_phase(without_color)6,2066561,,,,black_plus_sign,,,null,object_01c.png,object_14a.png,,,,,,,,,,,,,,,,,,
null,,black_cross(without_color)6,2067490,,,,green,,,null,object_01c.png,object_14a.png,,,,,,,,,,,,,,,,,,
452.3999999985099,,rt_plussign_withcolor6,2067997,,,,green,,,50,object_01c.png,object_14a.png,,,,,,,,,,,,,,,,,,
null,,rt_thecrossant_black6,2069095,,,,black_plus_sign,,,null,,,1,,,,,,,1,,,,,,,,,,
null,,color_black6,2069207,,,,black_plus_sign,,,null,,,,,,,,,,,,,,,,,,,,
null,,learn_phase(without_color)6,2072715,,,,black_plus_sign,,,null,object_07b.png,object_01a.png,,,,,,,,,,,,,,,,,,
null,,black_cross(without_color)6,2073534,,,,green,,,null,object_07b.png,object_01a.png,,,,,,,,,,,,,,,,,,
453,,rt_plussign_withcolor6,2074039,,,,green,,,50,object_07b.png,object_01a.png,,,,,,,,,,,,,,,,,,
null,,rt_thecrossant_black6,2075243,,,,black_plus_sign,,,null,,,1,,,,,,,1,,,,,,,,,,
null,,color_black6,2075352,,,,black_plus_sign,,,null,,,,,,,,,,,,,,,,,,,,
null,,learn_phase(without_color)6,2078870,,,,black_plus_sign,,,null,object_09c.png,object_10b.png,,,,,,,,,,,,,,,,,,
null,,black_cross(without_color)6,2079911,,,,blue,,,null,object_09c.png,object_10b.png,,,,,,,,,,,,,,,,,,
501.9000000022352,,rt_plussign_withcolor6,2080419,,,,blue,,,49,object_09c.png,object_10b.png,,,,,,,,,,,,,,,,,,
null,,rt_thecrossant_black6,2081422,,,,black_plus_sign,,,null,,,1,,,,,,,1,,,,,,,,,,
null,,color_black6,2081533,,,,black_plus_sign,,,null,,,,,,,,,,,,,,,,,,,,
null,,learn_phase(without_color)6,2085046,,,,black_plus_sign,,,null,object_11a.png,object_06c.png,,,,,,,,,,,,,,,,,,
null,,black_cross(without_color)6,2085698,,,,blue,,,null,object_11a.png,object_06c.png,,,,,,,,,,,,,,,,,,
476.8999999985099,,rt_plussign_withcolor6,2086203,,,,blue,,,49,object_11a.png,object_06c.png,,,,,,,,,,,,,,,,,,
null,,rt_thecrossant_black6,2087576,,,,black_plus_sign,,,null,,,1,,,,,,,1,,,,,,,,,,
null,,color_black6,2087684,,,,black_plus_sign,,,null,,,,,,,,,,,,,,,,,,,,
null,,learn_phase(without_color)6,2091195,,,,black_plus_sign,,,null,object_01b.png,object_03b.png,,,,,,,,,,,,,,,,,,
null,,black_cross(without_color)6,2091958,,,,green,,,null,object_01b.png,object_03b.png,,,,,,,,,,,,,,,,,,
null,,rt_plussign_withcolor6,2092471,,,,green,,,null,object_01b.png,object_03b.png,,,,,,,,,,,,,,,,,,
952,,rt_thecrossant_black6,2093733,,,,black_plus_sign,,,50,,,1,,,,,,,1,,,,,,,,,,
null,,color_black6,2093841,,,,black_plus_sign,,,null,,,,,,,,,,,,,,,,,,,,
null,,learn_phase(without_color)6,2097355,,,,black_plus_sign,,,null,object_10c.png,object_09a.png,,,,,,,,,,,,,,,,,,
null,,black_cross(without_color)6,2097784,,,,blue,,,null,object_10c.png,object_09a.png,,,,,,,,,,,,,,,,,,
null,,rt_plussign_withcolor6,2098291,,,,blue,,,null,object_10c.png,object_09a.png,,,,,,,,,,,,,,,,,,
984.6000000014901,,rt_thecrossant_black6,2099888,,,,black_plus_sign,,,49,,,1,,,,,,,1,,,,,,,,,,
null,,color_black6,2099991,,,,black_plus_sign,,,null,,,,,,,,,,,,,,,,,,,,
null,,learn_phase(without_color)6,2103499,,,,black_plus_sign,,,null,object_12c.png,object_15c.png,,,,,,,,,,,,,,,,,,
null,,black_cross(without_color)6,2104451,,,,blue,,,null,object_12c.png,object_15c.png,,,,,,,,,,,,,,,,,,
null,,rt_plussign_withcolor6,2104971,,,,blue,,,null,object_12c.png,object_15c.png,,,,,,,,,,,,,,,,,,
570.6999999992549,,rt_thecrossant_black6,2106043,,,,black_plus_sign,,,49,,,1,,,,,,,1,,,,,,,,,,
null,,color_black6,2106155,,,,black_plus_sign,,,null,,,,,,,,,,,,,,,,,,,,
null,,learn_phase(without_color)6,2109673,,,,black_plus_sign,,,null,object_08b.png,object_12a.png,,,,,,,,,,,,,,,,,,
null,,black_cross(without_color)6,2110106,,,,green,,,null,object_08b.png,object_12a.png,,,,,,,,,,,,,,,,,,
null,,rt_plussign_withcolor6,2110625,,,,green,,,null,object_08b.png,object_12a.png,,,,,,,,,,,,,,,,,,
1189.7000000029802,,rt_thecrossant_black6,2112215,,,,black_plus_sign,,,50,,,1,,,,,,,1,,,,,,,,,,
null,,color_black6,2112322,,,,black_plus_sign,,,null,,,,,,,,,,,,,,,,,,,,
null,,learn_phase(without_color)6,2115842,,,,black_plus_sign,,,null,object_05a.png,object_07c.png,,,,,,,,,,,,,,,,,,
null,,black_cross(without_color)6,2116643,,,,green,,,null,object_05a.png,object_07c.png,,,,,,,,,,,,,,,,,,
416,,rt_plussign_withcolor6,2117147,,,,green,,,50,object_05a.png,object_07c.png,,,,,,,,,,,,,,,,,,
null,,rt_thecrossant_black6,2118374,,,,black_plus_sign,,,null,,,1,,,,,,,1,,,,,,,,,,
null,,color_black6,2118484,,,,black_plus_sign,,,null,,,,,,,,,,,,,,,,,,,,
null,,learn_phase(without_color)6,2122001,,,,black_plus_sign,,,null,object_05b.png,object_03a.png,,,,,,,,,,,,,,,,,,
null,,black_cross(without_color)6,2122796,,,,blue,,,null,object_05b.png,object_03a.png,,,,,,,,,,,,,,,,,,
478.5999999977648,,rt_plussign_withcolor6,2123303,,,,blue,,,49,object_05b.png,object_03a.png,,,,,,,,,,,,,,,,,,
null,,rt_thecrossant_black6,2124549,,,,black_plus_sign,,,null,,,1,,,,,,,1,,,,,,,,,,
null,,color_black6,2124654,,,,black_plus_sign,,,null,,,,,,,,,,,,,,,,,,,,
null,,thebreak,2124763,,,,<p></p>,,,null,,,,,,,,,,,,,,,,,,,,
66985.89999999851,,intro_0,2191753,,,,instruct,,,32,,,,,,,,,,,,,,,,,,,,
1579.5,,directmemory_phase6,2193337,,,,object_10c.png,,,51,,,1,,object_07b.png,object_03c.png,object_09a.png,object_09a.png,,0.9868421052631579,,1,,,,,,,,
1364.6000000014901,,directmemory_phase6,2194708,,,,object_08b.png,,,50,,,1,,object_03b.png,object_12a.png,object_09c.png,object_12a.png,,0.987012987012987,,1,,,,,,,,
2038.6000000014901,,directmemory_phase6,2196754,,,,object_01a.png,,,50,,,1,,object_03a.png,object_07b.png,object_09c.png,object_07b.png,,0.9871794871794872,,1,,,,,,,,
1618.2000000029802,,directmemory_phase6,2198377,,,,object_03b.png,,,50,,,1,,object_12c.png,object_01b.png,object_05a.png,object_01b.png,,0.9873417721518988,,1,,,,,,,,
3075.10000000149,,directmemory_phase6,2201459,,,,object_13a.png,,,49,,,1,,object_04b.png,object_15a.png,object_02b.png,object_04b.png,,0.9875,,1,,,,,,,,
1738.300000000745,,directmemory_phase6,2203203,,,,object_12c.png,,,51,,,1,,object_05b.png,object_13a.png,object_15c.png,object_15c.png,,0.9876543209876543,,1,,,,,,,,
1480.699999999255,,directmemory_phase6,2204689,,,,object_14b.png,,,49,,,1,,object_11b.png,object_14a.png,object_02b.png,object_11b.png,,0.9878048780487805,,1,,,,,,,,
2107.10000000149,,directmemory_phase6,2206801,,,,object_09c.png,,,49,,,1,,object_10b.png,object_01a.png,object_01b.png,object_10b.png,,0.9879518072289156,,1,,,,,,,,
1566.300000000745,,directmemory_phase6,2208375,,,,object_11a.png,,,50,,,1,,object_13a.png,object_06c.png,object_05a.png,object_06c.png,,0.9880952380952381,,1,,,,,,,,
1430.5,,directmemory_phase6,2209812,,,,object_02c.png,,,50,,,1,,object_12c.png,object_15a.png,object_07b.png,object_15a.png,,0.9882352941176471,,1,,,,,,,,
1591.1000000014901,,directmemory_phase6,2211409,,,,object_03c.png,,,51,,,1,,object_07b.png,object_12c.png,object_08a.png,object_08a.png,,0.9883720930232558,,1,,,,,,,,
1520.1000000014901,,directmemory_phase6,2212934,,,,object_05a.png,,,50,,,1,,object_14a.png,object_07c.png,object_01a.png,object_07c.png,,0.9885057471264368,,1,,,,,,,,
1865.2999999970198,,directmemory_phase6,2214804,,,,object_02b.png,,,49,,,1,,object_13b.png,object_14a.png,object_11a.png,object_13b.png,,0.9886363636363636,,1,,,,,,,,
2197.699999999255,,directmemory_phase6,2217008,,,,object_01c.png,,,49,,,1,,object_14a.png,object_13b.png,object_13a.png,object_14a.png,,0.9887640449438202,,1,,,,,,,,
1525.800000000745,,directmemory_phase6,2218541,,,,object_05b.png,,,49,,,1,,object_03a.png,object_01c.png,object_06c.png,object_03a.png,,0.9888888888888889,,1,,,,,,,,
null,,thebreak,2218651,,,,<p></p>,,,null,,,,,,,,,,,,,,,,,,,,
59280,,intro_0,2277935,,,,instruct,,,32,,,,,,,,,,,,,,,,,,,,
null,,learn_phase(without_color)7,2281449,,,,black_plus_sign,,,null,object_05b.png,object_03a.png,,,,,,,,,,,,,,,,,,
null,,black_cross(without_color)7,2281940,,,,green,,,null,object_05b.png,object_03a.png,,,,,,,,,,,,,,,,,,
null,,rt_plussign_withcolor7,2282457,,,,green,,,null,object_05b.png,object_03a.png,,,,,,,,,,,,,,,,,,
887,,rt_thecrossant_black7,2283991,,,,black_plus_sign,,,50,,,1,,,,,,,1,,,,,,,,,,
null,,color_black7,2284101,,,,black_plus_sign,,,null,,,,,,,,,,,,,,,,,,,,
null,,learn_phase(without_color)7,2287614,,,,black_plus_sign,,,null,object_09c.png,object_10b.png,,,,,,,,,,,,,,,,,,
null,,black_cross(without_color)7,2288360,,,,blue,,,null,object_09c.png,object_10b.png,,,,,,,,,,,,,,,,,,
447.19999999925494,,rt_plussign_withcolor7,2288870,,,,blue,,,49,object_09c.png,object_10b.png,,,,,,,,,,,,,,,,,,
null,,rt_thecrossant_black7,2290152,,,,black_plus_sign,,,null,,,1,,,,,,,1,,,,,,,,,,
null,,color_black7,2290257,,,,black_plus_sign,,,null,,,,,,,,,,,,,,,,,,,,
null,,learn_phase(without_color)7,2293777,,,,black_plus_sign,,,null,object_07c.png,object_05a.png,,,,,,,,,,,,,,,,,,
null,,black_cross(without_color)7,2294531,,,,blue,,,null,object_07c.png,object_05a.png,,,,,,,,,,,,,,,,,,
null,,rt_plussign_withcolor7,2295048,,,,blue,,,null,object_07c.png,object_05a.png,,,,,,,,,,,,,,,,,,
982.8000000007451,,rt_thecrossant_black7,2296329,,,,black_plus_sign,,,49,,,1,,,,,,,1,,,,,,,,,,
null,,color_black7,2296435,,,,black_plus_sign,,,null,,,,,,,,,,,,,,,,,,,,
null,,learn_phase(without_color)7,2299950,,,,black_plus_sign,,,null,object_01c.png,object_14a.png,,,,,,,,,,,,,,,,,,
null,,black_cross(without_color)7,2300738,,,,blue,,,null,object_01c.png,object_14a.png,,,,,,,,,,,,,,,,,,
478,,rt_plussign_withcolor7,2301244,,,,blue,,,49,object_01c.png,object_14a.png,,,,,,,,,,,,,,,,,,
null,,rt_thecrossant_black7,2302472,,,,black_plus_sign,,,null,,,1,,,,,,,1,,,,,,,,,,
null,,color_black7,2302582,,,,black_plus_sign,,,null,,,,,,,,,,,,,,,,,,,,
null,,learn_phase(without_color)7,2306098,,,,black_plus_sign,,,null,object_08a.png,object_03c.png,,,,,,,,,,,,,,,,,,
null,,black_cross(without_color)7,2306794,,,,green,,,null,object_08a.png,object_03c.png,,,,,,,,,,,,,,,,,,
459.4000000022352,,rt_plussign_withcolor7,2307299,,,,green,,,50,object_08a.png,object_03c.png,,,,,,,,,,,,,,,,,,
null,,rt_thecrossant_black7,2308637,,,,black_plus_sign,,,null,,,1,,,,,,,1,,,,,,,,,,
null,,color_black7,2308750,,,,black_plus_sign,,,null,,,,,,,,,,,,,,,,,,,,
null,,learn_phase(without_color)7,2312258,,,,black_plus_sign,,,null,object_11a.png,object_06c.png,,,,,,,,,,,,,,,,,,
null,,black_cross(without_color)7,2312752,,,,green,,,null,object_11a.png,object_06c.png,,,,,,,,,,,,,,,,,,
null,,rt_plussign_withcolor7,2313266,,,,green,,,null,object_11a.png,object_06c.png,,,,,,,,,,,,,,,,,,
882.5999999977648,,rt_thecrossant_black7,2314796,,,,black_plus_sign,,,50,,,1,,,,,,,1,,,,,,,,,,
null,,color_black7,2314902,,,,black_plus_sign,,,null,,,,,,,,,,,,,,,,,,,,
null,,learn_phase(without_color)7,2318414,,,,black_plus_sign,,,null,object_09a.png,object_10c.png,,,,,,,,,,,,,,,,,,
null,,black_cross(without_color)7,2319006,,,,blue,,,null,object_09a.png,object_10c.png,,,,,,,,,,,,,,,,,,
490.79999999701977,,rt_plussign_withcolor7,2319510,,,,blue,,,49,object_09a.png,object_10c.png,,,,,,,,,,,,,,,,,,
null,,rt_thecrossant_black7,2320937,,,,black_plus_sign,,,null,,,1,,,,,,,1,,,,,,,,,,
null,,color_black7,2321050,,,,black_plus_sign,,,null,,,,,,,,,,,,,,,,,,,,
null,,learn_phase(without_color)7,2324570,,,,black_plus_sign,,,null,object_02b.png,object_13b.png,,,,,,,,,,,,,,,,,,
null,,black_cross(without_color)7,2325296,,,,green,,,null,object_02b.png,object_13b.png,,,,,,,,,,,,,,,,,,
481.30000000074506,,rt_plussign_withcolor7,2325806,,,,green,,,50,object_02b.png,object_13b.png,,,,,,,,,,,,,,,,,,
null,,rt_thecrossant_black7,2327103,,,,black_plus_sign,,,null,,,1,,,,,,,1,,,,,,,,,,
null,,color_black7,2327212,,,,black_plus_sign,,,null,,,,,,,,,,,,,,,,,,,,
null,,learn_phase(without_color)7,2330731,,,,black_plus_sign,,,null,object_07b.png,object_01a.png,,,,,,,,,,,,,,,,,,
null,,black_cross(without_color)7,2331490,,,,blue,,,null,object_07b.png,object_01a.png,,,,,,,,,,,,,,,,,,
null,,rt_plussign_withcolor7,2332002,,,,blue,,,null,object_07b.png,object_01a.png,,,,,,,,,,,,,,,,,,
856.9000000022352,,rt_thecrossant_black7,2333276,,,,black_plus_sign,,,49,,,1,,,,,,,1,,,,,,,,,,
null,,color_black7,2333384,,,,black_plus_sign,,,null,,,,,,,,,,,,,,,,,,,,
null,,learn_phase(without_color)7,2336900,,,,black_plus_sign,,,null,object_13a.png,object_04b.png,,,,,,,,,,,,,,,,,,
null,,black_cross(without_color)7,2337650,,,,green,,,null,object_13a.png,object_04b.png,,,,,,,,,,,,,,,,,,
491.30000000074506,,rt_plussign_withcolor7,2338157,,,,green,,,50,object_13a.png,object_04b.png,,,,,,,,,,,,,,,,,,
null,,rt_thecrossant_black7,2339435,,,,black_plus_sign,,,null,,,1,,,,,,,1,,,,,,,,,,
null,,color_black7,2339541,,,,black_plus_sign,,,null,,,,,,,,,,,,,,,,,,,,
null,,learn_phase(without_color)7,2343062,,,,black_plus_sign,,,null,object_12a.png,object_08b.png,,,,,,,,,,,,,,,,,,
null,,black_cross(without_color)7,2343940,,,,green,,,null,object_12a.png,object_08b.png,,,,,,,,,,,,,,,,,,
null,,rt_plussign_withcolor7,2344451,,,,green,,,null,object_12a.png,object_08b.png,,,,,,,,,,,,,,,,,,
843.6000000014901,,rt_thecrossant_black7,2345603,,,,black_plus_sign,,,50,,,1,,,,,,,1,,,,,,,,,,
null,,color_black7,2345708,,,,black_plus_sign,,,null,,,,,,,,,,,,,,,,,,,,
null,,learn_phase(without_color)7,2349215,,,,black_plus_sign,,,null,object_12c.png,object_15c.png,,,,,,,,,,,,,,,,,,
null,,black_cross(without_color)7,2350166,,,,green,,,null,object_12c.png,object_15c.png,,,,,,,,,,,,,,,,,,
null,,rt_plussign_withcolor7,2350678,,,,green,,,null,object_12c.png,object_15c.png,,,,,,,,,,,,,,,,,,
1091.1000000014901,,rt_thecrossant_black7,2351756,,,,black_plus_sign,,,50,,,1,,,,,,,1,,,,,,,,,,
null,,color_black7,2351870,,,,black_plus_sign,,,null,,,,,,,,,,,,,,,,,,,,
null,,learn_phase(without_color)7,2355384,,,,black_plus_sign,,,null,object_15a.png,object_02c.png,,,,,,,,,,,,,,,,,,
null,,black_cross(without_color)7,2356183,,,,green,,,null,object_15a.png,object_02c.png,,,,,,,,,,,,,,,,,,
null,,rt_plussign_withcolor7,2356700,,,,green,,,null,object_15a.png,object_02c.png,,,,,,,,,,,,,,,,,,
1122.2000000029802,,rt_thecrossant_black7,2357958,,,,black_plus_sign,,,50,,,1,,,,,,,1,,,,,,,,,,
null,,color_black7,2358068,,,,black_plus_sign,,,null,,,,,,,,,,,,,,,,,,,,
null,,learn_phase(without_color)7,2361582,,,,black_plus_sign,,,null,object_14b.png,object_11b.png,,,,,,,,,,,,,,,,,,
null,,black_cross(without_color)7,2362606,,,,green,,,null,object_14b.png,object_11b.png,,,,,,,,,,,,,,,,,,
null,,rt_plussign_withcolor7,2363126,,,,green,,,null,object_14b.png,object_11b.png,,,,,,,,,,,,,,,,,,
965.7999999970198,,rt_thecrossant_black7,2364123,,,,black_plus_sign,,,50,,,1,,,,,,,1,,,,,,,,,,
null,,color_black7,2364239,,,,black_plus_sign,,,null,,,,,,,,,,,,,,,,,,,,
null,,learn_phase(without_color)7,2367755,,,,black_plus_sign,,,null,object_03b.png,object_01b.png,,,,,,,,,,,,,,,,,,
null,,black_cross(without_color)7,2368684,,,,green,,,null,object_03b.png,object_01b.png,,,,,,,,,,,,,,,,,,
null,,rt_plussign_withcolor7,2369196,,,,green,,,null,object_03b.png,object_01b.png,,,,,,,,,,,,,,,,,,
1232.5,,rt_thecrossant_black7,2370295,,,,black_plus_sign,,,50,,,1,,,,,,,1,,,,,,,,,,
null,,color_black7,2370411,,,,black_plus_sign,,,null,,,,,,,,,,,,,,,,,,,,
null,,thebreak,2370518,,,,<p></p>,,,null,,,,,,,,,,,,,,,,,,,,
9916,,intro_0,2380437,,,,instruct,,,32,,,,,,,,,,,,,,,,,,,,
1820.5,,directmemory_phase7,2382261,,,,object_10c.png,,,49,,,1,,object_09a.png,object_08a.png,object_02b.png,object_09a.png,,0.989010989010989,,1,,,,,,,,
1713.4000000022352,,directmemory_phase7,2383979,,,,object_08b.png,,,50,,,1,,object_02c.png,object_12a.png,object_15a.png,object_12a.png,,0.9891304347826086,,1,,,,,,,,
1331,,directmemory_phase7,2385316,,,,object_14b.png,,,50,,,1,,object_01a.png,object_11b.png,object_09c.png,object_11b.png,,0.989247311827957,,1,,,,,,,,
1434.1000000014901,,directmemory_phase7,2386756,,,,object_01c.png,,,49,,,1,,object_14a.png,object_13b.png,object_14b.png,object_14a.png,,0.9893617021276596,,1,,,,,,,,
1904.6000000014901,,directmemory_phase7,2388665,,,,object_02b.png,,,50,,,1,,object_13a.png,object_13b.png,object_15a.png,object_13b.png,,0.9894736842105263,,1,,,,,,,,
1656.5,,directmemory_phase7,2390330,,,,object_04b.png,,,51,,,1,,object_03a.png,object_09c.png,object_13a.png,object_13a.png,,0.9895833333333334,,1,,,,,,,,
2258.2999999970198,,directmemory_phase7,2392593,,,,object_01b.png,,,51,,,1,,object_12c.png,object_05a.png,object_03b.png,object_03b.png,,0.9896907216494846,,1,,,,,,,,
1656.8999999985099,,directmemory_phase7,2394258,,,,object_03c.png,,,49,,,1,,object_08a.png,object_12a.png,object_10b.png,object_08a.png,,0.9897959183673469,,1,,,,,,,,
1605,,directmemory_phase7,2395868,,,,object_07b.png,,,49,,,1,,object_01a.png,object_10b.png,object_01b.png,object_01a.png,,0.98989898989899,,1,,,,,,,,
1378.699999999255,,directmemory_phase7,2397252,,,,object_11a.png,,,50,,,1,,object_08b.png,object_06c.png,object_07b.png,object_06c.png,,0.99,,1,,,,,,,,
2218.39999999851,,directmemory_phase7,2399476,,,,object_09c.png,,,49,,,1,,object_10b.png,object_01c.png,object_15c.png,object_10b.png,,0.9900990099009901,,1,,,,,,,,
1344,,directmemory_phase7,2400826,,,,object_02c.png,,,50,,,1,,object_14b.png,object_15a.png,object_07b.png,object_15a.png,,0.9901960784313726,,1,,,,,,,,
1839.4000000022352,,directmemory_phase7,2402672,,,,object_05a.png,,,51,,,1,,object_01c.png,object_09c.png,object_07c.png,object_07c.png,,0.9902912621359223,,1,,,,,,,,
1666.1000000014901,,directmemory_phase7,2404343,,,,object_03a.png,,,49,,,1,,object_05b.png,object_11b.png,object_08b.png,object_05b.png,,0.9903846153846154,,1,,,,,,,,
1728.699999999255,,directmemory_phase7,2406080,,,,object_15c.png,,,51,,,1,,object_01a.png,object_05b.png,object_12c.png,object_12c.png,,0.9904761904761905,,1,,,,,,,,
null,,thebreak,2406201,,,,<p></p>,,,null,,,,,,,,,,,,,,,,,,,,
142369.8999999985,,intro_0,2548575,,,,instruct,,,32,,,,,,,,,,,,,,,,,,,,
null,,learn_phase(without_color)8,2552095,,,,black_plus_sign,,,null,object_03b.png,object_01b.png,,,,,,,,,,,,,,,,,,
null,,black_cross(without_color)8,2553110,,,,green,,,null,object_03b.png,object_01b.png,,,,,,,,,,,,,,,,,,
null,,rt_plussign_withcolor8,2553615,,,,green,,,null,object_03b.png,object_01b.png,,,,,,,,,,,,,,,,,,
1458.300000000745,,rt_thecrossant_black8,2554634,,,,black_plus_sign,,,50,,,1,,,,,,,1,,,,,,,,,,
null,,color_black8,2554752,,,,black_plus_sign,,,null,,,,,,,,,,,,,,,,,,,,
null,,learn_phase(without_color)8,2558258,,,,black_plus_sign,,,null,object_03a.png,object_05b.png,,,,,,,,,,,,,,,,,,
null,,black_cross(without_color)8,2559009,,,,green,,,null,object_03a.png,object_05b.png,,,,,,,,,,,,,,,,,,
null,,rt_plussign_withcolor8,2559530,,,,green,,,null,object_03a.png,object_05b.png,,,,,,,,,,,,,,,,,,
1196.5,,rt_thecrossant_black8,2560802,,,,black_plus_sign,,,50,,,1,,,,,,,1,,,,,,,,,,
null,,color_black8,2560929,,,,black_plus_sign,,,null,,,,,,,,,,,,,,,,,,,,
null,,learn_phase(without_color)8,2564446,,,,black_plus_sign,,,null,object_15a.png,object_02c.png,,,,,,,,,,,,,,,,,,
null,,black_cross(without_color)8,2565254,,,,blue,,,null,object_15a.png,object_02c.png,,,,,,,,,,,,,,,,,,
504.69999999925494,,rt_plussign_withcolor8,2565765,,,,blue,,,49,object_15a.png,object_02c.png,,,,,,,,,,,,,,,,,,
null,,rt_thecrossant_black8,2566980,,,,black_plus_sign,,,null,,,1,,,,,,,1,,,,,,,,,,
null,,color_black8,2567087,,,,black_plus_sign,,,null,,,,,,,,,,,,,,,,,,,,
null,,learn_phase(without_color)8,2570607,,,,black_plus_sign,,,null,object_08b.png,object_12a.png,,,,,,,,,,,,,,,,,,
null,,black_cross(without_color)8,2571142,,,,green,,,null,object_08b.png,object_12a.png,,,,,,,,,,,,,,,,,,
null,,rt_plussign_withcolor8,2571662,,,,green,,,null,object_08b.png,object_12a.png,,,,,,,,,,,,,,,,,,
929.3999999985099,,rt_thecrossant_black8,2573173,,,,black_plus_sign,,,50,,,1,,,,,,,1,,,,,,,,,,
null,,color_black8,2573279,,,,black_plus_sign,,,null,,,,,,,,,,,,,,,,,,,,
null,,learn_phase(without_color)8,2576801,,,,black_plus_sign,,,null,object_14a.png,object_01c.png,,,,,,,,,,,,,,,,,,
null,,black_cross(without_color)8,2577285,,,,green,,,null,object_14a.png,object_01c.png,,,,,,,,,,,,,,,,,,
495.0999999977648,,rt_plussign_withcolor8,2577792,,,,green,,,50,object_14a.png,object_01c.png,,,,,,,,,,,,,,,,,,
null,,rt_thecrossant_black8,2579339,,,,black_plus_sign,,,null,,,1,,,,,,,1,,,,,,,,,,
null,,color_black8,2579451,,,,black_plus_sign,,,null,,,,,,,,,,,,,,,,,,,,
null,,learn_phase(without_color)8,2582959,,,,black_plus_sign,,,null,object_03c.png,object_08a.png,,,,,,,,,,,,,,,,,,
null,,black_cross(without_color)8,2584016,,,,blue,,,null,object_03c.png,object_08a.png,,,,,,,,,,,,,,,,,,
431.69999999925494,,rt_plussign_withcolor8,2584526,,,,blue,,,49,object_03c.png,object_08a.png,,,,,,,,,,,,,,,,,,
null,,rt_thecrossant_black8,2585482,,,,black_plus_sign,,,null,,,1,,,,,,,1,,,,,,,,,,
null,,color_black8,2585592,,,,black_plus_sign,,,null,,,,,,,,,,,,,,,,,,,,
null,,learn_phase(without_color)8,2589107,,,,black_plus_sign,,,null,object_07b.png,object_01a.png,,,,,,,,,,,,,,,,,,
null,,black_cross(without_color)8,2589948,,,,green,,,null,object_07b.png,object_01a.png,,,,,,,,,,,,,,,,,,
null,,rt_plussign_withcolor8,2590458,,,,green,,,null,object_07b.png,object_01a.png,,,,,,,,,,,,,,,,,,
1225.300000000745,,rt_thecrossant_black8,2591643,,,,black_plus_sign,,,50,,,1,,,,,,,1,,,,,,,,,,
null,,color_black8,2591756,,,,black_plus_sign,,,null,,,,,,,,,,,,,,,,,,,,
null,,learn_phase(without_color)8,2595271,,,,black_plus_sign,,,null,object_05a.png,object_07c.png,,,,,,,,,,,,,,,,,,
null,,black_cross(without_color)8,2595771,,,,green,,,null,object_05a.png,object_07c.png,,,,,,,,,,,,,,,,,,
null,,rt_plussign_withcolor8,2596277,,,,green,,,null,object_05a.png,object_07c.png,,,,,,,,,,,,,,,,,,
965.5,,rt_thecrossant_black8,2597813,,,,black_plus_sign,,,50,,,1,,,,,,,1,,,,,,,,,,
null,,color_black8,2597917,,,,black_plus_sign,,,null,,,,,,,,,,,,,,,,,,,,
null,,learn_phase(without_color)8,2601432,,,,black_plus_sign,,,null,object_11a.png,object_06c.png,,,,,,,,,,,,,,,,,,
null,,black_cross(without_color)8,2602121,,,,green,,,null,object_11a.png,object_06c.png,,,,,,,,,,,,,,,,,,
442.19999999925494,,rt_plussign_withcolor8,2602627,,,,green,,,50,object_11a.png,object_06c.png,,,,,,,,,,,,,,,,,,
null,,rt_thecrossant_black8,2603966,,,,black_plus_sign,,,null,,,1,,,,,,,1,,,,,,,,,,
null,,color_black8,2604074,,,,black_plus_sign,,,null,,,,,,,,,,,,,,,,,,,,
null,,learn_phase(without_color)8,2607597,,,,black_plus_sign,,,null,object_09c.png,object_10b.png,,,,,,,,,,,,,,,,,,
null,,black_cross(without_color)8,2608485,,,,blue,,,null,object_09c.png,object_10b.png,,,,,,,,,,,,,,,,,,
null,,rt_plussign_withcolor8,2608994,,,,blue,,,null,object_09c.png,object_10b.png,,,,,,,,,,,,,,,,,,
811.6000000014901,,rt_thecrossant_black8,2610144,,,,black_plus_sign,,,49,,,1,,,,,,,1,,,,,,,,,,
null,,color_black8,2610250,,,,black_plus_sign,,,null,,,,,,,,,,,,,,,,,,,,
null,,learn_phase(without_color)8,2613768,,,,black_plus_sign,,,null,object_02b.png,object_13b.png,,,,,,,,,,,,,,,,,,
null,,black_cross(without_color)8,2614696,,,,blue,,,null,object_02b.png,object_13b.png,,,,,,,,,,,,,,,,,,
null,,rt_plussign_withcolor8,2615205,,,,blue,,,null,object_02b.png,object_13b.png,,,,,,,,,,,,,,,,,,
1080.1000000014901,,rt_thecrossant_black8,2616313,,,,black_plus_sign,,,49,,,1,,,,,,,1,,,,,,,,,,
null,,color_black8,2616421,,,,black_plus_sign,,,null,,,,,,,,,,,,,,,,,,,,
null,,learn_phase(without_color)8,2619937,,,,black_plus_sign,,,null,object_09a.png,object_10c.png,,,,,,,,,,,,,,,,,,
null,,black_cross(without_color)8,2620831,,,,blue,,,null,object_09a.png,object_10c.png,,,,,,,,,,,,,,,,,,
null,,rt_plussign_withcolor8,2621345,,,,blue,,,null,object_09a.png,object_10c.png,,,,,,,,,,,,,,,,,,
1084.9000000022352,,rt_thecrossant_black8,2622477,,,,black_plus_sign,,,49,,,1,,,,,,,1,,,,,,,,,,
null,,color_black8,2622583,,,,black_plus_sign,,,null,,,,,,,,,,,,,,,,,,,,
null,,learn_phase(without_color)8,2626102,,,,black_plus_sign,,,null,object_15c.png,object_12c.png,,,,,,,,,,,,,,,,,,
null,,black_cross(without_color)8,2626886,,,,green,,,null,object_15c.png,object_12c.png,,,,,,,,,,,,,,,,,,
null,,rt_plussign_withcolor8,2627398,,,,green,,,null,object_15c.png,object_12c.png,,,,,,,,,,,,,,,,,,
1083.5,,rt_thecrossant_black8,2628637,,,,black_plus_sign,,,50,,,1,,,,,,,1,,,,,,,,,,
null,,color_black8,2628746,,,,black_plus_sign,,,null,,,,,,,,,,,,,,,,,,,,
null,,learn_phase(without_color)8,2632260,,,,black_plus_sign,,,null,object_13a.png,object_04b.png,,,,,,,,,,,,,,,,,,
null,,black_cross(without_color)8,2633091,,,,blue,,,null,object_13a.png,object_04b.png,,,,,,,,,,,,,,,,,,
null,,rt_plussign_withcolor8,2633594,,,,blue,,,null,object_13a.png,object_04b.png,,,,,,,,,,,,,,,,,,
1009.8999999985099,,rt_thecrossant_black8,2634795,,,,black_plus_sign,,,49,,,1,,,,,,,1,,,,,,,,,,
null,,color_black8,2634904,,,,black_plus_sign,,,null,,,,,,,,,,,,,,,,,,,,
null,,learn_phase(without_color)8,2638417,,,,black_plus_sign,,,null,object_11b.png,object_14b.png,,,,,,,,,,,,,,,,,,
null,,black_cross(without_color)8,2639205,,,,green,,,null,object_11b.png,object_14b.png,,,,,,,,,,,,,,,,,,
null,,rt_plussign_withcolor8,2639727,,,,green,,,null,object_11b.png,object_14b.png,,,,,,,,,,,,,,,,,,
1078.3999999985099,,rt_thecrossant_black8,2640958,,,,black_plus_sign,,,50,,,1,,,,,,,1,,,,,,,,,,
null,,color_black8,2641069,,,,black_plus_sign,,,null,,,,,,,,,,,,,,,,,,,,
null,,thebreak,2641179,,,,<p></p>,,,null,,,,,,,,,,,,,,,,,,,,
2919.60000000149,,intro_0,2644102,,,,instruct,,,32,,,,,,,,,,,,,,,,,,,,
2952.300000000745,,directmemory_phase8,2647059,,,,object_01b.png,,,51,,,1,,object_13a.png,object_05a.png,object_03b.png,object_03b.png,,0.9905660377358491,,1,,,,,,,,
2468.10000000149,,directmemory_phase8,2649533,,,,object_05a.png,,,49,,,1,,object_07c.png,object_08b.png,object_09c.png,object_07c.png,,0.9906542056074766,,1,,,,,,,,
1845,,directmemory_phase8,2651384,,,,object_11b.png,,,49,,,1,,object_14b.png,object_01c.png,object_04b.png,object_14b.png,,0.9907407407407407,,1,,,,,,,,
1469.4000000022352,,directmemory_phase8,2652858,,,,object_08b.png,,,50,,,1,,object_02c.png,object_12a.png,object_11b.png,object_12a.png,,0.9908256880733946,,1,,,,,,,,
1608.199999999255,,directmemory_phase8,2654473,,,,object_13a.png,,,51,,,1,,object_06c.png,object_08b.png,object_04b.png,object_04b.png,,0.990909090909091,,1,,,,,,,,
1538.800000000745,,directmemory_phase8,2656018,,,,object_07b.png,,,50,,,1,,object_14a.png,object_01a.png,object_08b.png,object_01a.png,,0.990990990990991,,1,,,,,,,,
1421.0999999977648,,directmemory_phase8,2657445,,,,object_12c.png,,,51,,,1,,object_13b.png,object_01c.png,object_15c.png,object_15c.png,,0.9910714285714286,,1,,,,,,,,
3209.60000000149,,directmemory_phase8,2660662,,,,object_03c.png,,,51,,,1,,object_05b.png,object_07c.png,object_08a.png,object_08a.png,,0.9911504424778761,,1,,,,,,,,
1706.7000000029802,,directmemory_phase8,2662375,,,,object_06c.png,,,51,,,1,,object_07c.png,object_05a.png,object_11a.png,object_11a.png,,0.9912280701754386,,1,,,,,,,,
1715.300000000745,,directmemory_phase8,2664098,,,,object_09c.png,,,50,,,1,,object_12a.png,object_10b.png,object_13a.png,object_10b.png,,0.991304347826087,,1,,,,,,,,
1589.8999999985099,,directmemory_phase8,2665694,,,,object_13b.png,,,49,,,1,,object_02b.png,object_11a.png,object_06c.png,object_02b.png,,0.9913793103448276,,1,,,,,,,,
1420,,directmemory_phase8,2667120,,,,object_03a.png,,,49,,,1,,object_05b.png,object_07b.png,object_07c.png,object_05b.png,,0.9914529914529915,,1,,,,,,,,
1442.5,,directmemory_phase8,2668569,,,,object_15a.png,,,49,,,1,,object_02c.png,object_01a.png,object_14a.png,object_02c.png,,0.9915254237288136,,1,,,,,,,,
1629,,directmemory_phase8,2670203,,,,object_14a.png,,,49,,,1,,object_01c.png,object_14b.png,object_01b.png,object_01c.png,,0.9915966386554622,,1,,,,,,,,
1369.5,,directmemory_phase8,2671579,,,,object_09a.png,,,49,,,1,,object_10c.png,object_08b.png,object_08a.png,object_10c.png,,0.9916666666666667,,1,,,,,,,,
null,,thebreak,2671693,,,,<p></p>,,,null,,,,,,,,,,,,,,,,,,,,
25653.5,,intro_0,2697351,,,,instruct,,,32,,,,,,,,,,,,,,,,,,,,
26061,,intro_1,2723415,,,,instruct,,,32,,,,,,,,,,,,,,,,,,,,
12345.20000000298,,intro_2,2735762,,,,instruct,,,32,,,,,,,,,,,,,,,,,,,,
,,intro_3,3101972,,,,instruct,,,,,,,,,,,,,,,,,,,,,,,
10747.89999999851,,intro_4,3112728,,,,instruct,,,32,,,,,,,,,,,,,,,,,,,,
null,,thebreak,3112838,,,,<p></p>,,,null,,,,,,,,,,,,,,,,,,,,
2301.099999997765,,intro_0,3115143,,,,instruct,,,32,,,,,,,,,,,,,,,,,,,,
1325.8999999985099,,intro_1,3116473,,,,instruct,,,32,,,,,,,,,,,,,,,,,,,,
1928.300000000745,,intro_2,3118404,,,,instruct,,,32,,,,,,,,,,,,,,,,,,,,
,,intro_3,3136124,,,,instruct,,,,,,,,,,,,,,,,,,,,,,,
1900,,intro_4,3138028,,,,instruct,,,32,,,,,,,,,,,,,,,,,,,,
null,,thebreak,3138134,,,,<p></p>,,,null,,,,,,,,,,,,,,,,,,,,
782.6999999992549,,intro_0,3138920,,,,instruct,,,32,,,,,,,,,,,,,,,,,,,,
2421.300000000745,,intro_1,3141344,,,,instruct,,,32,,,,,,,,,,,,,,,,,,,,
768,,intro_2,3142115,,,,instruct,,,32,,,,,,,,,,,,,,,,,,,,
,,intro_3,3153515,,,,instruct,,,,,,,,,,,,,,,,,,,,,,,
6611.60000000149,,intro_4,3160130,,,,instruct,,,32,,,,,,,,,,,,,,,,,,,,
3488,,inference_phase,3163621,,,,object_09b.png,,,50,object_14b.png,object_11b.png,1,,,,,object_05a.png,,1,,,object_05a.png,,,,,,,
3731,,inference_phase,3167362,,,,object_15a.png,,,50,object_12b.png,object_03c.png,1,,,,,object_06a.png,,1,,,object_06a.png,,,,,,,
3258.89999999851,,inference_phase,3170625,,,,object_07b.png,,,49,object_12b.png,object_13c.png,1,,,,,object_12b.png,,1,,,object_10b.png,,,,,,,
4098.199999999255,,inference_phase,3174730,,,,object_04a.png,,,51,object_01a.png,object_14a.png,1,,,,,object_14a.png,,1,,,object_11b.png,,,,,,,
4660.5,,inference_phase,3179396,,,,object_15c.png,,,51,object_14c.png,object_11c.png,1,,,,,object_11c.png,,1,,,object_03b.png,,,,,,,
4943,,inference_phase,3184346,,,,object_15b.png,,,51,object_01c.png,object_11b.png,1,,,,,object_11b.png,,1,,,object_15a.png,,,,,,,
3474.400000002235,,inference_phase,3187825,,,,object_02a.png,,,50,object_03a.png,object_07b.png,1,,,,,object_09c.png,,1,,,object_09c.png,,,,,,,
2478.10000000149,,inference_phase,3190309,,,,object_06c.png,,,49,object_08c.png,object_04c.png,1,,,,,object_08c.png,,1,,,object_10b.png,,,,,,,
2435.099999997765,,inference_phase,3192749,,,,object_07a.png,,,51,object_03b.png,object_09a.png,1,,,,,object_09a.png,,1,,,object_06c.png,,,,,,,
2607.10000000149,,inference_phase,3195363,,,,object_06b.png,,,50,object_01a.png,object_11b.png,1,,,,,object_05b.png,,1,,,object_05b.png,,,,,,,
2470.39999999851,,inference_phase,3197838,,,,object_10a.png,,,49,object_12a.png,object_04b.png,1,,,,,object_12a.png,,1,,,object_11a.png,,,,,,,
4898.5,,inference_phase,3202741,,,,object_13c.png,,,51,object_01a.png,object_15a.png,0,,,,,object_01b.png,,0.9166666666666666,,,object_01b.png,,,,,,,
3850.7000000029802,,inference_phase,3206599,,,,object_04c.png,,,50,object_08b.png,object_15c.png,1,,,,,object_13b.png,,0.9230769230769231,,,object_13b.png,,,,,,,
4586.199999999255,,inference_phase,3211191,,,,object_14c.png,,,51,object_12c.png,object_08a.png,1,,,,,object_08a.png,,0.9285714285714286,,,object_05b.png,,,,,,,
5890.599999997765,,inference_phase,3217087,,,,object_04b.png,,,49,object_05c.png,object_10a.png,1,,,,,object_05c.png,,0.9333333333333333,,,object_03b.png,,,,,,,
,,survey,3347345,,,,survey-questions,,,,,,,,,,,,,,,,,none,high,no,my sense,yes, i picture it up my head,not really,not else. good study
