rt,responses,trial_type,time_elapsed,identifier_a,identifier_b,identifier_c,stimulus,button_pressed,response,key_press,failed_practice,stimulus_left,stimulus_right,accuracy,practice_cumulative_accuracy,stimulus_down_left,stimulus_down_mid,stimulus_down_right,stimulus_correct,prac_weighted_accuracy,cumulative_accuracy,weighted_accuracy
19093,{worker_id:67dacc346f024afa0a1ad5cf},id_enter,19100,object_01c.png; object_10b.png; object_03a.png; object_12b.png; object_02c.png; object_02a.png; object_14a.png; object_14b.png; object_09c.png; object_02b.png; object_11c.png; object_03c.png; object_04c.png; object_06a.png; object_08a.png,object_01b.png; object_05c.png; object_13c.png; object_14c.png; object_08b.png; object_13b.png; object_11b.png; object_15c.png; object_13a.png; object_03b.png; object_04a.png; object_10a.png; object_15b.png; object_04b.png; object_07c.png,object_08c.png; object_12c.png; object_11a.png; object_05b.png; object_15a.png; object_07b.png; object_09a.png; object_12a.png; object_06c.png; object_09b.png; object_05a.png; object_06b.png; object_07a.png; object_01a.png; object_10c.png,,,,,,,,,,,,,,,,
29350.70000000298,,make_fullscreen,48479,,,,fullscreen,0,,,,,,,,,,,,,,
15457.29999999702,,instruct_1,63947,,,,instruct,0,Next,,,,,,,,,,,,,
18128.29999999702,,instruct_2,82083,,,,instruct,1,Next,,,,,,,,,,,,,
8149.89999999851,,instruct_3,90239,,,,instruct,1,Next,,,,,,,,,,,,,
29614.69999999553,,instruct_4,119864,,,,instruct,1,Next,,,,,,,,,,,,,
17570.70000000298,,instruct_5,137442,,,,instruct,1,Next,,,,,,,,,,,,,
4843,,instruct_6,142293,,,,instruct,1,Next,,,,,,,,,,,,,
47339.39999999851,,instruct_7,189640,,,,instruct,1,Next,,,,,,,,,,,,,
null,,prac_atten_color_black,190557,,,,black_plus_sign,,,null,,,,,,,,,,,,
null,,prac_atten_color,191068,,,,<p style='position:absolute;top: 50%;right: 50%;transform: translate(50%, -50%);font-size: 125px;color: blue;'>+</p>,,,null,,,,,,,,,,,,
1278.1999999955297,,prac_atten_color_black,193075,,,,black_plus_sign,,,50,,,,,,,,,,,,
20325.89999999851,,attentioncheck_help,213416,,,,instruct,,,32,,,,,,,,,,,,
null,,prac_atten_color_black,214328,,,,black_plus_sign,,,null,,,,,,,,,,,,
null,,prac_atten_color,215376,,,,<p style='position:absolute;top: 50%;right: 50%;transform: translate(50%, -50%);font-size: 125px;color: green;'>+</p>,,,null,,,,,,,,,,,,
null,,prac_atten_color_black,217383,,,,black_plus_sign,,,null,,,,,,,,,,,,
5561.10000000149,,attentioncheck_help,222955,,,,instruct,,,32,,,,,,,,,,,,
null,,prac_atten_color_black,223324,,,,black_plus_sign,,,null,,,,,,,,,,,,
null,,prac_atten_color,224033,,,,<p style='position:absolute;top: 50%;right: 50%;transform: translate(50%, -50%);font-size: 125px;color: green;'>+</p>,,,null,,,,,,,,,,,,
null,,prac_atten_color_black,226040,,,,black_plus_sign,,,null,,,,,,,,,,,,
5985.5,,attentioncheck_help,232037,,,,instruct,,,32,,,,,,,,,,,,
null,,prac_atten_color_black,232743,,,,black_plus_sign,,,null,,,,,,,,,,,,
null,,prac_atten_color,233214,,,,<p style='position:absolute;top: 50%;right: 50%;transform: translate(50%, -50%);font-size: 125px;color: blue;'>+</p>,,,null,,,,,,,,,,,,
null,,prac_atten_color_black,235223,,,,black_plus_sign,,,null,,,,,,,,,,,,
7109.10000000149,,attentioncheck_help,242343,,,,instruct,,,32,,,,,,,,,,,,
null,,prac_atten_color_black,243281,,,,black_plus_sign,,,null,,,,,,,,,,,,
null,,prac_atten_color,244089,,,,<p style='position:absolute;top: 50%;right: 50%;transform: translate(50%, -50%);font-size: 125px;color: green;'>+</p>,,,null,,,,,,,,,,,,
null,,prac_atten_color_black,246096,,,,black_plus_sign,,,null,,,,,,,,,,,,
8692.30000000447,,attentioncheck_help,254800,,,,instruct,,,32,,,,,,,,,,,,
null,,prac_atten_color_black,255409,,,,black_plus_sign,,,null,,,,,,,,,,,,
null,,prac_atten_color,256060,,,,<p style='position:absolute;top: 50%;right: 50%;transform: translate(50%, -50%);font-size: 125px;color: green;'>+</p>,,,null,,,,,,,,,,,,
null,,prac_atten_color_black,258067,,,,black_plus_sign,,,null,,,,,,,,,,,,
11602.19999999553,,attentioncheck_help,269680,,,,instruct,,,32,,,,,,,,,,,,
null,,prac_atten_color_black,270445,,,,black_plus_sign,,,null,,,,,,,,,,,,
330.1000000014901,,prac_atten_color,271522,,,,<p style='position:absolute;top: 50%;right: 50%;transform: translate(50%, -50%);font-size: 125px;color: blue;'>+</p>,,,49,,,,,,,,,,,,
null,,prac_atten_color_black,273533,,,,black_plus_sign,,,null,,,,,,,,,,,,
null,,prac_atten_color_black,273875,,,,black_plus_sign,,,null,,,,,,,,,,,,
556,,prac_atten_color,274738,,,,<p style='position:absolute;top: 50%;right: 50%;transform: translate(50%, -50%);font-size: 125px;color: green;'>+</p>,,,50,,,,,,,,,,,,
null,,prac_atten_color_black,276745,,,,black_plus_sign,,,null,,,,,,,,,,,,
null,,prac_atten_color_black,277302,,,,black_plus_sign,,,null,,,,,,,,,,,,
null,,prac_atten_color,277937,,,,<p style='position:absolute;top: 50%;right: 50%;transform: translate(50%, -50%);font-size: 125px;color: blue;'>+</p>,,,null,,,,,,,,,,,,
32.79999999701977,,prac_atten_color_black,279944,,,,black_plus_sign,,,49,,,,,,,,,,,,
null,,prac_atten_color_black,280731,,,,black_plus_sign,,,null,,,,,,,,,,,,
583.2000000029802,,prac_atten_color,281427,,,,<p style='position:absolute;top: 50%;right: 50%;transform: translate(50%, -50%);font-size: 125px;color: blue;'>+</p>,,,49,,,,,,,,,,,,
null,,prac_atten_color_black,283435,,,,black_plus_sign,,,null,,,,,,,,,,,,
23733.5,,attentioncheck_feedback,307180,,,,cross_check_feedback,0,,,1,,,,,,,,,,,
null,,prac_atten_color_black,307630,,,,black_plus_sign,,,null,,,,,,,,,,,,
436.69999999552965,,prac_atten_color,308599,,,,<p style='position:absolute;top: 50%;right: 50%;transform: translate(50%, -50%);font-size: 125px;color: blue;'>+</p>,,,49,,,,,,,,,,,,
null,,prac_atten_color_black,310608,,,,black_plus_sign,,,null,,,,,,,,,,,,
null,,prac_atten_color_black,311062,,,,black_plus_sign,,,null,,,,,,,,,,,,
466.1000000014901,,prac_atten_color,311950,,,,<p style='position:absolute;top: 50%;right: 50%;transform: translate(50%, -50%);font-size: 125px;color: green;'>+</p>,,,50,,,,,,,,,,,,
null,,prac_atten_color_black,313966,,,,black_plus_sign,,,null,,,,,,,,,,,,
null,,prac_atten_color_black,314504,,,,black_plus_sign,,,null,,,,,,,,,,,,
333.3999999985099,,prac_atten_color,315326,,,,<p style='position:absolute;top: 50%;right: 50%;transform: translate(50%, -50%);font-size: 125px;color: green;'>+</p>,,,49,,,,,,,,,,,,
null,,prac_atten_color_black,317334,,,,black_plus_sign,,,null,,,,,,,,,,,,
3720.5,,attentioncheck_help,321067,,,,instruct,,,32,,,,,,,,,,,,
null,,prac_atten_color_black,321656,,,,black_plus_sign,,,null,,,,,,,,,,,,
484.5,,prac_atten_color,322573,,,,<p style='position:absolute;top: 50%;right: 50%;transform: translate(50%, -50%);font-size: 125px;color: blue;'>+</p>,,,49,,,,,,,,,,,,
null,,prac_atten_color_black,324576,,,,black_plus_sign,,,null,,,,,,,,,,,,
null,,prac_atten_color_black,325084,,,,black_plus_sign,,,null,,,,,,,,,,,,
382.6000000014901,,prac_atten_color,325883,,,,<p style='position:absolute;top: 50%;right: 50%;transform: translate(50%, -50%);font-size: 125px;color: green;'>+</p>,,,50,,,,,,,,,,,,
null,,prac_atten_color_black,327891,,,,black_plus_sign,,,null,,,,,,,,,,,,
null,,prac_atten_color_black,328511,,,,black_plus_sign,,,null,,,,,,,,,,,,
474.90000000596046,,prac_atten_color,329157,,,,<p style='position:absolute;top: 50%;right: 50%;transform: translate(50%, -50%);font-size: 125px;color: green;'>+</p>,,,50,,,,,,,,,,,,
null,,prac_atten_color_black,331173,,,,black_plus_sign,,,null,,,,,,,,,,,,
null,,prac_atten_color_black,331943,,,,black_plus_sign,,,null,,,,,,,,,,,,
409.5,,prac_atten_color,332871,,,,<p style='position:absolute;top: 50%;right: 50%;transform: translate(50%, -50%);font-size: 125px;color: blue;'>+</p>,,,49,,,,,,,,,,,,
null,,prac_atten_color_black,334878,,,,black_plus_sign,,,null,,,,,,,,,,,,
null,,prac_atten_color_black,335371,,,,black_plus_sign,,,null,,,,,,,,,,,,
529.5,,prac_atten_color,336271,,,,<p style='position:absolute;top: 50%;right: 50%;transform: translate(50%, -50%);font-size: 125px;color: green;'>+</p>,,,50,,,,,,,,,,,,
null,,prac_atten_color_black,338278,,,,black_plus_sign,,,null,,,,,,,,,,,,
null,,prac_atten_color_black,338798,,,,black_plus_sign,,,null,,,,,,,,,,,,
null,,prac_atten_color,339243,,,,<p style='position:absolute;top: 50%;right: 50%;transform: translate(50%, -50%);font-size: 125px;color: blue;'>+</p>,,,null,,,,,,,,,,,,
11.199999995529652,,prac_atten_color_black,341250,,,,black_plus_sign,,,49,,,,,,,,,,,,
null,,prac_atten_color_black,342227,,,,black_plus_sign,,,null,,,,,,,,,,,,
587.5,,prac_atten_color,343145,,,,<p style='position:absolute;top: 50%;right: 50%;transform: translate(50%, -50%);font-size: 125px;color: blue;'>+</p>,,,49,,,,,,,,,,,,
null,,prac_atten_color_black,345153,,,,black_plus_sign,,,null,,,,,,,,,,,,
8323.30000000447,,attentioncheck_feedback,353486,,,,cross_check_feedback,0,,,,,,,,,,,,,,
14844,,last_instruct,368336,,,,instruct,,,32,,,,,,,,,,,,
null,,prac_learn_phase(without_color),371845,,,,black_plus_sign,,,null,,object_13c.png,object_03a.png,,,,,,,,,
null,,prac_black_cross(without_color),372597,,,,blue,,,null,,object_13c.png,object_03a.png,,,,,,,,,
null,,prac_rt_plussign_withcolor,373110,,,,blue,,,null,,object_13c.png,object_03a.png,,,,,,,,,
1824.8999999985099,,prac_rt_thecrossant_black,374375,,,,black_plus_sign,,,49,,,,1,1,,,,,,,
null,,prac_color_black,374486,,,,black_plus_sign,,,null,,,,,,,,,,,,
null,,prac_learn_phase(without_color),378003,,,,black_plus_sign,,,null,,object_11b.png,object_14a.png,,,,,,,,,
null,,black_cross(without_color)1,379097,,,,blue,,,null,,object_13c.png,object_03a.png,,,,,,,,,
null,,prac_rt_plussign_withcolor,379604,,,,blue,,,null,,object_11b.png,object_14a.png,,,,,,,,,
1158.5,,prac_rt_thecrossant_black,380579,,,,black_plus_sign,,,49,,,,1,1,,,,,,,
null,,prac_color_black,380689,,,,black_plus_sign,,,null,,,,,,,,,,,,
null,,prac_learn_phase(without_color),384229,,,,black_plus_sign,,,null,,object_06a.png,object_04b.png,,,,,,,,,
null,,black_cross(without_color)1,385296,,,,blue,,,null,,object_13c.png,object_03a.png,,,,,,,,,
null,,prac_rt_plussign_withcolor,385803,,,,green,,,null,,object_06a.png,object_04b.png,,,,,,,,,
1245.3999999985099,,prac_rt_thecrossant_black,387184,,,,black_plus_sign,,,49,,,,0,0.6666666666666666,,,,,,,
null,,prac_color_black,387291,,,,black_plus_sign,,,null,,,,,,,,,,,,
null,,prac_learn_phase(without_color),390804,,,,black_plus_sign,,,null,,object_07c.png,object_08a.png,,,,,,,,,
null,,black_cross(without_color)1,391874,,,,blue,,,null,,object_13c.png,object_03a.png,,,,,,,,,
409.6000000014901,,prac_rt_plussign_withcolor,392380,,,,blue,,,49,,object_07c.png,object_08a.png,,,,,,,,,
null,,prac_rt_thecrossant_black,393763,,,,black_plus_sign,,,null,,,,1,0.75,,,,,,,
null,,prac_color_black,393872,,,,black_plus_sign,,,null,,,,,,,,,,,,
10314.09999999404,,instruct_dir_01,404198,,,,instruct,0,Next,,,,,,,,,,,,,
10976.39999999851,,instruct_dir_2,415181,,,,instruct,1,Next,,,,,,,,,,,,,
4318.4000000059605,,instruct_dir_3,419505,,,,instruct,1,Next,,,,,,,,,,,,,
8541.79999999702,,instruct_dir_4,428053,,,,instruct,1,Start,,,,,,,,,,,,,
null,,thebreak,428161,,,,<p></p>,,,null,,,,,,,,,,,,
2604.89999999851,,intro_0,430774,,,,instruct,,,32,,,,,,,,,,,,
6275.10000000149,,prac_directmemory_phase,437058,,,,practice/object_03a.png,,,51,,,,1,,practice/object_02b.png,practice/object_04a.png,practice/object_03b.png,practice/object_03b.png,1,1,
2682.0999999940395,,prac_directmemory_phase,439762,,,,practice/object_02a.png,,,49,,,,1,,practice/object_02b.png,practice/object_04b.png,practice/object_01a.png,practice/object_02b.png,1,1,
5787,,prac_directmemory_phase,445564,,,,practice/object_01a.png,,,50,,,,1,,practice/object_03a.png,practice/object_01b.png,practice/object_04b.png,practice/object_01b.png,1,1,
8066.39999999851,,prac_directmemory_phase,453648,,,,practice/object_04a.png,,,51,,,,1,,practice/object_03b.png,practice/object_03a.png,practice/object_04b.png,practice/object_04b.png,1,1,
30186.5,,practice_feedback,483848,,,,practice_feedback,1,,,,,,,,,,,,,,
16104.70000000298,,proceed_actualTask,499958,,,,proceed_actualTask,1,Continue,,,,,,,,,,,,,
12731.89999999851,,last_inst,512696,,,,last_inst,,,32,,,,,,,,,,,,
null,,learn_phase(without_color)1,516212,,,,black_plus_sign,,,null,,object_13c.png,object_03a.png,,,,,,,,,
null,,black_cross(without_color)1,517287,,,,blue,,,null,,object_13c.png,object_03a.png,,,,,,,,,
null,,rt_plussign_withcolor1,517798,,,,blue,,,null,,object_13c.png,object_03a.png,,,,,,,,,
1108.2000000029802,,rt_thecrossant_black1,518750,,,,black_plus_sign,,,49,,,,1,,,,,,,1,
null,,color_black1,518869,,,,black_plus_sign,,,null,,,,,,,,,,,,
null,,learn_phase(without_color)1,522407,,,,black_plus_sign,,,null,,object_11b.png,object_14a.png,,,,,,,,,
null,,black_cross(without_color)1,523219,,,,green,,,null,,object_11b.png,object_14a.png,,,,,,,,,
null,,rt_plussign_withcolor1,523725,,,,green,,,null,,object_11b.png,object_14a.png,,,,,,,,,
919.3999999985099,,rt_thecrossant_black1,524940,,,,black_plus_sign,,,50,,,,1,,,,,,,1,
null,,color_black1,525052,,,,black_plus_sign,,,null,,,,,,,,,,,,
null,,learn_phase(without_color)1,528566,,,,black_plus_sign,,,null,,object_06a.png,object_04b.png,,,,,,,,,
null,,black_cross(without_color)1,529658,,,,green,,,null,,object_06a.png,object_04b.png,,,,,,,,,
null,,rt_plussign_withcolor1,530166,,,,green,,,null,,object_06a.png,object_04b.png,,,,,,,,,
957.6999999955297,,rt_thecrossant_black1,531101,,,,black_plus_sign,,,50,,,,1,,,,,,,1,
null,,color_black1,531212,,,,black_plus_sign,,,null,,,,,,,,,,,,
null,,learn_phase(without_color)1,534725,,,,black_plus_sign,,,null,,object_07c.png,object_08a.png,,,,,,,,,
null,,black_cross(without_color)1,535547,,,,green,,,null,,object_07c.png,object_08a.png,,,,,,,,,
null,,rt_plussign_withcolor1,536052,,,,green,,,null,,object_07c.png,object_08a.png,,,,,,,,,
1308,,rt_thecrossant_black1,537263,,,,black_plus_sign,,,50,,,,1,,,,,,,1,
null,,color_black1,537374,,,,black_plus_sign,,,null,,,,,,,,,,,,
null,,learn_phase(without_color)1,540889,,,,black_plus_sign,,,null,,object_15c.png,object_14b.png,,,,,,,,,
null,,black_cross(without_color)1,541426,,,,green,,,null,,object_15c.png,object_14b.png,,,,,,,,,
null,,rt_plussign_withcolor1,541934,,,,green,,,null,,object_15c.png,object_14b.png,,,,,,,,,
1101.9000000059605,,rt_thecrossant_black1,543418,,,,black_plus_sign,,,50,,,,1,,,,,,,1,
null,,color_black1,543528,,,,black_plus_sign,,,null,,,,,,,,,,,,
null,,learn_phase(without_color)1,547039,,,,black_plus_sign,,,null,,object_13a.png,object_09c.png,,,,,,,,,
null,,black_cross(without_color)1,547508,,,,green,,,null,,object_13a.png,object_09c.png,,,,,,,,,
510.59999999403954,,rt_plussign_withcolor1,548028,,,,green,,,50,,object_13a.png,object_09c.png,,,,,,,,,
null,,rt_thecrossant_black1,549576,,,,black_plus_sign,,,null,,,,1,,,,,,,1,
null,,color_black1,549687,,,,black_plus_sign,,,null,,,,,,,,,,,,
null,,learn_phase(without_color)1,553196,,,,black_plus_sign,,,null,,object_01c.png,object_01b.png,,,,,,,,,
null,,black_cross(without_color)1,554168,,,,blue,,,null,,object_01c.png,object_01b.png,,,,,,,,,
500.8999999985099,,rt_plussign_withcolor1,554681,,,,blue,,,49,,object_01c.png,object_01b.png,,,,,,,,,
null,,rt_thecrossant_black1,555751,,,,black_plus_sign,,,null,,,,1,,,,,,,1,
null,,color_black1,555861,,,,black_plus_sign,,,null,,,,,,,,,,,,
null,,learn_phase(without_color)1,559375,,,,black_plus_sign,,,null,,object_04c.png,object_15b.png,,,,,,,,,
null,,black_cross(without_color)1,560032,,,,blue,,,null,,object_04c.png,object_15b.png,,,,,,,,,
null,,rt_plussign_withcolor1,560539,,,,blue,,,null,,object_04c.png,object_15b.png,,,,,,,,,
1240,,rt_thecrossant_black1,561904,,,,black_plus_sign,,,49,,,,1,,,,,,,1,
null,,color_black1,562014,,,,black_plus_sign,,,null,,,,,,,,,,,,
null,,learn_phase(without_color)1,565527,,,,black_plus_sign,,,null,,object_02c.png,object_08b.png,,,,,,,,,
null,,black_cross(without_color)1,566298,,,,green,,,null,,object_02c.png,object_08b.png,,,,,,,,,
522,,rt_plussign_withcolor1,566836,,,,green,,,50,,object_02c.png,object_08b.png,,,,,,,,,
null,,rt_thecrossant_black1,568083,,,,black_plus_sign,,,null,,,,1,,,,,,,1,
null,,color_black1,568193,,,,black_plus_sign,,,null,,,,,,,,,,,,
null,,learn_phase(without_color)1,571707,,,,black_plus_sign,,,null,,object_13b.png,object_02a.png,,,,,,,,,
null,,black_cross(without_color)1,572391,,,,blue,,,null,,object_13b.png,object_02a.png,,,,,,,,,
null,,rt_plussign_withcolor1,572907,,,,blue,,,null,,object_13b.png,object_02a.png,,,,,,,,,
1029,,rt_thecrossant_black1,574247,,,,black_plus_sign,,,49,,,,1,,,,,,,1,
null,,color_black1,574358,,,,black_plus_sign,,,null,,,,,,,,,,,,
null,,learn_phase(without_color)1,577872,,,,black_plus_sign,,,null,,object_03c.png,object_10a.png,,,,,,,,,
null,,black_cross(without_color)1,578450,,,,blue,,,null,,object_03c.png,object_10a.png,,,,,,,,,
null,,rt_plussign_withcolor1,578971,,,,blue,,,null,,object_03c.png,object_10a.png,,,,,,,,,
963.8999999985099,,rt_thecrossant_black1,580414,,,,black_plus_sign,,,49,,,,1,,,,,,,1,
null,,color_black1,580523,,,,black_plus_sign,,,null,,,,,,,,,,,,
null,,learn_phase(without_color)1,584036,,,,black_plus_sign,,,null,,object_02b.png,object_03b.png,,,,,,,,,
null,,black_cross(without_color)1,584614,,,,green,,,null,,object_02b.png,object_03b.png,,,,,,,,,
null,,rt_plussign_withcolor1,585122,,,,green,,,null,,object_02b.png,object_03b.png,,,,,,,,,
764.8999999985099,,rt_thecrossant_black1,586560,,,,black_plus_sign,,,50,,,,1,,,,,,,1,
null,,color_black1,586672,,,,black_plus_sign,,,null,,,,,,,,,,,,
null,,learn_phase(without_color)1,590188,,,,black_plus_sign,,,null,,object_11c.png,object_04a.png,,,,,,,,,
null,,black_cross(without_color)1,590626,,,,blue,,,null,,object_11c.png,object_04a.png,,,,,,,,,
null,,rt_plussign_withcolor1,591137,,,,blue,,,null,,object_11c.png,object_04a.png,,,,,,,,,
777.8000000044703,,rt_thecrossant_black1,592715,,,,black_plus_sign,,,50,,,,0,,,,,,,0.9230769230769231,
null,,color_black1,592825,,,,black_plus_sign,,,null,,,,,,,,,,,,
null,,learn_phase(without_color)1,596338,,,,black_plus_sign,,,null,,object_14c.png,object_12b.png,,,,,,,,,
null,,black_cross(without_color)1,597096,,,,green,,,null,,object_14c.png,object_12b.png,,,,,,,,,
null,,rt_plussign_withcolor1,597605,,,,green,,,null,,object_14c.png,object_12b.png,,,,,,,,,
553,,rt_thecrossant_black1,598890,,,,black_plus_sign,,,50,,,,1,,,,,,,0.9285714285714286,
null,,color_black1,599000,,,,black_plus_sign,,,null,,,,,,,,,,,,
null,,learn_phase(without_color)1,602515,,,,black_plus_sign,,,null,,object_10b.png,object_05c.png,,,,,,,,,
null,,black_cross(without_color)1,603374,,,,blue,,,null,,object_10b.png,object_05c.png,,,,,,,,,
null,,rt_plussign_withcolor1,603882,,,,blue,,,null,,object_10b.png,object_05c.png,,,,,,,,,
1337.8000000044703,,rt_thecrossant_black1,605041,,,,black_plus_sign,,,49,,,,1,,,,,,,0.9333333333333333,
null,,color_black1,605153,,,,black_plus_sign,,,null,,,,,,,,,,,,
null,,thebreak,605274,,,,<p></p>,,,null,,,,,,,,,,,,
2270.2000000029802,,intro_0,607553,,,,instruct,,,32,,,,,,,,,,,,
6080.69999999553,,directmemory_phase1,613644,,,,object_12b.png,,,49,,,,1,,object_14c.png,object_13c.png,object_04c.png,object_14c.png,,1,1
7199.89999999851,,directmemory_phase1,620869,,,,object_02b.png,,,50,,,,0,,object_03b.png,object_04a.png,object_03c.png,object_03b.png,,0.5,0
6714.80000000447,,directmemory_phase1,627600,,,,object_11c.png,,,51,,,,0,,object_10b.png,object_04a.png,object_11b.png,object_04a.png,,0.3333333333333333,0
2590,,directmemory_phase1,630206,,,,object_03a.png,,,49,,,,0,,object_03c.png,object_13c.png,object_10a.png,object_13c.png,,0.25,0
3513.10000000149,,directmemory_phase1,633735,,,,object_09c.png,,,51,,,,0,,object_13a.png,object_14c.png,object_06a.png,object_13a.png,,0.2,0
7900.5,,directmemory_phase1,641650,,,,object_06a.png,,,50,,,,1,,object_02a.png,object_04b.png,object_13b.png,object_04b.png,,0.3333333333333333,1
3233.2999999970198,,directmemory_phase1,644890,,,,object_04c.png,,,50,,,,1,,object_10b.png,object_15b.png,object_13b.png,object_15b.png,,0.42857142857142855,1
3532.7999999970198,,directmemory_phase1,648440,,,,object_02c.png,,,50,,,,1,,object_02b.png,object_08b.png,object_04a.png,object_08b.png,,0.5,1
4847.0999999940395,,directmemory_phase1,653303,,,,object_10b.png,,,49,,,,1,,object_05c.png,object_04a.png,object_04c.png,object_05c.png,,0.5555555555555556,1
10420.5,,directmemory_phase1,663738,,,,object_14a.png,,,51,,,,1,,object_15c.png,object_14b.png,object_11b.png,object_11b.png,,0.6,1
2714.2000000029802,,directmemory_phase1,666476,,,,object_08a.png,,,51,,,,1,,object_08b.png,object_02a.png,object_07c.png,object_07c.png,,0.6363636363636364,1
9909.60000000149,,directmemory_phase1,676402,,,,object_03c.png,,,50,,,,1,,object_02b.png,object_10a.png,object_08b.png,object_10a.png,,0.6666666666666666,1
4392,,directmemory_phase1,680810,,,,object_01c.png,,,51,,,,1,,object_15b.png,object_02b.png,object_01b.png,object_01b.png,,0.6923076923076923,1
3654.8000000044703,,directmemory_phase1,684479,,,,object_02a.png,,,51,,,,0,,object_02b.png,object_13b.png,object_13c.png,object_13b.png,,0.6428571428571429,0
5010.29999999702,,directmemory_phase1,689498,,,,object_14b.png,,,50,,,,0,,object_15c.png,object_01b.png,object_04c.png,object_15c.png,,0.6,0
null,,thebreak,689615,,,,<p></p>,,,null,,,,,,,,,,,,
2389.2000000029802,,intro_0,692013,,,,instruct,,,32,,,,,,,,,,,,
null,,learn_phase(without_color)2,695522,,,,black_plus_sign,,,null,,object_15b.png,object_04c.png,,,,,,,,,
null,,black_cross(without_color)2,696236,,,,green,,,null,,object_15b.png,object_04c.png,,,,,,,,,
null,,rt_plussign_withcolor2,696743,,,,green,,,null,,object_15b.png,object_04c.png,,,,,,,,,
891.4000000059605,,rt_thecrossant_black2,698048,,,,black_plus_sign,,,50,,,,1,,,,,,,1,
null,,color_black2,698157,,,,black_plus_sign,,,null,,,,,,,,,,,,
null,,learn_phase(without_color)2,701663,,,,black_plus_sign,,,null,,object_07c.png,object_08a.png,,,,,,,,,
null,,black_cross(without_color)2,702456,,,,green,,,null,,object_07c.png,object_08a.png,,,,,,,,,
null,,rt_plussign_withcolor2,702963,,,,green,,,null,,object_07c.png,object_08a.png,,,,,,,,,
843.8999999985099,,rt_thecrossant_black2,704199,,,,black_plus_sign,,,50,,,,1,,,,,,,1,
null,,color_black2,704308,,,,black_plus_sign,,,null,,,,,,,,,,,,
null,,learn_phase(without_color)2,707823,,,,black_plus_sign,,,null,,object_09c.png,object_13a.png,,,,,,,,,
null,,black_cross(without_color)2,708859,,,,blue,,,null,,object_09c.png,object_13a.png,,,,,,,,,
null,,rt_plussign_withcolor2,709365,,,,blue,,,null,,object_09c.png,object_13a.png,,,,,,,,,
1160.8000000044703,,rt_thecrossant_black2,710351,,,,black_plus_sign,,,49,,,,1,,,,,,,1,
null,,color_black2,710462,,,,black_plus_sign,,,null,,,,,,,,,,,,
null,,learn_phase(without_color)2,713977,,,,black_plus_sign,,,null,,object_02b.png,object_03b.png,,,,,,,,,
null,,black_cross(without_color)2,714778,,,,green,,,null,,object_02b.png,object_03b.png,,,,,,,,,
null,,rt_plussign_withcolor2,715298,,,,green,,,null,,object_02b.png,object_03b.png,,,,,,,,,
1441.8000000044703,,rt_thecrossant_black2,716514,,,,black_plus_sign,,,50,,,,1,,,,,,,1,
null,,color_black2,716625,,,,black_plus_sign,,,null,,,,,,,,,,,,
null,,learn_phase(without_color)2,720139,,,,black_plus_sign,,,null,,object_01b.png,object_01c.png,,,,,,,,,
null,,black_cross(without_color)2,721223,,,,blue,,,null,,object_01b.png,object_01c.png,,,,,,,,,
461.8999999985099,,rt_plussign_withcolor2,721729,,,,blue,,,49,,object_01b.png,object_01c.png,,,,,,,,,
null,,rt_thecrossant_black2,722666,,,,black_plus_sign,,,null,,,,1,,,,,,,1,
null,,color_black2,722775,,,,black_plus_sign,,,null,,,,,,,,,,,,
null,,learn_phase(without_color)2,726294,,,,black_plus_sign,,,null,,object_10a.png,object_03c.png,,,,,,,,,
null,,black_cross(without_color)2,727082,,,,blue,,,null,,object_10a.png,object_03c.png,,,,,,,,,
null,,rt_plussign_withcolor2,727590,,,,blue,,,null,,object_10a.png,object_03c.png,,,,,,,,,
1446.7000000029802,,rt_thecrossant_black2,728819,,,,black_plus_sign,,,49,,,,1,,,,,,,1,
null,,color_black2,728928,,,,black_plus_sign,,,null,,,,,,,,,,,,
null,,learn_phase(without_color)2,732449,,,,black_plus_sign,,,null,,object_04b.png,object_06a.png,,,,,,,,,
null,,black_cross(without_color)2,733444,,,,green,,,null,,object_04b.png,object_06a.png,,,,,,,,,
null,,rt_plussign_withcolor2,733949,,,,green,,,null,,object_04b.png,object_06a.png,,,,,,,,,
1067.3999999985099,,rt_thecrossant_black2,734990,,,,black_plus_sign,,,50,,,,1,,,,,,,1,
null,,color_black2,735098,,,,black_plus_sign,,,null,,,,,,,,,,,,
null,,learn_phase(without_color)2,738612,,,,black_plus_sign,,,null,,object_13c.png,object_03a.png,,,,,,,,,
null,,black_cross(without_color)2,739262,,,,blue,,,null,,object_13c.png,object_03a.png,,,,,,,,,
null,,rt_plussign_withcolor2,739768,,,,blue,,,null,,object_13c.png,object_03a.png,,,,,,,,,
1351.1000000014901,,rt_thecrossant_black2,741142,,,,black_plus_sign,,,49,,,,1,,,,,,,1,
null,,color_black2,741271,,,,black_plus_sign,,,null,,,,,,,,,,,,
null,,learn_phase(without_color)2,744786,,,,black_plus_sign,,,null,,object_14c.png,object_12b.png,,,,,,,,,
null,,black_cross(without_color)2,745388,,,,green,,,null,,object_14c.png,object_12b.png,,,,,,,,,
null,,rt_plussign_withcolor2,745900,,,,green,,,null,,object_14c.png,object_12b.png,,,,,,,,,
1086.3000000044703,,rt_thecrossant_black2,747316,,,,black_plus_sign,,,50,,,,1,,,,,,,1,
null,,color_black2,747426,,,,black_plus_sign,,,null,,,,,,,,,,,,
null,,learn_phase(without_color)2,750940,,,,black_plus_sign,,,null,,object_02c.png,object_08b.png,,,,,,,,,
null,,black_cross(without_color)2,751790,,,,green,,,null,,object_02c.png,object_08b.png,,,,,,,,,
null,,rt_plussign_withcolor2,752314,,,,green,,,null,,object_02c.png,object_08b.png,,,,,,,,,
781.5,,rt_thecrossant_black2,753482,,,,black_plus_sign,,,50,,,,1,,,,,,,1,
null,,color_black2,753596,,,,black_plus_sign,,,null,,,,,,,,,,,,
null,,learn_phase(without_color)2,757105,,,,black_plus_sign,,,null,,object_10b.png,object_05c.png,,,,,,,,,
null,,black_cross(without_color)2,757765,,,,green,,,null,,object_10b.png,object_05c.png,,,,,,,,,
null,,rt_plussign_withcolor2,758271,,,,green,,,null,,object_10b.png,object_05c.png,,,,,,,,,
1066.8999999985099,,rt_thecrossant_black2,759630,,,,black_plus_sign,,,50,,,,1,,,,,,,1,
null,,color_black2,759736,,,,black_plus_sign,,,null,,,,,,,,,,,,
null,,learn_phase(without_color)2,763243,,,,black_plus_sign,,,null,,object_15c.png,object_14b.png,,,,,,,,,
null,,black_cross(without_color)2,763747,,,,green,,,null,,object_15c.png,object_14b.png,,,,,,,,,
null,,rt_plussign_withcolor2,764252,,,,green,,,null,,object_15c.png,object_14b.png,,,,,,,,,
979.8000000044703,,rt_thecrossant_black2,765766,,,,black_plus_sign,,,50,,,,1,,,,,,,1,
null,,color_black2,765871,,,,black_plus_sign,,,null,,,,,,,,,,,,
null,,learn_phase(without_color)2,769379,,,,black_plus_sign,,,null,,object_02a.png,object_13b.png,,,,,,,,,
null,,black_cross(without_color)2,770481,,,,green,,,null,,object_02a.png,object_13b.png,,,,,,,,,
null,,rt_plussign_withcolor2,770988,,,,green,,,null,,object_02a.png,object_13b.png,,,,,,,,,
880.5,,rt_thecrossant_black2,771913,,,,black_plus_sign,,,50,,,,1,,,,,,,1,
null,,color_black2,772025,,,,black_plus_sign,,,null,,,,,,,,,,,,
null,,learn_phase(without_color)2,775538,,,,black_plus_sign,,,null,,object_11b.png,object_14a.png,,,,,,,,,
null,,black_cross(without_color)2,776492,,,,blue,,,null,,object_11b.png,object_14a.png,,,,,,,,,
null,,rt_plussign_withcolor2,776997,,,,blue,,,null,,object_11b.png,object_14a.png,,,,,,,,,
1260,,rt_thecrossant_black2,778095,,,,black_plus_sign,,,49,,,,1,,,,,,,1,
null,,color_black2,778205,,,,black_plus_sign,,,null,,,,,,,,,,,,
null,,learn_phase(without_color)2,781718,,,,black_plus_sign,,,null,,object_04a.png,object_11c.png,,,,,,,,,
null,,black_cross(without_color)2,782160,,,,blue,,,null,,object_04a.png,object_11c.png,,,,,,,,,
null,,rt_plussign_withcolor2,782668,,,,blue,,,null,,object_04a.png,object_11c.png,,,,,,,,,
1479.1000000014901,,rt_thecrossant_black2,784266,,,,black_plus_sign,,,49,,,,1,,,,,,,1,
null,,color_black2,784378,,,,black_plus_sign,,,null,,,,,,,,,,,,
null,,thebreak,784492,,,,<p></p>,,,null,,,,,,,,,,,,
1649.7000000029802,,intro_0,786149,,,,instruct,,,32,,,,,,,,,,,,
4243.79999999702,,directmemory_phase2,790405,,,,object_02b.png,,,50,,,,1,,object_01c.png,object_03b.png,object_08b.png,object_03b.png,,0.625,1
10030.5,,directmemory_phase2,800451,,,,object_14b.png,,,50,,,,0,,object_15c.png,object_13b.png,object_01c.png,object_15c.png,,0.5882352941176471,0
4592.5999999940395,,directmemory_phase2,805060,,,,object_12b.png,,,50,,,,1,,object_04c.png,object_14c.png,object_03b.png,object_14c.png,,0.6111111111111112,1
7527.5,,directmemory_phase2,812602,,,,object_09c.png,,,51,,,,0,,object_01c.png,object_13a.png,object_04a.png,object_13a.png,,0.5789473684210527,0
5365.89999999851,,directmemory_phase2,817973,,,,object_10b.png,,,49,,,,1,,object_05c.png,object_03b.png,object_14a.png,object_05c.png,,0.6,1
5549.39999999851,,directmemory_phase2,823528,,,,object_03c.png,,,49,,,,1,,object_10a.png,object_04a.png,object_11c.png,object_10a.png,,0.6190476190476191,1
4816.70000000298,,directmemory_phase2,828351,,,,object_04c.png,,,50,,,,1,,object_02a.png,object_15b.png,object_04b.png,object_15b.png,,0.6363636363636364,1
5559.79999999702,,directmemory_phase2,833915,,,,object_01c.png,,,51,,,,1,,object_15b.png,object_02c.png,object_01b.png,object_01b.png,,0.6521739130434783,1
7575.60000000149,,directmemory_phase2,841496,,,,object_02a.png,,,49,,,,0,,object_01c.png,object_13b.png,object_13a.png,object_13b.png,,0.625,0
4659.80000000447,,directmemory_phase2,846163,,,,object_08a.png,,,50,,,,1,,object_14a.png,object_07c.png,object_10a.png,object_07c.png,,0.64,1
6527.5,,directmemory_phase2,852707,,,,object_14a.png,,,49,,,,0,,object_10a.png,object_02a.png,object_11b.png,object_11b.png,,0.6153846153846154,0
9237.39999999851,,directmemory_phase2,861961,,,,object_11c.png,,,51,,,,1,,object_01b.png,object_09c.png,object_04a.png,object_04a.png,,0.6296296296296297,1
2530.60000000149,,directmemory_phase2,864506,,,,object_06a.png,,,50,,,,1,,object_02a.png,object_04b.png,object_10a.png,object_04b.png,,0.6428571428571429,1
3473,,directmemory_phase2,867995,,,,object_03a.png,,,49,,,,1,,object_13c.png,object_04b.png,object_02c.png,object_13c.png,,0.6551724137931034,1
1511.5,,directmemory_phase2,869523,,,,object_02c.png,,,50,,,,1,,object_11c.png,object_08b.png,object_15c.png,object_08b.png,,0.6666666666666666,1
null,,thebreak,869633,,,,<p></p>,,,null,,,,,,,,,,,,
6049.9000000059605,,intro_0,875690,,,,instruct,,,32,,,,,,,,,,,,
null,,learn_phase(without_color)3,879200,,,,black_plus_sign,,,null,,object_04b.png,object_06a.png,,,,,,,,,
null,,black_cross(without_color)3,879654,,,,blue,,,null,,object_04b.png,object_06a.png,,,,,,,,,
null,,rt_plussign_withcolor3,880160,,,,blue,,,null,,object_04b.png,object_06a.png,,,,,,,,,
767.1000000014901,,rt_thecrossant_black3,881727,,,,black_plus_sign,,,49,,,,1,,,,,,,1,
null,,color_black3,881835,,,,black_plus_sign,,,null,,,,,,,,,,,,
null,,learn_phase(without_color)3,885342,,,,black_plus_sign,,,null,,object_15b.png,object_04c.png,,,,,,,,,
null,,black_cross(without_color)3,886312,,,,blue,,,null,,object_15b.png,object_04c.png,,,,,,,,,
null,,rt_plussign_withcolor3,886832,,,,blue,,,null,,object_15b.png,object_04c.png,,,,,,,,,
906.8999999985099,,rt_thecrossant_black3,887889,,,,black_plus_sign,,,49,,,,1,,,,,,,1,
null,,color_black3,888000,,,,black_plus_sign,,,null,,,,,,,,,,,,
null,,learn_phase(without_color)3,891516,,,,black_plus_sign,,,null,,object_01b.png,object_01c.png,,,,,,,,,
null,,black_cross(without_color)3,892171,,,,blue,,,null,,object_01b.png,object_01c.png,,,,,,,,,
null,,rt_plussign_withcolor3,892679,,,,blue,,,null,,object_01b.png,object_01c.png,,,,,,,,,
1282.8000000044703,,rt_thecrossant_black3,894043,,,,black_plus_sign,,,49,,,,1,,,,,,,1,
null,,color_black3,894159,,,,black_plus_sign,,,null,,,,,,,,,,,,
null,,learn_phase(without_color)3,897672,,,,black_plus_sign,,,null,,object_13a.png,object_09c.png,,,,,,,,,
null,,black_cross(without_color)3,898548,,,,green,,,null,,object_13a.png,object_09c.png,,,,,,,,,
null,,rt_plussign_withcolor3,899055,,,,green,,,null,,object_13a.png,object_09c.png,,,,,,,,,
1494.5,,rt_thecrossant_black3,900200,,,,black_plus_sign,,,50,,,,1,,,,,,,1,
null,,color_black3,900309,,,,black_plus_sign,,,null,,,,,,,,,,,,
null,,learn_phase(without_color)3,903826,,,,black_plus_sign,,,null,,object_11c.png,object_04a.png,,,,,,,,,
null,,black_cross(without_color)3,904570,,,,green,,,null,,object_11c.png,object_04a.png,,,,,,,,,
null,,rt_plussign_withcolor3,905082,,,,green,,,null,,object_11c.png,object_04a.png,,,,,,,,,
1304.8000000044703,,rt_thecrossant_black3,906370,,,,black_plus_sign,,,50,,,,1,,,,,,,1,
null,,color_black3,906479,,,,black_plus_sign,,,null,,,,,,,,,,,,
null,,learn_phase(without_color)3,909994,,,,black_plus_sign,,,null,,object_05c.png,object_10b.png,,,,,,,,,
null,,black_cross(without_color)3,910537,,,,green,,,null,,object_05c.png,object_10b.png,,,,,,,,,
null,,rt_plussign_withcolor3,911044,,,,green,,,null,,object_05c.png,object_10b.png,,,,,,,,,
1237.7000000029802,,rt_thecrossant_black3,912520,,,,black_plus_sign,,,50,,,,1,,,,,,,1,
null,,color_black3,912631,,,,black_plus_sign,,,null,,,,,,,,,,,,
null,,learn_phase(without_color)3,916149,,,,black_plus_sign,,,null,,object_08a.png,object_07c.png,,,,,,,,,
null,,black_cross(without_color)3,917127,,,,blue,,,null,,object_08a.png,object_07c.png,,,,,,,,,
null,,rt_plussign_withcolor3,917634,,,,blue,,,null,,object_08a.png,object_07c.png,,,,,,,,,
660.8000000044703,,rt_thecrossant_black3,918672,,,,black_plus_sign,,,49,,,,1,,,,,,,1,
null,,color_black3,918782,,,,black_plus_sign,,,null,,,,,,,,,,,,
null,,learn_phase(without_color)3,922299,,,,black_plus_sign,,,null,,object_03c.png,object_10a.png,,,,,,,,,
null,,black_cross(without_color)3,923108,,,,blue,,,null,,object_03c.png,object_10a.png,,,,,,,,,
null,,rt_plussign_withcolor3,923617,,,,blue,,,null,,object_03c.png,object_10a.png,,,,,,,,,
1890.8999999985099,,rt_thecrossant_black3,924828,,,,black_plus_sign,,,49,,,,1,,,,,,,1,
null,,color_black3,924937,,,,black_plus_sign,,,null,,,,,,,,,,,,
null,,learn_phase(without_color)3,928455,,,,black_plus_sign,,,null,,object_14a.png,object_11b.png,,,,,,,,,
null,,black_cross(without_color)3,929221,,,,green,,,null,,object_14a.png,object_11b.png,,,,,,,,,
null,,rt_plussign_withcolor3,929728,,,,green,,,null,,object_14a.png,object_11b.png,,,,,,,,,
990.2999999970198,,rt_thecrossant_black3,930985,,,,black_plus_sign,,,50,,,,1,,,,,,,1,
null,,color_black3,931096,,,,black_plus_sign,,,null,,,,,,,,,,,,
null,,learn_phase(without_color)3,934609,,,,black_plus_sign,,,null,,object_08b.png,object_02c.png,,,,,,,,,
null,,black_cross(without_color)3,935125,,,,green,,,null,,object_08b.png,object_02c.png,,,,,,,,,
500.80000000447035,,rt_plussign_withcolor3,935639,,,,green,,,50,,object_08b.png,object_02c.png,,,,,,,,,
null,,rt_thecrossant_black3,937155,,,,black_plus_sign,,,null,,,,1,,,,,,,1,
null,,color_black3,937268,,,,black_plus_sign,,,null,,,,,,,,,,,,
null,,learn_phase(without_color)3,940784,,,,black_plus_sign,,,null,,object_15c.png,object_14b.png,,,,,,,,,
null,,black_cross(without_color)3,941483,,,,green,,,null,,object_15c.png,object_14b.png,,,,,,,,,
null,,rt_plussign_withcolor3,941988,,,,green,,,null,,object_15c.png,object_14b.png,,,,,,,,,
752.7999999970198,,rt_thecrossant_black3,943319,,,,black_plus_sign,,,50,,,,1,,,,,,,1,
null,,color_black3,943429,,,,black_plus_sign,,,null,,,,,,,,,,,,
null,,learn_phase(without_color)3,946935,,,,black_plus_sign,,,null,,object_13b.png,object_02a.png,,,,,,,,,
null,,black_cross(without_color)3,947823,,,,blue,,,null,,object_13b.png,object_02a.png,,,,,,,,,
null,,rt_plussign_withcolor3,948341,,,,blue,,,null,,object_13b.png,object_02a.png,,,,,,,,,
823.7999999970198,,rt_thecrossant_black3,949489,,,,black_plus_sign,,,49,,,,1,,,,,,,1,
null,,color_black3,949606,,,,black_plus_sign,,,null,,,,,,,,,,,,
null,,learn_phase(without_color)3,953120,,,,black_plus_sign,,,null,,object_14c.png,object_12b.png,,,,,,,,,
null,,black_cross(without_color)3,954083,,,,blue,,,null,,object_14c.png,object_12b.png,,,,,,,,,
null,,rt_plussign_withcolor3,954589,,,,blue,,,null,,object_14c.png,object_12b.png,,,,,,,,,
1191.1000000014901,,rt_thecrossant_black3,955651,,,,black_plus_sign,,,50,,,,0,,,,,,,0.9230769230769231,
null,,color_black3,955762,,,,black_plus_sign,,,null,,,,,,,,,,,,
null,,learn_phase(without_color)3,959276,,,,black_plus_sign,,,null,,object_03a.png,object_13c.png,,,,,,,,,
null,,black_cross(without_color)3,959867,,,,green,,,null,,object_03a.png,object_13c.png,,,,,,,,,
null,,rt_plussign_withcolor3,960373,,,,green,,,null,,object_03a.png,object_13c.png,,,,,,,,,
1459.5,,rt_thecrossant_black3,961811,,,,black_plus_sign,,,50,,,,1,,,,,,,0.9285714285714286,
null,,color_black3,961921,,,,black_plus_sign,,,null,,,,,,,,,,,,
null,,learn_phase(without_color)3,965437,,,,black_plus_sign,,,null,,object_03b.png,object_02b.png,,,,,,,,,
null,,black_cross(without_color)3,966136,,,,green,,,null,,object_03b.png,object_02b.png,,,,,,,,,
null,,rt_plussign_withcolor3,966650,,,,green,,,null,,object_03b.png,object_02b.png,,,,,,,,,
861.6999999955297,,rt_thecrossant_black3,967973,,,,black_plus_sign,,,50,,,,1,,,,,,,0.9333333333333333,
null,,color_black3,968083,,,,black_plus_sign,,,null,,,,,,,,,,,,
null,,thebreak,968191,,,,<p></p>,,,null,,,,,,,,,,,,
1529.8000000044703,,intro_0,969728,,,,instruct,,,32,,,,,,,,,,,,
9436.59999999404,,directmemory_phase3,979171,,,,object_04c.png,,,49,,,,1,,object_15b.png,object_13b.png,object_02c.png,object_15b.png,,0.6774193548387096,1
2342.0999999940395,,directmemory_phase3,981531,,,,object_03a.png,,,51,,,,1,,object_14c.png,object_02c.png,object_13c.png,object_13c.png,,0.6875,1
5207.60000000149,,directmemory_phase3,986755,,,,object_01c.png,,,51,,,,1,,object_08b.png,object_02b.png,object_01b.png,object_01b.png,,0.696969696969697,1
2480.5,,directmemory_phase3,989252,,,,object_12b.png,,,51,,,,1,,object_04a.png,object_01c.png,object_14c.png,object_14c.png,,0.7058823529411765,1
2800.89999999851,,directmemory_phase3,992070,,,,object_09c.png,,,50,,,,1,,object_02c.png,object_13a.png,object_15b.png,object_13a.png,,0.7142857142857143,1
2578.1999999955297,,directmemory_phase3,994665,,,,object_08a.png,,,50,,,,1,,object_12b.png,object_07c.png,object_08b.png,object_07c.png,,0.7222222222222222,1
2526.7000000029802,,directmemory_phase3,997210,,,,object_02c.png,,,51,,,,1,,object_10a.png,object_03a.png,object_08b.png,object_08b.png,,0.7297297297297297,1
1859.3999999985099,,directmemory_phase3,999087,,,,object_06a.png,,,50,,,,1,,object_01c.png,object_04b.png,object_13b.png,object_04b.png,,0.7368421052631579,1
7059.39999999851,,directmemory_phase3,1006163,,,,object_11c.png,,,51,,,,1,,object_10a.png,object_12b.png,object_04a.png,object_04a.png,,0.7435897435897436,1
5211.70000000298,,directmemory_phase3,1011391,,,,object_14b.png,,,50,,,,1,,object_03c.png,object_15c.png,object_15b.png,object_15c.png,,0.75,1
2974.7000000029802,,directmemory_phase3,1014383,,,,object_02b.png,,,50,,,,1,,object_12b.png,object_03b.png,object_10a.png,object_03b.png,,0.7560975609756098,1
14406.69999999553,,directmemory_phase3,1028805,,,,object_02a.png,,,50,,,,1,,object_04c.png,object_13b.png,object_14c.png,object_13b.png,,0.7619047619047619,1
6325.69999999553,,directmemory_phase3,1035147,,,,object_14a.png,,,51,,,,1,,object_04a.png,object_02a.png,object_11b.png,object_11b.png,,0.7674418604651163,1
2993.4000000059605,,directmemory_phase3,1038157,,,,object_03c.png,,,50,,,,1,,object_06a.png,object_10a.png,object_13a.png,object_10a.png,,0.7727272727272727,1
9685,,directmemory_phase3,1047858,,,,object_10b.png,,,50,,,,1,,object_14a.png,object_05c.png,object_15b.png,object_05c.png,,0.7777777777777778,1
null,,thebreak,1047972,,,,<p></p>,,,null,,,,,,,,,,,,
6125.5,,intro_0,1054106,,,,instruct,,,32,,,,,,,,,,,,
null,,learn_phase(without_color)4,1057625,,,,black_plus_sign,,,null,,object_08a.png,object_07c.png,,,,,,,,,
null,,black_cross(without_color)4,1058147,,,,green,,,null,,object_08a.png,object_07c.png,,,,,,,,,
null,,rt_plussign_withcolor4,1058654,,,,green,,,null,,object_08a.png,object_07c.png,,,,,,,,,
650.8000000044703,,rt_thecrossant_black4,1060149,,,,black_plus_sign,,,50,,,,1,,,,,,,1,
null,,color_black4,1060259,,,,black_plus_sign,,,null,,,,,,,,,,,,
null,,learn_phase(without_color)4,1063775,,,,black_plus_sign,,,null,,object_04a.png,object_11c.png,,,,,,,,,
null,,black_cross(without_color)4,1064874,,,,green,,,null,,object_04a.png,object_11c.png,,,,,,,,,
null,,rt_plussign_withcolor4,1065381,,,,green,,,null,,object_04a.png,object_11c.png,,,,,,,,,
762,,rt_thecrossant_black4,1066303,,,,black_plus_sign,,,50,,,,1,,,,,,,1,
null,,color_black4,1066436,,,,black_plus_sign,,,null,,,,,,,,,,,,
null,,learn_phase(without_color)4,1069951,,,,black_plus_sign,,,null,,object_04b.png,object_06a.png,,,,,,,,,
null,,black_cross(without_color)4,1070971,,,,blue,,,null,,object_04b.png,object_06a.png,,,,,,,,,
null,,rt_plussign_withcolor4,1071481,,,,blue,,,null,,object_04b.png,object_06a.png,,,,,,,,,
1555.0999999940395,,rt_thecrossant_black4,1072484,,,,black_plus_sign,,,49,,,,1,,,,,,,1,
null,,color_black4,1072593,,,,black_plus_sign,,,null,,,,,,,,,,,,
null,,learn_phase(without_color)4,1076104,,,,black_plus_sign,,,null,,object_13c.png,object_03a.png,,,,,,,,,
null,,black_cross(without_color)4,1076868,,,,green,,,null,,object_13c.png,object_03a.png,,,,,,,,,
null,,rt_plussign_withcolor4,1077376,,,,green,,,null,,object_13c.png,object_03a.png,,,,,,,,,
1223.7999999970198,,rt_thecrossant_black4,1078634,,,,black_plus_sign,,,50,,,,1,,,,,,,1,
null,,color_black4,1078746,,,,black_plus_sign,,,null,,,,,,,,,,,,
null,,learn_phase(without_color)4,1082261,,,,black_plus_sign,,,null,,object_04c.png,object_15b.png,,,,,,,,,
null,,black_cross(without_color)4,1082835,,,,blue,,,null,,object_04c.png,object_15b.png,,,,,,,,,
null,,rt_plussign_withcolor4,1083340,,,,blue,,,null,,object_04c.png,object_15b.png,,,,,,,,,
1291.4000000059605,,rt_thecrossant_black4,1084793,,,,black_plus_sign,,,49,,,,1,,,,,,,1,
null,,color_black4,1084903,,,,black_plus_sign,,,null,,,,,,,,,,,,
null,,learn_phase(without_color)4,1088415,,,,black_plus_sign,,,null,,object_03b.png,object_02b.png,,,,,,,,,
null,,black_cross(without_color)4,1088888,,,,green,,,null,,object_03b.png,object_02b.png,,,,,,,,,
null,,rt_plussign_withcolor4,1089394,,,,green,,,null,,object_03b.png,object_02b.png,,,,,,,,,
909.6000000014901,,rt_thecrossant_black4,1090959,,,,black_plus_sign,,,50,,,,1,,,,,,,1,
null,,color_black4,1091065,,,,black_plus_sign,,,null,,,,,,,,,,,,
null,,learn_phase(without_color)4,1094580,,,,black_plus_sign,,,null,,object_02a.png,object_13b.png,,,,,,,,,
null,,black_cross(without_color)4,1095398,,,,blue,,,null,,object_02a.png,object_13b.png,,,,,,,,,
null,,rt_plussign_withcolor4,1095906,,,,blue,,,null,,object_02a.png,object_13b.png,,,,,,,,,
1018.3999999985099,,rt_thecrossant_black4,1097118,,,,black_plus_sign,,,49,,,,1,,,,,,,1,
null,,color_black4,1097227,,,,black_plus_sign,,,null,,,,,,,,,,,,
null,,learn_phase(without_color)4,1100743,,,,black_plus_sign,,,null,,object_11b.png,object_14a.png,,,,,,,,,
null,,black_cross(without_color)4,1101562,,,,blue,,,null,,object_11b.png,object_14a.png,,,,,,,,,
null,,rt_plussign_withcolor4,1102067,,,,blue,,,null,,object_11b.png,object_14a.png,,,,,,,,,
1046.3000000044703,,rt_thecrossant_black4,1103266,,,,black_plus_sign,,,49,,,,1,,,,,,,1,
null,,color_black4,1103377,,,,black_plus_sign,,,null,,,,,,,,,,,,
null,,learn_phase(without_color)4,1106892,,,,black_plus_sign,,,null,,object_14b.png,object_15c.png,,,,,,,,,
null,,black_cross(without_color)4,1107394,,,,green,,,null,,object_14b.png,object_15c.png,,,,,,,,,
null,,rt_plussign_withcolor4,1107905,,,,green,,,null,,object_14b.png,object_15c.png,,,,,,,,,
1948.2999999970198,,rt_thecrossant_black4,1109424,,,,black_plus_sign,,,50,,,,1,,,,,,,1,
null,,color_black4,1109533,,,,black_plus_sign,,,null,,,,,,,,,,,,
null,,learn_phase(without_color)4,1113048,,,,black_plus_sign,,,null,,object_08b.png,object_02c.png,,,,,,,,,
null,,black_cross(without_color)4,1113646,,,,blue,,,null,,object_08b.png,object_02c.png,,,,,,,,,
null,,rt_plussign_withcolor4,1114166,,,,blue,,,null,,object_08b.png,object_02c.png,,,,,,,,,
674.6000000014901,,rt_thecrossant_black4,1115602,,,,black_plus_sign,,,49,,,,1,,,,,,,1,
null,,color_black4,1115714,,,,black_plus_sign,,,null,,,,,,,,,,,,
null,,learn_phase(without_color)4,1119228,,,,black_plus_sign,,,null,,object_10a.png,object_03c.png,,,,,,,,,
null,,black_cross(without_color)4,1120272,,,,blue,,,null,,object_10a.png,object_03c.png,,,,,,,,,
null,,rt_plussign_withcolor4,1120779,,,,blue,,,null,,object_10a.png,object_03c.png,,,,,,,,,
879,,rt_thecrossant_black4,1121752,,,,black_plus_sign,,,49,,,,1,,,,,,,1,
null,,color_black4,1121862,,,,black_plus_sign,,,null,,,,,,,,,,,,
null,,learn_phase(without_color)4,1125378,,,,black_plus_sign,,,null,,object_01c.png,object_01b.png,,,,,,,,,
null,,black_cross(without_color)4,1126055,,,,blue,,,null,,object_01c.png,object_01b.png,,,,,,,,,
null,,rt_plussign_withcolor4,1126563,,,,blue,,,null,,object_01c.png,object_01b.png,,,,,,,,,
1337.5,,rt_thecrossant_black4,1127907,,,,black_plus_sign,,,49,,,,1,,,,,,,1,
null,,color_black4,1128016,,,,black_plus_sign,,,null,,,,,,,,,,,,
null,,learn_phase(without_color)4,1131532,,,,black_plus_sign,,,null,,object_13a.png,object_09c.png,,,,,,,,,
null,,black_cross(without_color)4,1132533,,,,green,,,null,,object_13a.png,object_09c.png,,,,,,,,,
null,,rt_plussign_withcolor4,1133042,,,,green,,,null,,object_13a.png,object_09c.png,,,,,,,,,
963.0999999940395,,rt_thecrossant_black4,1134063,,,,black_plus_sign,,,50,,,,1,,,,,,,1,
null,,color_black4,1134188,,,,black_plus_sign,,,null,,,,,,,,,,,,
null,,learn_phase(without_color)4,1137703,,,,black_plus_sign,,,null,,object_10b.png,object_05c.png,,,,,,,,,
null,,black_cross(without_color)4,1138453,,,,green,,,null,,object_10b.png,object_05c.png,,,,,,,,,
null,,rt_plussign_withcolor4,1138960,,,,green,,,null,,object_10b.png,object_05c.png,,,,,,,,,
1310.7000000029802,,rt_thecrossant_black4,1140232,,,,black_plus_sign,,,50,,,,1,,,,,,,1,
null,,color_black4,1140344,,,,black_plus_sign,,,null,,,,,,,,,,,,
null,,learn_phase(without_color)4,1143861,,,,black_plus_sign,,,null,,object_12b.png,object_14c.png,,,,,,,,,
null,,black_cross(without_color)4,1144966,,,,blue,,,null,,object_12b.png,object_14c.png,,,,,,,,,
498,,rt_plussign_withcolor4,1145470,,,,blue,,,49,,object_12b.png,object_14c.png,,,,,,,,,
null,,rt_thecrossant_black4,1146378,,,,black_plus_sign,,,null,,,,1,,,,,,,1,
null,,color_black4,1146487,,,,black_plus_sign,,,null,,,,,,,,,,,,
null,,thebreak,1146595,,,,<p></p>,,,null,,,,,,,,,,,,
1482.7000000029802,,intro_0,1148086,,,,instruct,,,32,,,,,,,,,,,,
8395.20000000298,,directmemory_phase4,1156491,,,,object_09c.png,,,51,,,,1,,object_13c.png,object_12b.png,object_13a.png,object_13a.png,,0.782608695652174,1
6175.4000000059605,,directmemory_phase4,1162685,,,,object_10b.png,,,49,,,,1,,object_05c.png,object_14c.png,object_14a.png,object_05c.png,,0.7872340425531915,1
3804.39999999851,,directmemory_phase4,1166506,,,,object_12b.png,,,49,,,,1,,object_14c.png,object_05c.png,object_02a.png,object_14c.png,,0.7916666666666666,1
2907.7000000029802,,directmemory_phase4,1169431,,,,object_02c.png,,,49,,,,1,,object_08b.png,object_13a.png,object_11c.png,object_08b.png,,0.7959183673469388,1
6496.70000000298,,directmemory_phase4,1175945,,,,object_14b.png,,,50,,,,1,,object_03a.png,object_15c.png,object_01b.png,object_15c.png,,0.8,1
3933.3000000044703,,directmemory_phase4,1179897,,,,object_03a.png,,,49,,,,1,,object_13c.png,object_11b.png,object_10b.png,object_13c.png,,0.803921568627451,1
3498.5,,directmemory_phase4,1183413,,,,object_14a.png,,,51,,,,1,,object_08b.png,object_14b.png,object_11b.png,object_11b.png,,0.8076923076923077,1
3470.7000000029802,,directmemory_phase4,1186899,,,,object_04c.png,,,51,,,,1,,object_04b.png,object_01c.png,object_15b.png,object_15b.png,,0.8113207547169812,1
2503.60000000149,,directmemory_phase4,1189410,,,,object_06a.png,,,51,,,,1,,object_04a.png,object_14b.png,object_04b.png,object_04b.png,,0.8148148148148148,1
2214.5,,directmemory_phase4,1191642,,,,object_02a.png,,,50,,,,1,,object_14b.png,object_13b.png,object_10a.png,object_13b.png,,0.8181818181818182,1
1649.7000000029802,,directmemory_phase4,1193309,,,,object_08a.png,,,49,,,,1,,object_07c.png,object_11b.png,object_04c.png,object_07c.png,,0.8214285714285714,1
2007.6999999955297,,directmemory_phase4,1195334,,,,object_01c.png,,,51,,,,1,,object_04a.png,object_11c.png,object_01b.png,object_01b.png,,0.8245614035087719,1
2078.5,,directmemory_phase4,1197430,,,,object_11c.png,,,51,,,,1,,object_15c.png,object_14a.png,object_04a.png,object_04a.png,,0.8275862068965517,1
4164.89999999851,,directmemory_phase4,1201613,,,,object_02b.png,,,50,,,,1,,object_14a.png,object_03b.png,object_01b.png,object_03b.png,,0.8305084745762712,1
3363.39999999851,,directmemory_phase4,1204992,,,,object_03c.png,,,51,,,,1,,object_15b.png,object_02a.png,object_10a.png,object_10a.png,,0.8333333333333334,1
null,,thebreak,1205105,,,,<p></p>,,,null,,,,,,,,,,,,
8130.4000000059605,,intro_0,1213244,,,,instruct,,,32,,,,,,,,,,,,
null,,learn_phase(without_color)5,1216763,,,,black_plus_sign,,,null,,object_15b.png,object_07a.png,,,,,,,,,
null,,black_cross(without_color)5,1217871,,,,green,,,null,,object_15b.png,object_07a.png,,,,,,,,,
null,,rt_plussign_withcolor5,1218380,,,,green,,,null,,object_15b.png,object_07a.png,,,,,,,,,
1402.2999999970198,,rt_thecrossant_black5,1219294,,,,black_plus_sign,,,50,,,,1,,,,,,,1,
null,,color_black5,1219404,,,,black_plus_sign,,,null,,,,,,,,,,,,
null,,learn_phase(without_color)5,1222919,,,,black_plus_sign,,,null,,object_14c.png,object_05b.png,,,,,,,,,
null,,black_cross(without_color)5,1223834,,,,green,,,null,,object_14c.png,object_05b.png,,,,,,,,,
null,,rt_plussign_withcolor5,1224342,,,,green,,,null,,object_14c.png,object_05b.png,,,,,,,,,
1581.1000000014901,,rt_thecrossant_black5,1225451,,,,black_plus_sign,,,50,,,,1,,,,,,,1,
null,,color_black5,1225561,,,,black_plus_sign,,,null,,,,,,,,,,,,
null,,learn_phase(without_color)5,1229077,,,,black_plus_sign,,,null,,object_15a.png,object_08b.png,,,,,,,,,
null,,black_cross(without_color)5,1230077,,,,blue,,,null,,object_15a.png,object_08b.png,,,,,,,,,
null,,rt_plussign_withcolor5,1230584,,,,blue,,,null,,object_15a.png,object_08b.png,,,,,,,,,
1166.2999999970198,,rt_thecrossant_black5,1231607,,,,black_plus_sign,,,49,,,,1,,,,,,,1,
null,,color_black5,1231717,,,,black_plus_sign,,,null,,,,,,,,,,,,
null,,learn_phase(without_color)5,1235234,,,,black_plus_sign,,,null,,object_07b.png,object_13b.png,,,,,,,,,
null,,black_cross(without_color)5,1235723,,,,green,,,null,,object_07b.png,object_13b.png,,,,,,,,,
null,,rt_plussign_withcolor5,1236230,,,,green,,,null,,object_07b.png,object_13b.png,,,,,,,,,
1209.8999999985099,,rt_thecrossant_black5,1237763,,,,black_plus_sign,,,50,,,,1,,,,,,,1,
null,,color_black5,1237875,,,,black_plus_sign,,,null,,,,,,,,,,,,
null,,learn_phase(without_color)5,1241397,,,,black_plus_sign,,,null,,object_11a.png,object_13c.png,,,,,,,,,
null,,black_cross(without_color)5,1242096,,,,green,,,null,,object_11a.png,object_13c.png,,,,,,,,,
null,,rt_plussign_withcolor5,1242604,,,,green,,,null,,object_11a.png,object_13c.png,,,,,,,,,
714.1000000014901,,rt_thecrossant_black5,1243937,,,,black_plus_sign,,,50,,,,1,,,,,,,1,
null,,color_black5,1244049,,,,black_plus_sign,,,null,,,,,,,,,,,,
null,,learn_phase(without_color)5,1247562,,,,black_plus_sign,,,null,,object_13a.png,object_06c.png,,,,,,,,,
null,,black_cross(without_color)5,1248590,,,,blue,,,null,,object_13a.png,object_06c.png,,,,,,,,,
null,,rt_plussign_withcolor5,1249098,,,,blue,,,null,,object_13a.png,object_06c.png,,,,,,,,,
1107,,rt_thecrossant_black5,1250090,,,,black_plus_sign,,,49,,,,1,,,,,,,1,
null,,color_black5,1250200,,,,black_plus_sign,,,null,,,,,,,,,,,,
null,,learn_phase(without_color)5,1253716,,,,black_plus_sign,,,null,,object_01b.png,object_08c.png,,,,,,,,,
null,,black_cross(without_color)5,1254588,,,,blue,,,null,,object_01b.png,object_08c.png,,,,,,,,,
null,,rt_plussign_withcolor5,1255096,,,,blue,,,null,,object_01b.png,object_08c.png,,,,,,,,,
1489.3000000044703,,rt_thecrossant_black5,1256245,,,,black_plus_sign,,,49,,,,1,,,,,,,1,
null,,color_black5,1256355,,,,black_plus_sign,,,null,,,,,,,,,,,,
null,,learn_phase(without_color)5,1259871,,,,black_plus_sign,,,null,,object_03b.png,object_09b.png,,,,,,,,,
null,,black_cross(without_color)5,1260700,,,,blue,,,null,,object_03b.png,object_09b.png,,,,,,,,,
null,,rt_plussign_withcolor5,1261208,,,,blue,,,null,,object_03b.png,object_09b.png,,,,,,,,,
1328.7999999970198,,rt_thecrossant_black5,1262402,,,,black_plus_sign,,,49,,,,1,,,,,,,1,
null,,color_black5,1262515,,,,black_plus_sign,,,null,,,,,,,,,,,,
null,,learn_phase(without_color)5,1266031,,,,black_plus_sign,,,null,,object_07c.png,object_10c.png,,,,,,,,,
null,,black_cross(without_color)5,1266807,,,,green,,,null,,object_07c.png,object_10c.png,,,,,,,,,
null,,rt_plussign_withcolor5,1267315,,,,green,,,null,,object_07c.png,object_10c.png,,,,,,,,,
919.8999999985099,,rt_thecrossant_black5,1268564,,,,black_plus_sign,,,50,,,,1,,,,,,,1,
null,,color_black5,1268673,,,,black_plus_sign,,,null,,,,,,,,,,,,
null,,learn_phase(without_color)5,1272183,,,,black_plus_sign,,,null,,object_05a.png,object_04a.png,,,,,,,,,
null,,black_cross(without_color)5,1272986,,,,blue,,,null,,object_05a.png,object_04a.png,,,,,,,,,
null,,rt_plussign_withcolor5,1273493,,,,blue,,,null,,object_05a.png,object_04a.png,,,,,,,,,
1256.3000000044703,,rt_thecrossant_black5,1274714,,,,black_plus_sign,,,49,,,,1,,,,,,,1,
null,,color_black5,1274825,,,,black_plus_sign,,,null,,,,,,,,,,,,
null,,learn_phase(without_color)5,1278342,,,,black_plus_sign,,,null,,object_15c.png,object_12a.png,,,,,,,,,
null,,black_cross(without_color)5,1279077,,,,green,,,null,,object_15c.png,object_12a.png,,,,,,,,,
null,,rt_plussign_withcolor5,1279597,,,,green,,,null,,object_15c.png,object_12a.png,,,,,,,,,
1523.5,,rt_thecrossant_black5,1280880,,,,black_plus_sign,,,50,,,,1,,,,,,,1,
null,,color_black5,1280992,,,,black_plus_sign,,,null,,,,,,,,,,,,
null,,learn_phase(without_color)5,1284506,,,,black_plus_sign,,,null,,object_06b.png,object_10a.png,,,,,,,,,
null,,black_cross(without_color)5,1285321,,,,green,,,null,,object_06b.png,object_10a.png,,,,,,,,,
null,,rt_plussign_withcolor5,1285826,,,,green,,,null,,object_06b.png,object_10a.png,,,,,,,,,
1025.2000000029802,,rt_thecrossant_black5,1287032,,,,black_plus_sign,,,50,,,,1,,,,,,,1,
null,,color_black5,1287142,,,,black_plus_sign,,,null,,,,,,,,,,,,
null,,learn_phase(without_color)5,1290659,,,,black_plus_sign,,,null,,object_09a.png,object_11b.png,,,,,,,,,
null,,black_cross(without_color)5,1291139,,,,green,,,null,,object_09a.png,object_11b.png,,,,,,,,,
null,,rt_plussign_withcolor5,1291648,,,,green,,,null,,object_09a.png,object_11b.png,,,,,,,,,
1449,,rt_thecrossant_black5,1293189,,,,black_plus_sign,,,50,,,,1,,,,,,,1,
null,,color_black5,1293301,,,,black_plus_sign,,,null,,,,,,,,,,,,
null,,learn_phase(without_color)5,1296817,,,,black_plus_sign,,,null,,object_12c.png,object_05c.png,,,,,,,,,
null,,black_cross(without_color)5,1297531,,,,blue,,,null,,object_12c.png,object_05c.png,,,,,,,,,
null,,rt_plussign_withcolor5,1298038,,,,blue,,,null,,object_12c.png,object_05c.png,,,,,,,,,
783.6000000014901,,rt_thecrossant_black5,1299343,,,,black_plus_sign,,,49,,,,1,,,,,,,1,
null,,color_black5,1299453,,,,black_plus_sign,,,null,,,,,,,,,,,,
null,,learn_phase(without_color)5,1302968,,,,black_plus_sign,,,null,,object_04b.png,object_01a.png,,,,,,,,,
null,,black_cross(without_color)5,1303982,,,,green,,,null,,object_04b.png,object_01a.png,,,,,,,,,
null,,rt_plussign_withcolor5,1304488,,,,green,,,null,,object_04b.png,object_01a.png,,,,,,,,,
1170.7000000029802,,rt_thecrossant_black5,1305496,,,,black_plus_sign,,,50,,,,1,,,,,,,1,
null,,color_black5,1305605,,,,black_plus_sign,,,null,,,,,,,,,,,,
null,,thebreak,1305721,,,,<p></p>,,,null,,,,,,,,,,,,
5641.89999999851,,intro_0,1311373,,,,instruct,,,32,,,,,,,,,,,,
4305.89999999851,,directmemory_phase5,1315690,,,,object_05a.png,,,51,,,,0,,object_04a.png,object_13c.png,object_07b.png,object_04a.png,,0.819672131147541,0
2037.1000000014901,,directmemory_phase5,1317745,,,,object_10a.png,,,50,,,,1,,object_05c.png,object_06b.png,object_07b.png,object_06b.png,,0.8225806451612904,1
7195.5,,directmemory_phase5,1324960,,,,object_08b.png,,,51,,,,1,,object_11a.png,object_14c.png,object_15a.png,object_15a.png,,0.8253968253968254,1
4026.10000000149,,directmemory_phase5,1329003,,,,object_11a.png,,,49,,,,0,,object_12c.png,object_13c.png,object_01b.png,object_13c.png,,0.8125,0
6716.10000000149,,directmemory_phase5,1335737,,,,object_13b.png,,,49,,,,1,,object_07b.png,object_06c.png,object_13a.png,object_07b.png,,0.8153846153846154,1
12691.79999999702,,directmemory_phase5,1348447,,,,object_11b.png,,,51,,,,0,,object_09a.png,object_15a.png,object_04b.png,object_09a.png,,0.803030303030303,0
4015,,directmemory_phase5,1352481,,,,object_05b.png,,,51,,,,0,,object_06c.png,object_14c.png,object_03b.png,object_14c.png,,0.7910447761194029,0
2848.5,,directmemory_phase5,1355348,,,,object_07c.png,,,49,,,,1,,object_10c.png,object_05a.png,object_10a.png,object_10c.png,,0.7941176470588235,1
3517.5,,directmemory_phase5,1358878,,,,object_06c.png,,,49,,,,0,,object_12c.png,object_13a.png,object_01b.png,object_13a.png,,0.782608695652174,0
6491.10000000149,,directmemory_phase5,1365386,,,,object_05c.png,,,50,,,,1,,object_15c.png,object_12c.png,object_11a.png,object_12c.png,,0.7857142857142857,1
1935.2999999970198,,directmemory_phase5,1367339,,,,object_01a.png,,,51,,,,1,,object_04a.png,object_09b.png,object_04b.png,object_04b.png,,0.7887323943661971,1
8075.39999999851,,directmemory_phase5,1375426,,,,object_03b.png,,,50,,,,1,,object_05c.png,object_09b.png,object_06c.png,object_09b.png,,0.7916666666666666,1
3777.2000000029802,,directmemory_phase5,1379222,,,,object_15c.png,,,49,,,,1,,object_12a.png,object_07b.png,object_13b.png,object_12a.png,,0.7945205479452054,1
5355.69999999553,,directmemory_phase5,1384596,,,,object_01b.png,,,51,,,,1,,object_07b.png,object_15c.png,object_08c.png,object_08c.png,,0.7972972972972973,1
4032,,directmemory_phase5,1388646,,,,object_15b.png,,,50,,,,1,,object_10a.png,object_07a.png,object_12c.png,object_07a.png,,0.8,1
null,,thebreak,1388761,,,,<p></p>,,,null,,,,,,,,,,,,
8252.70000000298,,intro_0,1397022,,,,instruct,,,32,,,,,,,,,,,,
null,,learn_phase(without_color)6,1400528,,,,black_plus_sign,,,null,,object_05a.png,object_04a.png,,,,,,,,,
null,,black_cross(without_color)6,1401339,,,,green,,,null,,object_05a.png,object_04a.png,,,,,,,,,
null,,rt_plussign_withcolor6,1401847,,,,green,,,null,,object_05a.png,object_04a.png,,,,,,,,,
1306.5,,rt_thecrossant_black6,1403057,,,,black_plus_sign,,,50,,,,1,,,,,,,1,
null,,color_black6,1403168,,,,black_plus_sign,,,null,,,,,,,,,,,,
null,,learn_phase(without_color)6,1406685,,,,black_plus_sign,,,null,,object_09a.png,object_11b.png,,,,,,,,,
null,,black_cross(without_color)6,1407363,,,,blue,,,null,,object_09a.png,object_11b.png,,,,,,,,,
null,,rt_plussign_withcolor6,1407882,,,,blue,,,null,,object_09a.png,object_11b.png,,,,,,,,,
1282.6999999955297,,rt_thecrossant_black6,1409227,,,,black_plus_sign,,,49,,,,1,,,,,,,1,
null,,color_black6,1409336,,,,black_plus_sign,,,null,,,,,,,,,,,,
null,,learn_phase(without_color)6,1412860,,,,black_plus_sign,,,null,,object_07b.png,object_13b.png,,,,,,,,,
null,,black_cross(without_color)6,1413297,,,,blue,,,null,,object_07b.png,object_13b.png,,,,,,,,,
null,,rt_plussign_withcolor6,1413806,,,,blue,,,null,,object_07b.png,object_13b.png,,,,,,,,,
824.1000000014901,,rt_thecrossant_black6,1415395,,,,black_plus_sign,,,49,,,,1,,,,,,,1,
null,,color_black6,1415507,,,,black_plus_sign,,,null,,,,,,,,,,,,
null,,learn_phase(without_color)6,1419042,,,,black_plus_sign,,,null,,object_13c.png,object_11a.png,,,,,,,,,
null,,black_cross(without_color)6,1419861,,,,green,,,null,,object_13c.png,object_11a.png,,,,,,,,,
null,,rt_plussign_withcolor6,1420373,,,,green,,,null,,object_13c.png,object_11a.png,,,,,,,,,
598.1000000014901,,rt_thecrossant_black6,1421576,,,,black_plus_sign,,,50,,,,1,,,,,,,1,
null,,color_black6,1421689,,,,black_plus_sign,,,null,,,,,,,,,,,,
null,,learn_phase(without_color)6,1425205,,,,black_plus_sign,,,null,,object_05b.png,object_14c.png,,,,,,,,,
null,,black_cross(without_color)6,1426242,,,,green,,,null,,object_05b.png,object_14c.png,,,,,,,,,
null,,rt_plussign_withcolor6,1426751,,,,green,,,null,,object_05b.png,object_14c.png,,,,,,,,,
1412.6999999955297,,rt_thecrossant_black6,1427735,,,,black_plus_sign,,,50,,,,1,,,,,,,1,
null,,color_black6,1427845,,,,black_plus_sign,,,null,,,,,,,,,,,,
null,,learn_phase(without_color)6,1431362,,,,black_plus_sign,,,null,,object_15a.png,object_08b.png,,,,,,,,,
null,,black_cross(without_color)6,1432399,,,,green,,,null,,object_15a.png,object_08b.png,,,,,,,,,
null,,rt_plussign_withcolor6,1432907,,,,green,,,null,,object_15a.png,object_08b.png,,,,,,,,,
1283,,rt_thecrossant_black6,1433907,,,,black_plus_sign,,,50,,,,1,,,,,,,1,
null,,color_black6,1434018,,,,black_plus_sign,,,null,,,,,,,,,,,,
null,,learn_phase(without_color)6,1437531,,,,black_plus_sign,,,null,,object_12c.png,object_05c.png,,,,,,,,,
null,,black_cross(without_color)6,1438466,,,,blue,,,null,,object_12c.png,object_05c.png,,,,,,,,,
null,,rt_plussign_withcolor6,1438973,,,,blue,,,null,,object_12c.png,object_05c.png,,,,,,,,,
1319.6999999955297,,rt_thecrossant_black6,1440057,,,,black_plus_sign,,,49,,,,1,,,,,,,1,
null,,color_black6,1440169,,,,black_plus_sign,,,null,,,,,,,,,,,,
null,,learn_phase(without_color)6,1443687,,,,black_plus_sign,,,null,,object_10c.png,object_07c.png,,,,,,,,,
null,,black_cross(without_color)6,1444101,,,,blue,,,null,,object_10c.png,object_07c.png,,,,,,,,,
null,,rt_plussign_withcolor6,1444608,,,,blue,,,null,,object_10c.png,object_07c.png,,,,,,,,,
1612.3999999985099,,rt_thecrossant_black6,1446217,,,,black_plus_sign,,,49,,,,1,,,,,,,1,
null,,color_black6,1446327,,,,black_plus_sign,,,null,,,,,,,,,,,,
null,,learn_phase(without_color)6,1449839,,,,black_plus_sign,,,null,,object_12a.png,object_15c.png,,,,,,,,,
null,,black_cross(without_color)6,1450567,,,,green,,,null,,object_12a.png,object_15c.png,,,,,,,,,
null,,rt_plussign_withcolor6,1451075,,,,green,,,null,,object_12a.png,object_15c.png,,,,,,,,,
709,,rt_thecrossant_black6,1452391,,,,black_plus_sign,,,50,,,,1,,,,,,,1,
null,,color_black6,1452501,,,,black_plus_sign,,,null,,,,,,,,,,,,
null,,learn_phase(without_color)6,1456019,,,,black_plus_sign,,,null,,object_15b.png,object_07a.png,,,,,,,,,
null,,black_cross(without_color)6,1456675,,,,green,,,null,,object_15b.png,object_07a.png,,,,,,,,,
null,,rt_plussign_withcolor6,1457183,,,,green,,,null,,object_15b.png,object_07a.png,,,,,,,,,
1464.5,,rt_thecrossant_black6,1458547,,,,black_plus_sign,,,50,,,,1,,,,,,,1,
null,,color_black6,1458658,,,,black_plus_sign,,,null,,,,,,,,,,,,
null,,learn_phase(without_color)6,1462174,,,,black_plus_sign,,,null,,object_01a.png,object_04b.png,,,,,,,,,
null,,black_cross(without_color)6,1462599,,,,blue,,,null,,object_01a.png,object_04b.png,,,,,,,,,
null,,rt_plussign_withcolor6,1463107,,,,blue,,,null,,object_01a.png,object_04b.png,,,,,,,,,
971.1999999955297,,rt_thecrossant_black6,1464710,,,,black_plus_sign,,,49,,,,1,,,,,,,1,
null,,color_black6,1464822,,,,black_plus_sign,,,null,,,,,,,,,,,,
null,,learn_phase(without_color)6,1468339,,,,black_plus_sign,,,null,,object_09b.png,object_03b.png,,,,,,,,,
null,,black_cross(without_color)6,1469378,,,,blue,,,null,,object_09b.png,object_03b.png,,,,,,,,,
null,,rt_plussign_withcolor6,1469887,,,,blue,,,null,,object_09b.png,object_03b.png,,,,,,,,,
800.7000000029802,,rt_thecrossant_black6,1470867,,,,black_plus_sign,,,49,,,,1,,,,,,,1,
null,,color_black6,1470978,,,,black_plus_sign,,,null,,,,,,,,,,,,
null,,learn_phase(without_color)6,1474495,,,,black_plus_sign,,,null,,object_01b.png,object_08c.png,,,,,,,,,
null,,black_cross(without_color)6,1475000,,,,green,,,null,,object_01b.png,object_08c.png,,,,,,,,,
null,,rt_plussign_withcolor6,1475508,,,,green,,,null,,object_01b.png,object_08c.png,,,,,,,,,
1231,,rt_thecrossant_black6,1477028,,,,black_plus_sign,,,50,,,,1,,,,,,,1,
null,,color_black6,1477140,,,,black_plus_sign,,,null,,,,,,,,,,,,
null,,learn_phase(without_color)6,1480660,,,,black_plus_sign,,,null,,object_10a.png,object_06b.png,,,,,,,,,
null,,black_cross(without_color)6,1481745,,,,blue,,,null,,object_10a.png,object_06b.png,,,,,,,,,
null,,rt_plussign_withcolor6,1482253,,,,blue,,,null,,object_10a.png,object_06b.png,,,,,,,,,
898.8000000044703,,rt_thecrossant_black6,1483186,,,,black_plus_sign,,,49,,,,1,,,,,,,1,
null,,color_black6,1483297,,,,black_plus_sign,,,null,,,,,,,,,,,,
null,,learn_phase(without_color)6,1486814,,,,black_plus_sign,,,null,,object_13a.png,object_06c.png,,,,,,,,,
null,,black_cross(without_color)6,1487440,,,,green,,,null,,object_13a.png,object_06c.png,,,,,,,,,
null,,rt_plussign_withcolor6,1487950,,,,green,,,null,,object_13a.png,object_06c.png,,,,,,,,,
1577,,rt_thecrossant_black6,1489346,,,,black_plus_sign,,,50,,,,1,,,,,,,1,
null,,color_black6,1489458,,,,black_plus_sign,,,null,,,,,,,,,,,,
null,,thebreak,1489574,,,,<p></p>,,,null,,,,,,,,,,,,
6087.70000000298,,intro_0,1495671,,,,instruct,,,32,,,,,,,,,,,,
2099.7000000029802,,directmemory_phase6,1497781,,,,object_01a.png,,,49,,,,1,,object_04b.png,object_13a.png,object_06c.png,object_04b.png,,0.8026315789473685,1
4522.20000000298,,directmemory_phase6,1502323,,,,object_08b.png,,,49,,,,1,,object_15a.png,object_12a.png,object_04a.png,object_15a.png,,0.8051948051948052,1
2574.5,,directmemory_phase6,1504918,,,,object_13a.png,,,51,,,,1,,object_08c.png,object_04b.png,object_06c.png,object_06c.png,,0.8076923076923077,1
2416.5,,directmemory_phase6,1507351,,,,object_12a.png,,,51,,,,1,,object_04a.png,object_12c.png,object_15c.png,object_15c.png,,0.810126582278481,1
4441.30000000447,,directmemory_phase6,1511800,,,,object_05c.png,,,49,,,,1,,object_12c.png,object_09b.png,object_15b.png,object_12c.png,,0.8125,1
2502.7000000029802,,directmemory_phase6,1514335,,,,object_01b.png,,,49,,,,1,,object_08c.png,object_07b.png,object_14c.png,object_08c.png,,0.8148148148148148,1
2164,,directmemory_phase6,1516518,,,,object_10c.png,,,51,,,,1,,object_05c.png,object_07a.png,object_07c.png,object_07c.png,,0.8170731707317073,1
6723,,directmemory_phase6,1523259,,,,object_13c.png,,,49,,,,1,,object_11a.png,object_12a.png,object_13a.png,object_11a.png,,0.8192771084337349,1
null,,directmemory_phase6,1538278,,,,object_07a.png,,,null,,,,0,,object_05c.png,object_05a.png,object_15b.png,object_15b.png,,0.8095238095238095,0
null,,warning_page,1543295,,,,warning,,,null,,,,,,,,,,,,
6967,,directmemory_phase6,1550343,,,,object_04a.png,,,51,,,,1,,object_15a.png,object_11b.png,object_05a.png,object_05a.png,,0.8117647058823529,1
5369.29999999702,,directmemory_phase6,1555722,,,,object_07b.png,,,50,,,,1,,object_05b.png,object_13b.png,object_14c.png,object_13b.png,,0.813953488372093,1
9993.79999999702,,directmemory_phase6,1565732,,,,object_09a.png,,,49,,,,1,,object_11b.png,object_15b.png,object_07b.png,object_11b.png,,0.8160919540229885,1
2348.89999999851,,directmemory_phase6,1568091,,,,object_10a.png,,,49,,,,1,,object_06b.png,object_05b.png,object_15c.png,object_06b.png,,0.8181818181818182,1
8706.5,,directmemory_phase6,1576816,,,,object_14c.png,,,49,,,,1,,object_05b.png,object_06b.png,object_13c.png,object_05b.png,,0.8202247191011236,1
2620.7000000029802,,directmemory_phase6,1579456,,,,object_03b.png,,,49,,,,1,,object_09b.png,object_15a.png,object_05c.png,object_09b.png,,0.8222222222222222,1
null,,thebreak,1579569,,,,<p></p>,,,null,,,,,,,,,,,,
2166.89999999851,,intro_0,1581742,,,,instruct,,,32,,,,,,,,,,,,
null,,learn_phase(without_color)7,1585250,,,,black_plus_sign,,,null,,object_11a.png,object_13c.png,,,,,,,,,
null,,black_cross(without_color)7,1586042,,,,blue,,,null,,object_11a.png,object_13c.png,,,,,,,,,
null,,rt_plussign_withcolor7,1586563,,,,blue,,,null,,object_11a.png,object_13c.png,,,,,,,,,
1346.3000000044703,,rt_thecrossant_black7,1587793,,,,black_plus_sign,,,49,,,,1,,,,,,,1,
null,,color_black7,1587904,,,,black_plus_sign,,,null,,,,,,,,,,,,
null,,learn_phase(without_color)7,1591421,,,,black_plus_sign,,,null,,object_04a.png,object_05a.png,,,,,,,,,
null,,black_cross(without_color)7,1592149,,,,green,,,null,,object_04a.png,object_05a.png,,,,,,,,,
null,,rt_plussign_withcolor7,1592676,,,,green,,,null,,object_04a.png,object_05a.png,,,,,,,,,
1152.7999999970198,,rt_thecrossant_black7,1593965,,,,black_plus_sign,,,50,,,,1,,,,,,,1,
null,,color_black7,1594076,,,,black_plus_sign,,,null,,,,,,,,,,,,
null,,learn_phase(without_color)7,1597594,,,,black_plus_sign,,,null,,object_12c.png,object_05c.png,,,,,,,,,
null,,black_cross(without_color)7,1598481,,,,blue,,,null,,object_12c.png,object_05c.png,,,,,,,,,
null,,rt_plussign_withcolor7,1598989,,,,blue,,,null,,object_12c.png,object_05c.png,,,,,,,,,
1633.1000000014901,,rt_thecrossant_black7,1600125,,,,black_plus_sign,,,50,,,,0,,,,,,,0.6666666666666666,
null,,color_black7,1600238,,,,black_plus_sign,,,null,,,,,,,,,,,,
null,,learn_phase(without_color)7,1603772,,,,black_plus_sign,,,null,,object_05b.png,object_14c.png,,,,,,,,,
null,,black_cross(without_color)7,1604747,,,,green,,,null,,object_05b.png,object_14c.png,,,,,,,,,
null,,rt_plussign_withcolor7,1605255,,,,green,,,null,,object_05b.png,object_14c.png,,,,,,,,,
1274,,rt_thecrossant_black7,1606308,,,,black_plus_sign,,,50,,,,1,,,,,,,0.75,
null,,color_black7,1606419,,,,black_plus_sign,,,null,,,,,,,,,,,,
null,,learn_phase(without_color)7,1609934,,,,black_plus_sign,,,null,,object_08b.png,object_15a.png,,,,,,,,,
null,,black_cross(without_color)7,1610352,,,,green,,,null,,object_08b.png,object_15a.png,,,,,,,,,
null,,rt_plussign_withcolor7,1610860,,,,green,,,null,,object_08b.png,object_15a.png,,,,,,,,,
1252.8999999985099,,rt_thecrossant_black7,1612461,,,,black_plus_sign,,,50,,,,1,,,,,,,0.8,
null,,color_black7,1612572,,,,black_plus_sign,,,null,,,,,,,,,,,,
null,,learn_phase(without_color)7,1616090,,,,black_plus_sign,,,null,,object_07a.png,object_15b.png,,,,,,,,,
null,,black_cross(without_color)7,1616857,,,,green,,,null,,object_07a.png,object_15b.png,,,,,,,,,
null,,rt_plussign_withcolor7,1617365,,,,green,,,null,,object_07a.png,object_15b.png,,,,,,,,,
781.1000000014901,,rt_thecrossant_black7,1618622,,,,black_plus_sign,,,50,,,,1,,,,,,,0.8333333333333334,
null,,color_black7,1618733,,,,black_plus_sign,,,null,,,,,,,,,,,,
null,,learn_phase(without_color)7,1622252,,,,black_plus_sign,,,null,,object_09a.png,object_11b.png,,,,,,,,,
null,,black_cross(without_color)7,1623190,,,,blue,,,null,,object_09a.png,object_11b.png,,,,,,,,,
null,,rt_plussign_withcolor7,1623698,,,,blue,,,null,,object_09a.png,object_11b.png,,,,,,,,,
1052.5,,rt_thecrossant_black7,1624784,,,,black_plus_sign,,,49,,,,1,,,,,,,0.8571428571428571,
null,,color_black7,1624892,,,,black_plus_sign,,,null,,,,,,,,,,,,
null,,learn_phase(without_color)7,1628411,,,,black_plus_sign,,,null,,object_03b.png,object_09b.png,,,,,,,,,
null,,black_cross(without_color)7,1629108,,,,blue,,,null,,object_03b.png,object_09b.png,,,,,,,,,
null,,rt_plussign_withcolor7,1629614,,,,blue,,,null,,object_03b.png,object_09b.png,,,,,,,,,
1223.2000000029802,,rt_thecrossant_black7,1630950,,,,black_plus_sign,,,49,,,,1,,,,,,,0.875,
null,,color_black7,1631062,,,,black_plus_sign,,,null,,,,,,,,,,,,
null,,learn_phase(without_color)7,1634579,,,,black_plus_sign,,,null,,object_15c.png,object_12a.png,,,,,,,,,
null,,black_cross(without_color)7,1635301,,,,blue,,,null,,object_15c.png,object_12a.png,,,,,,,,,
null,,rt_plussign_withcolor7,1635810,,,,blue,,,null,,object_15c.png,object_12a.png,,,,,,,,,
1127.7000000029802,,rt_thecrossant_black7,1637110,,,,black_plus_sign,,,49,,,,1,,,,,,,0.8888888888888888,
null,,color_black7,1637219,,,,black_plus_sign,,,null,,,,,,,,,,,,
null,,learn_phase(without_color)7,1640729,,,,black_plus_sign,,,null,,object_07c.png,object_10c.png,,,,,,,,,
null,,black_cross(without_color)7,1641437,,,,blue,,,null,,object_07c.png,object_10c.png,,,,,,,,,
null,,rt_plussign_withcolor7,1641945,,,,blue,,,null,,object_07c.png,object_10c.png,,,,,,,,,
1128.8999999985099,,rt_thecrossant_black7,1643267,,,,black_plus_sign,,,49,,,,1,,,,,,,0.9,
null,,color_black7,1643374,,,,black_plus_sign,,,null,,,,,,,,,,,,
null,,learn_phase(without_color)7,1646893,,,,black_plus_sign,,,null,,object_07b.png,object_13b.png,,,,,,,,,
null,,black_cross(without_color)7,1647968,,,,blue,,,null,,object_07b.png,object_13b.png,,,,,,,,,
null,,rt_plussign_withcolor7,1648492,,,,blue,,,null,,object_07b.png,object_13b.png,,,,,,,,,
986,,rt_thecrossant_black7,1649437,,,,black_plus_sign,,,49,,,,1,,,,,,,0.9090909090909091,
null,,color_black7,1649549,,,,black_plus_sign,,,null,,,,,,,,,,,,
null,,learn_phase(without_color)7,1653065,,,,black_plus_sign,,,null,,object_13a.png,object_06c.png,,,,,,,,,
null,,black_cross(without_color)7,1654065,,,,blue,,,null,,object_13a.png,object_06c.png,,,,,,,,,
null,,rt_plussign_withcolor7,1654574,,,,blue,,,null,,object_13a.png,object_06c.png,,,,,,,,,
1498.1000000014901,,rt_thecrossant_black7,1655628,,,,black_plus_sign,,,49,,,,1,,,,,,,0.9166666666666666,
null,,color_black7,1655741,,,,black_plus_sign,,,null,,,,,,,,,,,,
null,,learn_phase(without_color)7,1659280,,,,black_plus_sign,,,null,,object_04b.png,object_01a.png,,,,,,,,,
null,,black_cross(without_color)7,1659972,,,,blue,,,null,,object_04b.png,object_01a.png,,,,,,,,,
null,,rt_plussign_withcolor7,1660480,,,,blue,,,null,,object_04b.png,object_01a.png,,,,,,,,,
1331.6000000014901,,rt_thecrossant_black7,1661813,,,,black_plus_sign,,,49,,,,1,,,,,,,0.9230769230769231,
null,,color_black7,1661924,,,,black_plus_sign,,,null,,,,,,,,,,,,
null,,learn_phase(without_color)7,1665446,,,,black_plus_sign,,,null,,object_10a.png,object_06b.png,,,,,,,,,
null,,black_cross(without_color)7,1666403,,,,green,,,null,,object_10a.png,object_06b.png,,,,,,,,,
null,,rt_plussign_withcolor7,1666913,,,,green,,,null,,object_10a.png,object_06b.png,,,,,,,,,
1056,,rt_thecrossant_black7,1667974,,,,black_plus_sign,,,50,,,,1,,,,,,,0.9285714285714286,
null,,color_black7,1668085,,,,black_plus_sign,,,null,,,,,,,,,,,,
null,,learn_phase(without_color)7,1671604,,,,black_plus_sign,,,null,,object_01b.png,object_08c.png,,,,,,,,,
null,,black_cross(without_color)7,1672063,,,,green,,,null,,object_01b.png,object_08c.png,,,,,,,,,
null,,rt_plussign_withcolor7,1672570,,,,green,,,null,,object_01b.png,object_08c.png,,,,,,,,,
1189.8000000044703,,rt_thecrossant_black7,1674138,,,,black_plus_sign,,,50,,,,1,,,,,,,0.9333333333333333,
null,,color_black7,1674251,,,,black_plus_sign,,,null,,,,,,,,,,,,
null,,thebreak,1674370,,,,<p></p>,,,null,,,,,,,,,,,,
1483.4000000059605,,intro_0,1675865,,,,instruct,,,32,,,,,,,,,,,,
2657.5,,directmemory_phase7,1678536,,,,object_07a.png,,,50,,,,1,,object_12a.png,object_15b.png,object_13a.png,object_15b.png,,0.8241758241758241,1
2295.2000000029802,,directmemory_phase7,1680851,,,,object_13b.png,,,49,,,,1,,object_07b.png,object_12a.png,object_04b.png,object_07b.png,,0.8260869565217391,1
2137.89999999851,,directmemory_phase7,1683008,,,,object_14c.png,,,50,,,,1,,object_13a.png,object_05b.png,object_07b.png,object_05b.png,,0.8279569892473119,1
1859.7000000029802,,directmemory_phase7,1684887,,,,object_07c.png,,,51,,,,1,,object_12c.png,object_01b.png,object_10c.png,object_10c.png,,0.8297872340425532,1
2212,,directmemory_phase7,1687119,,,,object_12c.png,,,49,,,,1,,object_05c.png,object_15b.png,object_12a.png,object_05c.png,,0.8315789473684211,1
2251.2000000029802,,directmemory_phase7,1689392,,,,object_08b.png,,,51,,,,1,,object_12c.png,object_01b.png,object_15a.png,object_15a.png,,0.8333333333333334,1
1810.1000000014901,,directmemory_phase7,1691220,,,,object_01a.png,,,49,,,,1,,object_04b.png,object_15b.png,object_08c.png,object_04b.png,,0.8350515463917526,1
2196.7999999970198,,directmemory_phase7,1693437,,,,object_10a.png,,,51,,,,1,,object_06c.png,object_01b.png,object_06b.png,object_06b.png,,0.8367346938775511,1
1897.7999999970198,,directmemory_phase7,1695354,,,,object_06c.png,,,50,,,,1,,object_08c.png,object_13a.png,object_14c.png,object_13a.png,,0.8383838383838383,1
5065.4000000059605,,directmemory_phase7,1700438,,,,object_09a.png,,,50,,,,1,,object_01a.png,object_11b.png,object_04b.png,object_11b.png,,0.84,1
8390.29999999702,,directmemory_phase7,1708846,,,,object_09b.png,,,51,,,,0,,object_06c.png,object_03b.png,object_15b.png,object_03b.png,,0.8316831683168316,0
3605.7000000029802,,directmemory_phase7,1712461,,,,object_15c.png,,,49,,,,0,,object_07a.png,object_13b.png,object_12a.png,object_12a.png,,0.8235294117647058,0
5792.20000000298,,directmemory_phase7,1718272,,,,object_04a.png,,,49,,,,1,,object_05a.png,object_01a.png,object_13b.png,object_05a.png,,0.8252427184466019,1
6007.89999999851,,directmemory_phase7,1724300,,,,object_13c.png,,,49,,,,1,,object_11a.png,object_05b.png,object_04b.png,object_11a.png,,0.8269230769230769,1
2868.3000000044703,,directmemory_phase7,1727187,,,,object_01b.png,,,50,,,,0,,object_01a.png,object_14c.png,object_08c.png,object_08c.png,,0.819047619047619,0
null,,thebreak,1727304,,,,<p></p>,,,null,,,,,,,,,,,,
4958.80000000447,,intro_0,1732277,,,,instruct,,,32,,,,,,,,,,,,
null,,learn_phase(without_color)8,1735787,,,,black_plus_sign,,,null,,object_15c.png,object_12a.png,,,,,,,,,
null,,black_cross(without_color)8,1736335,,,,green,,,null,,object_15c.png,object_12a.png,,,,,,,,,
null,,rt_plussign_withcolor8,1736844,,,,green,,,null,,object_15c.png,object_12a.png,,,,,,,,,
917.6000000014901,,rt_thecrossant_black8,1738319,,,,black_plus_sign,,,50,,,,1,,,,,,,1,
null,,color_black8,1738432,,,,black_plus_sign,,,null,,,,,,,,,,,,
null,,learn_phase(without_color)8,1741950,,,,black_plus_sign,,,null,,object_09b.png,object_03b.png,,,,,,,,,
null,,black_cross(without_color)8,1742907,,,,blue,,,null,,object_09b.png,object_03b.png,,,,,,,,,
null,,rt_plussign_withcolor8,1743417,,,,blue,,,null,,object_09b.png,object_03b.png,,,,,,,,,
1004.5999999940395,,rt_thecrossant_black8,1744483,,,,black_plus_sign,,,49,,,,1,,,,,,,1,
null,,color_black8,1744603,,,,black_plus_sign,,,null,,,,,,,,,,,,
null,,learn_phase(without_color)8,1748123,,,,black_plus_sign,,,null,,object_07b.png,object_13b.png,,,,,,,,,
null,,black_cross(without_color)8,1749194,,,,blue,,,null,,object_07b.png,object_13b.png,,,,,,,,,
null,,rt_plussign_withcolor8,1749700,,,,blue,,,null,,object_07b.png,object_13b.png,,,,,,,,,
1265.2999999970198,,rt_thecrossant_black8,1750659,,,,black_plus_sign,,,49,,,,1,,,,,,,1,
null,,color_black8,1750771,,,,black_plus_sign,,,null,,,,,,,,,,,,
null,,learn_phase(without_color)8,1754296,,,,black_plus_sign,,,null,,object_11b.png,object_09a.png,,,,,,,,,
null,,black_cross(without_color)8,1755272,,,,blue,,,null,,object_11b.png,object_09a.png,,,,,,,,,
null,,rt_plussign_withcolor8,1755779,,,,blue,,,null,,object_11b.png,object_09a.png,,,,,,,,,
1240.3000000044703,,rt_thecrossant_black8,1756824,,,,black_plus_sign,,,49,,,,1,,,,,,,1,
null,,color_black8,1756937,,,,black_plus_sign,,,null,,,,,,,,,,,,
null,,learn_phase(without_color)8,1760456,,,,black_plus_sign,,,null,,object_14c.png,object_05b.png,,,,,,,,,
null,,black_cross(without_color)8,1760879,,,,blue,,,null,,object_14c.png,object_05b.png,,,,,,,,,
null,,rt_plussign_withcolor8,1761387,,,,blue,,,null,,object_14c.png,object_05b.png,,,,,,,,,
1687.3000000044703,,rt_thecrossant_black8,1762990,,,,black_plus_sign,,,49,,,,1,,,,,,,1,
null,,color_black8,1763103,,,,black_plus_sign,,,null,,,,,,,,,,,,
null,,learn_phase(without_color)8,1766621,,,,black_plus_sign,,,null,,object_07a.png,object_15b.png,,,,,,,,,
null,,black_cross(without_color)8,1767426,,,,green,,,null,,object_07a.png,object_15b.png,,,,,,,,,
null,,rt_plussign_withcolor8,1767935,,,,green,,,null,,object_07a.png,object_15b.png,,,,,,,,,
629.8000000044703,,rt_thecrossant_black8,1769153,,,,black_plus_sign,,,50,,,,1,,,,,,,1,
null,,color_black8,1769270,,,,black_plus_sign,,,null,,,,,,,,,,,,
null,,learn_phase(without_color)8,1772787,,,,black_plus_sign,,,null,,object_10c.png,object_07c.png,,,,,,,,,
null,,black_cross(without_color)8,1773557,,,,blue,,,null,,object_10c.png,object_07c.png,,,,,,,,,
null,,rt_plussign_withcolor8,1774066,,,,blue,,,null,,object_10c.png,object_07c.png,,,,,,,,,
994.1000000014901,,rt_thecrossant_black8,1775321,,,,black_plus_sign,,,49,,,,1,,,,,,,1,
null,,color_black8,1775438,,,,black_plus_sign,,,null,,,,,,,,,,,,
null,,learn_phase(without_color)8,1778949,,,,black_plus_sign,,,null,,object_06c.png,object_13a.png,,,,,,,,,
null,,black_cross(without_color)8,1779909,,,,blue,,,null,,object_06c.png,object_13a.png,,,,,,,,,
null,,rt_plussign_withcolor8,1780420,,,,blue,,,null,,object_06c.png,object_13a.png,,,,,,,,,
1020.7000000029802,,rt_thecrossant_black8,1781497,,,,black_plus_sign,,,49,,,,1,,,,,,,1,
null,,color_black8,1781605,,,,black_plus_sign,,,null,,,,,,,,,,,,
null,,learn_phase(without_color)8,1785124,,,,black_plus_sign,,,null,,object_08b.png,object_15a.png,,,,,,,,,
null,,black_cross(without_color)8,1786022,,,,green,,,null,,object_08b.png,object_15a.png,,,,,,,,,
null,,rt_plussign_withcolor8,1786531,,,,green,,,null,,object_08b.png,object_15a.png,,,,,,,,,
1186.9000000059605,,rt_thecrossant_black8,1787658,,,,black_plus_sign,,,50,,,,1,,,,,,,1,
null,,color_black8,1787771,,,,black_plus_sign,,,null,,,,,,,,,,,,
null,,learn_phase(without_color)8,1791289,,,,black_plus_sign,,,null,,object_04b.png,object_01a.png,,,,,,,,,
null,,black_cross(without_color)8,1791957,,,,green,,,null,,object_04b.png,object_01a.png,,,,,,,,,
null,,rt_plussign_withcolor8,1792466,,,,green,,,null,,object_04b.png,object_01a.png,,,,,,,,,
1224.3999999985099,,rt_thecrossant_black8,1793821,,,,black_plus_sign,,,50,,,,1,,,,,,,1,
null,,color_black8,1793934,,,,black_plus_sign,,,null,,,,,,,,,,,,
null,,learn_phase(without_color)8,1797452,,,,black_plus_sign,,,null,,object_06b.png,object_10a.png,,,,,,,,,
null,,black_cross(without_color)8,1798268,,,,blue,,,null,,object_06b.png,object_10a.png,,,,,,,,,
null,,rt_plussign_withcolor8,1798776,,,,blue,,,null,,object_06b.png,object_10a.png,,,,,,,,,
1362.2000000029802,,rt_thecrossant_black8,1799984,,,,black_plus_sign,,,49,,,,1,,,,,,,1,
null,,color_black8,1800097,,,,black_plus_sign,,,null,,,,,,,,,,,,
null,,learn_phase(without_color)8,1803616,,,,black_plus_sign,,,null,,object_05a.png,object_04a.png,,,,,,,,,
null,,black_cross(without_color)8,1804272,,,,green,,,null,,object_05a.png,object_04a.png,,,,,,,,,
null,,rt_plussign_withcolor8,1804779,,,,green,,,null,,object_05a.png,object_04a.png,,,,,,,,,
1365.3999999985099,,rt_thecrossant_black8,1806147,,,,black_plus_sign,,,49,,,,0,,,,,,,0.9166666666666666,
null,,color_black8,1806258,,,,black_plus_sign,,,null,,,,,,,,,,,,
null,,learn_phase(without_color)8,1809783,,,,black_plus_sign,,,null,,object_08c.png,object_01b.png,,,,,,,,,
null,,black_cross(without_color)8,1810257,,,,blue,,,null,,object_08c.png,object_01b.png,,,,,,,,,
null,,rt_plussign_withcolor8,1810782,,,,blue,,,null,,object_08c.png,object_01b.png,,,,,,,,,
1143.7000000029802,,rt_thecrossant_black8,1812323,,,,black_plus_sign,,,49,,,,1,,,,,,,0.9230769230769231,
null,,color_black8,1812436,,,,black_plus_sign,,,null,,,,,,,,,,,,
null,,learn_phase(without_color)8,1815954,,,,black_plus_sign,,,null,,object_05c.png,object_12c.png,,,,,,,,,
null,,black_cross(without_color)8,1816678,,,,green,,,null,,object_05c.png,object_12c.png,,,,,,,,,
null,,rt_plussign_withcolor8,1817185,,,,green,,,null,,object_05c.png,object_12c.png,,,,,,,,,
675.7999999970198,,rt_thecrossant_black8,1818482,,,,black_plus_sign,,,50,,,,1,,,,,,,0.9285714285714286,
null,,color_black8,1818594,,,,black_plus_sign,,,null,,,,,,,,,,,,
null,,learn_phase(without_color)8,1822114,,,,black_plus_sign,,,null,,object_11a.png,object_13c.png,,,,,,,,,
null,,black_cross(without_color)8,1822591,,,,blue,,,null,,object_11a.png,object_13c.png,,,,,,,,,
null,,rt_plussign_withcolor8,1823100,,,,blue,,,null,,object_11a.png,object_13c.png,,,,,,,,,
973.7999999970198,,rt_thecrossant_black8,1824647,,,,black_plus_sign,,,49,,,,1,,,,,,,0.9333333333333333,
null,,color_black8,1824758,,,,black_plus_sign,,,null,,,,,,,,,,,,
null,,thebreak,1824880,,,,<p></p>,,,null,,,,,,,,,,,,
9036.29999999702,,intro_0,1833927,,,,instruct,,,32,,,,,,,,,,,,
2274.0999999940395,,directmemory_phase8,1836214,,,,object_10c.png,,,51,,,,1,,object_13c.png,object_06b.png,object_07c.png,object_07c.png,,0.8207547169811321,1
2238.5999999940395,,directmemory_phase8,1838473,,,,object_15c.png,,,49,,,,1,,object_12a.png,object_08c.png,object_04a.png,object_12a.png,,0.822429906542056,1
2022.3999999985099,,directmemory_phase8,1840516,,,,object_06c.png,,,51,,,,1,,object_14c.png,object_01a.png,object_13a.png,object_13a.png,,0.8240740740740741,1
2546.0999999940395,,directmemory_phase8,1843082,,,,object_15b.png,,,50,,,,1,,object_14c.png,object_07a.png,object_06c.png,object_07a.png,,0.8256880733944955,1
2139.4000000059605,,directmemory_phase8,1845237,,,,object_06b.png,,,49,,,,1,,object_10a.png,object_03b.png,object_15a.png,object_10a.png,,0.8272727272727273,1
2143.39999999851,,directmemory_phase8,1847401,,,,object_12c.png,,,49,,,,1,,object_05c.png,object_13c.png,object_05b.png,object_05c.png,,0.8288288288288288,1
9369.10000000149,,directmemory_phase8,1856791,,,,object_09a.png,,,51,,,,1,,object_13c.png,object_07a.png,object_11b.png,object_11b.png,,0.8303571428571429,1
2374.3000000044703,,directmemory_phase8,1859186,,,,object_13b.png,,,49,,,,1,,object_07b.png,object_07a.png,object_04b.png,object_07b.png,,0.831858407079646,1
2581.7000000029802,,directmemory_phase8,1861788,,,,object_09b.png,,,50,,,,1,,object_12c.png,object_03b.png,object_01b.png,object_03b.png,,0.8333333333333334,1
3004.39999999851,,directmemory_phase8,1864814,,,,object_11a.png,,,49,,,,1,,object_13c.png,object_15c.png,object_07b.png,object_13c.png,,0.8347826086956521,1
4394.5,,directmemory_phase8,1869228,,,,object_04a.png,,,51,,,,1,,object_12c.png,object_05c.png,object_05a.png,object_05a.png,,0.8362068965517241,1
null,,directmemory_phase8,1884251,,,,object_15a.png,,,null,,,,0,,object_15c.png,object_09a.png,object_08b.png,object_08b.png,,0.8290598290598291,0
null,,html-keyboard-response,1889268,,,,<h1 style=color: red; font-size: 50px>Please make sure to respond to the questions accurately.</h1><br><h1 style=color: red;font-size: 50px>Continued failure to respond will</h1><br><h1 style=color: red;font-size: 50px>result in the task ending early</h1><br><h1 style=color: red;font-size: 50px>The experiment will resume in 5 seconds</h1><br>,,,null,,,,,,,,,,,,
