rt,responses,trial_type,time_elapsed,identifier_a,identifier_b,identifier_c,stimulus,button_pressed,response,key_press,stimulus_left,stimulus_right,accuracy,practice_cumulative_accuracy,stimulus_down_left,stimulus_down_mid,stimulus_down_right,stimulus_correct,prac_weighted_accuracy,cumulative_accuracy,failed_practice,weighted_accuracy,tooquick,stimulus_middle,problems,smooth,distraction,strategies,easier,similar,comments,detectfocus,breakfocus,completion_code
3471.0999999046326,{worker_id:5cba50bf114fa5001aac5570},id_enter,3472,object_03b.png; object_01c.png; object_08b.png; object_02c.png; object_11a.png; object_01b.png; object_13c.png; object_09c.png; object_13a.png; object_11c.png; object_12a.png; object_03a.png; object_07a.png; object_04b.png; object_05b.png,object_02a.png; object_07c.png; object_07b.png; object_09a.png; object_06c.png; object_04a.png; object_01a.png; object_02b.png; object_15b.png; object_04c.png; object_11b.png; object_09b.png; object_05a.png; object_06b.png; object_05c.png,object_10c.png; object_10a.png; object_10b.png; object_03c.png; object_12c.png; object_15c.png; object_15a.png; object_06a.png; object_08a.png; object_12b.png; object_13b.png; object_08c.png; object_14c.png; object_14b.png; object_14a.png,,,,,,,,,,,,,,,,,,,,,,,,,,,,
12917.899999856949,,make_fullscreen,16392,,,,fullscreen,0,,,,,,,,,,,,,,,,,,,,,,,,,,
2709.4000000953674,,instruct_1,19103,,,,instruct,0,Next,,,,,,,,,,,,,,,,,,,,,,,,,
11364.800000190735,,instruct_2,30469,,,,instruct,1,Next,,,,,,,,,,,,,,,,,,,,,,,,,
6087.800000190735,,instruct_3,36557,,,,instruct,1,Next,,,,,,,,,,,,,,,,,,,,,,,,,
17941,,instruct_4,54499,,,,instruct,1,Next,,,,,,,,,,,,,,,,,,,,,,,,,
9461.100000143051,,instruct_5,63961,,,,instruct,1,Next,,,,,,,,,,,,,,,,,,,,,,,,,
11825.299999952316,,instruct_6,75787,,,,instruct,1,Next,,,,,,,,,,,,,,,,,,,,,,,,,
26958.89999985695,,instruct_7,102747,,,,instruct,1,Next,,,,,,,,,,,,,,,,,,,,,,,,,
null,,prac_atten_color_black,103162,,,,black_plus_sign,,,null,,,,,,,,,,,,,,,,,,,,,,,,
917.1000001430511,,prac_atten_color,104150,,,,<p style='position:absolute;top: 50%;right: 50%;transform: translate(50%, -50%);font-size: 125px;color: blue;'>+</p>,,,49,,,,,,,,,,,,,,,,,,,,,,,,
null,,prac_atten_color_black,106151,,,,black_plus_sign,,,null,,,,,,,,,,,,,,,,,,,,,,,,
null,,prac_atten_color_black,106566,,,,black_plus_sign,,,null,,,,,,,,,,,,,,,,,,,,,,,,
null,,prac_atten_color,107110,,,,<p style='position:absolute;top: 50%;right: 50%;transform: translate(50%, -50%);font-size: 125px;color: green;'>+</p>,,,null,,,,,,,,,,,,,,,,,,,,,,,,
322.30000019073486,,prac_atten_color_black,109111,,,,black_plus_sign,,,50,,,,,,,,,,,,,,,,,,,,,,,,
null,,prac_atten_color_black,109969,,,,black_plus_sign,,,null,,,,,,,,,,,,,,,,,,,,,,,,
null,,prac_atten_color,110610,,,,<p style='position:absolute;top: 50%;right: 50%;transform: translate(50%, -50%);font-size: 125px;color: green;'>+</p>,,,null,,,,,,,,,,,,,,,,,,,,,,,,
5.6000001430511475,,prac_atten_color_black,112611,,,,black_plus_sign,,,50,,,,,,,,,,,,,,,,,,,,,,,,
null,,prac_atten_color_black,113373,,,,black_plus_sign,,,null,,,,,,,,,,,,,,,,,,,,,,,,
722.7999999523163,,prac_atten_color,114250,,,,<p style='position:absolute;top: 50%;right: 50%;transform: translate(50%, -50%);font-size: 125px;color: blue;'>+</p>,,,49,,,,,,,,,,,,,,,,,,,,,,,,
null,,prac_atten_color_black,116252,,,,black_plus_sign,,,null,,,,,,,,,,,,,,,,,,,,,,,,
null,,prac_atten_color_black,116778,,,,black_plus_sign,,,null,,,,,,,,,,,,,,,,,,,,,,,,
525.2999999523163,,prac_atten_color,117719,,,,<p style='position:absolute;top: 50%;right: 50%;transform: translate(50%, -50%);font-size: 125px;color: green;'>+</p>,,,50,,,,,,,,,,,,,,,,,,,,,,,,
null,,prac_atten_color_black,119721,,,,black_plus_sign,,,null,,,,,,,,,,,,,,,,,,,,,,,,
null,,prac_atten_color_black,120182,,,,black_plus_sign,,,null,,,,,,,,,,,,,,,,,,,,,,,,
609.5,,prac_atten_color,121006,,,,<p style='position:absolute;top: 50%;right: 50%;transform: translate(50%, -50%);font-size: 125px;color: green;'>+</p>,,,50,,,,,,,,,,,,,,,,,,,,,,,,
null,,prac_atten_color_black,123008,,,,black_plus_sign,,,null,,,,,,,,,,,,,,,,,,,,,,,,
null,,prac_atten_color_black,123586,,,,black_plus_sign,,,null,,,,,,,,,,,,,,,,,,,,,,,,
null,,prac_atten_color,124030,,,,<p style='position:absolute;top: 50%;right: 50%;transform: translate(50%, -50%);font-size: 125px;color: blue;'>+</p>,,,null,,,,,,,,,,,,,,,,,,,,,,,,
73.80000019073486,,prac_atten_color_black,126032,,,,black_plus_sign,,,49,,,,,,,,,,,,,,,,,,,,,,,,
null,,prac_atten_color_black,126991,,,,black_plus_sign,,,null,,,,,,,,,,,,,,,,,,,,,,,,
489,,prac_atten_color,127572,,,,<p style='position:absolute;top: 50%;right: 50%;transform: translate(50%, -50%);font-size: 125px;color: green;'>+</p>,,,50,,,,,,,,,,,,,,,,,,,,,,,,
null,,prac_atten_color_black,129573,,,,black_plus_sign,,,null,,,,,,,,,,,,,,,,,,,,,,,,
null,,prac_atten_color_black,130395,,,,black_plus_sign,,,null,,,,,,,,,,,,,,,,,,,,,,,,
null,,prac_atten_color,130848,,,,<p style='position:absolute;top: 50%;right: 50%;transform: translate(50%, -50%);font-size: 125px;color: blue;'>+</p>,,,null,,,,,,,,,,,,,,,,,,,,,,,,
7.299999952316284,,prac_atten_color_black,132850,,,,black_plus_sign,,,49,,,,,,,,,,,,,,,,,,,,,,,,
null,,prac_atten_color_black,133800,,,,black_plus_sign,,,null,,,,,,,,,,,,,,,,,,,,,,,,
null,,prac_atten_color,134260,,,,<p style='position:absolute;top: 50%;right: 50%;transform: translate(50%, -50%);font-size: 125px;color: blue;'>+</p>,,,null,,,,,,,,,,,,,,,,,,,,,,,,
131.70000004768372,,prac_atten_color_black,136261,,,,black_plus_sign,,,49,,,,,,,,,,,,,,,,,,,,,,,,
7297.300000190735,,attentioncheck_feedback,143559,,,,cross_check_feedback,0,,,,,,,,,,,,,,,,,,,,,,,,,,
11488.299999952316,,last_instruct,155049,,,,instruct,,,32,,,,,,,,,,,,,,,,,,,,,,,,
null,,prac_learn_phase(without_color),158550,,,,black_plus_sign,,,null,object_10b.png,object_07b.png,,,,,,,,,,,,,,,,,,,,,,
null,,prac_black_cross(without_color),159268,,,,blue,,,null,object_10b.png,object_07b.png,,,,,,,,,,,,,,,,,,,,,,
null,,prac_rt_plussign_withcolor,159770,,,,blue,,,null,object_10b.png,object_07b.png,,,,,,,,,,,,,,,,,,,,,,
1029.5999999046326,,prac_rt_thecrossant_black,161057,,,,black_plus_sign,,,49,,,1,1,,,,,,,,,,,,,,,,,,,,
null,,prac_color_black,161159,,,,black_plus_sign,,,null,,,,,,,,,,,,,,,,,,,,,,,,
null,,prac_learn_phase(without_color),164660,,,,black_plus_sign,,,null,object_15a.png,object_01a.png,,,,,,,,,,,,,,,,,,,,,,
null,,black_cross(without_color)1,165202,,,,green,,,null,object_10b.png,object_07b.png,,,,,,,,,,,,,,,,,,,,,,
null,,prac_rt_plussign_withcolor,165704,,,,blue,,,null,object_15a.png,object_01a.png,,,,,,,,,,,,,,,,,,,,,,
993.6999998092651,,prac_rt_thecrossant_black,167259,,,,black_plus_sign,,,49,,,1,1,,,,,,,,,,,,,,,,,,,,
null,,prac_color_black,167361,,,,black_plus_sign,,,null,,,,,,,,,,,,,,,,,,,,,,,,
null,,prac_learn_phase(without_color),170863,,,,black_plus_sign,,,null,object_02a.png,object_03b.png,,,,,,,,,,,,,,,,,,,,,,
null,,black_cross(without_color)1,171404,,,,green,,,null,object_10b.png,object_07b.png,,,,,,,,,,,,,,,,,,,,,,
null,,prac_rt_plussign_withcolor,171906,,,,green,,,null,object_02a.png,object_03b.png,,,,,,,,,,,,,,,,,,,,,,
782.9000000953674,,prac_rt_thecrossant_black,173026,,,,black_plus_sign,,,50,,,1,1,,,,,,,,,,,,,,,,,,,,
null,,prac_color_black,173128,,,,black_plus_sign,,,null,,,,,,,,,,,,,,,,,,,,,,,,
null,,prac_learn_phase(without_color),176630,,,,black_plus_sign,,,null,object_06a.png,object_02b.png,,,,,,,,,,,,,,,,,,,,,,
null,,black_cross(without_color)1,177172,,,,green,,,null,object_10b.png,object_07b.png,,,,,,,,,,,,,,,,,,,,,,
null,,prac_rt_plussign_withcolor,177674,,,,green,,,null,object_06a.png,object_02b.png,,,,,,,,,,,,,,,,,,,,,,
1139.9000000953674,,prac_rt_thecrossant_black,179036,,,,black_plus_sign,,,50,,,1,1,,,,,,,,,,,,,,,,,,,,
null,,prac_color_black,179147,,,,black_plus_sign,,,null,,,,,,,,,,,,,,,,,,,,,,,,
8834.599999904633,,instruct_dir_01,187983,,,,instruct,0,Next,,,,,,,,,,,,,,,,,,,,,,,,,
10651.799999952316,,instruct_dir_2,198636,,,,instruct,1,Next,,,,,,,,,,,,,,,,,,,,,,,,,
5689.199999809265,,instruct_dir_3,204326,,,,instruct,1,Next,,,,,,,,,,,,,,,,,,,,,,,,,
6665.300000190735,,instruct_dir_4,210992,,,,instruct,1,Start,,,,,,,,,,,,,,,,,,,,,,,,,
null,,thebreak,211094,,,,<p></p>,,,null,,,,,,,,,,,,,,,,,,,,,,,,
2401.7000000476837,,intro_0,213496,,,,instruct,,,32,,,,,,,,,,,,,,,,,,,,,,,,
3159.2000000476837,,prac_directmemory_phase,216656,,,,practice/object_03a.png,,,51,,,0,,practice/object_02a.png,practice/object_03b.png,practice/object_04b.png,practice/object_03b.png,0,0,,,,,,,,,,,,,,
2142.600000143051,,prac_directmemory_phase,218800,,,,practice/object_01a.png,,,49,,,0,,practice/object_02b.png,practice/object_02a.png,practice/object_01b.png,practice/object_01b.png,0,0,,,,,,,,,,,,,,
2519.899999856949,,prac_directmemory_phase,221321,,,,practice/object_04a.png,,,50,,,1,,practice/object_03a.png,practice/object_04b.png,practice/object_01b.png,practice/object_04b.png,1,0.3333333333333333,,,,,,,,,,,,,,
1766.1000001430511,,prac_directmemory_phase,223088,,,,practice/object_02a.png,,,51,,,0,,practice/object_01a.png,practice/object_02b.png,practice/object_01b.png,practice/object_02b.png,0,0.25,,,,,,,,,,,,,,
5184.900000095367,,practice_feedback_force_restart,228274,,,,practice_feedback,0,,,,,,,,,,,,,1,,,,,,,,,,,,,
2197.7000000476837,,last_instruct,230472,,,,instruct,,,32,,,,,,,,,,,,,,,,,,,,,,,,
null,,prac_learn_phase(without_color),233974,,,,black_plus_sign,,,null,object_10b.png,object_07b.png,,,,,,,,,,,,,,,,,,,,,,
null,,prac_black_cross(without_color),234855,,,,blue,,,null,object_10b.png,object_07b.png,,,,,,,,,,,,,,,,,,,,,,
null,,prac_rt_plussign_withcolor,235358,,,,blue,,,null,object_10b.png,object_07b.png,,,,,,,,,,,,,,,,,,,,,,
964.2000000476837,,prac_rt_thecrossant_black,236479,,,,black_plus_sign,,,49,,,1,1,,,,,,,,,,,,,,,,,,,,
null,,prac_color_black,236581,,,,black_plus_sign,,,null,,,,,,,,,,,,,,,,,,,,,,,,
null,,prac_learn_phase(without_color),240082,,,,black_plus_sign,,,null,object_15a.png,object_01a.png,,,,,,,,,,,,,,,,,,,,,,
null,,black_cross(without_color)1,240623,,,,green,,,null,object_10b.png,object_07b.png,,,,,,,,,,,,,,,,,,,,,,
null,,prac_rt_plussign_withcolor,241124,,,,blue,,,null,object_15a.png,object_01a.png,,,,,,,,,,,,,,,,,,,,,,
1111.4000000953674,,prac_rt_thecrossant_black,242476,,,,black_plus_sign,,,49,,,1,1,,,,,,,,,,,,,,,,,,,,
null,,prac_color_black,242577,,,,black_plus_sign,,,null,,,,,,,,,,,,,,,,,,,,,,,,
null,,prac_learn_phase(without_color),246079,,,,black_plus_sign,,,null,object_02a.png,object_03b.png,,,,,,,,,,,,,,,,,,,,,,
null,,black_cross(without_color)1,246620,,,,green,,,null,object_10b.png,object_07b.png,,,,,,,,,,,,,,,,,,,,,,
null,,prac_rt_plussign_withcolor,247121,,,,green,,,null,object_02a.png,object_03b.png,,,,,,,,,,,,,,,,,,,,,,
null,,prac_rt_thecrossant_black,248461,,,,black_plus_sign,,,null,,,,1,,,,,,,,,,,,,,,,,,,,
null,,prac_color_black,248562,,,,black_plus_sign,,,null,,,,,,,,,,,,,,,,,,,,,,,,
null,,prac_learn_phase(without_color),252063,,,,black_plus_sign,,,null,object_06a.png,object_02b.png,,,,,,,,,,,,,,,,,,,,,,
null,,black_cross(without_color)1,252605,,,,green,,,null,object_10b.png,object_07b.png,,,,,,,,,,,,,,,,,,,,,,
null,,prac_rt_plussign_withcolor,253108,,,,green,,,null,object_06a.png,object_02b.png,,,,,,,,,,,,,,,,,,,,,,
1173.8999998569489,,prac_rt_thecrossant_black,254366,,,,black_plus_sign,,,50,,,1,1,,,,,,,,,,,,,,,,,,,,
null,,prac_color_black,254468,,,,black_plus_sign,,,null,,,,,,,,,,,,,,,,,,,,,,,,
3846.0999999046326,,instruct_dir_01,258315,,,,instruct,0,Next,,,,,,,,,,,,,,,,,,,,,,,,,
4057.2999999523163,,instruct_dir_2,262373,,,,instruct,1,Next,,,,,,,,,,,,,,,,,,,,,,,,,
1970.5999999046326,,instruct_dir_3,264344,,,,instruct,1,Next,,,,,,,,,,,,,,,,,,,,,,,,,
3277.399999856949,,instruct_dir_4,267622,,,,instruct,1,Start,,,,,,,,,,,,,,,,,,,,,,,,,
null,,thebreak,267723,,,,<p></p>,,,null,,,,,,,,,,,,,,,,,,,,,,,,
2165,,intro_0,269888,,,,instruct,,,32,,,,,,,,,,,,,,,,,,,,,,,,
2903.5,,prac_directmemory_phase,272792,,,,practice/object_03a.png,,,51,,,0,,practice/object_02a.png,practice/object_03b.png,practice/object_04b.png,practice/object_03b.png,0,0,,,,,,,,,,,,,,
2726.7999999523163,,prac_directmemory_phase,275520,,,,practice/object_01a.png,,,51,,,1,,practice/object_02b.png,practice/object_02a.png,practice/object_01b.png,practice/object_01b.png,1,0.5,,,,,,,,,,,,,,
1879,,prac_directmemory_phase,277400,,,,practice/object_04a.png,,,50,,,1,,practice/object_03a.png,practice/object_04b.png,practice/object_01b.png,practice/object_04b.png,1,0.6666666666666666,,,,,,,,,,,,,,
2015.3999998569489,,prac_directmemory_phase,279417,,,,practice/object_02a.png,,,49,,,0,,practice/object_01a.png,practice/object_02b.png,practice/object_01b.png,practice/object_02b.png,0,0.5,,,,,,,,,,,,,,
3607.9000000953674,,practice_feedback_force_restart,283025,,,,practice_feedback,0,,,,,,,,,,,,,2,,,,,,,,,,,,,
2430.100000143051,,last_instruct,285456,,,,instruct,,,32,,,,,,,,,,,,,,,,,,,,,,,,
null,,prac_learn_phase(without_color),288958,,,,black_plus_sign,,,null,object_10b.png,object_07b.png,,,,,,,,,,,,,,,,,,,,,,
null,,prac_black_cross(without_color),289933,,,,blue,,,null,object_10b.png,object_07b.png,,,,,,,,,,,,,,,,,,,,,,
null,,prac_rt_plussign_withcolor,290435,,,,blue,,,null,object_10b.png,object_07b.png,,,,,,,,,,,,,,,,,,,,,,
1237.4000000953674,,prac_rt_thecrossant_black,291464,,,,black_plus_sign,,,49,,,1,1,,,,,,,,,,,,,,,,,,,,
null,,prac_color_black,291565,,,,black_plus_sign,,,null,,,,,,,,,,,,,,,,,,,,,,,,
null,,prac_learn_phase(without_color),295067,,,,black_plus_sign,,,null,object_15a.png,object_01a.png,,,,,,,,,,,,,,,,,,,,,,
null,,black_cross(without_color)1,295609,,,,green,,,null,object_10b.png,object_07b.png,,,,,,,,,,,,,,,,,,,,,,
null,,prac_rt_plussign_withcolor,296111,,,,blue,,,null,object_15a.png,object_01a.png,,,,,,,,,,,,,,,,,,,,,,
1361.9000000953674,,prac_rt_thecrossant_black,297610,,,,black_plus_sign,,,49,,,1,1,,,,,,,,,,,,,,,,,,,,
null,,prac_color_black,297712,,,,black_plus_sign,,,null,,,,,,,,,,,,,,,,,,,,,,,,
null,,prac_learn_phase(without_color),301214,,,,black_plus_sign,,,null,object_02a.png,object_03b.png,,,,,,,,,,,,,,,,,,,,,,
null,,black_cross(without_color)1,301757,,,,green,,,null,object_10b.png,object_07b.png,,,,,,,,,,,,,,,,,,,,,,
null,,prac_rt_plussign_withcolor,302259,,,,green,,,null,object_02a.png,object_03b.png,,,,,,,,,,,,,,,,,,,,,,
783.9000000953674,,prac_rt_thecrossant_black,303723,,,,black_plus_sign,,,50,,,1,1,,,,,,,,,,,,,,,,,,,,
null,,prac_color_black,303824,,,,black_plus_sign,,,null,,,,,,,,,,,,,,,,,,,,,,,,
null,,prac_learn_phase(without_color),307326,,,,black_plus_sign,,,null,object_06a.png,object_02b.png,,,,,,,,,,,,,,,,,,,,,,
null,,black_cross(without_color)1,307868,,,,green,,,null,object_10b.png,object_07b.png,,,,,,,,,,,,,,,,,,,,,,
null,,prac_rt_plussign_withcolor,308381,,,,green,,,null,object_06a.png,object_02b.png,,,,,,,,,,,,,,,,,,,,,,
952.2999999523163,,prac_rt_thecrossant_black,309488,,,,black_plus_sign,,,50,,,1,1,,,,,,,,,,,,,,,,,,,,
null,,prac_color_black,309590,,,,black_plus_sign,,,null,,,,,,,,,,,,,,,,,,,,,,,,
1447.7999999523163,,instruct_dir_01,311038,,,,instruct,0,Next,,,,,,,,,,,,,,,,,,,,,,,,,
1548.9000000953674,,instruct_dir_2,312588,,,,instruct,1,Next,,,,,,,,,,,,,,,,,,,,,,,,,
2347.399999856949,,instruct_dir_3,314936,,,,instruct,1,Next,,,,,,,,,,,,,,,,,,,,,,,,,
3022.0999999046326,,instruct_dir_4,317959,,,,instruct,1,Start,,,,,,,,,,,,,,,,,,,,,,,,,
null,,thebreak,318061,,,,<p></p>,,,null,,,,,,,,,,,,,,,,,,,,,,,,
1914.8999998569489,,intro_0,319976,,,,instruct,,,32,,,,,,,,,,,,,,,,,,,,,,,,
3727.2000000476837,,prac_directmemory_phase,323704,,,,practice/object_03a.png,,,50,,,1,,practice/object_02a.png,practice/object_03b.png,practice/object_04b.png,practice/object_03b.png,1,1,,,,,,,,,,,,,,
2174.600000143051,,prac_directmemory_phase,325880,,,,practice/object_01a.png,,,51,,,1,,practice/object_02b.png,practice/object_02a.png,practice/object_01b.png,practice/object_01b.png,1,1,,,,,,,,,,,,,,
1599.1000001430511,,prac_directmemory_phase,327480,,,,practice/object_04a.png,,,49,,,0,,practice/object_03a.png,practice/object_04b.png,practice/object_01b.png,practice/object_04b.png,0,0.6666666666666666,,,,,,,,,,,,,,
2239.2999999523163,,prac_directmemory_phase,329721,,,,practice/object_02a.png,,,50,,,1,,practice/object_01a.png,practice/object_02b.png,practice/object_01b.png,practice/object_02b.png,1,0.75,,,,,,,,,,,,,,
5494.399999856949,,practice_feedback,335216,,,,practice_feedback,1,,,,,,,,,,,,,,,,,,,,,,,,,,
9992.700000047684,,proceed_actualTask,345209,,,,proceed_actualTask,1,Continue,,,,,,,,,,,,,,,,,,,,,,,,,
9990.299999952316,,last_inst,355200,,,,last_inst,,,32,,,,,,,,,,,,,,,,,,,,,,,,
null,,learn_phase(without_color)1,358702,,,,black_plus_sign,,,null,object_10b.png,object_07b.png,,,,,,,,,,,,,,,,,,,,,,
null,,black_cross(without_color)1,359244,,,,green,,,null,object_10b.png,object_07b.png,,,,,,,,,,,,,,,,,,,,,,
null,,rt_plussign_withcolor1,359745,,,,green,,,null,object_10b.png,object_07b.png,,,,,,,,,,,,,,,,,,,,,,
1291.2999999523163,,rt_thecrossant_black1,361207,,,,black_plus_sign,,,50,,,1,,,,,,,1,,,,,,,,,,,,,,
null,,color_black1,361309,,,,black_plus_sign,,,null,,,,,,,,,,,,,,,,,,,,,,,,
null,,learn_phase(without_color)1,364812,,,,black_plus_sign,,,null,object_15a.png,object_01a.png,,,,,,,,,,,,,,,,,,,,,,
null,,black_cross(without_color)1,365292,,,,green,,,null,object_15a.png,object_01a.png,,,,,,,,,,,,,,,,,,,,,,
null,,rt_plussign_withcolor1,365793,,,,green,,,null,object_15a.png,object_01a.png,,,,,,,,,,,,,,,,,,,,,,
1143.7999999523163,,rt_thecrossant_black1,367316,,,,black_plus_sign,,,50,,,1,,,,,,,1,,,,,,,,,,,,,,
null,,color_black1,367425,,,,black_plus_sign,,,null,,,,,,,,,,,,,,,,,,,,,,,,
null,,learn_phase(without_color)1,370928,,,,black_plus_sign,,,null,object_02a.png,object_03b.png,,,,,,,,,,,,,,,,,,,,,,
null,,black_cross(without_color)1,371879,,,,green,,,null,object_02a.png,object_03b.png,,,,,,,,,,,,,,,,,,,,,,
null,,rt_plussign_withcolor1,372381,,,,green,,,null,object_02a.png,object_03b.png,,,,,,,,,,,,,,,,,,,,,,
604.2999999523163,,rt_thecrossant_black1,373433,,,,black_plus_sign,,,50,,,1,,,,,,,1,,,,,,,,,,,,,,
null,,color_black1,373534,,,,black_plus_sign,,,null,,,,,,,,,,,,,,,,,,,,,,,,
null,,learn_phase(without_color)1,377036,,,,black_plus_sign,,,null,object_06a.png,object_02b.png,,,,,,,,,,,,,,,,,,,,,,
null,,black_cross(without_color)1,378072,,,,green,,,null,object_06a.png,object_02b.png,,,,,,,,,,,,,,,,,,,,,,
null,,rt_plussign_withcolor1,378573,,,,green,,,null,object_06a.png,object_02b.png,,,,,,,,,,,,,,,,,,,,,,
1220.5,,rt_thecrossant_black1,379550,,,,black_plus_sign,,,50,,,1,,,,,,,1,,,,,,,,,,,,,,
null,,color_black1,379651,,,,black_plus_sign,,,null,,,,,,,,,,,,,,,,,,,,,,,,
null,,learn_phase(without_color)1,383153,,,,black_plus_sign,,,null,object_06c.png,object_12c.png,,,,,,,,,,,,,,,,,,,,,,
null,,black_cross(without_color)1,384090,,,,blue,,,null,object_06c.png,object_12c.png,,,,,,,,,,,,,,,,,,,,,,
null,,rt_plussign_withcolor1,384591,,,,blue,,,null,object_06c.png,object_12c.png,,,,,,,,,,,,,,,,,,,,,,
1517.9000000953674,,rt_thecrossant_black1,385658,,,,black_plus_sign,,,49,,,1,,,,,,,1,,,,,,,,,,,,,,
null,,color_black1,385760,,,,black_plus_sign,,,null,,,,,,,,,,,,,,,,,,,,,,,,
null,,learn_phase(without_color)1,389263,,,,black_plus_sign,,,null,object_09c.png,object_02b.png,,,,,,,,,,,,,,,,,,,,,,
null,,black_cross(without_color)1,389736,,,,green,,,null,object_09c.png,object_02b.png,,,,,,,,,,,,,,,,,,,,,,
null,,rt_plussign_withcolor1,390238,,,,green,,,null,object_09c.png,object_02b.png,,,,,,,,,,,,,,,,,,,,,,
1396.5,,rt_thecrossant_black1,391768,,,,black_plus_sign,,,50,,,1,,,,,,,1,,,,,,,,,,,,,,
null,,color_black1,391870,,,,black_plus_sign,,,null,,,,,,,,,,,,,,,,,,,,,,,,
null,,learn_phase(without_color)1,395373,,,,black_plus_sign,,,null,object_09a.png,object_03c.png,,,,,,,,,,,,,,,,,,,,,,
null,,black_cross(without_color)1,396171,,,,green,,,null,object_09a.png,object_03c.png,,,,,,,,,,,,,,,,,,,,,,
null,,rt_plussign_withcolor1,396672,,,,green,,,null,object_09a.png,object_03c.png,,,,,,,,,,,,,,,,,,,,,,
730.8999998569489,,rt_thecrossant_black1,397878,,,,black_plus_sign,,,50,,,1,,,,,,,1,,,,,,,,,,,,,,
null,,color_black1,397980,,,,black_plus_sign,,,null,,,,,,,,,,,,,,,,,,,,,,,,
null,,learn_phase(without_color)1,401492,,,,black_plus_sign,,,null,object_14a.png,object_05c.png,,,,,,,,,,,,,,,,,,,,,,
null,,black_cross(without_color)1,402007,,,,blue,,,null,object_14a.png,object_05c.png,,,,,,,,,,,,,,,,,,,,,,
null,,rt_plussign_withcolor1,402509,,,,blue,,,null,object_14a.png,object_05c.png,,,,,,,,,,,,,,,,,,,,,,
1834.5,,rt_thecrossant_black1,403998,,,,black_plus_sign,,,49,,,1,,,,,,,1,,,,,,,,,,,,,,
null,,color_black1,404100,,,,black_plus_sign,,,null,,,,,,,,,,,,,,,,,,,,,,,,
null,,learn_phase(without_color)1,407601,,,,black_plus_sign,,,null,object_10a.png,object_07c.png,,,,,,,,,,,,,,,,,,,,,,
null,,black_cross(without_color)1,408123,,,,green,,,null,object_10a.png,object_07c.png,,,,,,,,,,,,,,,,,,,,,,
null,,rt_plussign_withcolor1,408624,,,,green,,,null,object_10a.png,object_07c.png,,,,,,,,,,,,,,,,,,,,,,
1348.7000000476837,,rt_thecrossant_black1,410106,,,,black_plus_sign,,,50,,,1,,,,,,,1,,,,,,,,,,,,,,
null,,color_black1,410207,,,,black_plus_sign,,,null,,,,,,,,,,,,,,,,,,,,,,,,
null,,learn_phase(without_color)1,413709,,,,black_plus_sign,,,null,object_03a.png,object_09b.png,,,,,,,,,,,,,,,,,,,,,,
null,,black_cross(without_color)1,414608,,,,blue,,,null,object_03a.png,object_09b.png,,,,,,,,,,,,,,,,,,,,,,
null,,rt_plussign_withcolor1,415109,,,,blue,,,null,object_03a.png,object_09b.png,,,,,,,,,,,,,,,,,,,,,,
918.2000000476837,,rt_thecrossant_black1,416214,,,,black_plus_sign,,,49,,,1,,,,,,,1,,,,,,,,,,,,,,
null,,color_black1,416316,,,,black_plus_sign,,,null,,,,,,,,,,,,,,,,,,,,,,,,
null,,learn_phase(without_color)1,419818,,,,black_plus_sign,,,null,object_08b.png,object_07b.png,,,,,,,,,,,,,,,,,,,,,,
null,,black_cross(without_color)1,420280,,,,green,,,null,object_08b.png,object_07b.png,,,,,,,,,,,,,,,,,,,,,,
null,,rt_plussign_withcolor1,420781,,,,green,,,null,object_08b.png,object_07b.png,,,,,,,,,,,,,,,,,,,,,,
1223.3999998569489,,rt_thecrossant_black1,422324,,,,black_plus_sign,,,50,,,1,,,,,,,1,,,,,,,,,,,,,,
null,,color_black1,422425,,,,black_plus_sign,,,null,,,,,,,,,,,,,,,,,,,,,,,,
null,,learn_phase(without_color)1,425938,,,,black_plus_sign,,,null,object_05b.png,object_05c.png,,,,,,,,,,,,,,,,,,,,,,
null,,black_cross(without_color)1,426823,,,,blue,,,null,object_05b.png,object_05c.png,,,,,,,,,,,,,,,,,,,,,,
null,,rt_plussign_withcolor1,427324,,,,blue,,,null,object_05b.png,object_05c.png,,,,,,,,,,,,,,,,,,,,,,
1092,,rt_thecrossant_black1,428442,,,,black_plus_sign,,,49,,,1,,,,,,,1,,,,,,,,,,,,,,
null,,color_black1,428543,,,,black_plus_sign,,,null,,,,,,,,,,,,,,,,,,,,,,,,
null,,learn_phase(without_color)1,432045,,,,black_plus_sign,,,null,object_06b.png,object_14b.png,,,,,,,,,,,,,,,,,,,,,,
null,,black_cross(without_color)1,432673,,,,blue,,,null,object_06b.png,object_14b.png,,,,,,,,,,,,,,,,,,,,,,
null,,rt_plussign_withcolor1,433175,,,,blue,,,null,object_06b.png,object_14b.png,,,,,,,,,,,,,,,,,,,,,,
1368.2999999523163,,rt_thecrossant_black1,434551,,,,black_plus_sign,,,49,,,1,,,,,,,1,,,,,,,,,,,,,,
null,,color_black1,434652,,,,black_plus_sign,,,null,,,,,,,,,,,,,,,,,,,,,,,,
null,,learn_phase(without_color)1,438154,,,,black_plus_sign,,,null,object_08c.png,object_09b.png,,,,,,,,,,,,,,,,,,,,,,
null,,black_cross(without_color)1,438904,,,,green,,,null,object_08c.png,object_09b.png,,,,,,,,,,,,,,,,,,,,,,
null,,rt_plussign_withcolor1,439405,,,,green,,,null,object_08c.png,object_09b.png,,,,,,,,,,,,,,,,,,,,,,
792.7000000476837,,rt_thecrossant_black1,440658,,,,black_plus_sign,,,50,,,1,,,,,,,1,,,,,,,,,,,,,,
null,,color_black1,440760,,,,black_plus_sign,,,null,,,,,,,,,,,,,,,,,,,,,,,,
null,,learn_phase(without_color)1,444262,,,,black_plus_sign,,,null,object_01a.png,object_13c.png,,,,,,,,,,,,,,,,,,,,,,
null,,black_cross(without_color)1,444824,,,,blue,,,null,object_01a.png,object_13c.png,,,,,,,,,,,,,,,,,,,,,,
null,,rt_plussign_withcolor1,445325,,,,blue,,,null,object_01a.png,object_13c.png,,,,,,,,,,,,,,,,,,,,,,
1067.6000001430511,,rt_thecrossant_black1,446765,,,,black_plus_sign,,,49,,,1,,,,,,,1,,,,,,,,,,,,,,
null,,color_black1,446866,,,,black_plus_sign,,,null,,,,,,,,,,,,,,,,,,,,,,,,
null,,learn_phase(without_color)1,450368,,,,black_plus_sign,,,null,object_13a.png,object_15b.png,,,,,,,,,,,,,,,,,,,,,,
null,,black_cross(without_color)1,450840,,,,blue,,,null,object_13a.png,object_15b.png,,,,,,,,,,,,,,,,,,,,,,
null,,rt_plussign_withcolor1,451342,,,,blue,,,null,object_13a.png,object_15b.png,,,,,,,,,,,,,,,,,,,,,,
1022.5,,rt_thecrossant_black1,452874,,,,black_plus_sign,,,49,,,1,,,,,,,1,,,,,,,,,,,,,,
null,,color_black1,452976,,,,black_plus_sign,,,null,,,,,,,,,,,,,,,,,,,,,,,,
null,,learn_phase(without_color)1,456478,,,,black_plus_sign,,,null,object_02a.png,object_10c.png,,,,,,,,,,,,,,,,,,,,,,
null,,black_cross(without_color)1,457310,,,,green,,,null,object_02a.png,object_10c.png,,,,,,,,,,,,,,,,,,,,,,
null,,rt_plussign_withcolor1,457811,,,,green,,,null,object_02a.png,object_10c.png,,,,,,,,,,,,,,,,,,,,,,
902.4000000953674,,rt_thecrossant_black1,458982,,,,black_plus_sign,,,50,,,1,,,,,,,1,,,,,,,,,,,,,,
null,,color_black1,459084,,,,black_plus_sign,,,null,,,,,,,,,,,,,,,,,,,,,,,,
null,,learn_phase(without_color)1,462585,,,,black_plus_sign,,,null,object_11c.png,object_04c.png,,,,,,,,,,,,,,,,,,,,,,
null,,black_cross(without_color)1,463321,,,,blue,,,null,object_11c.png,object_04c.png,,,,,,,,,,,,,,,,,,,,,,
null,,rt_plussign_withcolor1,463824,,,,blue,,,null,object_11c.png,object_04c.png,,,,,,,,,,,,,,,,,,,,,,
1123.3999998569489,,rt_thecrossant_black1,465090,,,,black_plus_sign,,,49,,,1,,,,,,,1,,,,,,,,,,,,,,
null,,color_black1,465191,,,,black_plus_sign,,,null,,,,,,,,,,,,,,,,,,,,,,,,
null,,learn_phase(without_color)1,468693,,,,black_plus_sign,,,null,object_02c.png,object_09a.png,,,,,,,,,,,,,,,,,,,,,,
null,,black_cross(without_color)1,469504,,,,blue,,,null,object_02c.png,object_09a.png,,,,,,,,,,,,,,,,,,,,,,
null,,rt_plussign_withcolor1,470005,,,,blue,,,null,object_02c.png,object_09a.png,,,,,,,,,,,,,,,,,,,,,,
965.8000001907349,,rt_thecrossant_black1,471198,,,,black_plus_sign,,,49,,,1,,,,,,,1,,,,,,,,,,,,,,
null,,color_black1,471300,,,,black_plus_sign,,,null,,,,,,,,,,,,,,,,,,,,,,,,
null,,learn_phase(without_color)1,474802,,,,black_plus_sign,,,null,object_14c.png,object_05a.png,,,,,,,,,,,,,,,,,,,,,,
null,,black_cross(without_color)1,475225,,,,blue,,,null,object_14c.png,object_05a.png,,,,,,,,,,,,,,,,,,,,,,
null,,rt_plussign_withcolor1,475726,,,,blue,,,null,object_14c.png,object_05a.png,,,,,,,,,,,,,,,,,,,,,,
1102,,rt_thecrossant_black1,477317,,,,black_plus_sign,,,49,,,1,,,,,,,1,,,,,,,,,,,,,,
null,,color_black1,477419,,,,black_plus_sign,,,null,,,,,,,,,,,,,,,,,,,,,,,,
null,,learn_phase(without_color)1,480920,,,,black_plus_sign,,,null,object_13b.png,object_11b.png,,,,,,,,,,,,,,,,,,,,,,
null,,black_cross(without_color)1,481510,,,,blue,,,null,object_13b.png,object_11b.png,,,,,,,,,,,,,,,,,,,,,,
null,,rt_plussign_withcolor1,482011,,,,blue,,,null,object_13b.png,object_11b.png,,,,,,,,,,,,,,,,,,,,,,
682.5,,rt_thecrossant_black1,483424,,,,black_plus_sign,,,49,,,1,,,,,,,1,,,,,,,,,,,,,,
null,,color_black1,483526,,,,black_plus_sign,,,null,,,,,,,,,,,,,,,,,,,,,,,,
null,,learn_phase(without_color)1,487038,,,,black_plus_sign,,,null,object_01c.png,object_07c.png,,,,,,,,,,,,,,,,,,,,,,
null,,black_cross(without_color)1,487644,,,,blue,,,null,object_01c.png,object_07c.png,,,,,,,,,,,,,,,,,,,,,,
null,,rt_plussign_withcolor1,488146,,,,blue,,,null,object_01c.png,object_07c.png,,,,,,,,,,,,,,,,,,,,,,
895,,rt_thecrossant_black1,489543,,,,black_plus_sign,,,49,,,1,,,,,,,1,,,,,,,,,,,,,,
null,,color_black1,489644,,,,black_plus_sign,,,null,,,,,,,,,,,,,,,,,,,,,,,,
null,,learn_phase(without_color)1,493146,,,,black_plus_sign,,,null,object_12b.png,object_04c.png,,,,,,,,,,,,,,,,,,,,,,
null,,black_cross(without_color)1,493600,,,,green,,,null,object_12b.png,object_04c.png,,,,,,,,,,,,,,,,,,,,,,
null,,rt_plussign_withcolor1,494102,,,,green,,,null,object_12b.png,object_04c.png,,,,,,,,,,,,,,,,,,,,,,
947.2000000476837,,rt_thecrossant_black1,495651,,,,black_plus_sign,,,50,,,1,,,,,,,1,,,,,,,,,,,,,,
null,,color_black1,495753,,,,black_plus_sign,,,null,,,,,,,,,,,,,,,,,,,,,,,,
null,,learn_phase(without_color)1,499255,,,,black_plus_sign,,,null,object_15b.png,object_08a.png,,,,,,,,,,,,,,,,,,,,,,
null,,black_cross(without_color)1,499962,,,,blue,,,null,object_15b.png,object_08a.png,,,,,,,,,,,,,,,,,,,,,,
null,,rt_plussign_withcolor1,500474,,,,blue,,,null,object_15b.png,object_08a.png,,,,,,,,,,,,,,,,,,,,,,
678.0999999046326,,rt_thecrossant_black1,501769,,,,black_plus_sign,,,49,,,1,,,,,,,1,,,,,,,,,,,,,,
null,,color_black1,501870,,,,black_plus_sign,,,null,,,,,,,,,,,,,,,,,,,,,,,,
null,,learn_phase(without_color)1,505372,,,,black_plus_sign,,,null,object_04a.png,object_01b.png,,,,,,,,,,,,,,,,,,,,,,
null,,black_cross(without_color)1,506366,,,,blue,,,null,object_04a.png,object_01b.png,,,,,,,,,,,,,,,,,,,,,,
null,,rt_plussign_withcolor1,506868,,,,blue,,,null,object_04a.png,object_01b.png,,,,,,,,,,,,,,,,,,,,,,
1025.9000000953674,,rt_thecrossant_black1,507877,,,,black_plus_sign,,,49,,,1,,,,,,,1,,,,,,,,,,,,,,
null,,color_black1,507980,,,,black_plus_sign,,,null,,,,,,,,,,,,,,,,,,,,,,,,
null,,learn_phase(without_color)1,511481,,,,black_plus_sign,,,null,object_11a.png,object_06c.png,,,,,,,,,,,,,,,,,,,,,,
null,,black_cross(without_color)1,511929,,,,blue,,,null,object_11a.png,object_06c.png,,,,,,,,,,,,,,,,,,,,,,
null,,rt_plussign_withcolor1,512440,,,,blue,,,null,object_11a.png,object_06c.png,,,,,,,,,,,,,,,,,,,,,,
1299.2999999523163,,rt_thecrossant_black1,513996,,,,black_plus_sign,,,49,,,1,,,,,,,1,,,,,,,,,,,,,,
null,,color_black1,514098,,,,black_plus_sign,,,null,,,,,,,,,,,,,,,,,,,,,,,,
null,,learn_phase(without_color)1,517600,,,,black_plus_sign,,,null,object_07a.png,object_05a.png,,,,,,,,,,,,,,,,,,,,,,
null,,black_cross(without_color)1,518430,,,,green,,,null,object_07a.png,object_05a.png,,,,,,,,,,,,,,,,,,,,,,
null,,rt_plussign_withcolor1,518930,,,,green,,,null,object_07a.png,object_05a.png,,,,,,,,,,,,,,,,,,,,,,
695.3000001907349,,rt_thecrossant_black1,520104,,,,black_plus_sign,,,50,,,1,,,,,,,1,,,,,,,,,,,,,,
null,,color_black1,520205,,,,black_plus_sign,,,null,,,,,,,,,,,,,,,,,,,,,,,,
null,,learn_phase(without_color)1,523708,,,,black_plus_sign,,,null,object_12a.png,object_11b.png,,,,,,,,,,,,,,,,,,,,,,
null,,black_cross(without_color)1,524275,,,,blue,,,null,object_12a.png,object_11b.png,,,,,,,,,,,,,,,,,,,,,,
null,,rt_plussign_withcolor1,524777,,,,blue,,,null,object_12a.png,object_11b.png,,,,,,,,,,,,,,,,,,,,,,
1142.5,,rt_thecrossant_black1,526213,,,,black_plus_sign,,,49,,,1,,,,,,,1,,,,,,,,,,,,,,
null,,color_black1,526314,,,,black_plus_sign,,,null,,,,,,,,,,,,,,,,,,,,,,,,
null,,learn_phase(without_color)1,529816,,,,black_plus_sign,,,null,object_04a.png,object_15c.png,,,,,,,,,,,,,,,,,,,,,,
null,,black_cross(without_color)1,530587,,,,green,,,null,object_04a.png,object_15c.png,,,,,,,,,,,,,,,,,,,,,,
null,,rt_plussign_withcolor1,531089,,,,green,,,null,object_04a.png,object_15c.png,,,,,,,,,,,,,,,,,,,,,,
1008.5999999046326,,rt_thecrossant_black1,532322,,,,black_plus_sign,,,50,,,1,,,,,,,1,,,,,,,,,,,,,,
null,,color_black1,532423,,,,black_plus_sign,,,null,,,,,,,,,,,,,,,,,,,,,,,,
null,,learn_phase(without_color)1,535925,,,,black_plus_sign,,,null,object_06b.png,object_04b.png,,,,,,,,,,,,,,,,,,,,,,
null,,black_cross(without_color)1,536449,,,,green,,,null,object_06b.png,object_04b.png,,,,,,,,,,,,,,,,,,,,,,
null,,rt_plussign_withcolor1,536952,,,,green,,,null,object_06b.png,object_04b.png,,,,,,,,,,,,,,,,,,,,,,
1076.7999999523163,,rt_thecrossant_black1,538437,,,,black_plus_sign,,,50,,,1,,,,,,,1,,,,,,,,,,,,,,
null,,color_black1,538538,,,,black_plus_sign,,,null,,,,,,,,,,,,,,,,,,,,,,,,
null,,thebreak,538641,,,,<p></p>,,,null,,,,,,,,,,,,,,,,,,,,,,,,
1990.4000000953674,,intro_0,540633,,,,instruct,,,32,,,,,,,,,,,,,,,,,,,,,,,,
3103.2000000476837,,directmemory_phase1,543736,,,,object_01c.png,,,51,,,0,,object_12a.png,object_07c.png,object_05a.png,object_07c.png,,0,,0,,,,,,,,,,,,
2086.5999999046326,,directmemory_phase1,545825,,,,object_04c.png,,,50,,,1,,object_09a.png,object_12b.png,object_08c.png,object_12b.png,,0.5,,1,,,,,,,,,,,,
1638.6999998092651,,directmemory_phase1,547465,,,,object_13c.png,,,49,,,0,,object_07c.png,object_01c.png,object_01a.png,object_01a.png,,0.3333333333333333,,0,,,,,,,,,,,,
2062.800000190735,,directmemory_phase1,549528,,,,object_07c.png,,,50,,,0,,object_14c.png,object_04c.png,object_10a.png,object_10a.png,,0.25,,0,,,,,,,,,,,,
1967,,directmemory_phase1,551497,,,,object_15c.png,,,51,,,1,,object_09b.png,object_08a.png,object_04a.png,object_04a.png,,0.4,,1,,,,,,,,,,,,
1710.7999999523163,,directmemory_phase1,553209,,,,object_01b.png,,,51,,,0,,object_12a.png,object_04a.png,object_02a.png,object_04a.png,,0.3333333333333333,,0,,,,,,,,,,,,
1742.8999998569489,,directmemory_phase1,554953,,,,object_03a.png,,,50,,,1,,object_07a.png,object_09b.png,object_07c.png,object_09b.png,,0.42857142857142855,,1,,,,,,,,,,,,
1518.8999998569489,,directmemory_phase1,556473,,,,object_09a.png,,,49,,,1,,object_03c.png,object_15c.png,object_02b.png,object_03c.png,,0.5,,1,,,,,,,,,,,,
1670.7999999523163,,directmemory_phase1,558145,,,,object_01a.png,,,50,,,0,,object_15a.png,object_08c.png,object_11b.png,object_15a.png,,0.4444444444444444,,0,,,,,,,,,,,,
1606.5999999046326,,directmemory_phase1,559752,,,,object_05b.png,,,49,,,0,,object_13c.png,object_05c.png,object_11b.png,object_05c.png,,0.4,,0,,,,,,,,,,,,
1911.1999998092651,,directmemory_phase1,561665,,,,object_12a.png,,,50,,,0,,object_04c.png,object_03a.png,object_11b.png,object_11b.png,,0.36363636363636365,,0,,,,,,,,,,,,
1486.6999998092651,,directmemory_phase1,563153,,,,object_13b.png,,,51,,,0,,object_11b.png,object_07c.png,object_14c.png,object_11b.png,,0.3333333333333333,,0,,,,,,,,,,,,
1726.7999999523163,,directmemory_phase1,564880,,,,object_10c.png,,,50,,,0,,object_02a.png,object_09a.png,object_15c.png,object_02a.png,,0.3076923076923077,,0,,,,,,,,,,,,
1630.9000000953674,,directmemory_phase1,566512,,,,object_15b.png,,,49,,,0,,object_08c.png,object_02b.png,object_08a.png,object_08a.png,,0.2857142857142857,,0,,,,,,,,,,,,
1670.9000000953674,,directmemory_phase1,568184,,,,object_11a.png,,,49,,,1,,object_06c.png,object_11b.png,object_12a.png,object_06c.png,,0.3333333333333333,,1,,,,,,,,,,,,
1542.8000001907349,,directmemory_phase1,569728,,,,object_02b.png,,,50,,,0,,object_14c.png,object_02a.png,object_06a.png,object_06a.png,,0.3125,,0,,,,,,,,,,,,
1718.9000000953674,,directmemory_phase1,571448,,,,object_03b.png,,,50,,,1,,object_09c.png,object_02a.png,object_04c.png,object_02a.png,,0.35294117647058826,,1,,,,,,,,,,,,
2238.9000000953674,,directmemory_phase1,573688,,,,object_11c.png,,,49,,,0,,object_07b.png,object_04b.png,object_04c.png,object_04c.png,,0.3333333333333333,,0,,,,,,,,,,,,
1695,,directmemory_phase1,575385,,,,object_10b.png,,,49,,,0,,object_02a.png,object_12b.png,object_07b.png,object_07b.png,,0.3157894736842105,,0,,,,,,,,,,,,
1359,,directmemory_phase1,576745,,,,object_09c.png,,,51,,,1,,object_06b.png,object_11a.png,object_02b.png,object_02b.png,,0.35,,1,,,,,,,,,,,,
1398.7000000476837,,directmemory_phase1,578144,,,,object_07a.png,,,50,,,0,,object_05a.png,object_06c.png,object_03b.png,object_05a.png,,0.3333333333333333,,0,,,,,,,,,,,,
1479.1000001430511,,directmemory_phase1,579625,,,,object_06b.png,,,50,,,0,,object_10c.png,object_02b.png,object_14b.png,object_14b.png,,0.3181818181818182,,0,,,,,,,,,,,,
1423,,directmemory_phase1,581049,,,,object_09b.png,,,49,,,0,,object_07c.png,object_08c.png,object_13b.png,object_08c.png,,0.30434782608695654,,0,,,,,,,,,,,,
1934.8999998569489,,directmemory_phase1,582985,,,,object_08b.png,,,51,,,0,,object_02c.png,object_07b.png,object_04c.png,object_07b.png,,0.2916666666666667,,0,,,,,,,,,,,,
1566.8000001907349,,directmemory_phase1,584552,,,,object_06c.png,,,50,,,0,,object_12c.png,object_06a.png,object_01a.png,object_12c.png,,0.28,,0,,,,,,,,,,,,
1382.8000001907349,,directmemory_phase1,585936,,,,object_13a.png,,,49,,,0,,object_02b.png,object_12a.png,object_15b.png,object_15b.png,,0.2692307692307692,,0,,,,,,,,,,,,
1598.9000000953674,,directmemory_phase1,587536,,,,object_14c.png,,,49,,,0,,object_12b.png,object_05a.png,object_07c.png,object_05a.png,,0.25925925925925924,,0,,,,,,,,,,,,
1678.9000000953674,,directmemory_phase1,589216,,,,object_05c.png,,,51,,,0,,object_05a.png,object_14a.png,object_12c.png,object_14a.png,,0.25,,0,,,,,,,,,,,,
1350.9000000953674,,directmemory_phase1,590569,,,,object_02c.png,,,50,,,1,,object_07a.png,object_09a.png,object_02a.png,object_09a.png,,0.27586206896551724,,1,,,,,,,,,,,,
1414.7999999523163,,directmemory_phase1,591985,,,,object_04b.png,,,51,,,0,,object_01b.png,object_06b.png,object_01a.png,object_06b.png,,0.26666666666666666,,0,,,,,,,,,,,,
null,,thebreak,592088,,,,<p></p>,,,null,,,,,,,,,,,,,,,,,,,,,,,,
1655.7000000476837,,intro_0,593744,,,,instruct,,,32,,,,,,,,,,,,,,,,,,,,,,,,
null,,learn_phase(without_color)2,597246,,,,black_plus_sign,,,null,object_09a.png,object_03c.png,,,,,,,,,,,,,,,,,,,,,,
null,,black_cross(without_color)2,597842,,,,blue,,,null,object_09a.png,object_03c.png,,,,,,,,,,,,,,,,,,,,,,
null,,rt_plussign_withcolor2,598343,,,,blue,,,null,object_09a.png,object_03c.png,,,,,,,,,,,,,,,,,,,,,,
953.4000000953674,,rt_thecrossant_black2,599756,,,,black_plus_sign,,,49,,,1,,,,,,,1,,,,,,,,,,,,,,
null,,color_black2,599858,,,,black_plus_sign,,,null,,,,,,,,,,,,,,,,,,,,,,,,
null,,learn_phase(without_color)2,603359,,,,black_plus_sign,,,null,object_08b.png,object_07b.png,,,,,,,,,,,,,,,,,,,,,,
null,,black_cross(without_color)2,604172,,,,blue,,,null,object_08b.png,object_07b.png,,,,,,,,,,,,,,,,,,,,,,
null,,rt_plussign_withcolor2,604674,,,,blue,,,null,object_08b.png,object_07b.png,,,,,,,,,,,,,,,,,,,,,,
815.0999999046326,,rt_thecrossant_black2,605863,,,,black_plus_sign,,,49,,,1,,,,,,,1,,,,,,,,,,,,,,
null,,color_black2,605964,,,,black_plus_sign,,,null,,,,,,,,,,,,,,,,,,,,,,,,
null,,learn_phase(without_color)2,609466,,,,black_plus_sign,,,null,object_11b.png,object_13b.png,,,,,,,,,,,,,,,,,,,,,,
null,,black_cross(without_color)2,609909,,,,green,,,null,object_11b.png,object_13b.png,,,,,,,,,,,,,,,,,,,,,,
null,,rt_plussign_withcolor2,610426,,,,green,,,null,object_11b.png,object_13b.png,,,,,,,,,,,,,,,,,,,,,,
1253.7000000476837,,rt_thecrossant_black2,611985,,,,black_plus_sign,,,50,,,1,,,,,,,1,,,,,,,,,,,,,,
null,,color_black2,612086,,,,black_plus_sign,,,null,,,,,,,,,,,,,,,,,,,,,,,,
null,,learn_phase(without_color)2,615589,,,,black_plus_sign,,,null,object_06b.png,object_04b.png,,,,,,,,,,,,,,,,,,,,,,
null,,black_cross(without_color)2,616362,,,,green,,,null,object_06b.png,object_04b.png,,,,,,,,,,,,,,,,,,,,,,
null,,rt_plussign_withcolor2,616865,,,,green,,,null,object_06b.png,object_04b.png,,,,,,,,,,,,,,,,,,,,,,
661.0999999046326,,rt_thecrossant_black2,618094,,,,black_plus_sign,,,50,,,1,,,,,,,1,,,,,,,,,,,,,,
null,,color_black2,618196,,,,black_plus_sign,,,null,,,,,,,,,,,,,,,,,,,,,,,,
null,,learn_phase(without_color)2,621698,,,,black_plus_sign,,,null,object_14b.png,object_06b.png,,,,,,,,,,,,,,,,,,,,,,
null,,black_cross(without_color)2,622206,,,,blue,,,null,object_14b.png,object_06b.png,,,,,,,,,,,,,,,,,,,,,,
null,,rt_plussign_withcolor2,622708,,,,blue,,,null,object_14b.png,object_06b.png,,,,,,,,,,,,,,,,,,,,,,
1435.5999999046326,,rt_thecrossant_black2,624204,,,,black_plus_sign,,,49,,,1,,,,,,,1,,,,,,,,,,,,,,
null,,color_black2,624306,,,,black_plus_sign,,,null,,,,,,,,,,,,,,,,,,,,,,,,
null,,learn_phase(without_color)2,627808,,,,black_plus_sign,,,null,object_11a.png,object_06c.png,,,,,,,,,,,,,,,,,,,,,,
null,,black_cross(without_color)2,628612,,,,blue,,,null,object_11a.png,object_06c.png,,,,,,,,,,,,,,,,,,,,,,
null,,rt_plussign_withcolor2,629113,,,,blue,,,null,object_11a.png,object_06c.png,,,,,,,,,,,,,,,,,,,,,,
908.8999998569489,,rt_thecrossant_black2,630312,,,,black_plus_sign,,,49,,,1,,,,,,,1,,,,,,,,,,,,,,
null,,color_black2,630414,,,,black_plus_sign,,,null,,,,,,,,,,,,,,,,,,,,,,,,
null,,learn_phase(without_color)2,633917,,,,black_plus_sign,,,null,object_09b.png,object_03a.png,,,,,,,,,,,,,,,,,,,,,,
null,,black_cross(without_color)2,634989,,,,blue,,,null,object_09b.png,object_03a.png,,,,,,,,,,,,,,,,,,,,,,
null,,rt_plussign_withcolor2,635489,,,,blue,,,null,object_09b.png,object_03a.png,,,,,,,,,,,,,,,,,,,,,,
1124.2000000476837,,rt_thecrossant_black2,636421,,,,black_plus_sign,,,49,,,1,,,,,,,1,,,,,,,,,,,,,,
null,,color_black2,636523,,,,black_plus_sign,,,null,,,,,,,,,,,,,,,,,,,,,,,,
null,,learn_phase(without_color)2,640025,,,,black_plus_sign,,,null,object_02b.png,object_06a.png,,,,,,,,,,,,,,,,,,,,,,
null,,black_cross(without_color)2,640984,,,,blue,,,null,object_02b.png,object_06a.png,,,,,,,,,,,,,,,,,,,,,,
null,,rt_plussign_withcolor2,641485,,,,blue,,,null,object_02b.png,object_06a.png,,,,,,,,,,,,,,,,,,,,,,
1317.1999998092651,,rt_thecrossant_black2,642529,,,,black_plus_sign,,,49,,,1,,,,,,,1,,,,,,,,,,,,,,
null,,color_black2,642631,,,,black_plus_sign,,,null,,,,,,,,,,,,,,,,,,,,,,,,
null,,learn_phase(without_color)2,646145,,,,black_plus_sign,,,null,object_09c.png,object_02b.png,,,,,,,,,,,,,,,,,,,,,,
null,,black_cross(without_color)2,646844,,,,blue,,,null,object_09c.png,object_02b.png,,,,,,,,,,,,,,,,,,,,,,
null,,rt_plussign_withcolor2,647345,,,,blue,,,null,object_09c.png,object_02b.png,,,,,,,,,,,,,,,,,,,,,,
1407.6999998092651,,rt_thecrossant_black2,648649,,,,black_plus_sign,,,49,,,1,,,,,,,1,,,,,,,,,,,,,,
null,,color_black2,648751,,,,black_plus_sign,,,null,,,,,,,,,,,,,,,,,,,,,,,,
null,,learn_phase(without_color)2,652253,,,,black_plus_sign,,,null,object_13a.png,object_15b.png,,,,,,,,,,,,,,,,,,,,,,
null,,black_cross(without_color)2,653053,,,,blue,,,null,object_13a.png,object_15b.png,,,,,,,,,,,,,,,,,,,,,,
null,,rt_plussign_withcolor2,653555,,,,blue,,,null,object_13a.png,object_15b.png,,,,,,,,,,,,,,,,,,,,,,
1099,,rt_thecrossant_black2,654768,,,,black_plus_sign,,,49,,,1,,,,,,,1,,,,,,,,,,,,,,
null,,color_black2,654869,,,,black_plus_sign,,,null,,,,,,,,,,,,,,,,,,,,,,,,
null,,learn_phase(without_color)2,658371,,,,black_plus_sign,,,null,object_04c.png,object_12b.png,,,,,,,,,,,,,,,,,,,,,,
null,,black_cross(without_color)2,659259,,,,green,,,null,object_04c.png,object_12b.png,,,,,,,,,,,,,,,,,,,,,,
null,,rt_plussign_withcolor2,659761,,,,green,,,null,object_04c.png,object_12b.png,,,,,,,,,,,,,,,,,,,,,,
1016,,rt_thecrossant_black2,660877,,,,black_plus_sign,,,50,,,1,,,,,,,1,,,,,,,,,,,,,,
null,,color_black2,660979,,,,black_plus_sign,,,null,,,,,,,,,,,,,,,,,,,,,,,,
null,,learn_phase(without_color)2,664481,,,,black_plus_sign,,,null,object_15b.png,object_08a.png,,,,,,,,,,,,,,,,,,,,,,
null,,black_cross(without_color)2,665263,,,,blue,,,null,object_15b.png,object_08a.png,,,,,,,,,,,,,,,,,,,,,,
null,,rt_plussign_withcolor2,665764,,,,blue,,,null,object_15b.png,object_08a.png,,,,,,,,,,,,,,,,,,,,,,
1069.7000000476837,,rt_thecrossant_black2,666985,,,,black_plus_sign,,,49,,,1,,,,,,,1,,,,,,,,,,,,,,
null,,color_black2,667087,,,,black_plus_sign,,,null,,,,,,,,,,,,,,,,,,,,,,,,
null,,learn_phase(without_color)2,670588,,,,black_plus_sign,,,null,object_05a.png,object_14c.png,,,,,,,,,,,,,,,,,,,,,,
null,,black_cross(without_color)2,671040,,,,green,,,null,object_05a.png,object_14c.png,,,,,,,,,,,,,,,,,,,,,,
null,,rt_plussign_withcolor2,671542,,,,green,,,null,object_05a.png,object_14c.png,,,,,,,,,,,,,,,,,,,,,,
1547.0999999046326,,rt_thecrossant_black2,673098,,,,black_plus_sign,,,50,,,1,,,,,,,1,,,,,,,,,,,,,,
null,,color_black2,673200,,,,black_plus_sign,,,null,,,,,,,,,,,,,,,,,,,,,,,,
null,,learn_phase(without_color)2,676702,,,,black_plus_sign,,,null,object_10a.png,object_07c.png,,,,,,,,,,,,,,,,,,,,,,
null,,black_cross(without_color)2,677193,,,,green,,,null,object_10a.png,object_07c.png,,,,,,,,,,,,,,,,,,,,,,
null,,rt_plussign_withcolor2,677695,,,,green,,,null,object_10a.png,object_07c.png,,,,,,,,,,,,,,,,,,,,,,
855,,rt_thecrossant_black2,679208,,,,black_plus_sign,,,50,,,1,,,,,,,1,,,,,,,,,,,,,,
null,,color_black2,679309,,,,black_plus_sign,,,null,,,,,,,,,,,,,,,,,,,,,,,,
null,,learn_phase(without_color)2,682811,,,,black_plus_sign,,,null,object_13c.png,object_01a.png,,,,,,,,,,,,,,,,,,,,,,
null,,black_cross(without_color)2,683362,,,,green,,,null,object_13c.png,object_01a.png,,,,,,,,,,,,,,,,,,,,,,
510.2999999523163,,rt_plussign_withcolor2,683873,,,,green,,,50,object_13c.png,object_01a.png,,,,,,,,,,,,,,,,,,,,,,
null,,rt_thecrossant_black2,685325,,,,black_plus_sign,,,null,,,1,,,,,,,1,,,,,,,,,,,,,,
null,,color_black2,685441,,,,black_plus_sign,,,null,,,,,,,,,,,,,,,,,,,,,,,,
null,,learn_phase(without_color)2,688943,,,,black_plus_sign,,,null,object_04c.png,object_11c.png,,,,,,,,,,,,,,,,,,,,,,
null,,black_cross(without_color)2,689885,,,,green,,,null,object_04c.png,object_11c.png,,,,,,,,,,,,,,,,,,,,,,
null,,rt_plussign_withcolor2,690386,,,,green,,,null,object_04c.png,object_11c.png,,,,,,,,,,,,,,,,,,,,,,
727.9000000953674,,rt_thecrossant_black2,691447,,,,black_plus_sign,,,50,,,1,,,,,,,1,,,,,,,,,,,,,,
null,,color_black2,691548,,,,black_plus_sign,,,null,,,,,,,,,,,,,,,,,,,,,,,,
null,,learn_phase(without_color)2,695050,,,,black_plus_sign,,,null,object_06c.png,object_12c.png,,,,,,,,,,,,,,,,,,,,,,
null,,black_cross(without_color)2,695757,,,,blue,,,null,object_06c.png,object_12c.png,,,,,,,,,,,,,,,,,,,,,,
null,,rt_plussign_withcolor2,696258,,,,blue,,,null,object_06c.png,object_12c.png,,,,,,,,,,,,,,,,,,,,,,
1125.2999999523163,,rt_thecrossant_black2,697555,,,,black_plus_sign,,,49,,,1,,,,,,,1,,,,,,,,,,,,,,
null,,color_black2,697657,,,,black_plus_sign,,,null,,,,,,,,,,,,,,,,,,,,,,,,
null,,learn_phase(without_color)2,701158,,,,black_plus_sign,,,null,object_15a.png,object_01a.png,,,,,,,,,,,,,,,,,,,,,,
null,,black_cross(without_color)2,701909,,,,blue,,,null,object_15a.png,object_01a.png,,,,,,,,,,,,,,,,,,,,,,
null,,rt_plussign_withcolor2,702411,,,,blue,,,null,object_15a.png,object_01a.png,,,,,,,,,,,,,,,,,,,,,,
1002,,rt_thecrossant_black2,703663,,,,black_plus_sign,,,49,,,1,,,,,,,1,,,,,,,,,,,,,,
null,,color_black2,703764,,,,black_plus_sign,,,null,,,,,,,,,,,,,,,,,,,,,,,,
null,,learn_phase(without_color)2,707267,,,,black_plus_sign,,,null,object_07a.png,object_05a.png,,,,,,,,,,,,,,,,,,,,,,
null,,black_cross(without_color)2,708271,,,,blue,,,null,object_07a.png,object_05a.png,,,,,,,,,,,,,,,,,,,,,,
null,,rt_plussign_withcolor2,708773,,,,blue,,,null,object_07a.png,object_05a.png,,,,,,,,,,,,,,,,,,,,,,
852.1000001430511,,rt_thecrossant_black2,709771,,,,black_plus_sign,,,49,,,1,,,,,,,1,,,,,,,,,,,,,,
null,,color_black2,709873,,,,black_plus_sign,,,null,,,,,,,,,,,,,,,,,,,,,,,,
null,,learn_phase(without_color)2,713374,,,,black_plus_sign,,,null,object_02c.png,object_09a.png,,,,,,,,,,,,,,,,,,,,,,
null,,black_cross(without_color)2,714318,,,,blue,,,null,object_02c.png,object_09a.png,,,,,,,,,,,,,,,,,,,,,,
null,,rt_plussign_withcolor2,714819,,,,blue,,,null,object_02c.png,object_09a.png,,,,,,,,,,,,,,,,,,,,,,
1252.2999999523163,,rt_thecrossant_black2,715878,,,,black_plus_sign,,,49,,,1,,,,,,,1,,,,,,,,,,,,,,
null,,color_black2,715980,,,,black_plus_sign,,,null,,,,,,,,,,,,,,,,,,,,,,,,
null,,learn_phase(without_color)2,719482,,,,black_plus_sign,,,null,object_12a.png,object_11b.png,,,,,,,,,,,,,,,,,,,,,,
null,,black_cross(without_color)2,720444,,,,blue,,,null,object_12a.png,object_11b.png,,,,,,,,,,,,,,,,,,,,,,
null,,rt_plussign_withcolor2,720946,,,,blue,,,null,object_12a.png,object_11b.png,,,,,,,,,,,,,,,,,,,,,,
1247.5,,rt_thecrossant_black2,721988,,,,black_plus_sign,,,49,,,1,,,,,,,1,,,,,,,,,,,,,,
null,,color_black2,722091,,,,black_plus_sign,,,null,,,,,,,,,,,,,,,,,,,,,,,,
null,,learn_phase(without_color)2,725592,,,,black_plus_sign,,,null,object_10c.png,object_02a.png,,,,,,,,,,,,,,,,,,,,,,
null,,black_cross(without_color)2,726327,,,,blue,,,null,object_10c.png,object_02a.png,,,,,,,,,,,,,,,,,,,,,,
null,,rt_plussign_withcolor2,726842,,,,blue,,,null,object_10c.png,object_02a.png,,,,,,,,,,,,,,,,,,,,,,
1193.7999999523163,,rt_thecrossant_black2,728110,,,,black_plus_sign,,,49,,,1,,,,,,,1,,,,,,,,,,,,,,
null,,color_black2,728212,,,,black_plus_sign,,,null,,,,,,,,,,,,,,,,,,,,,,,,
null,,learn_phase(without_color)2,731714,,,,black_plus_sign,,,null,object_02a.png,object_03b.png,,,,,,,,,,,,,,,,,,,,,,
null,,black_cross(without_color)2,732288,,,,blue,,,null,object_02a.png,object_03b.png,,,,,,,,,,,,,,,,,,,,,,
null,,rt_plussign_withcolor2,732790,,,,blue,,,null,object_02a.png,object_03b.png,,,,,,,,,,,,,,,,,,,,,,
995.5999999046326,,rt_thecrossant_black2,734219,,,,black_plus_sign,,,49,,,1,,,,,,,1,,,,,,,,,,,,,,
null,,color_black2,734320,,,,black_plus_sign,,,null,,,,,,,,,,,,,,,,,,,,,,,,
null,,learn_phase(without_color)2,737822,,,,black_plus_sign,,,null,object_15c.png,object_04a.png,,,,,,,,,,,,,,,,,,,,,,
null,,black_cross(without_color)2,738448,,,,green,,,null,object_15c.png,object_04a.png,,,,,,,,,,,,,,,,,,,,,,
null,,rt_plussign_withcolor2,738949,,,,green,,,null,object_15c.png,object_04a.png,,,,,,,,,,,,,,,,,,,,,,
1051.2999999523163,,rt_thecrossant_black2,740328,,,,black_plus_sign,,,50,,,1,,,,,,,1,,,,,,,,,,,,,,
null,,color_black2,740429,,,,black_plus_sign,,,null,,,,,,,,,,,,,,,,,,,,,,,,
null,,learn_phase(without_color)2,743931,,,,black_plus_sign,,,null,object_09b.png,object_08c.png,,,,,,,,,,,,,,,,,,,,,,
null,,black_cross(without_color)2,745032,,,,blue,,,null,object_09b.png,object_08c.png,,,,,,,,,,,,,,,,,,,,,,
null,,rt_plussign_withcolor2,745533,,,,blue,,,null,object_09b.png,object_08c.png,,,,,,,,,,,,,,,,,,,,,,
855,,rt_thecrossant_black2,746434,,,,black_plus_sign,,,49,,,1,,,,,,,1,,,,,,,,,,,,,,
null,,color_black2,746535,,,,black_plus_sign,,,null,,,,,,,,,,,,,,,,,,,,,,,,
null,,learn_phase(without_color)2,750037,,,,black_plus_sign,,,null,object_01b.png,object_04a.png,,,,,,,,,,,,,,,,,,,,,,
null,,black_cross(without_color)2,750805,,,,green,,,null,object_01b.png,object_04a.png,,,,,,,,,,,,,,,,,,,,,,
null,,rt_plussign_withcolor2,751316,,,,green,,,null,object_01b.png,object_04a.png,,,,,,,,,,,,,,,,,,,,,,
1596.3999998569489,,rt_thecrossant_black2,752551,,,,black_plus_sign,,,50,,,1,,,,,,,1,,,,,,,,,,,,,,
null,,color_black2,752652,,,,black_plus_sign,,,null,,,,,,,,,,,,,,,,,,,,,,,,
null,,learn_phase(without_color)2,756154,,,,black_plus_sign,,,null,object_07b.png,object_10b.png,,,,,,,,,,,,,,,,,,,,,,
null,,black_cross(without_color)2,756640,,,,blue,,,null,object_07b.png,object_10b.png,,,,,,,,,,,,,,,,,,,,,,
null,,rt_plussign_withcolor2,757142,,,,blue,,,null,object_07b.png,object_10b.png,,,,,,,,,,,,,,,,,,,,,,
null,,rt_thecrossant_black2,758667,,,,black_plus_sign,,,null,,,,,,,,,,1,,,,,,,,,,,,,,
null,,color_black2,758773,,,,black_plus_sign,,,null,,,,,,,,,,,,,,,,,,,,,,,,
null,,learn_phase(without_color)2,762275,,,,black_plus_sign,,,null,object_07c.png,object_01c.png,,,,,,,,,,,,,,,,,,,,,,
null,,black_cross(without_color)2,762883,,,,blue,,,null,object_07c.png,object_01c.png,,,,,,,,,,,,,,,,,,,,,,
null,,rt_plussign_withcolor2,763385,,,,blue,,,null,object_07c.png,object_01c.png,,,,,,,,,,,,,,,,,,,,,,
695.5,,rt_thecrossant_black2,764781,,,,black_plus_sign,,,49,,,1,,,,,,,1,,,,,,,,,,,,,,
null,,color_black2,764882,,,,black_plus_sign,,,null,,,,,,,,,,,,,,,,,,,,,,,,
null,,learn_phase(without_color)2,768383,,,,black_plus_sign,,,null,object_14a.png,object_05c.png,,,,,,,,,,,,,,,,,,,,,,
null,,black_cross(without_color)2,769470,,,,green,,,null,object_14a.png,object_05c.png,,,,,,,,,,,,,,,,,,,,,,
null,,rt_plussign_withcolor2,769971,,,,green,,,null,object_14a.png,object_05c.png,,,,,,,,,,,,,,,,,,,,,,
990.7999999523163,,rt_thecrossant_black2,770888,,,,black_plus_sign,,,50,,,1,,,,,,,1,,,,,,,,,,,,,,
null,,color_black2,770990,,,,black_plus_sign,,,null,,,,,,,,,,,,,,,,,,,,,,,,
null,,learn_phase(without_color)2,774492,,,,black_plus_sign,,,null,object_05c.png,object_05b.png,,,,,,,,,,,,,,,,,,,,,,
null,,black_cross(without_color)2,775341,,,,green,,,null,object_05c.png,object_05b.png,,,,,,,,,,,,,,,,,,,,,,
null,,rt_plussign_withcolor2,775843,,,,green,,,null,object_05c.png,object_05b.png,,,,,,,,,,,,,,,,,,,,,,
1478.2999999523163,,rt_thecrossant_black2,776998,,,,black_plus_sign,,,50,,,1,,,,,,,1,,,,,,,,,,,,,,
null,,color_black2,777099,,,,black_plus_sign,,,null,,,,,,,,,,,,,,,,,,,,,,,,
null,,thebreak,777202,,,,<p></p>,,,null,,,,,,,,,,,,,,,,,,,,,,,,
2333.399999856949,,intro_0,779537,,,,instruct,,,32,,,,,,,,,,,,,,,,,,,,,,,,
3151,,directmemory_phase2,782688,,,,object_05b.png,,,50,,,1,,object_02c.png,object_05c.png,object_02a.png,object_05c.png,,0.2903225806451613,,1,,,,,,,,,,,,
1830.8999998569489,,directmemory_phase2,784521,,,,object_13a.png,,,50,,,1,,object_11c.png,object_15b.png,object_04c.png,object_15b.png,,0.3125,,1,,,,,,,,,,,,
1383,,directmemory_phase2,785905,,,,object_12a.png,,,51,,,0,,object_11b.png,object_02a.png,object_01b.png,object_11b.png,,0.30303030303030304,,0,,,,,,,,,,,,
1582.6999998092651,,directmemory_phase2,787489,,,,object_14a.png,,,49,,,1,,object_05c.png,object_09a.png,object_10a.png,object_05c.png,,0.3235294117647059,,1,,,,,,,,,,,,
1886.9000000953674,,directmemory_phase2,789377,,,,object_12b.png,,,51,,,0,,object_10c.png,object_04c.png,object_05a.png,object_04c.png,,0.3142857142857143,,0,,,,,,,,,,,,
1750.6000001430511,,directmemory_phase2,791129,,,,object_02b.png,,,49,,,0,,object_09b.png,object_06a.png,object_14b.png,object_06a.png,,0.3055555555555556,,0,,,,,,,,,,,,
1462.7999999523163,,directmemory_phase2,792593,,,,object_01b.png,,,50,,,1,,object_01c.png,object_04a.png,object_02a.png,object_04a.png,,0.32432432432432434,,1,,,,,,,,,,,,
1518.7999999523163,,directmemory_phase2,794113,,,,object_02c.png,,,51,,,0,,object_07a.png,object_09a.png,object_07b.png,object_09a.png,,0.3157894736842105,,0,,,,,,,,,,,,
2630.5,,directmemory_phase2,796744,,,,object_09c.png,,,49,,,0,,object_15b.png,object_01b.png,object_02b.png,object_02b.png,,0.3076923076923077,,0,,,,,,,,,,,,
1311.0999999046326,,directmemory_phase2,798057,,,,object_08b.png,,,50,,,1,,object_12a.png,object_07b.png,object_04c.png,object_07b.png,,0.325,,1,,,,,,,,,,,,
1390.5,,directmemory_phase2,799449,,,,object_08c.png,,,49,,,1,,object_09b.png,object_11b.png,object_06a.png,object_09b.png,,0.34146341463414637,,1,,,,,,,,,,,,
1430.7000000476837,,directmemory_phase2,800881,,,,object_13c.png,,,51,,,1,,object_05a.png,object_01b.png,object_01a.png,object_01a.png,,0.35714285714285715,,1,,,,,,,,,,,,
1430.7999999523163,,directmemory_phase2,802313,,,,object_01c.png,,,50,,,0,,object_07c.png,object_01a.png,object_11c.png,object_07c.png,,0.3488372093023256,,0,,,,,,,,,,,,
1270.6999998092651,,directmemory_phase2,803585,,,,object_15a.png,,,51,,,1,,object_15b.png,object_13b.png,object_01a.png,object_01a.png,,0.36363636363636365,,1,,,,,,,,,,,,
1351,,directmemory_phase2,804937,,,,object_10b.png,,,50,,,0,,object_07b.png,object_07c.png,object_08c.png,object_07b.png,,0.35555555555555557,,0,,,,,,,,,,,,
1366.7999999523163,,directmemory_phase2,806305,,,,object_03b.png,,,49,,,0,,object_04a.png,object_07a.png,object_02a.png,object_02a.png,,0.34782608695652173,,0,,,,,,,,,,,,
1310.7999999523163,,directmemory_phase2,807617,,,,object_05a.png,,,49,,,0,,object_07c.png,object_14c.png,object_14b.png,object_14c.png,,0.3404255319148936,,0,,,,,,,,,,,,
2086.7000000476837,,directmemory_phase2,809705,,,,object_06b.png,,,49,,,0,,object_02b.png,object_14b.png,object_10b.png,object_14b.png,,0.3333333333333333,,0,,,,,,,,,,,,
1854.6999998092651,,directmemory_phase2,811561,,,,object_04b.png,,,50,,,0,,object_09a.png,object_13a.png,object_06b.png,object_06b.png,,0.32653061224489793,,0,,,,,,,,,,,,
1534.6999998092651,,directmemory_phase2,813097,,,,object_07a.png,,,51,,,0,,object_08b.png,object_05a.png,object_09b.png,object_05a.png,,0.32,,0,,,,,,,,,,,,
1662.5999999046326,,directmemory_phase2,814761,,,,object_09a.png,,,49,,,0,,object_07c.png,object_03c.png,object_08c.png,object_03c.png,,0.3137254901960784,,0,,,,,,,,,,,,
2670.7999999523163,,directmemory_phase2,817433,,,,object_13b.png,,,50,,,0,,object_11b.png,object_01a.png,object_14c.png,object_11b.png,,0.3076923076923077,,0,,,,,,,,,,,,
2078.5999999046326,,directmemory_phase2,819513,,,,object_06c.png,,,50,,,0,,object_15c.png,object_01a.png,object_12c.png,object_12c.png,,0.3018867924528302,,0,,,,,,,,,,,,
1471,,directmemory_phase2,820985,,,,object_02a.png,,,51,,,0,,object_10c.png,object_12b.png,object_04a.png,object_10c.png,,0.2962962962962963,,0,,,,,,,,,,,,
1878.5,,directmemory_phase2,822865,,,,object_15b.png,,,51,,,1,,object_13b.png,object_05a.png,object_08a.png,object_08a.png,,0.3090909090909091,,1,,,,,,,,,,,,
1470.7999999523163,,directmemory_phase2,824337,,,,object_11c.png,,,49,,,0,,object_07c.png,object_11a.png,object_04c.png,object_04c.png,,0.30357142857142855,,0,,,,,,,,,,,,
2550.5,,directmemory_phase2,826889,,,,object_04a.png,,,51,,,0,,object_15b.png,object_15c.png,object_14c.png,object_15c.png,,0.2982456140350877,,0,,,,,,,,,,,,
1286.6999998092651,,directmemory_phase2,828177,,,,object_11a.png,,,49,,,0,,object_09b.png,object_01c.png,object_06c.png,object_06c.png,,0.29310344827586204,,0,,,,,,,,,,,,
3438.800000190735,,directmemory_phase2,831617,,,,object_07c.png,,,49,,,1,,object_10a.png,object_12c.png,object_06c.png,object_10a.png,,0.3050847457627119,,1,,,,,,,,,,,,
1718.2000000476837,,directmemory_phase2,833337,,,,object_03a.png,,,50,,,0,,object_09b.png,object_04a.png,object_08b.png,object_09b.png,,0.3,,0,,,,,,,,,,,,
null,,thebreak,833441,,,,<p></p>,,,null,,,,,,,,,,,,,,,,,,,,,,,,
1823.0999999046326,,intro_0,835265,,,,instruct,,,32,,,,,,,,,,,,,,,,,,,,,,,,
null,,learn_phase(without_color)3,838767,,,,black_plus_sign,,,null,object_06a.png,object_02b.png,,,,,,,,,,,,,,,,,,,,,,
null,,black_cross(without_color)3,839460,,,,green,,,null,object_06a.png,object_02b.png,,,,,,,,,,,,,,,,,,,,,,
null,,rt_plussign_withcolor3,839961,,,,green,,,null,object_06a.png,object_02b.png,,,,,,,,,,,,,,,,,,,,,,
901.2000000476837,,rt_thecrossant_black3,841273,,,,black_plus_sign,,,50,,,1,,,,,,,1,,,,,,,,,,,,,,
null,,color_black3,841374,,,,black_plus_sign,,,null,,,,,,,,,,,,,,,,,,,,,,,,
null,,learn_phase(without_color)3,844877,,,,black_plus_sign,,,null,object_05b.png,object_05c.png,,,,,,,,,,,,,,,,,,,,,,
null,,black_cross(without_color)3,845321,,,,green,,,null,object_05b.png,object_05c.png,,,,,,,,,,,,,,,,,,,,,,
null,,rt_plussign_withcolor3,845823,,,,green,,,null,object_05b.png,object_05c.png,,,,,,,,,,,,,,,,,,,,,,
911.2000000476837,,rt_thecrossant_black3,847383,,,,black_plus_sign,,,50,,,1,,,,,,,1,,,,,,,,,,,,,,
null,,color_black3,847485,,,,black_plus_sign,,,null,,,,,,,,,,,,,,,,,,,,,,,,
null,,learn_phase(without_color)3,850990,,,,black_plus_sign,,,null,object_10c.png,object_02a.png,,,,,,,,,,,,,,,,,,,,,,
null,,black_cross(without_color)3,851814,,,,green,,,null,object_10c.png,object_02a.png,,,,,,,,,,,,,,,,,,,,,,
null,,rt_plussign_withcolor3,852316,,,,green,,,null,object_10c.png,object_02a.png,,,,,,,,,,,,,,,,,,,,,,
672.2999999523163,,rt_thecrossant_black3,853504,,,,black_plus_sign,,,50,,,1,,,,,,,1,,,,,,,,,,,,,,
null,,color_black3,853616,,,,black_plus_sign,,,null,,,,,,,,,,,,,,,,,,,,,,,,
null,,learn_phase(without_color)3,857118,,,,black_plus_sign,,,null,object_09a.png,object_03c.png,,,,,,,,,,,,,,,,,,,,,,
null,,black_cross(without_color)3,857655,,,,blue,,,null,object_09a.png,object_03c.png,,,,,,,,,,,,,,,,,,,,,,
null,,rt_plussign_withcolor3,858157,,,,blue,,,null,object_09a.png,object_03c.png,,,,,,,,,,,,,,,,,,,,,,
1029.4000000953674,,rt_thecrossant_black3,859623,,,,black_plus_sign,,,49,,,1,,,,,,,1,,,,,,,,,,,,,,
null,,color_black3,859726,,,,black_plus_sign,,,null,,,,,,,,,,,,,,,,,,,,,,,,
null,,learn_phase(without_color)3,863228,,,,black_plus_sign,,,null,object_09b.png,object_08c.png,,,,,,,,,,,,,,,,,,,,,,
null,,black_cross(without_color)3,864122,,,,green,,,null,object_09b.png,object_08c.png,,,,,,,,,,,,,,,,,,,,,,
null,,rt_plussign_withcolor3,864623,,,,green,,,null,object_09b.png,object_08c.png,,,,,,,,,,,,,,,,,,,,,,
900.0999999046326,,rt_thecrossant_black3,865732,,,,black_plus_sign,,,50,,,1,,,,,,,1,,,,,,,,,,,,,,
null,,color_black3,865833,,,,black_plus_sign,,,null,,,,,,,,,,,,,,,,,,,,,,,,
null,,learn_phase(without_color)3,869336,,,,black_plus_sign,,,null,object_15b.png,object_08a.png,,,,,,,,,,,,,,,,,,,,,,
null,,black_cross(without_color)3,869738,,,,blue,,,null,object_15b.png,object_08a.png,,,,,,,,,,,,,,,,,,,,,,
null,,rt_plussign_withcolor3,870240,,,,blue,,,null,object_15b.png,object_08a.png,,,,,,,,,,,,,,,,,,,,,,
1207.9000000953674,,rt_thecrossant_black3,871842,,,,black_plus_sign,,,49,,,1,,,,,,,1,,,,,,,,,,,,,,
null,,color_black3,871943,,,,black_plus_sign,,,null,,,,,,,,,,,,,,,,,,,,,,,,
null,,learn_phase(without_color)3,875445,,,,black_plus_sign,,,null,object_02b.png,object_09c.png,,,,,,,,,,,,,,,,,,,,,,
null,,black_cross(without_color)3,876133,,,,blue,,,null,object_02b.png,object_09c.png,,,,,,,,,,,,,,,,,,,,,,
null,,rt_plussign_withcolor3,876634,,,,blue,,,null,object_02b.png,object_09c.png,,,,,,,,,,,,,,,,,,,,,,
1130.5,,rt_thecrossant_black3,877950,,,,black_plus_sign,,,49,,,1,,,,,,,1,,,,,,,,,,,,,,
null,,color_black3,878052,,,,black_plus_sign,,,null,,,,,,,,,,,,,,,,,,,,,,,,
null,,learn_phase(without_color)3,881565,,,,black_plus_sign,,,null,object_12c.png,object_06c.png,,,,,,,,,,,,,,,,,,,,,,
null,,black_cross(without_color)3,882157,,,,green,,,null,object_12c.png,object_06c.png,,,,,,,,,,,,,,,,,,,,,,
null,,rt_plussign_withcolor3,882668,,,,green,,,null,object_12c.png,object_06c.png,,,,,,,,,,,,,,,,,,,,,,
1061.7999999523163,,rt_thecrossant_black3,884078,,,,black_plus_sign,,,50,,,1,,,,,,,1,,,,,,,,,,,,,,
null,,color_black3,884180,,,,black_plus_sign,,,null,,,,,,,,,,,,,,,,,,,,,,,,
null,,learn_phase(without_color)3,887682,,,,black_plus_sign,,,null,object_06b.png,object_04b.png,,,,,,,,,,,,,,,,,,,,,,
null,,black_cross(without_color)3,888696,,,,green,,,null,object_06b.png,object_04b.png,,,,,,,,,,,,,,,,,,,,,,
null,,rt_plussign_withcolor3,889198,,,,green,,,null,object_06b.png,object_04b.png,,,,,,,,,,,,,,,,,,,,,,
988.7999999523163,,rt_thecrossant_black3,890195,,,,black_plus_sign,,,50,,,1,,,,,,,1,,,,,,,,,,,,,,
null,,color_black3,890296,,,,black_plus_sign,,,null,,,,,,,,,,,,,,,,,,,,,,,,
null,,learn_phase(without_color)3,893798,,,,black_plus_sign,,,null,object_04c.png,object_12b.png,,,,,,,,,,,,,,,,,,,,,,
null,,black_cross(without_color)3,894807,,,,blue,,,null,object_04c.png,object_12b.png,,,,,,,,,,,,,,,,,,,,,,
null,,rt_plussign_withcolor3,895308,,,,blue,,,null,object_04c.png,object_12b.png,,,,,,,,,,,,,,,,,,,,,,
1275.6000001430511,,rt_thecrossant_black3,896304,,,,black_plus_sign,,,49,,,1,,,,,,,1,,,,,,,,,,,,,,
null,,color_black3,896406,,,,black_plus_sign,,,null,,,,,,,,,,,,,,,,,,,,,,,,
null,,learn_phase(without_color)3,899907,,,,black_plus_sign,,,null,object_07c.png,object_01c.png,,,,,,,,,,,,,,,,,,,,,,
null,,black_cross(without_color)3,900451,,,,blue,,,null,object_07c.png,object_01c.png,,,,,,,,,,,,,,,,,,,,,,
null,,rt_plussign_withcolor3,900952,,,,blue,,,null,object_07c.png,object_01c.png,,,,,,,,,,,,,,,,,,,,,,
1362.9000000953674,,rt_thecrossant_black3,902413,,,,black_plus_sign,,,49,,,1,,,,,,,1,,,,,,,,,,,,,,
null,,color_black3,902515,,,,black_plus_sign,,,null,,,,,,,,,,,,,,,,,,,,,,,,
null,,learn_phase(without_color)3,906018,,,,black_plus_sign,,,null,object_03a.png,object_09b.png,,,,,,,,,,,,,,,,,,,,,,
null,,black_cross(without_color)3,906875,,,,green,,,null,object_03a.png,object_09b.png,,,,,,,,,,,,,,,,,,,,,,
null,,rt_plussign_withcolor3,907376,,,,green,,,null,object_03a.png,object_09b.png,,,,,,,,,,,,,,,,,,,,,,
873.2000000476837,,rt_thecrossant_black3,908528,,,,black_plus_sign,,,50,,,1,,,,,,,1,,,,,,,,,,,,,,
null,,color_black3,908630,,,,black_plus_sign,,,null,,,,,,,,,,,,,,,,,,,,,,,,
null,,learn_phase(without_color)3,912132,,,,black_plus_sign,,,null,object_12a.png,object_11b.png,,,,,,,,,,,,,,,,,,,,,,
null,,black_cross(without_color)3,912954,,,,blue,,,null,object_12a.png,object_11b.png,,,,,,,,,,,,,,,,,,,,,,
null,,rt_plussign_withcolor3,913455,,,,blue,,,null,object_12a.png,object_11b.png,,,,,,,,,,,,,,,,,,,,,,
1187.2999999523163,,rt_thecrossant_black3,914638,,,,black_plus_sign,,,49,,,1,,,,,,,1,,,,,,,,,,,,,,
null,,color_black3,914739,,,,black_plus_sign,,,null,,,,,,,,,,,,,,,,,,,,,,,,
null,,learn_phase(without_color)3,918242,,,,black_plus_sign,,,null,object_14b.png,object_06b.png,,,,,,,,,,,,,,,,,,,,,,
null,,black_cross(without_color)3,919203,,,,green,,,null,object_14b.png,object_06b.png,,,,,,,,,,,,,,,,,,,,,,
null,,rt_plussign_withcolor3,919704,,,,green,,,null,object_14b.png,object_06b.png,,,,,,,,,,,,,,,,,,,,,,
1191.7000000476837,,rt_thecrossant_black3,920747,,,,black_plus_sign,,,50,,,1,,,,,,,1,,,,,,,,,,,,,,
null,,color_black3,920849,,,,black_plus_sign,,,null,,,,,,,,,,,,,,,,,,,,,,,,
null,,learn_phase(without_color)3,924350,,,,black_plus_sign,,,null,object_11b.png,object_13b.png,,,,,,,,,,,,,,,,,,,,,,
null,,black_cross(without_color)3,924760,,,,green,,,null,object_11b.png,object_13b.png,,,,,,,,,,,,,,,,,,,,,,
null,,rt_plussign_withcolor3,925260,,,,green,,,null,object_11b.png,object_13b.png,,,,,,,,,,,,,,,,,,,,,,
1334.5,,rt_thecrossant_black3,926854,,,,black_plus_sign,,,50,,,1,,,,,,,1,,,,,,,,,,,,,,
null,,color_black3,926956,,,,black_plus_sign,,,null,,,,,,,,,,,,,,,,,,,,,,,,
null,,learn_phase(without_color)3,930464,,,,black_plus_sign,,,null,object_14a.png,object_05c.png,,,,,,,,,,,,,,,,,,,,,,
null,,black_cross(without_color)3,931225,,,,green,,,null,object_14a.png,object_05c.png,,,,,,,,,,,,,,,,,,,,,,
null,,rt_plussign_withcolor3,931727,,,,green,,,null,object_14a.png,object_05c.png,,,,,,,,,,,,,,,,,,,,,,
668.3999998569489,,rt_thecrossant_black3,932970,,,,black_plus_sign,,,50,,,1,,,,,,,1,,,,,,,,,,,,,,
null,,color_black3,933071,,,,black_plus_sign,,,null,,,,,,,,,,,,,,,,,,,,,,,,
null,,learn_phase(without_color)3,936573,,,,black_plus_sign,,,null,object_03b.png,object_02a.png,,,,,,,,,,,,,,,,,,,,,,
null,,black_cross(without_color)3,937508,,,,green,,,null,object_03b.png,object_02a.png,,,,,,,,,,,,,,,,,,,,,,
null,,rt_plussign_withcolor3,938009,,,,green,,,null,object_03b.png,object_02a.png,,,,,,,,,,,,,,,,,,,,,,
1057.7999999523163,,rt_thecrossant_black3,939078,,,,black_plus_sign,,,50,,,1,,,,,,,1,,,,,,,,,,,,,,
null,,color_black3,939180,,,,black_plus_sign,,,null,,,,,,,,,,,,,,,,,,,,,,,,
null,,learn_phase(without_color)3,942681,,,,black_plus_sign,,,null,object_08b.png,object_07b.png,,,,,,,,,,,,,,,,,,,,,,
null,,black_cross(without_color)3,943765,,,,green,,,null,object_08b.png,object_07b.png,,,,,,,,,,,,,,,,,,,,,,
null,,rt_plussign_withcolor3,944266,,,,green,,,null,object_08b.png,object_07b.png,,,,,,,,,,,,,,,,,,,,,,
1079.2000000476837,,rt_thecrossant_black3,945185,,,,black_plus_sign,,,50,,,1,,,,,,,1,,,,,,,,,,,,,,
null,,color_black3,945285,,,,black_plus_sign,,,null,,,,,,,,,,,,,,,,,,,,,,,,
null,,learn_phase(without_color)3,948788,,,,black_plus_sign,,,null,object_13a.png,object_15b.png,,,,,,,,,,,,,,,,,,,,,,
null,,black_cross(without_color)3,949575,,,,green,,,null,object_13a.png,object_15b.png,,,,,,,,,,,,,,,,,,,,,,
null,,rt_plussign_withcolor3,950077,,,,green,,,null,object_13a.png,object_15b.png,,,,,,,,,,,,,,,,,,,,,,
1369.6999998092651,,rt_thecrossant_black3,951293,,,,black_plus_sign,,,50,,,1,,,,,,,1,,,,,,,,,,,,,,
null,,color_black3,951396,,,,black_plus_sign,,,null,,,,,,,,,,,,,,,,,,,,,,,,
null,,learn_phase(without_color)3,954897,,,,black_plus_sign,,,null,object_01a.png,object_13c.png,,,,,,,,,,,,,,,,,,,,,,
null,,black_cross(without_color)3,955458,,,,green,,,null,object_01a.png,object_13c.png,,,,,,,,,,,,,,,,,,,,,,
null,,rt_plussign_withcolor3,955961,,,,green,,,null,object_01a.png,object_13c.png,,,,,,,,,,,,,,,,,,,,,,
956.2999999523163,,rt_thecrossant_black3,957403,,,,black_plus_sign,,,50,,,1,,,,,,,1,,,,,,,,,,,,,,
null,,color_black3,957505,,,,black_plus_sign,,,null,,,,,,,,,,,,,,,,,,,,,,,,
null,,learn_phase(without_color)3,961013,,,,black_plus_sign,,,null,object_11a.png,object_06c.png,,,,,,,,,,,,,,,,,,,,,,
null,,black_cross(without_color)3,961770,,,,green,,,null,object_11a.png,object_06c.png,,,,,,,,,,,,,,,,,,,,,,
486.19999980926514,,rt_plussign_withcolor3,962271,,,,green,,,50,object_11a.png,object_06c.png,,,,,,,,,,,,,,,,,,,,,,
null,,rt_thecrossant_black3,963519,,,,black_plus_sign,,,null,,,1,,,,,,,1,,,,,,,,,,,,,,
null,,color_black3,963621,,,,black_plus_sign,,,null,,,,,,,,,,,,,,,,,,,,,,,,
null,,learn_phase(without_color)3,967122,,,,black_plus_sign,,,null,object_15a.png,object_01a.png,,,,,,,,,,,,,,,,,,,,,,
null,,black_cross(without_color)3,967924,,,,green,,,null,object_15a.png,object_01a.png,,,,,,,,,,,,,,,,,,,,,,
null,,rt_plussign_withcolor3,968426,,,,green,,,null,object_15a.png,object_01a.png,,,,,,,,,,,,,,,,,,,,,,
885,,rt_thecrossant_black3,969627,,,,black_plus_sign,,,50,,,1,,,,,,,1,,,,,,,,,,,,,,
null,,color_black3,969729,,,,black_plus_sign,,,null,,,,,,,,,,,,,,,,,,,,,,,,
null,,learn_phase(without_color)3,973246,,,,black_plus_sign,,,null,object_07b.png,object_10b.png,,,,,,,,,,,,,,,,,,,,,,
null,,black_cross(without_color)3,974063,,,,blue,,,null,object_07b.png,object_10b.png,,,,,,,,,,,,,,,,,,,,,,
null,,rt_plussign_withcolor3,974564,,,,blue,,,null,object_07b.png,object_10b.png,,,,,,,,,,,,,,,,,,,,,,
1056.2000000476837,,rt_thecrossant_black3,975750,,,,black_plus_sign,,,49,,,1,,,,,,,1,,,,,,,,,,,,,,
null,,color_black3,975851,,,,black_plus_sign,,,null,,,,,,,,,,,,,,,,,,,,,,,,
null,,learn_phase(without_color)3,979352,,,,black_plus_sign,,,null,object_09a.png,object_02c.png,,,,,,,,,,,,,,,,,,,,,,
null,,black_cross(without_color)3,979811,,,,green,,,null,object_09a.png,object_02c.png,,,,,,,,,,,,,,,,,,,,,,
null,,rt_plussign_withcolor3,980313,,,,green,,,null,object_09a.png,object_02c.png,,,,,,,,,,,,,,,,,,,,,,
1211.2000000476837,,rt_thecrossant_black3,981856,,,,black_plus_sign,,,50,,,1,,,,,,,1,,,,,,,,,,,,,,
null,,color_black3,981957,,,,black_plus_sign,,,null,,,,,,,,,,,,,,,,,,,,,,,,
null,,learn_phase(without_color)3,985459,,,,black_plus_sign,,,null,object_04c.png,object_11c.png,,,,,,,,,,,,,,,,,,,,,,
null,,black_cross(without_color)3,985867,,,,blue,,,null,object_04c.png,object_11c.png,,,,,,,,,,,,,,,,,,,,,,
null,,rt_plussign_withcolor3,986369,,,,blue,,,null,object_04c.png,object_11c.png,,,,,,,,,,,,,,,,,,,,,,
781.1000001430511,,rt_thecrossant_black3,987965,,,,black_plus_sign,,,49,,,1,,,,,,,1,,,,,,,,,,,,,,
null,,color_black3,988066,,,,black_plus_sign,,,null,,,,,,,,,,,,,,,,,,,,,,,,
null,,learn_phase(without_color)3,991573,,,,black_plus_sign,,,null,object_14c.png,object_05a.png,,,,,,,,,,,,,,,,,,,,,,
null,,black_cross(without_color)3,992134,,,,green,,,null,object_14c.png,object_05a.png,,,,,,,,,,,,,,,,,,,,,,
null,,rt_plussign_withcolor3,992635,,,,green,,,null,object_14c.png,object_05a.png,,,,,,,,,,,,,,,,,,,,,,
622.7000000476837,,rt_thecrossant_black3,994079,,,,black_plus_sign,,,50,,,1,,,,,,,1,,,,,,,,,,,,,,
null,,color_black3,994180,,,,black_plus_sign,,,null,,,,,,,,,,,,,,,,,,,,,,,,
null,,learn_phase(without_color)3,997682,,,,black_plus_sign,,,null,object_15c.png,object_04a.png,,,,,,,,,,,,,,,,,,,,,,
null,,black_cross(without_color)3,998768,,,,green,,,null,object_15c.png,object_04a.png,,,,,,,,,,,,,,,,,,,,,,
null,,rt_plussign_withcolor3,999269,,,,green,,,null,object_15c.png,object_04a.png,,,,,,,,,,,,,,,,,,,,,,
925.7000000476837,,rt_thecrossant_black3,1000199,,,,black_plus_sign,,,50,,,1,,,,,,,1,,,,,,,,,,,,,,
null,,color_black3,1000300,,,,black_plus_sign,,,null,,,,,,,,,,,,,,,,,,,,,,,,
null,,learn_phase(without_color)3,1003801,,,,black_plus_sign,,,null,object_07c.png,object_10a.png,,,,,,,,,,,,,,,,,,,,,,
null,,black_cross(without_color)3,1004241,,,,green,,,null,object_07c.png,object_10a.png,,,,,,,,,,,,,,,,,,,,,,
null,,rt_plussign_withcolor3,1004749,,,,green,,,null,object_07c.png,object_10a.png,,,,,,,,,,,,,,,,,,,,,,
1246.5,,rt_thecrossant_black3,1006322,,,,black_plus_sign,,,50,,,1,,,,,,,1,,,,,,,,,,,,,,
null,,color_black3,1006423,,,,black_plus_sign,,,null,,,,,,,,,,,,,,,,,,,,,,,,
null,,learn_phase(without_color)3,1009932,,,,black_plus_sign,,,null,object_04a.png,object_01b.png,,,,,,,,,,,,,,,,,,,,,,
null,,black_cross(without_color)3,1010993,,,,blue,,,null,object_04a.png,object_01b.png,,,,,,,,,,,,,,,,,,,,,,
null,,rt_plussign_withcolor3,1011495,,,,blue,,,null,object_04a.png,object_01b.png,,,,,,,,,,,,,,,,,,,,,,
545.6000001430511,,rt_thecrossant_black3,1012449,,,,black_plus_sign,,,49,,,1,,,,,,,1,,,,,,,,,,,,,,
null,,color_black3,1012551,,,,black_plus_sign,,,null,,,,,,,,,,,,,,,,,,,,,,,,
null,,learn_phase(without_color)3,1016053,,,,black_plus_sign,,,null,object_07a.png,object_05a.png,,,,,,,,,,,,,,,,,,,,,,
null,,black_cross(without_color)3,1017133,,,,blue,,,null,object_07a.png,object_05a.png,,,,,,,,,,,,,,,,,,,,,,
null,,rt_plussign_withcolor3,1017644,,,,blue,,,null,object_07a.png,object_05a.png,,,,,,,,,,,,,,,,,,,,,,
1419.2999999523163,,rt_thecrossant_black3,1018567,,,,black_plus_sign,,,49,,,1,,,,,,,1,,,,,,,,,,,,,,
null,,color_black3,1018668,,,,black_plus_sign,,,null,,,,,,,,,,,,,,,,,,,,,,,,
null,,thebreak,1018771,,,,<p></p>,,,null,,,,,,,,,,,,,,,,,,,,,,,,
1613.4000000953674,,intro_0,1020385,,,,instruct,,,32,,,,,,,,,,,,,,,,,,,,,,,,
2559.4000000953674,,directmemory_phase3,1022945,,,,object_13a.png,,,50,,,1,,object_03b.png,object_15b.png,object_02b.png,object_15b.png,,0.3114754098360656,,1,,,,,,,,,,,,
1550.5,,directmemory_phase3,1024497,,,,object_08b.png,,,50,,,1,,object_07a.png,object_07b.png,object_02b.png,object_07b.png,,0.3225806451612903,,1,,,,,,,,,,,,
2062.7000000476837,,directmemory_phase3,1026561,,,,object_11a.png,,,51,,,0,,object_06c.png,object_07b.png,object_04b.png,object_06c.png,,0.31746031746031744,,0,,,,,,,,,,,,
1502.7999999523163,,directmemory_phase3,1028065,,,,object_12a.png,,,49,,,0,,object_07b.png,object_03b.png,object_11b.png,object_11b.png,,0.3125,,0,,,,,,,,,,,,
2438.4000000953674,,directmemory_phase3,1030505,,,,object_03b.png,,,50,,,0,,object_02a.png,object_06b.png,object_13a.png,object_02a.png,,0.3076923076923077,,0,,,,,,,,,,,,
1446.7999999523163,,directmemory_phase3,1031953,,,,object_10b.png,,,49,,,1,,object_07b.png,object_09b.png,object_08a.png,object_07b.png,,0.3181818181818182,,1,,,,,,,,,,,,
2358.600000143051,,directmemory_phase3,1034313,,,,object_12c.png,,,49,,,0,,object_02a.png,object_08c.png,object_06c.png,object_06c.png,,0.31343283582089554,,0,,,,,,,,,,,,
1414.7000000476837,,directmemory_phase3,1035729,,,,object_15b.png,,,50,,,1,,object_02b.png,object_08a.png,object_14c.png,object_08a.png,,0.3235294117647059,,1,,,,,,,,,,,,
2062.7999999523163,,directmemory_phase3,1037793,,,,object_12b.png,,,49,,,1,,object_04c.png,object_15b.png,object_10b.png,object_04c.png,,0.3333333333333333,,1,,,,,,,,,,,,
1550.8000001907349,,directmemory_phase3,1039345,,,,object_02c.png,,,49,,,0,,object_02b.png,object_13a.png,object_09a.png,object_09a.png,,0.32857142857142857,,0,,,,,,,,,,,,
1926.6000001430511,,directmemory_phase3,1041273,,,,object_04b.png,,,50,,,1,,object_13c.png,object_06b.png,object_11b.png,object_06b.png,,0.3380281690140845,,1,,,,,,,,,,,,
1758.6000001430511,,directmemory_phase3,1043033,,,,object_06b.png,,,51,,,0,,object_14b.png,object_15a.png,object_09a.png,object_14b.png,,0.3333333333333333,,0,,,,,,,,,,,,
1942.8000001907349,,directmemory_phase3,1044977,,,,object_11b.png,,,50,,,0,,object_15a.png,object_02b.png,object_13b.png,object_13b.png,,0.3287671232876712,,0,,,,,,,,,,,,
1558.5,,directmemory_phase3,1046537,,,,object_14c.png,,,49,,,0,,object_04a.png,object_12b.png,object_05a.png,object_05a.png,,0.32432432432432434,,0,,,,,,,,,,,,
2166.5999999046326,,directmemory_phase3,1048705,,,,object_11c.png,,,50,,,0,,object_04c.png,object_09b.png,object_03a.png,object_04c.png,,0.32,,0,,,,,,,,,,,,
2094.800000190735,,directmemory_phase3,1050801,,,,object_01b.png,,,50,,,1,,object_08b.png,object_04a.png,object_07c.png,object_04a.png,,0.32894736842105265,,1,,,,,,,,,,,,
1734.3999998569489,,directmemory_phase3,1052537,,,,object_13c.png,,,50,,,1,,object_11a.png,object_01a.png,object_06c.png,object_01a.png,,0.33766233766233766,,1,,,,,,,,,,,,
1582.5999999046326,,directmemory_phase3,1054121,,,,object_15c.png,,,50,,,1,,object_06a.png,object_04a.png,object_06b.png,object_04a.png,,0.34615384615384615,,1,,,,,,,,,,,,
1814.7000000476837,,directmemory_phase3,1055937,,,,object_06a.png,,,51,,,0,,object_03c.png,object_02b.png,object_09a.png,object_02b.png,,0.34177215189873417,,0,,,,,,,,,,,,
1334.6000001430511,,directmemory_phase3,1057273,,,,object_03a.png,,,51,,,1,,object_04c.png,object_09c.png,object_09b.png,object_09b.png,,0.35,,1,,,,,,,,,,,,
2078.9000000953674,,directmemory_phase3,1059353,,,,object_05b.png,,,50,,,0,,object_05c.png,object_02a.png,object_09c.png,object_05c.png,,0.345679012345679,,0,,,,,,,,,,,,
2486.7000000476837,,directmemory_phase3,1061841,,,,object_07a.png,,,50,,,0,,object_15b.png,object_08b.png,object_05a.png,object_05a.png,,0.34146341463414637,,0,,,,,,,,,,,,
1278.7000000476837,,directmemory_phase3,1063121,,,,object_14a.png,,,50,,,0,,object_05c.png,object_04a.png,object_15a.png,object_05c.png,,0.3373493975903614,,0,,,,,,,,,,,,
1422.5999999046326,,directmemory_phase3,1064545,,,,object_09b.png,,,51,,,0,,object_08c.png,object_10c.png,object_06b.png,object_08c.png,,0.3333333333333333,,0,,,,,,,,,,,,
2014.6000001430511,,directmemory_phase3,1066561,,,,object_10c.png,,,50,,,0,,object_02a.png,object_01a.png,object_03c.png,object_02a.png,,0.32941176470588235,,0,,,,,,,,,,,,
1846.7999999523163,,directmemory_phase3,1068409,,,,object_01c.png,,,49,,,1,,object_07c.png,object_07b.png,object_08b.png,object_07c.png,,0.3372093023255814,,1,,,,,,,,,,,,
2494.7999999523163,,directmemory_phase3,1070905,,,,object_03c.png,,,51,,,0,,object_10b.png,object_09a.png,object_02a.png,object_09a.png,,0.3333333333333333,,0,,,,,,,,,,,,
2382.600000143051,,directmemory_phase3,1073289,,,,object_07c.png,,,49,,,1,,object_10a.png,object_12c.png,object_06c.png,object_10a.png,,0.3409090909090909,,1,,,,,,,,,,,,
1366.7000000476837,,directmemory_phase3,1074657,,,,object_09c.png,,,49,,,0,,object_06b.png,object_07a.png,object_02b.png,object_02b.png,,0.33707865168539325,,0,,,,,,,,,,,,
1774.5,,directmemory_phase3,1076433,,,,object_01a.png,,,49,,,1,,object_15a.png,object_14c.png,object_04c.png,object_15a.png,,0.34444444444444444,,1,,,,,,,,,,,,
null,,thebreak,1076534,,,,<p></p>,,,null,,,,,,,,,,,,,,,,,,,,,,,,
1857.7999999523163,,intro_0,1078393,,,,instruct,,,32,,,,,,,,,,,,,,,,,,,,,,,,
null,,learn_phase(without_color)4,1081894,,,,black_plus_sign,,,null,object_08b.png,object_07b.png,,,,,,,,,,,,,,,,,,,,,,
null,,black_cross(without_color)4,1082761,,,,green,,,null,object_08b.png,object_07b.png,,,,,,,,,,,,,,,,,,,,,,
null,,rt_plussign_withcolor4,1083262,,,,green,,,null,object_08b.png,object_07b.png,,,,,,,,,,,,,,,,,,,,,,
1614.7000000476837,,rt_thecrossant_black4,1084400,,,,black_plus_sign,,,50,,,1,,,,,,,1,,,,,,,,,,,,,,
null,,color_black4,1084502,,,,black_plus_sign,,,null,,,,,,,,,,,,,,,,,,,,,,,,
null,,learn_phase(without_color)4,1088003,,,,black_plus_sign,,,null,object_03b.png,object_02a.png,,,,,,,,,,,,,,,,,,,,,,
null,,black_cross(without_color)4,1089005,,,,blue,,,null,object_03b.png,object_02a.png,,,,,,,,,,,,,,,,,,,,,,
null,,rt_plussign_withcolor4,1089508,,,,blue,,,null,object_03b.png,object_02a.png,,,,,,,,,,,,,,,,,,,,,,
1184.6999998092651,,rt_thecrossant_black4,1090509,,,,black_plus_sign,,,49,,,1,,,,,,,1,,,,,,,,,,,,,,
null,,color_black4,1090611,,,,black_plus_sign,,,null,,,,,,,,,,,,,,,,,,,,,,,,
null,,learn_phase(without_color)4,1094113,,,,black_plus_sign,,,null,object_14a.png,object_05c.png,,,,,,,,,,,,,,,,,,,,,,
null,,black_cross(without_color)4,1095132,,,,green,,,null,object_14a.png,object_05c.png,,,,,,,,,,,,,,,,,,,,,,
null,,rt_plussign_withcolor4,1095638,,,,green,,,null,object_14a.png,object_05c.png,,,,,,,,,,,,,,,,,,,,,,
1295.4000000953674,,rt_thecrossant_black4,1096623,,,,black_plus_sign,,,50,,,1,,,,,,,1,,,,,,,,,,,,,,
null,,color_black4,1096725,,,,black_plus_sign,,,null,,,,,,,,,,,,,,,,,,,,,,,,
null,,learn_phase(without_color)4,1100227,,,,black_plus_sign,,,null,object_06b.png,object_14b.png,,,,,,,,,,,,,,,,,,,,,,
null,,black_cross(without_color)4,1100731,,,,blue,,,null,object_06b.png,object_14b.png,,,,,,,,,,,,,,,,,,,,,,
null,,rt_plussign_withcolor4,1101233,,,,blue,,,null,object_06b.png,object_14b.png,,,,,,,,,,,,,,,,,,,,,,
1244.2000000476837,,rt_thecrossant_black4,1102733,,,,black_plus_sign,,,49,,,1,,,,,,,1,,,,,,,,,,,,,,
null,,color_black4,1102834,,,,black_plus_sign,,,null,,,,,,,,,,,,,,,,,,,,,,,,
null,,learn_phase(without_color)4,1106335,,,,black_plus_sign,,,null,object_15b.png,object_13a.png,,,,,,,,,,,,,,,,,,,,,,
null,,black_cross(without_color)4,1106775,,,,blue,,,null,object_15b.png,object_13a.png,,,,,,,,,,,,,,,,,,,,,,
null,,rt_plussign_withcolor4,1107277,,,,blue,,,null,object_15b.png,object_13a.png,,,,,,,,,,,,,,,,,,,,,,
813,,rt_thecrossant_black4,1108840,,,,black_plus_sign,,,49,,,1,,,,,,,1,,,,,,,,,,,,,,
null,,color_black4,1108941,,,,black_plus_sign,,,null,,,,,,,,,,,,,,,,,,,,,,,,
null,,learn_phase(without_color)4,1112444,,,,black_plus_sign,,,null,object_03a.png,object_09b.png,,,,,,,,,,,,,,,,,,,,,,
null,,black_cross(without_color)4,1113463,,,,green,,,null,object_03a.png,object_09b.png,,,,,,,,,,,,,,,,,,,,,,
null,,rt_plussign_withcolor4,1113965,,,,green,,,null,object_03a.png,object_09b.png,,,,,,,,,,,,,,,,,,,,,,
742,,rt_thecrossant_black4,1114949,,,,black_plus_sign,,,50,,,1,,,,,,,1,,,,,,,,,,,,,,
null,,color_black4,1115050,,,,black_plus_sign,,,null,,,,,,,,,,,,,,,,,,,,,,,,
null,,learn_phase(without_color)4,1118551,,,,black_plus_sign,,,null,object_02b.png,object_06a.png,,,,,,,,,,,,,,,,,,,,,,
null,,black_cross(without_color)4,1119088,,,,blue,,,null,object_02b.png,object_06a.png,,,,,,,,,,,,,,,,,,,,,,
null,,rt_plussign_withcolor4,1119590,,,,blue,,,null,object_02b.png,object_06a.png,,,,,,,,,,,,,,,,,,,,,,
1360.4000000953674,,rt_thecrossant_black4,1121058,,,,black_plus_sign,,,49,,,1,,,,,,,1,,,,,,,,,,,,,,
null,,color_black4,1121160,,,,black_plus_sign,,,null,,,,,,,,,,,,,,,,,,,,,,,,
null,,learn_phase(without_color)4,1124662,,,,black_plus_sign,,,null,object_05a.png,object_14c.png,,,,,,,,,,,,,,,,,,,,,,
null,,black_cross(without_color)4,1125718,,,,green,,,null,object_05a.png,object_14c.png,,,,,,,,,,,,,,,,,,,,,,
null,,rt_plussign_withcolor4,1126220,,,,green,,,null,object_05a.png,object_14c.png,,,,,,,,,,,,,,,,,,,,,,
686.5,,rt_thecrossant_black4,1127168,,,,black_plus_sign,,,50,,,1,,,,,,,1,,,,,,,,,,,,,,
null,,color_black4,1127270,,,,black_plus_sign,,,null,,,,,,,,,,,,,,,,,,,,,,,,
null,,learn_phase(without_color)4,1130772,,,,black_plus_sign,,,null,object_06c.png,object_12c.png,,,,,,,,,,,,,,,,,,,,,,
null,,black_cross(without_color)4,1131696,,,,green,,,null,object_06c.png,object_12c.png,,,,,,,,,,,,,,,,,,,,,,
null,,rt_plussign_withcolor4,1132198,,,,green,,,null,object_06c.png,object_12c.png,,,,,,,,,,,,,,,,,,,,,,
1411.2999999523163,,rt_thecrossant_black4,1133277,,,,black_plus_sign,,,50,,,1,,,,,,,1,,,,,,,,,,,,,,
null,,color_black4,1133378,,,,black_plus_sign,,,null,,,,,,,,,,,,,,,,,,,,,,,,
null,,learn_phase(without_color)4,1136881,,,,black_plus_sign,,,null,object_06b.png,object_04b.png,,,,,,,,,,,,,,,,,,,,,,
null,,black_cross(without_color)4,1137720,,,,blue,,,null,object_06b.png,object_04b.png,,,,,,,,,,,,,,,,,,,,,,
null,,rt_plussign_withcolor4,1138221,,,,blue,,,null,object_06b.png,object_04b.png,,,,,,,,,,,,,,,,,,,,,,
1090.2999999523163,,rt_thecrossant_black4,1139398,,,,black_plus_sign,,,49,,,1,,,,,,,1,,,,,,,,,,,,,,
null,,color_black4,1139500,,,,black_plus_sign,,,null,,,,,,,,,,,,,,,,,,,,,,,,
null,,learn_phase(without_color)4,1143002,,,,black_plus_sign,,,null,object_04a.png,object_15c.png,,,,,,,,,,,,,,,,,,,,,,
null,,black_cross(without_color)4,1143913,,,,green,,,null,object_04a.png,object_15c.png,,,,,,,,,,,,,,,,,,,,,,
null,,rt_plussign_withcolor4,1144415,,,,green,,,null,object_04a.png,object_15c.png,,,,,,,,,,,,,,,,,,,,,,
1117.9000000953674,,rt_thecrossant_black4,1145510,,,,black_plus_sign,,,50,,,1,,,,,,,1,,,,,,,,,,,,,,
null,,color_black4,1145612,,,,black_plus_sign,,,null,,,,,,,,,,,,,,,,,,,,,,,,
null,,learn_phase(without_color)4,1149113,,,,black_plus_sign,,,null,object_04c.png,object_12b.png,,,,,,,,,,,,,,,,,,,,,,
null,,black_cross(without_color)4,1150005,,,,blue,,,null,object_04c.png,object_12b.png,,,,,,,,,,,,,,,,,,,,,,
null,,rt_plussign_withcolor4,1150507,,,,blue,,,null,object_04c.png,object_12b.png,,,,,,,,,,,,,,,,,,,,,,
1421.3999998569489,,rt_thecrossant_black4,1151619,,,,black_plus_sign,,,49,,,1,,,,,,,1,,,,,,,,,,,,,,
null,,color_black4,1151720,,,,black_plus_sign,,,null,,,,,,,,,,,,,,,,,,,,,,,,
null,,learn_phase(without_color)4,1155222,,,,black_plus_sign,,,null,object_01a.png,object_13c.png,,,,,,,,,,,,,,,,,,,,,,
null,,black_cross(without_color)4,1155657,,,,blue,,,null,object_01a.png,object_13c.png,,,,,,,,,,,,,,,,,,,,,,
null,,rt_plussign_withcolor4,1156158,,,,blue,,,null,object_01a.png,object_13c.png,,,,,,,,,,,,,,,,,,,,,,
1071,,rt_thecrossant_black4,1157728,,,,black_plus_sign,,,49,,,1,,,,,,,1,,,,,,,,,,,,,,
null,,color_black4,1157831,,,,black_plus_sign,,,null,,,,,,,,,,,,,,,,,,,,,,,,
null,,learn_phase(without_color)4,1161333,,,,black_plus_sign,,,null,object_06c.png,object_11a.png,,,,,,,,,,,,,,,,,,,,,,
null,,black_cross(without_color)4,1161916,,,,blue,,,null,object_06c.png,object_11a.png,,,,,,,,,,,,,,,,,,,,,,
null,,rt_plussign_withcolor4,1162423,,,,blue,,,null,object_06c.png,object_11a.png,,,,,,,,,,,,,,,,,,,,,,
949,,rt_thecrossant_black4,1163844,,,,black_plus_sign,,,49,,,1,,,,,,,1,,,,,,,,,,,,,,
null,,color_black4,1163946,,,,black_plus_sign,,,null,,,,,,,,,,,,,,,,,,,,,,,,
null,,learn_phase(without_color)4,1167448,,,,black_plus_sign,,,null,object_15b.png,object_08a.png,,,,,,,,,,,,,,,,,,,,,,
null,,black_cross(without_color)4,1168226,,,,green,,,null,object_15b.png,object_08a.png,,,,,,,,,,,,,,,,,,,,,,
null,,rt_plussign_withcolor4,1168729,,,,green,,,null,object_15b.png,object_08a.png,,,,,,,,,,,,,,,,,,,,,,
872.0999999046326,,rt_thecrossant_black4,1169954,,,,black_plus_sign,,,50,,,1,,,,,,,1,,,,,,,,,,,,,,
null,,color_black4,1170055,,,,black_plus_sign,,,null,,,,,,,,,,,,,,,,,,,,,,,,
null,,learn_phase(without_color)4,1173557,,,,black_plus_sign,,,null,object_05c.png,object_05b.png,,,,,,,,,,,,,,,,,,,,,,
null,,black_cross(without_color)4,1174058,,,,green,,,null,object_05c.png,object_05b.png,,,,,,,,,,,,,,,,,,,,,,
null,,rt_plussign_withcolor4,1174560,,,,green,,,null,object_05c.png,object_05b.png,,,,,,,,,,,,,,,,,,,,,,
2092.899999856949,,rt_thecrossant_black4,1176062,,,,black_plus_sign,,,50,,,1,,,,,,,1,,,,,,,,,,,,,,
null,,color_black4,1176163,,,,black_plus_sign,,,null,,,,,,,,,,,,,,,,,,,,,,,,
null,,learn_phase(without_color)4,1179665,,,,black_plus_sign,,,null,object_10a.png,object_07c.png,,,,,,,,,,,,,,,,,,,,,,
null,,black_cross(without_color)4,1180125,,,,blue,,,null,object_10a.png,object_07c.png,,,,,,,,,,,,,,,,,,,,,,
null,,rt_plussign_withcolor4,1180628,,,,blue,,,null,object_10a.png,object_07c.png,,,,,,,,,,,,,,,,,,,,,,
1092.5,,rt_thecrossant_black4,1182184,,,,black_plus_sign,,,49,,,1,,,,,,,1,,,,,,,,,,,,,,
null,,color_black4,1182286,,,,black_plus_sign,,,null,,,,,,,,,,,,,,,,,,,,,,,,
null,,learn_phase(without_color)4,1185789,,,,black_plus_sign,,,null,object_02a.png,object_10c.png,,,,,,,,,,,,,,,,,,,,,,
null,,black_cross(without_color)4,1186550,,,,green,,,null,object_02a.png,object_10c.png,,,,,,,,,,,,,,,,,,,,,,
null,,rt_plussign_withcolor4,1187051,,,,green,,,null,object_02a.png,object_10c.png,,,,,,,,,,,,,,,,,,,,,,
803.7999999523163,,rt_thecrossant_black4,1188303,,,,black_plus_sign,,,50,,,1,,,,,,,1,,,,,,,,,,,,,,
null,,color_black4,1188405,,,,black_plus_sign,,,null,,,,,,,,,,,,,,,,,,,,,,,,
null,,learn_phase(without_color)4,1191907,,,,black_plus_sign,,,null,object_02c.png,object_09a.png,,,,,,,,,,,,,,,,,,,,,,
null,,black_cross(without_color)4,1192354,,,,green,,,null,object_02c.png,object_09a.png,,,,,,,,,,,,,,,,,,,,,,
null,,rt_plussign_withcolor4,1192855,,,,green,,,null,object_02c.png,object_09a.png,,,,,,,,,,,,,,,,,,,,,,
1412.2000000476837,,rt_thecrossant_black4,1194411,,,,black_plus_sign,,,50,,,1,,,,,,,1,,,,,,,,,,,,,,
null,,color_black4,1194512,,,,black_plus_sign,,,null,,,,,,,,,,,,,,,,,,,,,,,,
null,,learn_phase(without_color)4,1198014,,,,black_plus_sign,,,null,object_03c.png,object_09a.png,,,,,,,,,,,,,,,,,,,,,,
null,,black_cross(without_color)4,1198670,,,,blue,,,null,object_03c.png,object_09a.png,,,,,,,,,,,,,,,,,,,,,,
null,,rt_plussign_withcolor4,1199172,,,,blue,,,null,object_03c.png,object_09a.png,,,,,,,,,,,,,,,,,,,,,,
869.3999998569489,,rt_thecrossant_black4,1200519,,,,black_plus_sign,,,49,,,1,,,,,,,1,,,,,,,,,,,,,,
null,,color_black4,1200620,,,,black_plus_sign,,,null,,,,,,,,,,,,,,,,,,,,,,,,
null,,learn_phase(without_color)4,1204123,,,,black_plus_sign,,,null,object_08c.png,object_09b.png,,,,,,,,,,,,,,,,,,,,,,
null,,black_cross(without_color)4,1205077,,,,green,,,null,object_08c.png,object_09b.png,,,,,,,,,,,,,,,,,,,,,,
null,,rt_plussign_withcolor4,1205578,,,,green,,,null,object_08c.png,object_09b.png,,,,,,,,,,,,,,,,,,,,,,
1368.5999999046326,,rt_thecrossant_black4,1206628,,,,black_plus_sign,,,50,,,1,,,,,,,1,,,,,,,,,,,,,,
null,,color_black4,1206730,,,,black_plus_sign,,,null,,,,,,,,,,,,,,,,,,,,,,,,
null,,learn_phase(without_color)4,1210232,,,,black_plus_sign,,,null,object_02b.png,object_09c.png,,,,,,,,,,,,,,,,,,,,,,
null,,black_cross(without_color)4,1210942,,,,green,,,null,object_02b.png,object_09c.png,,,,,,,,,,,,,,,,,,,,,,
null,,rt_plussign_withcolor4,1211443,,,,green,,,null,object_02b.png,object_09c.png,,,,,,,,,,,,,,,,,,,,,,
1241.8999998569489,,rt_thecrossant_black4,1212738,,,,black_plus_sign,,,50,,,1,,,,,,,1,,,,,,,,,,,,,,
null,,color_black4,1212840,,,,black_plus_sign,,,null,,,,,,,,,,,,,,,,,,,,,,,,
null,,learn_phase(without_color)4,1216342,,,,black_plus_sign,,,null,object_15a.png,object_01a.png,,,,,,,,,,,,,,,,,,,,,,
null,,black_cross(without_color)4,1216830,,,,green,,,null,object_15a.png,object_01a.png,,,,,,,,,,,,,,,,,,,,,,
null,,rt_plussign_withcolor4,1217333,,,,green,,,null,object_15a.png,object_01a.png,,,,,,,,,,,,,,,,,,,,,,
1170.5,,rt_thecrossant_black4,1218848,,,,black_plus_sign,,,50,,,1,,,,,,,1,,,,,,,,,,,,,,
null,,color_black4,1218949,,,,black_plus_sign,,,null,,,,,,,,,,,,,,,,,,,,,,,,
null,,learn_phase(without_color)4,1222452,,,,black_plus_sign,,,null,object_12a.png,object_11b.png,,,,,,,,,,,,,,,,,,,,,,
null,,black_cross(without_color)4,1223245,,,,green,,,null,object_12a.png,object_11b.png,,,,,,,,,,,,,,,,,,,,,,
null,,rt_plussign_withcolor4,1223746,,,,green,,,null,object_12a.png,object_11b.png,,,,,,,,,,,,,,,,,,,,,,
888.8999998569489,,rt_thecrossant_black4,1224958,,,,black_plus_sign,,,50,,,1,,,,,,,1,,,,,,,,,,,,,,
null,,color_black4,1225061,,,,black_plus_sign,,,null,,,,,,,,,,,,,,,,,,,,,,,,
null,,learn_phase(without_color)4,1228563,,,,black_plus_sign,,,null,object_11c.png,object_04c.png,,,,,,,,,,,,,,,,,,,,,,
null,,black_cross(without_color)4,1229042,,,,green,,,null,object_11c.png,object_04c.png,,,,,,,,,,,,,,,,,,,,,,
null,,rt_plussign_withcolor4,1229544,,,,green,,,null,object_11c.png,object_04c.png,,,,,,,,,,,,,,,,,,,,,,
1874.0999999046326,,rt_thecrossant_black4,1231069,,,,black_plus_sign,,,50,,,1,,,,,,,1,,,,,,,,,,,,,,
null,,color_black4,1231171,,,,black_plus_sign,,,null,,,,,,,,,,,,,,,,,,,,,,,,
null,,learn_phase(without_color)4,1234673,,,,black_plus_sign,,,null,object_05a.png,object_07a.png,,,,,,,,,,,,,,,,,,,,,,
null,,black_cross(without_color)4,1235287,,,,green,,,null,object_05a.png,object_07a.png,,,,,,,,,,,,,,,,,,,,,,
null,,rt_plussign_withcolor4,1235789,,,,green,,,null,object_05a.png,object_07a.png,,,,,,,,,,,,,,,,,,,,,,
749.2000000476837,,rt_thecrossant_black4,1237180,,,,black_plus_sign,,,50,,,1,,,,,,,1,,,,,,,,,,,,,,
null,,color_black4,1237282,,,,black_plus_sign,,,null,,,,,,,,,,,,,,,,,,,,,,,,
null,,learn_phase(without_color)4,1240783,,,,black_plus_sign,,,null,object_11b.png,object_13b.png,,,,,,,,,,,,,,,,,,,,,,
null,,black_cross(without_color)4,1241419,,,,green,,,null,object_11b.png,object_13b.png,,,,,,,,,,,,,,,,,,,,,,
null,,rt_plussign_withcolor4,1241920,,,,green,,,null,object_11b.png,object_13b.png,,,,,,,,,,,,,,,,,,,,,,
887.4000000953674,,rt_thecrossant_black4,1243289,,,,black_plus_sign,,,50,,,1,,,,,,,1,,,,,,,,,,,,,,
null,,color_black4,1243391,,,,black_plus_sign,,,null,,,,,,,,,,,,,,,,,,,,,,,,
null,,learn_phase(without_color)4,1246892,,,,black_plus_sign,,,null,object_01b.png,object_04a.png,,,,,,,,,,,,,,,,,,,,,,
null,,black_cross(without_color)4,1247387,,,,blue,,,null,object_01b.png,object_04a.png,,,,,,,,,,,,,,,,,,,,,,
null,,rt_plussign_withcolor4,1247889,,,,blue,,,null,object_01b.png,object_04a.png,,,,,,,,,,,,,,,,,,,,,,
899.5999999046326,,rt_thecrossant_black4,1249398,,,,black_plus_sign,,,49,,,1,,,,,,,1,,,,,,,,,,,,,,
null,,color_black4,1249499,,,,black_plus_sign,,,null,,,,,,,,,,,,,,,,,,,,,,,,
null,,learn_phase(without_color)4,1253002,,,,black_plus_sign,,,null,object_01c.png,object_07c.png,,,,,,,,,,,,,,,,,,,,,,
null,,black_cross(without_color)4,1253730,,,,blue,,,null,object_01c.png,object_07c.png,,,,,,,,,,,,,,,,,,,,,,
null,,rt_plussign_withcolor4,1254232,,,,blue,,,null,object_01c.png,object_07c.png,,,,,,,,,,,,,,,,,,,,,,
705.1000001430511,,rt_thecrossant_black4,1255507,,,,black_plus_sign,,,49,,,1,,,,,,,1,,,,,,,,,,,,,,
null,,color_black4,1255616,,,,black_plus_sign,,,null,,,,,,,,,,,,,,,,,,,,,,,,
null,,learn_phase(without_color)4,1259119,,,,black_plus_sign,,,null,object_07b.png,object_10b.png,,,,,,,,,,,,,,,,,,,,,,
null,,black_cross(without_color)4,1260199,,,,blue,,,null,object_07b.png,object_10b.png,,,,,,,,,,,,,,,,,,,,,,
null,,rt_plussign_withcolor4,1260701,,,,blue,,,null,object_07b.png,object_10b.png,,,,,,,,,,,,,,,,,,,,,,
1012.5999999046326,,rt_thecrossant_black4,1261625,,,,black_plus_sign,,,49,,,1,,,,,,,1,,,,,,,,,,,,,,
null,,color_black4,1261726,,,,black_plus_sign,,,null,,,,,,,,,,,,,,,,,,,,,,,,
null,,thebreak,1261834,,,,<p></p>,,,null,,,,,,,,,,,,,,,,,,,,,,,,
1470.2000000476837,,intro_0,1263305,,,,instruct,,,32,,,,,,,,,,,,,,,,,,,,,,,,
3127.2999999523163,,directmemory_phase4,1266433,,,,object_12b.png,,,50,,,1,,object_03c.png,object_04c.png,object_05a.png,object_04c.png,,0.3516483516483517,,1,,,,,,,,,,,,
1862.5999999046326,,directmemory_phase4,1268297,,,,object_05a.png,,,49,,,1,,object_14c.png,object_12c.png,object_07c.png,object_14c.png,,0.358695652173913,,1,,,,,,,,,,,,
1558.2999999523163,,directmemory_phase4,1269857,,,,object_13a.png,,,49,,,0,,object_06b.png,object_03b.png,object_15b.png,object_15b.png,,0.3548387096774194,,0,,,,,,,,,,,,
1430.3999998569489,,directmemory_phase4,1271289,,,,object_05b.png,,,51,,,0,,object_05c.png,object_04c.png,object_03b.png,object_05c.png,,0.35106382978723405,,0,,,,,,,,,,,,
1742.5,,directmemory_phase4,1273033,,,,object_11a.png,,,51,,,0,,object_06c.png,object_11b.png,object_09c.png,object_06c.png,,0.3473684210526316,,0,,,,,,,,,,,,
1350.6000001430511,,directmemory_phase4,1274385,,,,object_09b.png,,,49,,,0,,object_09a.png,object_08c.png,object_14c.png,object_08c.png,,0.34375,,0,,,,,,,,,,,,
1334.4000000953674,,directmemory_phase4,1275721,,,,object_13b.png,,,50,,,0,,object_11b.png,object_04a.png,object_14c.png,object_11b.png,,0.3402061855670103,,0,,,,,,,,,,,,
1718.7000000476837,,directmemory_phase4,1277441,,,,object_08b.png,,,50,,,1,,object_13a.png,object_07b.png,object_04a.png,object_07b.png,,0.3469387755102041,,1,,,,,,,,,,,,
1390.5,,directmemory_phase4,1278833,,,,object_11c.png,,,51,,,0,,object_04c.png,object_07b.png,object_02c.png,object_04c.png,,0.3434343434343434,,0,,,,,,,,,,,,
1366.5,,directmemory_phase4,1280201,,,,object_01b.png,,,49,,,1,,object_04a.png,object_04c.png,object_11a.png,object_04a.png,,0.35,,1,,,,,,,,,,,,
1862.5999999046326,,directmemory_phase4,1282065,,,,object_06a.png,,,50,,,1,,object_15c.png,object_02b.png,object_01a.png,object_02b.png,,0.3564356435643564,,1,,,,,,,,,,,,
1982.3999998569489,,directmemory_phase4,1284049,,,,object_14a.png,,,50,,,1,,object_08c.png,object_05c.png,object_11b.png,object_05c.png,,0.3627450980392157,,1,,,,,,,,,,,,
1422.8000001907349,,directmemory_phase4,1285473,,,,object_06c.png,,,49,,,0,,object_06b.png,object_12c.png,object_13b.png,object_12c.png,,0.3592233009708738,,0,,,,,,,,,,,,
1774.3999998569489,,directmemory_phase4,1287249,,,,object_07c.png,,,50,,,1,,object_02a.png,object_10a.png,object_14b.png,object_10a.png,,0.36538461538461536,,1,,,,,,,,,,,,
1366.7000000476837,,directmemory_phase4,1288617,,,,object_03c.png,,,49,,,0,,object_07c.png,object_13b.png,object_09a.png,object_09a.png,,0.3619047619047619,,0,,,,,,,,,,,,
1558.0999999046326,,directmemory_phase4,1290177,,,,object_07a.png,,,51,,,0,,object_09c.png,object_05a.png,object_04c.png,object_05a.png,,0.3584905660377358,,0,,,,,,,,,,,,
1126.5,,directmemory_phase4,1291305,,,,object_14b.png,,,50,,,1,,object_13b.png,object_06b.png,object_05a.png,object_06b.png,,0.3644859813084112,,1,,,,,,,,,,,,
1422.5999999046326,,directmemory_phase4,1292729,,,,object_15b.png,,,49,,,1,,object_08a.png,object_03c.png,object_06b.png,object_08a.png,,0.37037037037037035,,1,,,,,,,,,,,,
1326.7000000476837,,directmemory_phase4,1294057,,,,object_10b.png,,,50,,,1,,object_12c.png,object_07b.png,object_06b.png,object_07b.png,,0.3761467889908257,,1,,,,,,,,,,,,
1174.5,,directmemory_phase4,1295233,,,,object_15c.png,,,50,,,0,,object_11b.png,object_08a.png,object_04a.png,object_04a.png,,0.37272727272727274,,0,,,,,,,,,,,,
1278.6000001430511,,directmemory_phase4,1296513,,,,object_04b.png,,,51,,,1,,object_01a.png,object_01c.png,object_06b.png,object_06b.png,,0.3783783783783784,,1,1,,,,,,,,,,,
null,,slowdown_page,1306515,,,,too_quick,,,null,,,,,,,,,,,,,,,,,,,,,,,,
1749.0999999046326,,directmemory_phase4,1308265,,,,object_09c.png,,,50,,,0,,object_02b.png,object_02a.png,object_13c.png,object_02b.png,,0.375,,0,,,,,,,,,,,,
2326.5,,directmemory_phase4,1310593,,,,object_02c.png,,,49,,,1,,object_09a.png,object_15b.png,object_01c.png,object_09a.png,,0.3805309734513274,,1,,,,,,,,,,,,
2198.5,,directmemory_phase4,1312793,,,,object_02a.png,,,51,,,0,,object_01a.png,object_10c.png,object_08a.png,object_10c.png,,0.37719298245614036,,0,,,,,,,,,,,,
2118.2999999523163,,directmemory_phase4,1314913,,,,object_03a.png,,,51,,,1,,object_04c.png,object_03b.png,object_09b.png,object_09b.png,,0.3826086956521739,,1,,,,,,,,,,,,
2342.5999999046326,,directmemory_phase4,1317257,,,,object_03b.png,,,50,,,1,,object_07a.png,object_02a.png,object_04c.png,object_02a.png,,0.3879310344827586,,1,,,,,,,,,,,,
2358.600000143051,,directmemory_phase4,1319617,,,,object_13c.png,,,51,,,0,,object_13a.png,object_01a.png,object_07c.png,object_01a.png,,0.38461538461538464,,0,,,,,,,,,,,,
2278.4000000953674,,directmemory_phase4,1321897,,,,object_01a.png,,,50,,,0,,object_12c.png,object_05a.png,object_15a.png,object_15a.png,,0.3813559322033898,,0,,,,,,,,,,,,
2366.600000143051,,directmemory_phase4,1324265,,,,object_12a.png,,,49,,,0,,object_01a.png,object_09c.png,object_11b.png,object_11b.png,,0.37815126050420167,,0,,,,,,,,,,,,
2694.7999999523163,,directmemory_phase4,1326961,,,,object_01c.png,,,49,,,1,,object_07c.png,object_15b.png,object_13c.png,object_07c.png,,0.38333333333333336,,1,,,,,,,,,,,,
null,,thebreak,1327063,,,,<p></p>,,,null,,,,,,,,,,,,,,,,,,,,,,,,
5545.200000047684,,intro_0,1332609,,,,instruct,,,32,,,,,,,,,,,,,,,,,,,,,,,,
13639.5,,intro_1,1346249,,,,instruct,,,32,,,,,,,,,,,,,,,,,,,,,,,,
5919.099999904633,,intro_2,1352169,,,,instruct,,,32,,,,,,,,,,,,,,,,,,,,,,,,
,,intro_3,1373029,,,,instruct,,,,,,,,,,,,,,,,,,,,,,,,,,,
7139.099999904633,,intro_4,1380169,,,,instruct,,,32,,,,,,,,,,,,,,,,,,,,,,,,
4430.899999856949,,inference_phase,1384601,,,,object_09c.png,,,51,object_06a.png,object_12c.png,0,,,,,object_06a.png,,0,,,,object_02a.png,,,,,,,,,,
3286.4000000953674,,inference_phase,1387889,,,,object_12c.png,,,49,object_07a.png,object_11a.png,0,,,,,object_11a.png,,0,,,,object_07c.png,,,,,,,,,,
2726.899999856949,,inference_phase,1390617,,,,object_12a.png,,,51,object_09a.png,object_13b.png,0,,,,,object_13b.png,,0,,,,object_10c.png,,,,,,,,,,
3014.2999999523163,,inference_phase,1393633,,,,object_08a.png,,,50,object_13a.png,object_03a.png,0,,,,,object_13a.png,,0,,,,object_06b.png,,,,,,,,,,
3022.5999999046326,,inference_phase,1396657,,,,object_04b.png,,,49,object_05a.png,object_14b.png,0,,,,,object_14b.png,,0,,,,object_06a.png,,,,,,,,,,
2622.2000000476837,,inference_phase,1399281,,,,object_01b.png,,,51,object_04c.png,object_03c.png,0,,,,,object_15c.png,,0,,,,object_15c.png,,,,,,,,,,
3102.7999999523163,,inference_phase,1402385,,,,object_03a.png,,,51,object_06b.png,object_12c.png,0,,,,,object_08c.png,,0,,,,object_08c.png,,,,,,,,,,
3246.7000000476837,,inference_phase,1405633,,,,object_13c.png,,,51,object_11b.png,object_15a.png,0,,,,,object_15a.png,,0,,,,object_08c.png,,,,,,,,,,
3150.4000000953674,,inference_phase,1408785,,,,object_01c.png,,,50,object_04a.png,object_10c.png,0,,,,,object_10a.png,,0,,,,object_10a.png,,,,,,,,,,
2822.2999999523163,,inference_phase,1411609,,,,object_10b.png,,,50,object_08b.png,object_07a.png,0,,,,,object_08b.png,,0,,,,object_15b.png,,,,,,,,,,
