rt,responses,trial_type,time_elapsed,identifier_a,identifier_b,identifier_c,tasktype,browser_type,local_time,UTC_time,stimulus,button_pressed,response,key_press,stimulus_left,stimulus_right,accuracy,practice_cumulative_accuracy,stimulus_down_left,stimulus_down_mid,stimulus_down_right,stimulus_correct,prac_weighted_accuracy,cumulative_accuracy,weighted_accuracy,stimulus_middle,problems,smooth,distraction,strategies,easier,similar,comments
27201,{worker_id:660c545be4abf55a6634293e},id_enter,27204,object_02a.png; object_05b.png; object_08c.png; object_06c.png; object_02b.png; object_11b.png; object_15b.png; object_08a.png; object_13c.png; object_07a.png; object_13b.png; object_05c.png; object_06a.png; object_15c.png; object_08b.png,object_03a.png; object_10b.png; object_03c.png; object_12c.png; object_14b.png; object_05a.png; object_10c.png; object_13a.png; object_01a.png; object_11c.png; object_14c.png; object_12b.png; object_07c.png; object_09a.png; object_02c.png,object_01c.png; object_06b.png; object_04c.png; object_09b.png; object_11a.png; object_01b.png; object_03b.png; object_09c.png; object_14a.png; object_10a.png; object_04b.png; object_07b.png; object_15a.png; object_12a.png; object_04a.png,interleaved,Mozilla/5.0 (Windows NT 10.0; Win64; x64) AppleWebKit/537.36 (KHTML, like Gecko) Chrome/135.0.0.0 Safari/537.36,4/28/2025, 12:37:16 PM,2025-04-28 16:37:16.935,,,,,,,,,,,,,,,,,,,,,,,
9742.699999999255,,make_fullscreen,36971,,,,,,,,fullscreen,0,,,,,,,,,,,,,,,,,,,,,
4061.0999999996275,,instruct_1,41034,,,,,,,,instruct,0,Next,,,,,,,,,,,,,,,,,,,,
15446.300000000745,,instruct_2,56482,,,,,,,,instruct,1,Next,,,,,,,,,,,,,,,,,,,,
4639.10000000149,,instruct_3,61123,,,,,,,,instruct,1,Next,,,,,,,,,,,,,,,,,,,,
11718.200000001118,,instruct_4,72843,,,,,,,,instruct,1,Next,,,,,,,,,,,,,,,,,,,,
6895,,instruct_5,79739,,,,,,,,instruct,1,Next,,,,,,,,,,,,,,,,,,,,
2318.39999999851,,instruct_6,82059,,,,,,,,instruct,1,Next,,,,,,,,,,,,,,,,,,,,
12822.199999999255,,instruct_7,94883,,,,,,,,instruct,1,Next,,,,,,,,,,,,,,,,,,,,
null,,prac_atten_color_black,95305,,,,,,,,black_plus_sign,,,null,,,,,,,,,,,,,,,,,,,
null,,prac_atten_color,96297,,,,,,,,<p style='position:absolute;top: 50%;right: 50%;transform: translate(50%, -50%);font-size: 125px;color: blue;'>+</p>,,,null,,,,,,,,,,,,,,,,,,,
137.19999999925494,,prac_atten_color_black,98302,,,,,,,,black_plus_sign,,,50,,,,,,,,,,,,,,,,,,,
7942.799999998882,,attentioncheck_help,106247,,,,,,,,instruct,,,32,,,,,,,,,,,,,,,,,,,
null,,prac_atten_color_black,106665,,,,,,,,black_plus_sign,,,null,,,,,,,,,,,,,,,,,,,
577,,prac_atten_color,107395,,,,,,,,<p style='position:absolute;top: 50%;right: 50%;transform: translate(50%, -50%);font-size: 125px;color: green;'>+</p>,,,50,,,,,,,,,,,,,,,,,,,
null,,prac_atten_color_black,109407,,,,,,,,black_plus_sign,,,null,,,,,,,,,,,,,,,,,,,
null,,prac_atten_color_black,110094,,,,,,,,black_plus_sign,,,null,,,,,,,,,,,,,,,,,,,
588,,prac_atten_color,110829,,,,,,,,<p style='position:absolute;top: 50%;right: 50%;transform: translate(50%, -50%);font-size: 125px;color: green;'>+</p>,,,50,,,,,,,,,,,,,,,,,,,
null,,prac_atten_color_black,112843,,,,,,,,black_plus_sign,,,null,,,,,,,,,,,,,,,,,,,
null,,prac_atten_color_black,113519,,,,,,,,black_plus_sign,,,null,,,,,,,,,,,,,,,,,,,
453.09999999962747,,prac_atten_color,114089,,,,,,,,<p style='position:absolute;top: 50%;right: 50%;transform: translate(50%, -50%);font-size: 125px;color: blue;'>+</p>,,,49,,,,,,,,,,,,,,,,,,,
null,,prac_atten_color_black,116099,,,,,,,,black_plus_sign,,,null,,,,,,,,,,,,,,,,,,,
null,,prac_atten_color_black,116957,,,,,,,,black_plus_sign,,,null,,,,,,,,,,,,,,,,,,,
549.9000000003725,,prac_atten_color,117625,,,,,,,,<p style='position:absolute;top: 50%;right: 50%;transform: translate(50%, -50%);font-size: 125px;color: green;'>+</p>,,,50,,,,,,,,,,,,,,,,,,,
null,,prac_atten_color_black,119634,,,,,,,,black_plus_sign,,,null,,,,,,,,,,,,,,,,,,,
null,,prac_atten_color_black,120383,,,,,,,,black_plus_sign,,,null,,,,,,,,,,,,,,,,,,,
565.6000000014901,,prac_atten_color,121011,,,,,,,,<p style='position:absolute;top: 50%;right: 50%;transform: translate(50%, -50%);font-size: 125px;color: green;'>+</p>,,,50,,,,,,,,,,,,,,,,,,,
null,,prac_atten_color_black,123014,,,,,,,,black_plus_sign,,,null,,,,,,,,,,,,,,,,,,,
null,,prac_atten_color_black,123793,,,,,,,,black_plus_sign,,,null,,,,,,,,,,,,,,,,,,,
720,,prac_atten_color,124654,,,,,,,,<p style='position:absolute;top: 50%;right: 50%;transform: translate(50%, -50%);font-size: 125px;color: blue;'>+</p>,,,49,,,,,,,,,,,,,,,,,,,
null,,prac_atten_color_black,126666,,,,,,,,black_plus_sign,,,null,,,,,,,,,,,,,,,,,,,
null,,prac_atten_color_black,127229,,,,,,,,black_plus_sign,,,null,,,,,,,,,,,,,,,,,,,
null,,prac_atten_color,127680,,,,,,,,<p style='position:absolute;top: 50%;right: 50%;transform: translate(50%, -50%);font-size: 125px;color: green;'>+</p>,,,null,,,,,,,,,,,,,,,,,,,
11.800000000745058,,prac_atten_color_black,129692,,,,,,,,black_plus_sign,,,50,,,,,,,,,,,,,,,,,,,
null,,prac_atten_color_black,130657,,,,,,,,black_plus_sign,,,null,,,,,,,,,,,,,,,,,,,
null,,prac_atten_color,131326,,,,,,,,<p style='position:absolute;top: 50%;right: 50%;transform: translate(50%, -50%);font-size: 125px;color: blue;'>+</p>,,,null,,,,,,,,,,,,,,,,,,,
735.3000000007451,,prac_atten_color_black,133341,,,,,,,,black_plus_sign,,,49,,,,,,,,,,,,,,,,,,,
null,,prac_atten_color_black,134092,,,,,,,,black_plus_sign,,,null,,,,,,,,,,,,,,,,,,,
702.3000000007451,,prac_atten_color,135139,,,,,,,,<p style='position:absolute;top: 50%;right: 50%;transform: translate(50%, -50%);font-size: 125px;color: blue;'>+</p>,,,49,,,,,,,,,,,,,,,,,,,
null,,prac_atten_color_black,137151,,,,,,,,black_plus_sign,,,null,,,,,,,,,,,,,,,,,,,
16708.099999999627,,attentioncheck_feedback,153861,,,,,,,,cross_check_feedback,0,,,,,,,,,,,,,,,,,,,,,
5901.0999999996275,,last_instruct,159763,,,,,,,,instruct,,,32,,,,,,,,,,,,,,,,,,,
null,,prac_learn_phase(without_color),163278,,,,,,,,black_plus_sign,,,null,object_09a.png,object_12a.png,,,,,,,,,,,,,,,,,
null,,prac_black_cross(without_color),164219,,,,,,,,blue,,,null,object_09a.png,object_12a.png,,,,,,,,,,,,,,,,,
null,,prac_rt_plussign_withcolor,164721,,,,,,,,blue,,,null,object_09a.png,object_12a.png,,,,,,,,,,,,,,,,,
2097.4000000003725,,prac_rt_thecrossant_black,165796,,,,,,,,black_plus_sign,,,49,,,1,1,,,,,,,,,,,,,,,
null,,prac_color_black,165911,,,,,,,,black_plus_sign,,,null,,,,,,,,,,,,,,,,,,,
null,,prac_learn_phase(without_color),169423,,,,,,,,black_plus_sign,,,null,object_11c.png,object_10a.png,,,,,,,,,,,,,,,,,
null,,black_cross(without_color)1,170414,,,,,,,,blue,,,null,object_09a.png,object_12a.png,,,,,,,,,,,,,,,,,
null,,prac_rt_plussign_withcolor,170916,,,,,,,,green,,,null,object_11c.png,object_10a.png,,,,,,,,,,,,,,,,,
1224.800000000745,,prac_rt_thecrossant_black,172497,,,,,,,,black_plus_sign,,,50,,,1,1,,,,,,,,,,,,,,,
null,,prac_color_black,172599,,,,,,,,black_plus_sign,,,null,,,,,,,,,,,,,,,,,,,
null,,prac_learn_phase(without_color),176116,,,,,,,,black_plus_sign,,,null,object_14b.png,object_11a.png,,,,,,,,,,,,,,,,,
null,,black_cross(without_color)1,177096,,,,,,,,blue,,,null,object_09a.png,object_12a.png,,,,,,,,,,,,,,,,,
497.6000000014901,,prac_rt_plussign_withcolor,177598,,,,,,,,green,,,50,object_14b.png,object_11a.png,,,,,,,,,,,,,,,,,
null,,prac_rt_thecrossant_black,178821,,,,,,,,black_plus_sign,,,null,,,1,1,,,,,,,,,,,,,,,
null,,prac_color_black,178924,,,,,,,,black_plus_sign,,,null,,,,,,,,,,,,,,,,,,,
null,,prac_learn_phase(without_color),182429,,,,,,,,black_plus_sign,,,null,object_11b.png,object_05a.png,,,,,,,,,,,,,,,,,
null,,black_cross(without_color)1,183411,,,,,,,,blue,,,null,object_09a.png,object_12a.png,,,,,,,,,,,,,,,,,
null,,prac_rt_plussign_withcolor,183928,,,,,,,,green,,,null,object_11b.png,object_05a.png,,,,,,,,,,,,,,,,,
1323.6000000014901,,prac_rt_thecrossant_black,185422,,,,,,,,black_plus_sign,,,50,,,1,1,,,,,,,,,,,,,,,
null,,prac_color_black,185533,,,,,,,,black_plus_sign,,,null,,,,,,,,,,,,,,,,,,,
1287.4000000003725,,instruct_dir_01,186823,,,,,,,,instruct,0,Next,,,,,,,,,,,,,,,,,,,,
5062.200000001118,,instruct_dir_2,191887,,,,,,,,instruct,1,Next,,,,,,,,,,,,,,,,,,,,
3813.5999999996275,,instruct_dir_3,195702,,,,,,,,instruct,1,Next,,,,,,,,,,,,,,,,,,,,
5086.9000000003725,,instruct_dir_4,200791,,,,,,,,instruct,1,Start,,,,,,,,,,,,,,,,,,,,
null,,thebreak,200893,,,,,,,,<p></p>,,,null,,,,,,,,,,,,,,,,,,,
1519.7000000011176,,intro_0,202414,,,,,,,,instruct,,,32,,,,,,,,,,,,,,,,,,,
5460.4000000003725,,prac_directmemory_phase,207876,,,,,,,,practice/object_03b.png,,,49,,,0,,practice/object_02a.png,practice/object_03a.png,practice/object_04a.png,practice/object_03a.png,0,0,,,,,,,,,
2313.699999999255,,prac_directmemory_phase,210192,,,,,,,,practice/object_02b.png,,,49,,,1,,practice/object_02a.png,practice/object_01a.png,practice/object_03a.png,practice/object_02a.png,1,0.5,,,,,,,,,
3188.199999999255,,prac_directmemory_phase,213381,,,,,,,,practice/object_01b.png,,,51,,,1,,practice/object_03a.png,practice/object_04a.png,practice/object_01a.png,practice/object_01a.png,1,0.6666666666666666,,,,,,,,,
2275.300000000745,,prac_directmemory_phase,215659,,,,,,,,practice/object_04b.png,,,50,,,1,,practice/object_03a.png,practice/object_04a.png,practice/object_02a.png,practice/object_04a.png,1,0.75,,,,,,,,,
17851.400000000373,,practice_feedback,233512,,,,,,,,practice_feedback,0,,,,,,,,,,,,,,,,,,,,,
2903.5,,last_instruct,236416,,,,,,,,instruct,,,32,,,,,,,,,,,,,,,,,,,
null,,prac_learn_phase(without_color),239928,,,,,,,,black_plus_sign,,,null,object_09a.png,object_12a.png,,,,,,,,,,,,,,,,,
null,,prac_black_cross(without_color),240749,,,,,,,,blue,,,null,object_09a.png,object_12a.png,,,,,,,,,,,,,,,,,
null,,prac_rt_plussign_withcolor,241255,,,,,,,,blue,,,null,object_09a.png,object_12a.png,,,,,,,,,,,,,,,,,
1487.300000000745,,prac_rt_thecrossant_black,242451,,,,,,,,black_plus_sign,,,49,,,1,1,,,,,,,,,,,,,,,
null,,prac_color_black,242553,,,,,,,,black_plus_sign,,,null,,,,,,,,,,,,,,,,,,,
null,,prac_learn_phase(without_color),246055,,,,,,,,black_plus_sign,,,null,object_11c.png,object_10a.png,,,,,,,,,,,,,,,,,
null,,black_cross(without_color)1,247032,,,,,,,,blue,,,null,object_09a.png,object_12a.png,,,,,,,,,,,,,,,,,
422.90000000037253,,prac_rt_plussign_withcolor,247534,,,,,,,,green,,,50,object_11c.png,object_10a.png,,,,,,,,,,,,,,,,,
null,,prac_rt_thecrossant_black,248979,,,,,,,,black_plus_sign,,,null,,,1,1,,,,,,,,,,,,,,,
null,,prac_color_black,249084,,,,,,,,black_plus_sign,,,null,,,,,,,,,,,,,,,,,,,
null,,prac_learn_phase(without_color),252602,,,,,,,,black_plus_sign,,,null,object_14b.png,object_11a.png,,,,,,,,,,,,,,,,,
null,,black_cross(without_color)1,253589,,,,,,,,blue,,,null,object_09a.png,object_12a.png,,,,,,,,,,,,,,,,,
360.2999999988824,,prac_rt_plussign_withcolor,254103,,,,,,,,green,,,50,object_14b.png,object_11a.png,,,,,,,,,,,,,,,,,
null,,prac_rt_thecrossant_black,255162,,,,,,,,black_plus_sign,,,null,,,1,1,,,,,,,,,,,,,,,
null,,prac_color_black,255266,,,,,,,,black_plus_sign,,,null,,,,,,,,,,,,,,,,,,,
null,,prac_learn_phase(without_color),258769,,,,,,,,black_plus_sign,,,null,object_11b.png,object_05a.png,,,,,,,,,,,,,,,,,
null,,black_cross(without_color)1,259752,,,,,,,,blue,,,null,object_09a.png,object_12a.png,,,,,,,,,,,,,,,,,
null,,prac_rt_plussign_withcolor,260268,,,,,,,,green,,,null,object_11b.png,object_05a.png,,,,,,,,,,,,,,,,,
1513.300000000745,,prac_rt_thecrossant_black,261773,,,,,,,,black_plus_sign,,,50,,,1,1,,,,,,,,,,,,,,,
null,,prac_color_black,261882,,,,,,,,black_plus_sign,,,null,,,,,,,,,,,,,,,,,,,
844.3000000007451,,instruct_dir_01,262728,,,,,,,,instruct,0,Next,,,,,,,,,,,,,,,,,,,,
1702.300000000745,,instruct_dir_2,264432,,,,,,,,instruct,1,Next,,,,,,,,,,,,,,,,,,,,
2030.199999999255,,instruct_dir_3,266463,,,,,,,,instruct,1,Next,,,,,,,,,,,,,,,,,,,,
2398.7000000011176,,instruct_dir_4,268864,,,,,,,,instruct,1,Start,,,,,,,,,,,,,,,,,,,,
null,,thebreak,268966,,,,,,,,<p></p>,,,null,,,,,,,,,,,,,,,,,,,
1418.2000000011176,,intro_0,270385,,,,,,,,instruct,,,32,,,,,,,,,,,,,,,,,,,
2992.9000000003725,,prac_directmemory_phase,273379,,,,,,,,practice/object_03b.png,,,49,,,0,,practice/object_02a.png,practice/object_03a.png,practice/object_04a.png,practice/object_03a.png,0,0,,,,,,,,,
2381.7999999988824,,prac_directmemory_phase,275763,,,,,,,,practice/object_02b.png,,,49,,,1,,practice/object_02a.png,practice/object_01a.png,practice/object_03a.png,practice/object_02a.png,1,0.5,,,,,,,,,
2462.2999999988824,,prac_directmemory_phase,278227,,,,,,,,practice/object_01b.png,,,51,,,1,,practice/object_03a.png,practice/object_04a.png,practice/object_01a.png,practice/object_01a.png,1,0.6666666666666666,,,,,,,,,
1570.300000000745,,prac_directmemory_phase,279799,,,,,,,,practice/object_04b.png,,,50,,,1,,practice/object_03a.png,practice/object_04a.png,practice/object_02a.png,practice/object_04a.png,1,0.75,,,,,,,,,
15295.800000000745,,practice_feedback,295097,,,,,,,,practice_feedback,1,,,,,,,,,,,,,,,,,,,,,
8142.800000000745,,proceed_actualTask,303240,,,,,,,,proceed_actualTask,1,Continue,,,,,,,,,,,,,,,,,,,,
13362.199999999255,,last_inst,316604,,,,,,,,last_inst,,,32,,,,,,,,,,,,,,,,,,,
null,,learn_phase(without_color)1,320121,,,,,,,,black_plus_sign,,,null,object_09a.png,object_12a.png,,,,,,,,,,,,,,,,,
null,,black_cross(without_color)1,321106,,,,,,,,blue,,,null,object_09a.png,object_12a.png,,,,,,,,,,,,,,,,,
null,,rt_plussign_withcolor1,321622,,,,,,,,blue,,,null,object_09a.png,object_12a.png,,,,,,,,,,,,,,,,,
1172.4000000003725,,rt_thecrossant_black1,322652,,,,,,,,black_plus_sign,,,49,,,1,,,,,,,1,,,,,,,,,
null,,color_black1,322761,,,,,,,,black_plus_sign,,,null,,,,,,,,,,,,,,,,,,,
null,,learn_phase(without_color)1,326271,,,,,,,,black_plus_sign,,,null,object_11c.png,object_10a.png,,,,,,,,,,,,,,,,,
null,,black_cross(without_color)1,326847,,,,,,,,blue,,,null,object_11c.png,object_10a.png,,,,,,,,,,,,,,,,,
null,,rt_plussign_withcolor1,327361,,,,,,,,blue,,,null,object_11c.png,object_10a.png,,,,,,,,,,,,,,,,,
633.0999999996275,,rt_thecrossant_black1,328799,,,,,,,,black_plus_sign,,,49,,,1,,,,,,,1,,,,,,,,,
null,,color_black1,328901,,,,,,,,black_plus_sign,,,null,,,,,,,,,,,,,,,,,,,
null,,learn_phase(without_color)1,332405,,,,,,,,black_plus_sign,,,null,object_14b.png,object_11a.png,,,,,,,,,,,,,,,,,
null,,black_cross(without_color)1,332818,,,,,,,,green,,,null,object_14b.png,object_11a.png,,,,,,,,,,,,,,,,,
null,,rt_plussign_withcolor1,333328,,,,,,,,green,,,null,object_14b.png,object_11a.png,,,,,,,,,,,,,,,,,
692.2000000011176,,rt_thecrossant_black1,334921,,,,,,,,black_plus_sign,,,50,,,1,,,,,,,1,,,,,,,,,
null,,color_black1,335034,,,,,,,,black_plus_sign,,,null,,,,,,,,,,,,,,,,,,,
null,,learn_phase(without_color)1,338537,,,,,,,,black_plus_sign,,,null,object_11b.png,object_05a.png,,,,,,,,,,,,,,,,,
null,,black_cross(without_color)1,339345,,,,,,,,green,,,null,object_11b.png,object_05a.png,,,,,,,,,,,,,,,,,
null,,rt_plussign_withcolor1,339862,,,,,,,,green,,,null,object_11b.png,object_05a.png,,,,,,,,,,,,,,,,,
777.1000000014901,,rt_thecrossant_black1,341074,,,,,,,,black_plus_sign,,,50,,,1,,,,,,,1,,,,,,,,,
null,,color_black1,341190,,,,,,,,black_plus_sign,,,null,,,,,,,,,,,,,,,,,,,
null,,learn_phase(without_color)1,344700,,,,,,,,black_plus_sign,,,null,object_05b.png,object_10b.png,,,,,,,,,,,,,,,,,
null,,black_cross(without_color)1,345116,,,,,,,,green,,,null,object_05b.png,object_10b.png,,,,,,,,,,,,,,,,,
null,,rt_plussign_withcolor1,345620,,,,,,,,green,,,null,object_05b.png,object_10b.png,,,,,,,,,,,,,,,,,
1158.5,,rt_thecrossant_black1,347220,,,,,,,,black_plus_sign,,,50,,,1,,,,,,,1,,,,,,,,,
null,,color_black1,347322,,,,,,,,black_plus_sign,,,null,,,,,,,,,,,,,,,,,,,
null,,learn_phase(without_color)1,350831,,,,,,,,black_plus_sign,,,null,object_02a.png,object_03a.png,,,,,,,,,,,,,,,,,
null,,black_cross(without_color)1,351487,,,,,,,,green,,,null,object_02a.png,object_03a.png,,,,,,,,,,,,,,,,,
null,,rt_plussign_withcolor1,351989,,,,,,,,green,,,null,object_02a.png,object_03a.png,,,,,,,,,,,,,,,,,
724.7000000011176,,rt_thecrossant_black1,353350,,,,,,,,black_plus_sign,,,50,,,1,,,,,,,1,,,,,,,,,
null,,color_black1,353453,,,,,,,,black_plus_sign,,,null,,,,,,,,,,,,,,,,,,,
null,,learn_phase(without_color)1,356959,,,,,,,,black_plus_sign,,,null,object_12c.png,object_09b.png,,,,,,,,,,,,,,,,,
null,,black_cross(without_color)1,357626,,,,,,,,green,,,null,object_12c.png,object_09b.png,,,,,,,,,,,,,,,,,
null,,rt_plussign_withcolor1,358142,,,,,,,,green,,,null,object_12c.png,object_09b.png,,,,,,,,,,,,,,,,,
803.0999999996275,,rt_thecrossant_black1,359484,,,,,,,,black_plus_sign,,,50,,,1,,,,,,,1,,,,,,,,,
null,,color_black1,359601,,,,,,,,black_plus_sign,,,null,,,,,,,,,,,,,,,,,,,
null,,learn_phase(without_color)1,363115,,,,,,,,black_plus_sign,,,null,object_05c.png,object_12b.png,,,,,,,,,,,,,,,,,
null,,black_cross(without_color)1,364175,,,,,,,,blue,,,null,object_05c.png,object_12b.png,,,,,,,,,,,,,,,,,
488.59999999962747,,rt_plussign_withcolor1,364677,,,,,,,,blue,,,50,object_05c.png,object_12b.png,,,,,,,,,,,,,,,,,
null,,rt_thecrossant_black1,365647,,,,,,,,black_plus_sign,,,null,,,0,,,,,,,0.875,,,,,,,,,
null,,color_black1,365756,,,,,,,,black_plus_sign,,,null,,,,,,,,,,,,,,,,,,,
null,,learn_phase(without_color)1,369272,,,,,,,,black_plus_sign,,,null,object_15b.png,object_10c.png,,,,,,,,,,,,,,,,,
null,,black_cross(without_color)1,369958,,,,,,,,blue,,,null,object_15b.png,object_10c.png,,,,,,,,,,,,,,,,,
null,,rt_plussign_withcolor1,370471,,,,,,,,blue,,,null,object_15b.png,object_10c.png,,,,,,,,,,,,,,,,,
1899.4000000003725,,rt_thecrossant_black1,371811,,,,,,,,black_plus_sign,,,49,,,1,,,,,,,0.8888888888888888,,,,,,,,,
null,,color_black1,371913,,,,,,,,black_plus_sign,,,null,,,,,,,,,,,,,,,,,,,
null,,learn_phase(without_color)1,375428,,,,,,,,black_plus_sign,,,null,object_10c.png,object_03b.png,,,,,,,,,,,,,,,,,
null,,black_cross(without_color)1,376351,,,,,,,,green,,,null,object_10c.png,object_03b.png,,,,,,,,,,,,,,,,,
null,,rt_plussign_withcolor1,376867,,,,,,,,green,,,null,object_10c.png,object_03b.png,,,,,,,,,,,,,,,,,
832.7999999988824,,rt_thecrossant_black1,377963,,,,,,,,black_plus_sign,,,50,,,1,,,,,,,0.9,,,,,,,,,
null,,color_black1,378065,,,,,,,,black_plus_sign,,,null,,,,,,,,,,,,,,,,,,,
null,,learn_phase(without_color)1,381569,,,,,,,,black_plus_sign,,,null,object_08c.png,object_03c.png,,,,,,,,,,,,,,,,,
null,,black_cross(without_color)1,382302,,,,,,,,green,,,null,object_08c.png,object_03c.png,,,,,,,,,,,,,,,,,
null,,rt_plussign_withcolor1,382811,,,,,,,,green,,,null,object_08c.png,object_03c.png,,,,,,,,,,,,,,,,,
1226.5,,rt_thecrossant_black1,384098,,,,,,,,black_plus_sign,,,50,,,1,,,,,,,0.9090909090909091,,,,,,,,,
null,,color_black1,384204,,,,,,,,black_plus_sign,,,null,,,,,,,,,,,,,,,,,,,
null,,learn_phase(without_color)1,387717,,,,,,,,black_plus_sign,,,null,object_06c.png,object_12c.png,,,,,,,,,,,,,,,,,
null,,black_cross(without_color)1,388656,,,,,,,,green,,,null,object_06c.png,object_12c.png,,,,,,,,,,,,,,,,,
null,,rt_plussign_withcolor1,389168,,,,,,,,green,,,null,object_06c.png,object_12c.png,,,,,,,,,,,,,,,,,
1105.199999999255,,rt_thecrossant_black1,390246,,,,,,,,black_plus_sign,,,50,,,1,,,,,,,0.9166666666666666,,,,,,,,,
null,,color_black1,390349,,,,,,,,black_plus_sign,,,null,,,,,,,,,,,,,,,,,,,
null,,learn_phase(without_color)1,393862,,,,,,,,black_plus_sign,,,null,object_08a.png,object_13a.png,,,,,,,,,,,,,,,,,
null,,black_cross(without_color)1,394720,,,,,,,,blue,,,null,object_08a.png,object_13a.png,,,,,,,,,,,,,,,,,
null,,rt_plussign_withcolor1,395222,,,,,,,,blue,,,null,object_08a.png,object_13a.png,,,,,,,,,,,,,,,,,
1334.0999999996275,,rt_thecrossant_black1,396376,,,,,,,,black_plus_sign,,,49,,,1,,,,,,,0.9230769230769231,,,,,,,,,
null,,color_black1,396479,,,,,,,,black_plus_sign,,,null,,,,,,,,,,,,,,,,,,,
null,,learn_phase(without_color)1,399991,,,,,,,,black_plus_sign,,,null,object_07c.png,object_15a.png,,,,,,,,,,,,,,,,,
null,,black_cross(without_color)1,400677,,,,,,,,green,,,null,object_07c.png,object_15a.png,,,,,,,,,,,,,,,,,
null,,rt_plussign_withcolor1,401192,,,,,,,,green,,,null,object_07c.png,object_15a.png,,,,,,,,,,,,,,,,,
1284.4000000003725,,rt_thecrossant_black1,402538,,,,,,,,black_plus_sign,,,50,,,1,,,,,,,0.9285714285714286,,,,,,,,,
null,,color_black1,402649,,,,,,,,black_plus_sign,,,null,,,,,,,,,,,,,,,,,,,
null,,learn_phase(without_color)1,406165,,,,,,,,black_plus_sign,,,null,object_08b.png,object_02c.png,,,,,,,,,,,,,,,,,
null,,black_cross(without_color)1,406999,,,,,,,,green,,,null,object_08b.png,object_02c.png,,,,,,,,,,,,,,,,,
null,,rt_plussign_withcolor1,407507,,,,,,,,green,,,null,object_08b.png,object_02c.png,,,,,,,,,,,,,,,,,
1429.9000000003725,,rt_thecrossant_black1,408689,,,,,,,,black_plus_sign,,,50,,,1,,,,,,,0.9333333333333333,,,,,,,,,
null,,color_black1,408805,,,,,,,,black_plus_sign,,,null,,,,,,,,,,,,,,,,,,,
null,,learn_phase(without_color)1,412309,,,,,,,,black_plus_sign,,,null,object_03a.png,object_01c.png,,,,,,,,,,,,,,,,,
null,,black_cross(without_color)1,412810,,,,,,,,green,,,null,object_03a.png,object_01c.png,,,,,,,,,,,,,,,,,
null,,rt_plussign_withcolor1,413325,,,,,,,,green,,,null,object_03a.png,object_01c.png,,,,,,,,,,,,,,,,,
1165.7999999988824,,rt_thecrossant_black1,414855,,,,,,,,black_plus_sign,,,50,,,1,,,,,,,0.9375,,,,,,,,,
null,,color_black1,414958,,,,,,,,black_plus_sign,,,null,,,,,,,,,,,,,,,,,,,
null,,learn_phase(without_color)1,418474,,,,,,,,black_plus_sign,,,null,object_13a.png,object_09c.png,,,,,,,,,,,,,,,,,
null,,black_cross(without_color)1,419109,,,,,,,,blue,,,null,object_13a.png,object_09c.png,,,,,,,,,,,,,,,,,
null,,rt_plussign_withcolor1,419622,,,,,,,,blue,,,null,object_13a.png,object_09c.png,,,,,,,,,,,,,,,,,
1256.6000000014901,,rt_thecrossant_black1,421012,,,,,,,,black_plus_sign,,,49,,,1,,,,,,,0.9411764705882353,,,,,,,,,
null,,color_black1,421115,,,,,,,,black_plus_sign,,,null,,,,,,,,,,,,,,,,,,,
null,,learn_phase(without_color)1,424626,,,,,,,,black_plus_sign,,,null,object_06a.png,object_07c.png,,,,,,,,,,,,,,,,,
null,,black_cross(without_color)1,425435,,,,,,,,blue,,,null,object_06a.png,object_07c.png,,,,,,,,,,,,,,,,,
null,,rt_plussign_withcolor1,425950,,,,,,,,blue,,,null,object_06a.png,object_07c.png,,,,,,,,,,,,,,,,,
1065.2999999988824,,rt_thecrossant_black1,427151,,,,,,,,black_plus_sign,,,49,,,1,,,,,,,0.9444444444444444,,,,,,,,,
null,,color_black1,427260,,,,,,,,black_plus_sign,,,null,,,,,,,,,,,,,,,,,,,
null,,learn_phase(without_color)1,430772,,,,,,,,black_plus_sign,,,null,object_13c.png,object_01a.png,,,,,,,,,,,,,,,,,
null,,black_cross(without_color)1,431522,,,,,,,,blue,,,null,object_13c.png,object_01a.png,,,,,,,,,,,,,,,,,
null,,rt_plussign_withcolor1,432032,,,,,,,,blue,,,null,object_13c.png,object_01a.png,,,,,,,,,,,,,,,,,
1207.199999999255,,rt_thecrossant_black1,433315,,,,,,,,black_plus_sign,,,49,,,1,,,,,,,0.9473684210526315,,,,,,,,,
null,,color_black1,433417,,,,,,,,black_plus_sign,,,null,,,,,,,,,,,,,,,,,,,
null,,learn_phase(without_color)1,436925,,,,,,,,black_plus_sign,,,null,object_07a.png,object_11c.png,,,,,,,,,,,,,,,,,
null,,black_cross(without_color)1,437693,,,,,,,,blue,,,null,object_07a.png,object_11c.png,,,,,,,,,,,,,,,,,
null,,rt_plussign_withcolor1,438195,,,,,,,,blue,,,null,object_07a.png,object_11c.png,,,,,,,,,,,,,,,,,
1426,,rt_thecrossant_black1,439456,,,,,,,,black_plus_sign,,,49,,,1,,,,,,,0.95,,,,,,,,,
null,,color_black1,439570,,,,,,,,black_plus_sign,,,null,,,,,,,,,,,,,,,,,,,
null,,learn_phase(without_color)1,443086,,,,,,,,black_plus_sign,,,null,object_01a.png,object_14a.png,,,,,,,,,,,,,,,,,
null,,black_cross(without_color)1,443959,,,,,,,,green,,,null,object_01a.png,object_14a.png,,,,,,,,,,,,,,,,,
null,,rt_plussign_withcolor1,444471,,,,,,,,green,,,null,object_01a.png,object_14a.png,,,,,,,,,,,,,,,,,
1112,,rt_thecrossant_black1,445611,,,,,,,,black_plus_sign,,,50,,,1,,,,,,,0.9523809523809523,,,,,,,,,
null,,color_black1,445713,,,,,,,,black_plus_sign,,,null,,,,,,,,,,,,,,,,,,,
null,,learn_phase(without_color)1,449216,,,,,,,,black_plus_sign,,,null,object_15c.png,object_09a.png,,,,,,,,,,,,,,,,,
null,,black_cross(without_color)1,449628,,,,,,,,green,,,null,object_15c.png,object_09a.png,,,,,,,,,,,,,,,,,
null,,rt_plussign_withcolor1,450136,,,,,,,,green,,,null,object_15c.png,object_09a.png,,,,,,,,,,,,,,,,,
1082.4000000003725,,rt_thecrossant_black1,451732,,,,,,,,black_plus_sign,,,50,,,1,,,,,,,0.9545454545454546,,,,,,,,,
null,,color_black1,451835,,,,,,,,black_plus_sign,,,null,,,,,,,,,,,,,,,,,,,
null,,learn_phase(without_color)1,455346,,,,,,,,black_plus_sign,,,null,object_03c.png,object_04c.png,,,,,,,,,,,,,,,,,
null,,black_cross(without_color)1,455953,,,,,,,,blue,,,null,object_03c.png,object_04c.png,,,,,,,,,,,,,,,,,
null,,rt_plussign_withcolor1,456466,,,,,,,,blue,,,null,object_03c.png,object_04c.png,,,,,,,,,,,,,,,,,
782,,rt_thecrossant_black1,457885,,,,,,,,black_plus_sign,,,49,,,1,,,,,,,0.9565217391304348,,,,,,,,,
null,,color_black1,457994,,,,,,,,black_plus_sign,,,null,,,,,,,,,,,,,,,,,,,
null,,learn_phase(without_color)1,461510,,,,,,,,black_plus_sign,,,null,object_14c.png,object_04b.png,,,,,,,,,,,,,,,,,
null,,black_cross(without_color)1,462587,,,,,,,,blue,,,null,object_14c.png,object_04b.png,,,,,,,,,,,,,,,,,
null,,rt_plussign_withcolor1,463104,,,,,,,,blue,,,null,object_14c.png,object_04b.png,,,,,,,,,,,,,,,,,
857.0999999996275,,rt_thecrossant_black1,464048,,,,,,,,black_plus_sign,,,49,,,1,,,,,,,0.9583333333333334,,,,,,,,,
null,,color_black1,464152,,,,,,,,black_plus_sign,,,null,,,,,,,,,,,,,,,,,,,
null,,learn_phase(without_color)1,467671,,,,,,,,black_plus_sign,,,null,object_13b.png,object_14c.png,,,,,,,,,,,,,,,,,
null,,black_cross(without_color)1,468714,,,,,,,,blue,,,null,object_13b.png,object_14c.png,,,,,,,,,,,,,,,,,
null,,rt_plussign_withcolor1,469230,,,,,,,,blue,,,null,object_13b.png,object_14c.png,,,,,,,,,,,,,,,,,
1507.5,,rt_thecrossant_black1,470205,,,,,,,,black_plus_sign,,,49,,,1,,,,,,,0.96,,,,,,,,,
null,,color_black1,470307,,,,,,,,black_plus_sign,,,null,,,,,,,,,,,,,,,,,,,
null,,learn_phase(without_color)1,473813,,,,,,,,black_plus_sign,,,null,object_02c.png,object_04a.png,,,,,,,,,,,,,,,,,
null,,black_cross(without_color)1,474656,,,,,,,,green,,,null,object_02c.png,object_04a.png,,,,,,,,,,,,,,,,,
null,,rt_plussign_withcolor1,475171,,,,,,,,green,,,null,object_02c.png,object_04a.png,,,,,,,,,,,,,,,,,
1277.0999999996275,,rt_thecrossant_black1,476354,,,,,,,,black_plus_sign,,,50,,,1,,,,,,,0.9615384615384616,,,,,,,,,
null,,color_black1,476456,,,,,,,,black_plus_sign,,,null,,,,,,,,,,,,,,,,,,,
null,,learn_phase(without_color)1,479965,,,,,,,,black_plus_sign,,,null,object_10b.png,object_06b.png,,,,,,,,,,,,,,,,,
null,,black_cross(without_color)1,480976,,,,,,,,blue,,,null,object_10b.png,object_06b.png,,,,,,,,,,,,,,,,,
null,,rt_plussign_withcolor1,481492,,,,,,,,blue,,,null,object_10b.png,object_06b.png,,,,,,,,,,,,,,,,,
1227.4000000003725,,rt_thecrossant_black1,482501,,,,,,,,black_plus_sign,,,50,,,0,,,,,,,0.9259259259259259,,,,,,,,,
null,,color_black1,482609,,,,,,,,black_plus_sign,,,null,,,,,,,,,,,,,,,,,,,
null,,learn_phase(without_color)1,486125,,,,,,,,black_plus_sign,,,null,object_12b.png,object_07b.png,,,,,,,,,,,,,,,,,
null,,black_cross(without_color)1,487105,,,,,,,,blue,,,null,object_12b.png,object_07b.png,,,,,,,,,,,,,,,,,
null,,rt_plussign_withcolor1,487620,,,,,,,,blue,,,null,object_12b.png,object_07b.png,,,,,,,,,,,,,,,,,
1210.699999999255,,rt_thecrossant_black1,488670,,,,,,,,black_plus_sign,,,49,,,1,,,,,,,0.9285714285714286,,,,,,,,,
null,,color_black1,488773,,,,,,,,black_plus_sign,,,null,,,,,,,,,,,,,,,,,,,
null,,learn_phase(without_color)1,492281,,,,,,,,black_plus_sign,,,null,object_05a.png,object_01b.png,,,,,,,,,,,,,,,,,
null,,black_cross(without_color)1,493294,,,,,,,,blue,,,null,object_05a.png,object_01b.png,,,,,,,,,,,,,,,,,
null,,rt_plussign_withcolor1,493800,,,,,,,,blue,,,null,object_05a.png,object_01b.png,,,,,,,,,,,,,,,,,
1446.800000000745,,rt_thecrossant_black1,494799,,,,,,,,black_plus_sign,,,49,,,1,,,,,,,0.9310344827586207,,,,,,,,,
null,,color_black1,494908,,,,,,,,black_plus_sign,,,null,,,,,,,,,,,,,,,,,,,
null,,learn_phase(without_color)1,498421,,,,,,,,black_plus_sign,,,null,object_02b.png,object_14b.png,,,,,,,,,,,,,,,,,
null,,black_cross(without_color)1,499270,,,,,,,,blue,,,null,object_02b.png,object_14b.png,,,,,,,,,,,,,,,,,
null,,rt_plussign_withcolor1,499775,,,,,,,,blue,,,null,object_02b.png,object_14b.png,,,,,,,,,,,,,,,,,
1511.4000000003725,,rt_thecrossant_black1,500949,,,,,,,,black_plus_sign,,,49,,,1,,,,,,,0.9333333333333333,,,,,,,,,
null,,color_black1,501053,,,,,,,,black_plus_sign,,,null,,,,,,,,,,,,,,,,,,,
null,,thebreak,501166,,,,,,,,<p></p>,,,null,,,,,,,,,,,,,,,,,,,
1254.7999999988824,,intro_0,502422,,,,,,,,instruct,,,32,,,,,,,,,,,,,,,,,,,
5688.4000000003725,,directmemory_phase1,508111,,,,,,,,object_09c.png,,,50,,,1,,object_03c.png,object_13a.png,object_14c.png,object_13a.png,,1,1,,,,,,,,
12375,,directmemory_phase1,520489,,,,,,,,object_12a.png,,,51,,,0,,object_10b.png,object_09a.png,object_03a.png,object_09a.png,,0.5,0,,,,,,,,
6662,,directmemory_phase1,527153,,,,,,,,object_13a.png,,,50,,,1,,object_02a.png,object_08a.png,object_11b.png,object_08a.png,,0.6666666666666666,1,,,,,,,,
6657.300000000745,,directmemory_phase1,533812,,,,,,,,object_07b.png,,,50,,,1,,object_03a.png,object_12b.png,object_07c.png,object_12b.png,,0.75,1,,,,,,,,
5274.5,,directmemory_phase1,539088,,,,,,,,object_09b.png,,,49,,,0,,object_14b.png,object_12c.png,object_12b.png,object_12c.png,,0.6,0,,,,,,,,
5061.299999998882,,directmemory_phase1,544151,,,,,,,,object_10b.png,,,49,,,1,,object_05b.png,object_13c.png,object_07a.png,object_05b.png,,0.6666666666666666,1,,,,,,,,
2499.4000000003725,,directmemory_phase1,546653,,,,,,,,object_04c.png,,,51,,,1,,object_10b.png,object_07c.png,object_03c.png,object_03c.png,,0.7142857142857143,1,,,,,,,,
5597.799999998882,,directmemory_phase1,552253,,,,,,,,object_03a.png,,,49,,,0,,object_05b.png,object_08c.png,object_02a.png,object_02a.png,,0.625,0,,,,,,,,
5345.700000001118,,directmemory_phase1,557601,,,,,,,,object_01c.png,,,50,,,1,,object_07c.png,object_03a.png,object_10b.png,object_03a.png,,0.6666666666666666,1,,,,,,,,
7637,,directmemory_phase1,565240,,,,,,,,object_10c.png,,,49,,,0,,object_02b.png,object_08c.png,object_15b.png,object_15b.png,,0.6,0,,,,,,,,
6540.5999999996275,,directmemory_phase1,571783,,,,,,,,object_07c.png,,,51,,,0,,object_06a.png,object_05c.png,object_13b.png,object_06a.png,,0.5454545454545454,0,,,,,,,,
4133.9000000003725,,directmemory_phase1,575919,,,,,,,,object_06b.png,,,51,,,0,,object_10b.png,object_07c.png,object_05a.png,object_10b.png,,0.5,0,,,,,,,,
3683,,directmemory_phase1,579604,,,,,,,,object_09a.png,,,49,,,1,,object_15c.png,object_02a.png,object_15b.png,object_15c.png,,0.5384615384615384,1,,,,,,,,
6931.9000000003725,,directmemory_phase1,586537,,,,,,,,object_01a.png,,,50,,,1,,object_02a.png,object_13c.png,object_11b.png,object_13c.png,,0.5714285714285714,1,,,,,,,,
4693,,directmemory_phase1,591232,,,,,,,,object_11c.png,,,49,,,1,,object_07a.png,object_06c.png,object_08a.png,object_07a.png,,0.6,1,,,,,,,,
12301.700000001118,,directmemory_phase1,603536,,,,,,,,object_14b.png,,,49,,,1,,object_02b.png,object_11b.png,object_05c.png,object_02b.png,,0.625,1,,,,,,,,
2699.5999999996275,,directmemory_phase1,606237,,,,,,,,object_14a.png,,,50,,,1,,object_07c.png,object_01a.png,object_10c.png,object_01a.png,,0.6470588235294118,1,,,,,,,,
5548.699999999255,,directmemory_phase1,611788,,,,,,,,object_11a.png,,,50,,,0,,object_14b.png,object_03c.png,object_09a.png,object_14b.png,,0.6111111111111112,0,,,,,,,,
7505.300000000745,,directmemory_phase1,619296,,,,,,,,object_10a.png,,,49,,,0,,object_07c.png,object_13a.png,object_11c.png,object_11c.png,,0.5789473684210527,0,,,,,,,,
6682.5,,directmemory_phase1,625980,,,,,,,,object_12c.png,,,49,,,1,,object_06c.png,object_13b.png,object_13c.png,object_06c.png,,0.6,1,,,,,,,,
3736.5999999996275,,directmemory_phase1,629719,,,,,,,,object_01b.png,,,51,,,1,,object_10c.png,object_13a.png,object_05a.png,object_05a.png,,0.6190476190476191,1,,,,,,,,
5344.699999999255,,directmemory_phase1,635065,,,,,,,,object_05a.png,,,50,,,1,,object_15b.png,object_11b.png,object_05b.png,object_11b.png,,0.6363636363636364,1,,,,,,,,
4614.10000000149,,directmemory_phase1,639681,,,,,,,,object_03c.png,,,50,,,0,,object_05c.png,object_06a.png,object_08c.png,object_08c.png,,0.6086956521739131,0,,,,,,,,
6985.5,,directmemory_phase1,646669,,,,,,,,object_14c.png,,,50,,,0,,object_13b.png,object_11b.png,object_02a.png,object_13b.png,,0.5833333333333334,0,,,,,,,,
7522.10000000149,,directmemory_phase1,654193,,,,,,,,object_15a.png,,,49,,,1,,object_07c.png,object_12c.png,object_14c.png,object_07c.png,,0.6,1,,,,,,,,
2902.5,,directmemory_phase1,657098,,,,,,,,object_02c.png,,,50,,,1,,object_08c.png,object_08b.png,object_02a.png,object_08b.png,,0.6153846153846154,1,,,,,,,,
5081.9000000003725,,directmemory_phase1,662182,,,,,,,,object_03b.png,,,49,,,0,,object_07c.png,object_12c.png,object_10c.png,object_10c.png,,0.5925925925925926,0,,,,,,,,
2608.7000000011176,,directmemory_phase1,664792,,,,,,,,object_04b.png,,,49,,,1,,object_14c.png,object_10c.png,object_10b.png,object_14c.png,,0.6071428571428571,1,,,,,,,,
5388.200000001118,,directmemory_phase1,670183,,,,,,,,object_12b.png,,,49,,,0,,object_15c.png,object_11b.png,object_05c.png,object_05c.png,,0.5862068965517241,0,,,,,,,,
8688.200000001118,,directmemory_phase1,678873,,,,,,,,object_04a.png,,,49,,,0,,object_10c.png,object_02c.png,object_07c.png,object_02c.png,,0.5666666666666667,0,,,,,,,,
null,,thebreak,678979,,,,,,,,<p></p>,,,null,,,,,,,,,,,,,,,,,,,
14789.699999999255,,intro_0,693770,,,,,,,,instruct,,,32,,,,,,,,,,,,,,,,,,,
null,,learn_phase(without_color)2,697281,,,,,,,,black_plus_sign,,,null,object_02a.png,object_03a.png,,,,,,,,,,,,,,,,,
null,,black_cross(without_color)2,698213,,,,,,,,blue,,,null,object_02a.png,object_03a.png,,,,,,,,,,,,,,,,,
null,,rt_plussign_withcolor2,698730,,,,,,,,blue,,,null,object_02a.png,object_03a.png,,,,,,,,,,,,,,,,,
1032.800000000745,,rt_thecrossant_black2,699820,,,,,,,,black_plus_sign,,,49,,,1,,,,,,,1,,,,,,,,,
null,,color_black2,699922,,,,,,,,black_plus_sign,,,null,,,,,,,,,,,,,,,,,,,
null,,learn_phase(without_color)2,703426,,,,,,,,black_plus_sign,,,null,object_03c.png,object_04c.png,,,,,,,,,,,,,,,,,
null,,black_cross(without_color)2,703925,,,,,,,,green,,,null,object_03c.png,object_04c.png,,,,,,,,,,,,,,,,,
null,,rt_plussign_withcolor2,704441,,,,,,,,green,,,null,object_03c.png,object_04c.png,,,,,,,,,,,,,,,,,
1348.8999999985099,,rt_thecrossant_black2,705962,,,,,,,,black_plus_sign,,,50,,,1,,,,,,,1,,,,,,,,,
null,,color_black2,706066,,,,,,,,black_plus_sign,,,null,,,,,,,,,,,,,,,,,,,
null,,learn_phase(without_color)2,709581,,,,,,,,black_plus_sign,,,null,object_13b.png,object_14c.png,,,,,,,,,,,,,,,,,
null,,black_cross(without_color)2,710412,,,,,,,,green,,,null,object_13b.png,object_14c.png,,,,,,,,,,,,,,,,,
422.59999999962747,,rt_plussign_withcolor2,710918,,,,,,,,green,,,50,object_13b.png,object_14c.png,,,,,,,,,,,,,,,,,
null,,rt_thecrossant_black2,712110,,,,,,,,black_plus_sign,,,null,,,1,,,,,,,1,,,,,,,,,
null,,color_black2,712219,,,,,,,,black_plus_sign,,,null,,,,,,,,,,,,,,,,,,,
null,,learn_phase(without_color)2,715736,,,,,,,,black_plus_sign,,,null,object_02b.png,object_14b.png,,,,,,,,,,,,,,,,,
null,,black_cross(without_color)2,716453,,,,,,,,green,,,null,object_02b.png,object_14b.png,,,,,,,,,,,,,,,,,
null,,rt_plussign_withcolor2,716955,,,,,,,,green,,,null,object_02b.png,object_14b.png,,,,,,,,,,,,,,,,,
1221.2999999988824,,rt_thecrossant_black2,718261,,,,,,,,black_plus_sign,,,50,,,1,,,,,,,1,,,,,,,,,
null,,color_black2,718364,,,,,,,,black_plus_sign,,,null,,,,,,,,,,,,,,,,,,,
null,,learn_phase(without_color)2,721867,,,,,,,,black_plus_sign,,,null,object_08b.png,object_02c.png,,,,,,,,,,,,,,,,,
null,,black_cross(without_color)2,722873,,,,,,,,blue,,,null,object_08b.png,object_02c.png,,,,,,,,,,,,,,,,,
null,,rt_plussign_withcolor2,723390,,,,,,,,blue,,,null,object_08b.png,object_02c.png,,,,,,,,,,,,,,,,,
1078.300000000745,,rt_thecrossant_black2,724404,,,,,,,,black_plus_sign,,,49,,,1,,,,,,,1,,,,,,,,,
null,,color_black2,724506,,,,,,,,black_plus_sign,,,null,,,,,,,,,,,,,,,,,,,
null,,learn_phase(without_color)2,728018,,,,,,,,black_plus_sign,,,null,object_08a.png,object_13a.png,,,,,,,,,,,,,,,,,
null,,black_cross(without_color)2,728787,,,,,,,,blue,,,null,object_08a.png,object_13a.png,,,,,,,,,,,,,,,,,
null,,rt_plussign_withcolor2,729301,,,,,,,,blue,,,null,object_08a.png,object_13a.png,,,,,,,,,,,,,,,,,
1497.199999999255,,rt_thecrossant_black2,730551,,,,,,,,black_plus_sign,,,49,,,1,,,,,,,1,,,,,,,,,
null,,color_black2,730653,,,,,,,,black_plus_sign,,,null,,,,,,,,,,,,,,,,,,,
null,,learn_phase(without_color)2,734162,,,,,,,,black_plus_sign,,,null,object_09a.png,object_12a.png,,,,,,,,,,,,,,,,,
null,,black_cross(without_color)2,734778,,,,,,,,blue,,,null,object_09a.png,object_12a.png,,,,,,,,,,,,,,,,,
null,,rt_plussign_withcolor2,735285,,,,,,,,blue,,,null,object_09a.png,object_12a.png,,,,,,,,,,,,,,,,,
1236.5999999996275,,rt_thecrossant_black2,736687,,,,,,,,black_plus_sign,,,49,,,1,,,,,,,1,,,,,,,,,
null,,color_black2,736797,,,,,,,,black_plus_sign,,,null,,,,,,,,,,,,,,,,,,,
null,,learn_phase(without_color)2,740301,,,,,,,,black_plus_sign,,,null,object_06c.png,object_12c.png,,,,,,,,,,,,,,,,,
null,,black_cross(without_color)2,740709,,,,,,,,green,,,null,object_06c.png,object_12c.png,,,,,,,,,,,,,,,,,
null,,rt_plussign_withcolor2,741224,,,,,,,,green,,,null,object_06c.png,object_12c.png,,,,,,,,,,,,,,,,,
1235.5999999996275,,rt_thecrossant_black2,742832,,,,,,,,black_plus_sign,,,50,,,1,,,,,,,1,,,,,,,,,
null,,color_black2,742935,,,,,,,,black_plus_sign,,,null,,,,,,,,,,,,,,,,,,,
null,,learn_phase(without_color)2,746448,,,,,,,,black_plus_sign,,,null,object_13c.png,object_01a.png,,,,,,,,,,,,,,,,,
null,,black_cross(without_color)2,747339,,,,,,,,green,,,null,object_13c.png,object_01a.png,,,,,,,,,,,,,,,,,
null,,rt_plussign_withcolor2,747847,,,,,,,,green,,,null,object_13c.png,object_01a.png,,,,,,,,,,,,,,,,,
793.6999999992549,,rt_thecrossant_black2,748990,,,,,,,,black_plus_sign,,,50,,,1,,,,,,,1,,,,,,,,,
null,,color_black2,749093,,,,,,,,black_plus_sign,,,null,,,,,,,,,,,,,,,,,,,
null,,learn_phase(without_color)2,752602,,,,,,,,black_plus_sign,,,null,object_15c.png,object_09a.png,,,,,,,,,,,,,,,,,
null,,black_cross(without_color)2,753304,,,,,,,,green,,,null,object_15c.png,object_09a.png,,,,,,,,,,,,,,,,,
null,,rt_plussign_withcolor2,753820,,,,,,,,green,,,null,object_15c.png,object_09a.png,,,,,,,,,,,,,,,,,
1159,,rt_thecrossant_black2,755149,,,,,,,,black_plus_sign,,,50,,,1,,,,,,,1,,,,,,,,,
null,,color_black2,755252,,,,,,,,black_plus_sign,,,null,,,,,,,,,,,,,,,,,,,
null,,learn_phase(without_color)2,758759,,,,,,,,black_plus_sign,,,null,object_03a.png,object_01c.png,,,,,,,,,,,,,,,,,
null,,black_cross(without_color)2,759664,,,,,,,,blue,,,null,object_03a.png,object_01c.png,,,,,,,,,,,,,,,,,
null,,rt_plussign_withcolor2,760179,,,,,,,,blue,,,null,object_03a.png,object_01c.png,,,,,,,,,,,,,,,,,
1067,,rt_thecrossant_black2,761292,,,,,,,,black_plus_sign,,,49,,,1,,,,,,,1,,,,,,,,,
null,,color_black2,761402,,,,,,,,black_plus_sign,,,null,,,,,,,,,,,,,,,,,,,
null,,learn_phase(without_color)2,764907,,,,,,,,black_plus_sign,,,null,object_06a.png,object_07c.png,,,,,,,,,,,,,,,,,
null,,black_cross(without_color)2,765593,,,,,,,,green,,,null,object_06a.png,object_07c.png,,,,,,,,,,,,,,,,,
null,,rt_plussign_withcolor2,766097,,,,,,,,green,,,null,object_06a.png,object_07c.png,,,,,,,,,,,,,,,,,
1518.199999999255,,rt_thecrossant_black2,767425,,,,,,,,black_plus_sign,,,50,,,1,,,,,,,1,,,,,,,,,
null,,color_black2,767528,,,,,,,,black_plus_sign,,,null,,,,,,,,,,,,,,,,,,,
null,,learn_phase(without_color)2,771043,,,,,,,,black_plus_sign,,,null,object_11c.png,object_10a.png,,,,,,,,,,,,,,,,,
null,,black_cross(without_color)2,771684,,,,,,,,blue,,,null,object_11c.png,object_10a.png,,,,,,,,,,,,,,,,,
null,,rt_plussign_withcolor2,772199,,,,,,,,blue,,,null,object_11c.png,object_10a.png,,,,,,,,,,,,,,,,,
1142,,rt_thecrossant_black2,773572,,,,,,,,black_plus_sign,,,49,,,1,,,,,,,1,,,,,,,,,
null,,color_black2,773675,,,,,,,,black_plus_sign,,,null,,,,,,,,,,,,,,,,,,,
null,,learn_phase(without_color)2,777186,,,,,,,,black_plus_sign,,,null,object_10c.png,object_03b.png,,,,,,,,,,,,,,,,,
null,,black_cross(without_color)2,777856,,,,,,,,blue,,,null,object_10c.png,object_03b.png,,,,,,,,,,,,,,,,,
null,,rt_plussign_withcolor2,778369,,,,,,,,blue,,,null,object_10c.png,object_03b.png,,,,,,,,,,,,,,,,,
1010,,rt_thecrossant_black2,779722,,,,,,,,black_plus_sign,,,49,,,1,,,,,,,1,,,,,,,,,
null,,color_black2,779825,,,,,,,,black_plus_sign,,,null,,,,,,,,,,,,,,,,,,,
null,,learn_phase(without_color)2,783334,,,,,,,,black_plus_sign,,,null,object_14c.png,object_04b.png,,,,,,,,,,,,,,,,,
null,,black_cross(without_color)2,784022,,,,,,,,green,,,null,object_14c.png,object_04b.png,,,,,,,,,,,,,,,,,
null,,rt_plussign_withcolor2,784539,,,,,,,,green,,,null,object_14c.png,object_04b.png,,,,,,,,,,,,,,,,,
991.8999999985099,,rt_thecrossant_black2,785857,,,,,,,,black_plus_sign,,,50,,,1,,,,,,,1,,,,,,,,,
null,,color_black2,785962,,,,,,,,black_plus_sign,,,null,,,,,,,,,,,,,,,,,,,
null,,learn_phase(without_color)2,789475,,,,,,,,black_plus_sign,,,null,object_07c.png,object_15a.png,,,,,,,,,,,,,,,,,
null,,black_cross(without_color)2,790039,,,,,,,,blue,,,null,object_07c.png,object_15a.png,,,,,,,,,,,,,,,,,
null,,rt_plussign_withcolor2,790553,,,,,,,,blue,,,null,object_07c.png,object_15a.png,,,,,,,,,,,,,,,,,
1018.8000000007451,,rt_thecrossant_black2,792004,,,,,,,,black_plus_sign,,,49,,,1,,,,,,,1,,,,,,,,,
null,,color_black2,792107,,,,,,,,black_plus_sign,,,null,,,,,,,,,,,,,,,,,,,
null,,learn_phase(without_color)2,795622,,,,,,,,black_plus_sign,,,null,object_15b.png,object_10c.png,,,,,,,,,,,,,,,,,
null,,black_cross(without_color)2,796280,,,,,,,,green,,,null,object_15b.png,object_10c.png,,,,,,,,,,,,,,,,,
null,,rt_plussign_withcolor2,796789,,,,,,,,green,,,null,object_15b.png,object_10c.png,,,,,,,,,,,,,,,,,
935.5,,rt_thecrossant_black2,798149,,,,,,,,black_plus_sign,,,50,,,1,,,,,,,1,,,,,,,,,
null,,color_black2,798252,,,,,,,,black_plus_sign,,,null,,,,,,,,,,,,,,,,,,,
null,,learn_phase(without_color)2,801755,,,,,,,,black_plus_sign,,,null,object_12c.png,object_09b.png,,,,,,,,,,,,,,,,,
null,,black_cross(without_color)2,802618,,,,,,,,green,,,null,object_12c.png,object_09b.png,,,,,,,,,,,,,,,,,
null,,rt_plussign_withcolor2,803131,,,,,,,,green,,,null,object_12c.png,object_09b.png,,,,,,,,,,,,,,,,,
928.7000000011176,,rt_thecrossant_black2,804291,,,,,,,,black_plus_sign,,,50,,,1,,,,,,,1,,,,,,,,,
null,,color_black2,804408,,,,,,,,black_plus_sign,,,null,,,,,,,,,,,,,,,,,,,
null,,learn_phase(without_color)2,807917,,,,,,,,black_plus_sign,,,null,object_13a.png,object_09c.png,,,,,,,,,,,,,,,,,
null,,black_cross(without_color)2,808948,,,,,,,,green,,,null,object_13a.png,object_09c.png,,,,,,,,,,,,,,,,,
null,,rt_plussign_withcolor2,809461,,,,,,,,green,,,null,object_13a.png,object_09c.png,,,,,,,,,,,,,,,,,
1394.2000000011176,,rt_thecrossant_black2,810443,,,,,,,,black_plus_sign,,,50,,,1,,,,,,,1,,,,,,,,,
null,,color_black2,810555,,,,,,,,black_plus_sign,,,null,,,,,,,,,,,,,,,,,,,
null,,learn_phase(without_color)2,814072,,,,,,,,black_plus_sign,,,null,object_02c.png,object_04a.png,,,,,,,,,,,,,,,,,
null,,black_cross(without_color)2,814649,,,,,,,,blue,,,null,object_02c.png,object_04a.png,,,,,,,,,,,,,,,,,
null,,rt_plussign_withcolor2,815165,,,,,,,,blue,,,null,object_02c.png,object_04a.png,,,,,,,,,,,,,,,,,
1363.0999999996275,,rt_thecrossant_black2,816615,,,,,,,,black_plus_sign,,,49,,,1,,,,,,,1,,,,,,,,,
null,,color_black2,816718,,,,,,,,black_plus_sign,,,null,,,,,,,,,,,,,,,,,,,
null,,learn_phase(without_color)2,820221,,,,,,,,black_plus_sign,,,null,object_11b.png,object_05a.png,,,,,,,,,,,,,,,,,
null,,black_cross(without_color)2,821216,,,,,,,,green,,,null,object_11b.png,object_05a.png,,,,,,,,,,,,,,,,,
null,,rt_plussign_withcolor2,821730,,,,,,,,green,,,null,object_11b.png,object_05a.png,,,,,,,,,,,,,,,,,
978.9000000003725,,rt_thecrossant_black2,822746,,,,,,,,black_plus_sign,,,50,,,1,,,,,,,1,,,,,,,,,
null,,color_black2,822853,,,,,,,,black_plus_sign,,,null,,,,,,,,,,,,,,,,,,,
null,,learn_phase(without_color)2,826363,,,,,,,,black_plus_sign,,,null,object_05b.png,object_10b.png,,,,,,,,,,,,,,,,,
null,,black_cross(without_color)2,827042,,,,,,,,blue,,,null,object_05b.png,object_10b.png,,,,,,,,,,,,,,,,,
null,,rt_plussign_withcolor2,827557,,,,,,,,blue,,,null,object_05b.png,object_10b.png,,,,,,,,,,,,,,,,,
1437,,rt_thecrossant_black2,828895,,,,,,,,black_plus_sign,,,49,,,1,,,,,,,1,,,,,,,,,
null,,color_black2,829005,,,,,,,,black_plus_sign,,,null,,,,,,,,,,,,,,,,,,,
null,,learn_phase(without_color)2,832513,,,,,,,,black_plus_sign,,,null,object_10b.png,object_06b.png,,,,,,,,,,,,,,,,,
null,,black_cross(without_color)2,833075,,,,,,,,blue,,,null,object_10b.png,object_06b.png,,,,,,,,,,,,,,,,,
null,,rt_plussign_withcolor2,833590,,,,,,,,blue,,,null,object_10b.png,object_06b.png,,,,,,,,,,,,,,,,,
1423.9000000003725,,rt_thecrossant_black2,835041,,,,,,,,black_plus_sign,,,49,,,1,,,,,,,1,,,,,,,,,
null,,color_black2,835144,,,,,,,,black_plus_sign,,,null,,,,,,,,,,,,,,,,,,,
null,,learn_phase(without_color)2,838656,,,,,,,,black_plus_sign,,,null,object_01a.png,object_14a.png,,,,,,,,,,,,,,,,,
null,,black_cross(without_color)2,839376,,,,,,,,blue,,,null,object_01a.png,object_14a.png,,,,,,,,,,,,,,,,,
null,,rt_plussign_withcolor2,839892,,,,,,,,blue,,,null,object_01a.png,object_14a.png,,,,,,,,,,,,,,,,,
797.7000000011176,,rt_thecrossant_black2,841195,,,,,,,,black_plus_sign,,,49,,,1,,,,,,,1,,,,,,,,,
null,,color_black2,841311,,,,,,,,black_plus_sign,,,null,,,,,,,,,,,,,,,,,,,
null,,learn_phase(without_color)2,844828,,,,,,,,black_plus_sign,,,null,object_12b.png,object_07b.png,,,,,,,,,,,,,,,,,
null,,black_cross(without_color)2,845341,,,,,,,,blue,,,null,object_12b.png,object_07b.png,,,,,,,,,,,,,,,,,
null,,rt_plussign_withcolor2,845843,,,,,,,,blue,,,null,object_12b.png,object_07b.png,,,,,,,,,,,,,,,,,
1193,,rt_thecrossant_black2,847348,,,,,,,,black_plus_sign,,,49,,,1,,,,,,,1,,,,,,,,,
null,,color_black2,847459,,,,,,,,black_plus_sign,,,null,,,,,,,,,,,,,,,,,,,
null,,learn_phase(without_color)2,850973,,,,,,,,black_plus_sign,,,null,object_08c.png,object_03c.png,,,,,,,,,,,,,,,,,
null,,black_cross(without_color)2,851667,,,,,,,,blue,,,null,object_08c.png,object_03c.png,,,,,,,,,,,,,,,,,
null,,rt_plussign_withcolor2,852177,,,,,,,,blue,,,null,object_08c.png,object_03c.png,,,,,,,,,,,,,,,,,
848.9000000003725,,rt_thecrossant_black2,853501,,,,,,,,black_plus_sign,,,49,,,1,,,,,,,1,,,,,,,,,
null,,color_black2,853603,,,,,,,,black_plus_sign,,,null,,,,,,,,,,,,,,,,,,,
null,,learn_phase(without_color)2,857119,,,,,,,,black_plus_sign,,,null,object_14b.png,object_11a.png,,,,,,,,,,,,,,,,,
null,,black_cross(without_color)2,857742,,,,,,,,green,,,null,object_14b.png,object_11a.png,,,,,,,,,,,,,,,,,
null,,rt_plussign_withcolor2,858259,,,,,,,,green,,,null,object_14b.png,object_11a.png,,,,,,,,,,,,,,,,,
1039.9000000003725,,rt_thecrossant_black2,859661,,,,,,,,black_plus_sign,,,50,,,1,,,,,,,1,,,,,,,,,
null,,color_black2,859770,,,,,,,,black_plus_sign,,,null,,,,,,,,,,,,,,,,,,,
null,,learn_phase(without_color)2,863279,,,,,,,,black_plus_sign,,,null,object_05c.png,object_12b.png,,,,,,,,,,,,,,,,,
null,,black_cross(without_color)2,863712,,,,,,,,blue,,,null,object_05c.png,object_12b.png,,,,,,,,,,,,,,,,,
null,,rt_plussign_withcolor2,864216,,,,,,,,blue,,,null,object_05c.png,object_12b.png,,,,,,,,,,,,,,,,,
1057.8999999985099,,rt_thecrossant_black2,865798,,,,,,,,black_plus_sign,,,49,,,1,,,,,,,1,,,,,,,,,
null,,color_black2,865908,,,,,,,,black_plus_sign,,,null,,,,,,,,,,,,,,,,,,,
null,,learn_phase(without_color)2,869416,,,,,,,,black_plus_sign,,,null,object_07a.png,object_11c.png,,,,,,,,,,,,,,,,,
null,,black_cross(without_color)2,870431,,,,,,,,green,,,null,object_07a.png,object_11c.png,,,,,,,,,,,,,,,,,
null,,rt_plussign_withcolor2,870945,,,,,,,,green,,,null,object_07a.png,object_11c.png,,,,,,,,,,,,,,,,,
723.5,,rt_thecrossant_black2,871959,,,,,,,,black_plus_sign,,,50,,,1,,,,,,,1,,,,,,,,,
null,,color_black2,872067,,,,,,,,black_plus_sign,,,null,,,,,,,,,,,,,,,,,,,
null,,learn_phase(without_color)2,875576,,,,,,,,black_plus_sign,,,null,object_05a.png,object_01b.png,,,,,,,,,,,,,,,,,
null,,black_cross(without_color)2,876308,,,,,,,,blue,,,null,object_05a.png,object_01b.png,,,,,,,,,,,,,,,,,
null,,rt_plussign_withcolor2,876822,,,,,,,,blue,,,null,object_05a.png,object_01b.png,,,,,,,,,,,,,,,,,
1376,,rt_thecrossant_black2,878116,,,,,,,,black_plus_sign,,,49,,,1,,,,,,,1,,,,,,,,,
null,,color_black2,878219,,,,,,,,black_plus_sign,,,null,,,,,,,,,,,,,,,,,,,
null,,thebreak,878322,,,,,,,,<p></p>,,,null,,,,,,,,,,,,,,,,,,,
1277.5999999996275,,intro_0,879601,,,,,,,,instruct,,,32,,,,,,,,,,,,,,,,,,,
4666.0999999996275,,directmemory_phase2,884269,,,,,,,,object_09b.png,,,49,,,1,,object_12c.png,object_07c.png,object_03c.png,object_12c.png,,0.5806451612903226,1,,,,,,,,
7053,,directmemory_phase2,891324,,,,,,,,object_10c.png,,,49,,,0,,object_05c.png,object_15b.png,object_15c.png,object_15b.png,,0.5625,0,,,,,,,,
11164.300000000745,,directmemory_phase2,902490,,,,,,,,object_04c.png,,,50,,,0,,object_03c.png,object_09a.png,object_13a.png,object_03c.png,,0.5454545454545454,0,,,,,,,,
6155.800000000745,,directmemory_phase2,908649,,,,,,,,object_07c.png,,,49,,,1,,object_06a.png,object_07a.png,object_08a.png,object_06a.png,,0.5588235294117647,1,,,,,,,,
5610.299999998882,,directmemory_phase2,914261,,,,,,,,object_10b.png,,,49,,,0,,object_15b.png,object_05b.png,object_08c.png,object_05b.png,,0.5428571428571428,0,,,,,,,,
5584.799999998882,,directmemory_phase2,919848,,,,,,,,object_15a.png,,,50,,,1,,object_10b.png,object_07c.png,object_14c.png,object_07c.png,,0.5555555555555556,1,,,,,,,,
5311.199999999255,,directmemory_phase2,925161,,,,,,,,object_14b.png,,,49,,,1,,object_02b.png,object_08c.png,object_15c.png,object_02b.png,,0.5675675675675675,1,,,,,,,,
1815.199999999255,,directmemory_phase2,926979,,,,,,,,object_04a.png,,,50,,,1,,object_10b.png,object_02c.png,object_10c.png,object_02c.png,,0.5789473684210527,1,,,,,,,,
8292.199999999255,,directmemory_phase2,935273,,,,,,,,object_13a.png,,,51,,,0,,object_13b.png,object_08a.png,object_08c.png,object_08a.png,,0.5641025641025641,0,,,,,,,,
5513.0999999996275,,directmemory_phase2,940788,,,,,,,,object_01c.png,,,50,,,1,,object_01a.png,object_03a.png,object_10c.png,object_03a.png,,0.575,1,,,,,,,,
8056.5,,directmemory_phase2,948847,,,,,,,,object_14c.png,,,50,,,1,,object_15c.png,object_13b.png,object_02b.png,object_13b.png,,0.5853658536585366,1,,,,,,,,
3091,,directmemory_phase2,951940,,,,,,,,object_07b.png,,,49,,,1,,object_12b.png,object_10b.png,object_03c.png,object_12b.png,,0.5952380952380952,1,,,,,,,,
4446.5,,directmemory_phase2,956388,,,,,,,,object_02c.png,,,49,,,0,,object_13c.png,object_08b.png,object_13b.png,object_08b.png,,0.5813953488372093,0,,,,,,,,
1571.5999999996275,,directmemory_phase2,957962,,,,,,,,object_04b.png,,,49,,,1,,object_14c.png,object_03c.png,object_14b.png,object_14c.png,,0.5909090909090909,1,,,,,,,,
8095,,directmemory_phase2,966059,,,,,,,,object_12b.png,,,50,,,1,,object_05b.png,object_05c.png,object_13b.png,object_05c.png,,0.6,1,,,,,,,,
5301.5999999996275,,directmemory_phase2,971363,,,,,,,,object_05a.png,,,50,,,1,,object_06a.png,object_11b.png,object_02b.png,object_11b.png,,0.6086956521739131,1,,,,,,,,
6875,,directmemory_phase2,978240,,,,,,,,object_12a.png,,,51,,,1,,object_03a.png,object_07c.png,object_09a.png,object_09a.png,,0.6170212765957447,1,,,,,,,,
8239.099999999627,,directmemory_phase2,986481,,,,,,,,object_01a.png,,,51,,,1,,object_05b.png,object_07a.png,object_13c.png,object_13c.png,,0.625,1,,,,,,,,
7290.4000000003725,,directmemory_phase2,993774,,,,,,,,object_11c.png,,,50,,,1,,object_05c.png,object_07a.png,object_08c.png,object_07a.png,,0.6326530612244898,1,,,,,,,,
6411.800000000745,,directmemory_phase2,1000188,,,,,,,,object_06b.png,,,50,,,0,,object_14b.png,object_10c.png,object_10b.png,object_10b.png,,0.62,0,,,,,,,,
1949.699999999255,,directmemory_phase2,1002140,,,,,,,,object_01b.png,,,49,,,1,,object_05a.png,object_11c.png,object_12c.png,object_05a.png,,0.6274509803921569,1,,,,,,,,
1364,,directmemory_phase2,1003506,,,,,,,,object_11a.png,,,49,,,1,,object_14b.png,object_11c.png,object_03a.png,object_14b.png,,0.6346153846153846,1,,,,,,,,
2384.5999999996275,,directmemory_phase2,1005893,,,,,,,,object_10a.png,,,50,,,1,,object_10c.png,object_11c.png,object_05a.png,object_11c.png,,0.6415094339622641,1,,,,,,,,
4279.700000001118,,directmemory_phase2,1010175,,,,,,,,object_03b.png,,,50,,,1,,object_14b.png,object_10c.png,object_12c.png,object_10c.png,,0.6481481481481481,1,,,,,,,,
10033.300000000745,,directmemory_phase2,1020210,,,,,,,,object_03a.png,,,50,,,0,,object_02a.png,object_06a.png,object_08a.png,object_02a.png,,0.6363636363636364,0,,,,,,,,
6496.799999998882,,directmemory_phase2,1026709,,,,,,,,object_03c.png,,,50,,,1,,object_13b.png,object_08c.png,object_05c.png,object_08c.png,,0.6428571428571429,1,,,,,,,,
5850.0999999996275,,directmemory_phase2,1032561,,,,,,,,object_12c.png,,,50,,,1,,object_08a.png,object_06c.png,object_05c.png,object_06c.png,,0.6491228070175439,1,,,,,,,,
2997.9000000003725,,directmemory_phase2,1035561,,,,,,,,object_09a.png,,,51,,,1,,object_06c.png,object_06a.png,object_15c.png,object_15c.png,,0.6551724137931034,1,,,,,,,,
3791.9000000003725,,directmemory_phase2,1039355,,,,,,,,object_09c.png,,,51,,,1,,object_14c.png,object_12c.png,object_13a.png,object_13a.png,,0.6610169491525424,1,,,,,,,,
3461.199999999255,,directmemory_phase2,1042818,,,,,,,,object_14a.png,,,51,,,1,,object_10c.png,object_03a.png,object_01a.png,object_01a.png,,0.6666666666666666,1,,,,,,,,
null,,thebreak,1042924,,,,,,,,<p></p>,,,null,,,,,,,,,,,,,,,,,,,
12500.799999998882,,intro_0,1055426,,,,,,,,instruct,,,32,,,,,,,,,,,,,,,,,,,
null,,learn_phase(without_color)3,1058935,,,,,,,,black_plus_sign,,,null,object_13b.png,object_14c.png,,,,,,,,,,,,,,,,,
null,,black_cross(without_color)3,1059684,,,,,,,,green,,,null,object_13b.png,object_14c.png,,,,,,,,,,,,,,,,,
null,,rt_plussign_withcolor3,1060201,,,,,,,,green,,,null,object_13b.png,object_14c.png,,,,,,,,,,,,,,,,,
971.5,,rt_thecrossant_black3,1061466,,,,,,,,black_plus_sign,,,50,,,1,,,,,,,1,,,,,,,,,
null,,color_black3,1061569,,,,,,,,black_plus_sign,,,null,,,,,,,,,,,,,,,,,,,
null,,learn_phase(without_color)3,1065076,,,,,,,,black_plus_sign,,,null,object_12c.png,object_09b.png,,,,,,,,,,,,,,,,,
null,,black_cross(without_color)3,1065685,,,,,,,,green,,,null,object_12c.png,object_09b.png,,,,,,,,,,,,,,,,,
null,,rt_plussign_withcolor3,1066200,,,,,,,,green,,,null,object_12c.png,object_09b.png,,,,,,,,,,,,,,,,,
954.5,,rt_thecrossant_black3,1067622,,,,,,,,black_plus_sign,,,50,,,1,,,,,,,1,,,,,,,,,
null,,color_black3,1067733,,,,,,,,black_plus_sign,,,null,,,,,,,,,,,,,,,,,,,
null,,learn_phase(without_color)3,1071248,,,,,,,,black_plus_sign,,,null,object_11c.png,object_10a.png,,,,,,,,,,,,,,,,,
null,,black_cross(without_color)3,1072159,,,,,,,,blue,,,null,object_11c.png,object_10a.png,,,,,,,,,,,,,,,,,
null,,rt_plussign_withcolor3,1072675,,,,,,,,blue,,,null,object_11c.png,object_10a.png,,,,,,,,,,,,,,,,,
1030.5999999996275,,rt_thecrossant_black3,1073789,,,,,,,,black_plus_sign,,,49,,,1,,,,,,,1,,,,,,,,,
null,,color_black3,1073899,,,,,,,,black_plus_sign,,,null,,,,,,,,,,,,,,,,,,,
null,,learn_phase(without_color)3,1077407,,,,,,,,black_plus_sign,,,null,object_11b.png,object_05a.png,,,,,,,,,,,,,,,,,
null,,black_cross(without_color)3,1077873,,,,,,,,blue,,,null,object_11b.png,object_05a.png,,,,,,,,,,,,,,,,,
null,,rt_plussign_withcolor3,1078390,,,,,,,,blue,,,null,object_11b.png,object_05a.png,,,,,,,,,,,,,,,,,
1322.5,,rt_thecrossant_black3,1079949,,,,,,,,black_plus_sign,,,49,,,1,,,,,,,1,,,,,,,,,
null,,color_black3,1080052,,,,,,,,black_plus_sign,,,null,,,,,,,,,,,,,,,,,,,
null,,learn_phase(without_color)3,1083560,,,,,,,,black_plus_sign,,,null,object_05b.png,object_10b.png,,,,,,,,,,,,,,,,,
null,,black_cross(without_color)3,1084576,,,,,,,,blue,,,null,object_05b.png,object_10b.png,,,,,,,,,,,,,,,,,
null,,rt_plussign_withcolor3,1085092,,,,,,,,blue,,,null,object_05b.png,object_10b.png,,,,,,,,,,,,,,,,,
865.1999999992549,,rt_thecrossant_black3,1086108,,,,,,,,black_plus_sign,,,49,,,1,,,,,,,1,,,,,,,,,
null,,color_black3,1086211,,,,,,,,black_plus_sign,,,null,,,,,,,,,,,,,,,,,,,
null,,learn_phase(without_color)3,1089718,,,,,,,,black_plus_sign,,,null,object_05a.png,object_01b.png,,,,,,,,,,,,,,,,,
null,,black_cross(without_color)3,1090156,,,,,,,,blue,,,null,object_05a.png,object_01b.png,,,,,,,,,,,,,,,,,
null,,rt_plussign_withcolor3,1090670,,,,,,,,blue,,,null,object_05a.png,object_01b.png,,,,,,,,,,,,,,,,,
1456,,rt_thecrossant_black3,1092251,,,,,,,,black_plus_sign,,,49,,,1,,,,,,,1,,,,,,,,,
null,,color_black3,1092358,,,,,,,,black_plus_sign,,,null,,,,,,,,,,,,,,,,,,,
null,,learn_phase(without_color)3,1095877,,,,,,,,black_plus_sign,,,null,object_10b.png,object_06b.png,,,,,,,,,,,,,,,,,
null,,black_cross(without_color)3,1096628,,,,,,,,green,,,null,object_10b.png,object_06b.png,,,,,,,,,,,,,,,,,
null,,rt_plussign_withcolor3,1097138,,,,,,,,green,,,null,object_10b.png,object_06b.png,,,,,,,,,,,,,,,,,
841.2000000011176,,rt_thecrossant_black3,1098402,,,,,,,,black_plus_sign,,,50,,,1,,,,,,,1,,,,,,,,,
null,,color_black3,1098511,,,,,,,,black_plus_sign,,,null,,,,,,,,,,,,,,,,,,,
null,,learn_phase(without_color)3,1102025,,,,,,,,black_plus_sign,,,null,object_03c.png,object_04c.png,,,,,,,,,,,,,,,,,
null,,black_cross(without_color)3,1102461,,,,,,,,green,,,null,object_03c.png,object_04c.png,,,,,,,,,,,,,,,,,
null,,rt_plussign_withcolor3,1102964,,,,,,,,green,,,null,object_03c.png,object_04c.png,,,,,,,,,,,,,,,,,
1229.7999999988824,,rt_thecrossant_black3,1104554,,,,,,,,black_plus_sign,,,50,,,1,,,,,,,1,,,,,,,,,
null,,color_black3,1104668,,,,,,,,black_plus_sign,,,null,,,,,,,,,,,,,,,,,,,
null,,learn_phase(without_color)3,1108171,,,,,,,,black_plus_sign,,,null,object_10c.png,object_03b.png,,,,,,,,,,,,,,,,,
null,,black_cross(without_color)3,1108978,,,,,,,,blue,,,null,object_10c.png,object_03b.png,,,,,,,,,,,,,,,,,
null,,rt_plussign_withcolor3,1109488,,,,,,,,blue,,,null,object_10c.png,object_03b.png,,,,,,,,,,,,,,,,,
746.6999999992549,,rt_thecrossant_black3,1110699,,,,,,,,black_plus_sign,,,49,,,1,,,,,,,1,,,,,,,,,
null,,color_black3,1110817,,,,,,,,black_plus_sign,,,null,,,,,,,,,,,,,,,,,,,
null,,learn_phase(without_color)3,1114319,,,,,,,,black_plus_sign,,,null,object_13c.png,object_01a.png,,,,,,,,,,,,,,,,,
null,,black_cross(without_color)3,1115296,,,,,,,,green,,,null,object_13c.png,object_01a.png,,,,,,,,,,,,,,,,,
null,,rt_plussign_withcolor3,1115813,,,,,,,,green,,,null,object_13c.png,object_01a.png,,,,,,,,,,,,,,,,,
1379,,rt_thecrossant_black3,1116846,,,,,,,,black_plus_sign,,,50,,,1,,,,,,,1,,,,,,,,,
null,,color_black3,1116950,,,,,,,,black_plus_sign,,,null,,,,,,,,,,,,,,,,,,,
null,,learn_phase(without_color)3,1120467,,,,,,,,black_plus_sign,,,null,object_05c.png,object_12b.png,,,,,,,,,,,,,,,,,
null,,black_cross(without_color)3,1120893,,,,,,,,blue,,,null,object_05c.png,object_12b.png,,,,,,,,,,,,,,,,,
null,,rt_plussign_withcolor3,1121408,,,,,,,,blue,,,null,object_05c.png,object_12b.png,,,,,,,,,,,,,,,,,
1267.9000000003725,,rt_thecrossant_black3,1122991,,,,,,,,black_plus_sign,,,49,,,1,,,,,,,1,,,,,,,,,
null,,color_black3,1123104,,,,,,,,black_plus_sign,,,null,,,,,,,,,,,,,,,,,,,
null,,learn_phase(without_color)3,1126621,,,,,,,,black_plus_sign,,,null,object_13a.png,object_09c.png,,,,,,,,,,,,,,,,,
null,,black_cross(without_color)3,1127464,,,,,,,,green,,,null,object_13a.png,object_09c.png,,,,,,,,,,,,,,,,,
null,,rt_plussign_withcolor3,1127981,,,,,,,,green,,,null,object_13a.png,object_09c.png,,,,,,,,,,,,,,,,,
682.8000000007451,,rt_thecrossant_black3,1129150,,,,,,,,black_plus_sign,,,50,,,1,,,,,,,1,,,,,,,,,
null,,color_black3,1129268,,,,,,,,black_plus_sign,,,null,,,,,,,,,,,,,,,,,,,
null,,learn_phase(without_color)3,1132778,,,,,,,,black_plus_sign,,,null,object_06a.png,object_07c.png,,,,,,,,,,,,,,,,,
null,,black_cross(without_color)3,1133808,,,,,,,,blue,,,null,object_06a.png,object_07c.png,,,,,,,,,,,,,,,,,
null,,rt_plussign_withcolor3,1134320,,,,,,,,blue,,,null,object_06a.png,object_07c.png,,,,,,,,,,,,,,,,,
942.4000000003725,,rt_thecrossant_black3,1135311,,,,,,,,black_plus_sign,,,49,,,1,,,,,,,1,,,,,,,,,
null,,color_black3,1135413,,,,,,,,black_plus_sign,,,null,,,,,,,,,,,,,,,,,,,
null,,learn_phase(without_color)3,1138923,,,,,,,,black_plus_sign,,,null,object_08c.png,object_03c.png,,,,,,,,,,,,,,,,,
null,,black_cross(without_color)3,1139358,,,,,,,,blue,,,null,object_08c.png,object_03c.png,,,,,,,,,,,,,,,,,
null,,rt_plussign_withcolor3,1139873,,,,,,,,blue,,,null,object_08c.png,object_03c.png,,,,,,,,,,,,,,,,,
1457.4000000003725,,rt_thecrossant_black3,1141464,,,,,,,,black_plus_sign,,,49,,,1,,,,,,,1,,,,,,,,,
null,,color_black3,1141567,,,,,,,,black_plus_sign,,,null,,,,,,,,,,,,,,,,,,,
null,,learn_phase(without_color)3,1145082,,,,,,,,black_plus_sign,,,null,object_01a.png,object_14a.png,,,,,,,,,,,,,,,,,
null,,black_cross(without_color)3,1145728,,,,,,,,green,,,null,object_01a.png,object_14a.png,,,,,,,,,,,,,,,,,
null,,rt_plussign_withcolor3,1146230,,,,,,,,green,,,null,object_01a.png,object_14a.png,,,,,,,,,,,,,,,,,
526.7999999988824,,rt_thecrossant_black3,1147602,,,,,,,,black_plus_sign,,,50,,,1,,,,,,,1,,,,,,,,,
null,,color_black3,1147704,,,,,,,,black_plus_sign,,,null,,,,,,,,,,,,,,,,,,,
null,,learn_phase(without_color)3,1151220,,,,,,,,black_plus_sign,,,null,object_08a.png,object_13a.png,,,,,,,,,,,,,,,,,
null,,black_cross(without_color)3,1151677,,,,,,,,blue,,,null,object_08a.png,object_13a.png,,,,,,,,,,,,,,,,,
null,,rt_plussign_withcolor3,1152193,,,,,,,,blue,,,null,object_08a.png,object_13a.png,,,,,,,,,,,,,,,,,
930.8000000007451,,rt_thecrossant_black3,1153752,,,,,,,,black_plus_sign,,,49,,,1,,,,,,,1,,,,,,,,,
null,,color_black3,1153854,,,,,,,,black_plus_sign,,,null,,,,,,,,,,,,,,,,,,,
null,,learn_phase(without_color)3,1157359,,,,,,,,black_plus_sign,,,null,object_14c.png,object_04b.png,,,,,,,,,,,,,,,,,
null,,black_cross(without_color)3,1158404,,,,,,,,green,,,null,object_14c.png,object_04b.png,,,,,,,,,,,,,,,,,
null,,rt_plussign_withcolor3,1158916,,,,,,,,green,,,null,object_14c.png,object_04b.png,,,,,,,,,,,,,,,,,
863,,rt_thecrossant_black3,1159903,,,,,,,,black_plus_sign,,,50,,,1,,,,,,,1,,,,,,,,,
null,,color_black3,1160014,,,,,,,,black_plus_sign,,,null,,,,,,,,,,,,,,,,,,,
null,,learn_phase(without_color)3,1163527,,,,,,,,black_plus_sign,,,null,object_02c.png,object_04a.png,,,,,,,,,,,,,,,,,
null,,black_cross(without_color)3,1164326,,,,,,,,green,,,null,object_02c.png,object_04a.png,,,,,,,,,,,,,,,,,
null,,rt_plussign_withcolor3,1164834,,,,,,,,green,,,null,object_02c.png,object_04a.png,,,,,,,,,,,,,,,,,
1203.4000000003725,,rt_thecrossant_black3,1166046,,,,,,,,black_plus_sign,,,50,,,1,,,,,,,1,,,,,,,,,
null,,color_black3,1166149,,,,,,,,black_plus_sign,,,null,,,,,,,,,,,,,,,,,,,
null,,learn_phase(without_color)3,1169668,,,,,,,,black_plus_sign,,,null,object_14b.png,object_11a.png,,,,,,,,,,,,,,,,,
null,,black_cross(without_color)3,1170760,,,,,,,,green,,,null,object_14b.png,object_11a.png,,,,,,,,,,,,,,,,,
null,,rt_plussign_withcolor3,1171275,,,,,,,,green,,,null,object_14b.png,object_11a.png,,,,,,,,,,,,,,,,,
1188.5999999996275,,rt_thecrossant_black3,1172196,,,,,,,,black_plus_sign,,,50,,,1,,,,,,,1,,,,,,,,,
null,,color_black3,1172299,,,,,,,,black_plus_sign,,,null,,,,,,,,,,,,,,,,,,,
null,,learn_phase(without_color)3,1175816,,,,,,,,black_plus_sign,,,null,object_07c.png,object_15a.png,,,,,,,,,,,,,,,,,
null,,black_cross(without_color)3,1176534,,,,,,,,green,,,null,object_07c.png,object_15a.png,,,,,,,,,,,,,,,,,
null,,rt_plussign_withcolor3,1177049,,,,,,,,green,,,null,object_07c.png,object_15a.png,,,,,,,,,,,,,,,,,
1363.9000000003725,,rt_thecrossant_black3,1178351,,,,,,,,black_plus_sign,,,50,,,1,,,,,,,1,,,,,,,,,
null,,color_black3,1178460,,,,,,,,black_plus_sign,,,null,,,,,,,,,,,,,,,,,,,
null,,learn_phase(without_color)3,1181973,,,,,,,,black_plus_sign,,,null,object_06c.png,object_12c.png,,,,,,,,,,,,,,,,,
null,,black_cross(without_color)3,1182992,,,,,,,,green,,,null,object_06c.png,object_12c.png,,,,,,,,,,,,,,,,,
null,,rt_plussign_withcolor3,1183506,,,,,,,,green,,,null,object_06c.png,object_12c.png,,,,,,,,,,,,,,,,,
1094.800000000745,,rt_thecrossant_black3,1184509,,,,,,,,black_plus_sign,,,50,,,1,,,,,,,1,,,,,,,,,
null,,color_black3,1184612,,,,,,,,black_plus_sign,,,null,,,,,,,,,,,,,,,,,,,
null,,learn_phase(without_color)3,1188131,,,,,,,,black_plus_sign,,,null,object_03a.png,object_01c.png,,,,,,,,,,,,,,,,,
null,,black_cross(without_color)3,1189071,,,,,,,,green,,,null,object_03a.png,object_01c.png,,,,,,,,,,,,,,,,,
null,,rt_plussign_withcolor3,1189573,,,,,,,,green,,,null,object_03a.png,object_01c.png,,,,,,,,,,,,,,,,,
1179.5999999996275,,rt_thecrossant_black3,1190653,,,,,,,,black_plus_sign,,,50,,,1,,,,,,,1,,,,,,,,,
null,,color_black3,1190762,,,,,,,,black_plus_sign,,,null,,,,,,,,,,,,,,,,,,,
null,,learn_phase(without_color)3,1194265,,,,,,,,black_plus_sign,,,null,object_15c.png,object_09a.png,,,,,,,,,,,,,,,,,
null,,black_cross(without_color)3,1194984,,,,,,,,blue,,,null,object_15c.png,object_09a.png,,,,,,,,,,,,,,,,,
null,,rt_plussign_withcolor3,1195499,,,,,,,,blue,,,null,object_15c.png,object_09a.png,,,,,,,,,,,,,,,,,
1163.0999999996275,,rt_thecrossant_black3,1196793,,,,,,,,black_plus_sign,,,49,,,1,,,,,,,1,,,,,,,,,
null,,color_black3,1196896,,,,,,,,black_plus_sign,,,null,,,,,,,,,,,,,,,,,,,
null,,learn_phase(without_color)3,1200402,,,,,,,,black_plus_sign,,,null,object_12b.png,object_07b.png,,,,,,,,,,,,,,,,,
null,,black_cross(without_color)3,1201365,,,,,,,,blue,,,null,object_12b.png,object_07b.png,,,,,,,,,,,,,,,,,
null,,rt_plussign_withcolor3,1201881,,,,,,,,blue,,,null,object_12b.png,object_07b.png,,,,,,,,,,,,,,,,,
1113.2999999988824,,rt_thecrossant_black3,1202939,,,,,,,,black_plus_sign,,,49,,,1,,,,,,,1,,,,,,,,,
null,,color_black3,1203041,,,,,,,,black_plus_sign,,,null,,,,,,,,,,,,,,,,,,,
null,,learn_phase(without_color)3,1206560,,,,,,,,black_plus_sign,,,null,object_09a.png,object_12a.png,,,,,,,,,,,,,,,,,
null,,black_cross(without_color)3,1207356,,,,,,,,green,,,null,object_09a.png,object_12a.png,,,,,,,,,,,,,,,,,
null,,rt_plussign_withcolor3,1207871,,,,,,,,green,,,null,object_09a.png,object_12a.png,,,,,,,,,,,,,,,,,
1211.0999999996275,,rt_thecrossant_black3,1209088,,,,,,,,black_plus_sign,,,50,,,1,,,,,,,1,,,,,,,,,
null,,color_black3,1209191,,,,,,,,black_plus_sign,,,null,,,,,,,,,,,,,,,,,,,
null,,learn_phase(without_color)3,1212709,,,,,,,,black_plus_sign,,,null,object_15b.png,object_10c.png,,,,,,,,,,,,,,,,,
null,,black_cross(without_color)3,1213332,,,,,,,,blue,,,null,object_15b.png,object_10c.png,,,,,,,,,,,,,,,,,
null,,rt_plussign_withcolor3,1213847,,,,,,,,blue,,,null,object_15b.png,object_10c.png,,,,,,,,,,,,,,,,,
2006,,rt_thecrossant_black3,1215236,,,,,,,,black_plus_sign,,,49,,,1,,,,,,,1,,,,,,,,,
null,,color_black3,1215344,,,,,,,,black_plus_sign,,,null,,,,,,,,,,,,,,,,,,,
null,,learn_phase(without_color)3,1218854,,,,,,,,black_plus_sign,,,null,object_08b.png,object_02c.png,,,,,,,,,,,,,,,,,
null,,black_cross(without_color)3,1219463,,,,,,,,blue,,,null,object_08b.png,object_02c.png,,,,,,,,,,,,,,,,,
null,,rt_plussign_withcolor3,1219977,,,,,,,,blue,,,null,object_08b.png,object_02c.png,,,,,,,,,,,,,,,,,
1200.0999999996275,,rt_thecrossant_black3,1221399,,,,,,,,black_plus_sign,,,49,,,1,,,,,,,1,,,,,,,,,
null,,color_black3,1221509,,,,,,,,black_plus_sign,,,null,,,,,,,,,,,,,,,,,,,
null,,learn_phase(without_color)3,1225024,,,,,,,,black_plus_sign,,,null,object_07a.png,object_11c.png,,,,,,,,,,,,,,,,,
null,,black_cross(without_color)3,1225886,,,,,,,,blue,,,null,object_07a.png,object_11c.png,,,,,,,,,,,,,,,,,
null,,rt_plussign_withcolor3,1226401,,,,,,,,blue,,,null,object_07a.png,object_11c.png,,,,,,,,,,,,,,,,,
843.0999999996275,,rt_thecrossant_black3,1227559,,,,,,,,black_plus_sign,,,49,,,1,,,,,,,1,,,,,,,,,
null,,color_black3,1227661,,,,,,,,black_plus_sign,,,null,,,,,,,,,,,,,,,,,,,
null,,learn_phase(without_color)3,1231176,,,,,,,,black_plus_sign,,,null,object_02b.png,object_14b.png,,,,,,,,,,,,,,,,,
null,,black_cross(without_color)3,1232147,,,,,,,,blue,,,null,object_02b.png,object_14b.png,,,,,,,,,,,,,,,,,
null,,rt_plussign_withcolor3,1232661,,,,,,,,blue,,,null,object_02b.png,object_14b.png,,,,,,,,,,,,,,,,,
1070.0999999996275,,rt_thecrossant_black3,1233706,,,,,,,,black_plus_sign,,,49,,,1,,,,,,,1,,,,,,,,,
null,,color_black3,1233809,,,,,,,,black_plus_sign,,,null,,,,,,,,,,,,,,,,,,,
null,,learn_phase(without_color)3,1237322,,,,,,,,black_plus_sign,,,null,object_02a.png,object_03a.png,,,,,,,,,,,,,,,,,
null,,black_cross(without_color)3,1237821,,,,,,,,blue,,,null,object_02a.png,object_03a.png,,,,,,,,,,,,,,,,,
null,,rt_plussign_withcolor3,1238337,,,,,,,,blue,,,null,object_02a.png,object_03a.png,,,,,,,,,,,,,,,,,
1461.800000000745,,rt_thecrossant_black3,1239870,,,,,,,,black_plus_sign,,,49,,,1,,,,,,,1,,,,,,,,,
null,,color_black3,1239982,,,,,,,,black_plus_sign,,,null,,,,,,,,,,,,,,,,,,,
null,,thebreak,1240091,,,,,,,,<p></p>,,,null,,,,,,,,,,,,,,,,,,,
1311.0999999996275,,intro_0,1241403,,,,,,,,instruct,,,32,,,,,,,,,,,,,,,,,,,
2800.800000000745,,directmemory_phase3,1244206,,,,,,,,object_04a.png,,,49,,,1,,object_02c.png,object_03a.png,object_13a.png,object_02c.png,,0.6721311475409836,1,,,,,,,,
1583.9000000003725,,directmemory_phase3,1245792,,,,,,,,object_07c.png,,,50,,,1,,object_11b.png,object_06a.png,object_13c.png,object_06a.png,,0.6774193548387096,1,,,,,,,,
2313.2999999988824,,directmemory_phase3,1248107,,,,,,,,object_12a.png,,,49,,,1,,object_09a.png,object_14b.png,object_05a.png,object_09a.png,,0.6825396825396826,1,,,,,,,,
2160.699999999255,,directmemory_phase3,1250270,,,,,,,,object_09a.png,,,49,,,1,,object_15c.png,object_11b.png,object_13c.png,object_15c.png,,0.6875,1,,,,,,,,
1383.9000000003725,,directmemory_phase3,1251656,,,,,,,,object_11a.png,,,50,,,1,,object_12c.png,object_14b.png,object_03c.png,object_14b.png,,0.6923076923076923,1,,,,,,,,
5922.699999999255,,directmemory_phase3,1257581,,,,,,,,object_05a.png,,,51,,,1,,object_13b.png,object_06c.png,object_11b.png,object_11b.png,,0.696969696969697,1,,,,,,,,
2236.5999999996275,,directmemory_phase3,1259821,,,,,,,,object_01c.png,,,51,,,1,,object_07c.png,object_12c.png,object_03a.png,object_03a.png,,0.7014925373134329,1,,,,,,,,
4130.300000000745,,directmemory_phase3,1263953,,,,,,,,object_12b.png,,,49,,,1,,object_05c.png,object_13b.png,object_05b.png,object_05c.png,,0.7058823529411765,1,,,,,,,,
4844.299999998882,,directmemory_phase3,1268800,,,,,,,,object_03c.png,,,49,,,0,,object_13c.png,object_05b.png,object_08c.png,object_08c.png,,0.6956521739130435,0,,,,,,,,
4640.0999999996275,,directmemory_phase3,1273442,,,,,,,,object_09b.png,,,49,,,1,,object_12c.png,object_03c.png,object_13a.png,object_12c.png,,0.7,1,,,,,,,,
5170.5999999996275,,directmemory_phase3,1278615,,,,,,,,object_02c.png,,,49,,,1,,object_08b.png,object_08a.png,object_02b.png,object_08b.png,,0.704225352112676,1,,,,,,,,
1531.0999999996275,,directmemory_phase3,1280149,,,,,,,,object_14a.png,,,50,,,1,,object_11c.png,object_01a.png,object_10b.png,object_01a.png,,0.7083333333333334,1,,,,,,,,
4171.0999999996275,,directmemory_phase3,1284323,,,,,,,,object_13a.png,,,51,,,1,,object_13c.png,object_13b.png,object_08a.png,object_08a.png,,0.7123287671232876,1,,,,,,,,
5802,,directmemory_phase3,1290127,,,,,,,,object_14b.png,,,50,,,0,,object_15c.png,object_15b.png,object_02b.png,object_02b.png,,0.7027027027027027,0,,,,,,,,
9660.5,,directmemory_phase3,1299790,,,,,,,,object_01a.png,,,50,,,1,,object_15c.png,object_13c.png,object_02b.png,object_13c.png,,0.7066666666666667,1,,,,,,,,
1251.0999999996275,,directmemory_phase3,1301043,,,,,,,,object_03b.png,,,49,,,1,,object_10c.png,object_13a.png,object_03c.png,object_10c.png,,0.7105263157894737,1,,,,,,,,
6182.39999999851,,directmemory_phase3,1307228,,,,,,,,object_14c.png,,,49,,,1,,object_13b.png,object_08c.png,object_05b.png,object_13b.png,,0.7142857142857143,1,,,,,,,,
4609.60000000149,,directmemory_phase3,1311840,,,,,,,,object_11c.png,,,49,,,1,,object_07a.png,object_15c.png,object_06c.png,object_07a.png,,0.717948717948718,1,,,,,,,,
4798.5,,directmemory_phase3,1316641,,,,,,,,object_04c.png,,,51,,,1,,object_14c.png,object_07c.png,object_03c.png,object_03c.png,,0.7215189873417721,1,,,,,,,,
5398.10000000149,,directmemory_phase3,1322042,,,,,,,,object_10c.png,,,51,,,1,,object_15c.png,object_07a.png,object_15b.png,object_15b.png,,0.725,1,,,,,,,,
3067.4000000003725,,directmemory_phase3,1325112,,,,,,,,object_09c.png,,,50,,,1,,object_03a.png,object_13a.png,object_12b.png,object_13a.png,,0.7283950617283951,1,,,,,,,,
3399,,directmemory_phase3,1328514,,,,,,,,object_06b.png,,,49,,,1,,object_10b.png,object_11c.png,object_14c.png,object_10b.png,,0.7317073170731707,1,,,,,,,,
4396.0999999996275,,directmemory_phase3,1332912,,,,,,,,object_01b.png,,,50,,,1,,object_14b.png,object_05a.png,object_10c.png,object_05a.png,,0.7349397590361446,1,,,,,,,,
2112.199999999255,,directmemory_phase3,1335027,,,,,,,,object_10a.png,,,50,,,1,,object_09a.png,object_11c.png,object_12b.png,object_11c.png,,0.7380952380952381,1,,,,,,,,
1808.199999999255,,directmemory_phase3,1336837,,,,,,,,object_04b.png,,,51,,,1,,object_03a.png,object_10b.png,object_14c.png,object_14c.png,,0.7411764705882353,1,,,,,,,,
1503.9000000003725,,directmemory_phase3,1338344,,,,,,,,object_15a.png,,,50,,,1,,object_11c.png,object_07c.png,object_03a.png,object_07c.png,,0.7441860465116279,1,,,,,,,,
3411,,directmemory_phase3,1341757,,,,,,,,object_10b.png,,,50,,,0,,object_15c.png,object_15b.png,object_05b.png,object_05b.png,,0.735632183908046,0,,,,,,,,
2606.699999999255,,directmemory_phase3,1344366,,,,,,,,object_12c.png,,,49,,,1,,object_06c.png,object_11b.png,object_07a.png,object_06c.png,,0.7386363636363636,1,,,,,,,,
6340,,directmemory_phase3,1350708,,,,,,,,object_07b.png,,,50,,,1,,object_01a.png,object_12b.png,object_14c.png,object_12b.png,,0.7415730337078652,1,,,,,,,,
6710.0999999996275,,directmemory_phase3,1357421,,,,,,,,object_03a.png,,,50,,,1,,object_08c.png,object_02a.png,object_11b.png,object_02a.png,,0.7444444444444445,1,,,,,,,,
null,,thebreak,1357524,,,,,,,,<p></p>,,,null,,,,,,,,,,,,,,,,,,,
15764.199999999255,,intro_0,1373290,,,,,,,,instruct,,,32,,,,,,,,,,,,,,,,,,,
null,,learn_phase(without_color)4,1376800,,,,,,,,black_plus_sign,,,null,object_07c.png,object_15a.png,,,,,,,,,,,,,,,,,
null,,black_cross(without_color)4,1377518,,,,,,,,blue,,,null,object_07c.png,object_15a.png,,,,,,,,,,,,,,,,,
null,,rt_plussign_withcolor4,1378032,,,,,,,,blue,,,null,object_07c.png,object_15a.png,,,,,,,,,,,,,,,,,
859.5999999996275,,rt_thecrossant_black4,1379342,,,,,,,,black_plus_sign,,,49,,,1,,,,,,,1,,,,,,,,,
null,,color_black4,1379451,,,,,,,,black_plus_sign,,,null,,,,,,,,,,,,,,,,,,,
null,,learn_phase(without_color)4,1382957,,,,,,,,black_plus_sign,,,null,object_13a.png,object_09c.png,,,,,,,,,,,,,,,,,
null,,black_cross(without_color)4,1383822,,,,,,,,green,,,null,object_13a.png,object_09c.png,,,,,,,,,,,,,,,,,
null,,rt_plussign_withcolor4,1384334,,,,,,,,green,,,null,object_13a.png,object_09c.png,,,,,,,,,,,,,,,,,
1057.4000000003725,,rt_thecrossant_black4,1385484,,,,,,,,black_plus_sign,,,50,,,1,,,,,,,1,,,,,,,,,
null,,color_black4,1385587,,,,,,,,black_plus_sign,,,null,,,,,,,,,,,,,,,,,,,
null,,learn_phase(without_color)4,1389101,,,,,,,,black_plus_sign,,,null,object_06a.png,object_07c.png,,,,,,,,,,,,,,,,,
null,,black_cross(without_color)4,1390164,,,,,,,,green,,,null,object_06a.png,object_07c.png,,,,,,,,,,,,,,,,,
null,,rt_plussign_withcolor4,1390681,,,,,,,,green,,,null,object_06a.png,object_07c.png,,,,,,,,,,,,,,,,,
1197.9000000003725,,rt_thecrossant_black4,1391649,,,,,,,,black_plus_sign,,,50,,,1,,,,,,,1,,,,,,,,,
null,,color_black4,1391760,,,,,,,,black_plus_sign,,,null,,,,,,,,,,,,,,,,,,,
null,,learn_phase(without_color)4,1395267,,,,,,,,black_plus_sign,,,null,object_10b.png,object_06b.png,,,,,,,,,,,,,,,,,
null,,black_cross(without_color)4,1396084,,,,,,,,blue,,,null,object_10b.png,object_06b.png,,,,,,,,,,,,,,,,,
null,,rt_plussign_withcolor4,1396600,,,,,,,,blue,,,null,object_10b.png,object_06b.png,,,,,,,,,,,,,,,,,
1508.2000000011176,,rt_thecrossant_black4,1397807,,,,,,,,black_plus_sign,,,49,,,1,,,,,,,1,,,,,,,,,
null,,color_black4,1397910,,,,,,,,black_plus_sign,,,null,,,,,,,,,,,,,,,,,,,
null,,learn_phase(without_color)4,1401425,,,,,,,,black_plus_sign,,,null,object_09a.png,object_12a.png,,,,,,,,,,,,,,,,,
null,,black_cross(without_color)4,1402110,,,,,,,,blue,,,null,object_09a.png,object_12a.png,,,,,,,,,,,,,,,,,
null,,rt_plussign_withcolor4,1402623,,,,,,,,blue,,,null,object_09a.png,object_12a.png,,,,,,,,,,,,,,,,,
1313.5,,rt_thecrossant_black4,1403949,,,,,,,,black_plus_sign,,,49,,,1,,,,,,,1,,,,,,,,,
null,,color_black4,1404058,,,,,,,,black_plus_sign,,,null,,,,,,,,,,,,,,,,,,,
null,,learn_phase(without_color)4,1407568,,,,,,,,black_plus_sign,,,null,object_14c.png,object_04b.png,,,,,,,,,,,,,,,,,
null,,black_cross(without_color)4,1408653,,,,,,,,blue,,,null,object_14c.png,object_04b.png,,,,,,,,,,,,,,,,,
null,,rt_plussign_withcolor4,1409176,,,,,,,,blue,,,null,object_14c.png,object_04b.png,,,,,,,,,,,,,,,,,
908.6000000014901,,rt_thecrossant_black4,1410104,,,,,,,,black_plus_sign,,,49,,,1,,,,,,,1,,,,,,,,,
null,,color_black4,1410207,,,,,,,,black_plus_sign,,,null,,,,,,,,,,,,,,,,,,,
null,,learn_phase(without_color)4,1413717,,,,,,,,black_plus_sign,,,null,object_02a.png,object_03a.png,,,,,,,,,,,,,,,,,
null,,black_cross(without_color)4,1414747,,,,,,,,green,,,null,object_02a.png,object_03a.png,,,,,,,,,,,,,,,,,
null,,rt_plussign_withcolor4,1415262,,,,,,,,green,,,null,object_02a.png,object_03a.png,,,,,,,,,,,,,,,,,
1424.9000000003725,,rt_thecrossant_black4,1416246,,,,,,,,black_plus_sign,,,50,,,1,,,,,,,1,,,,,,,,,
null,,color_black4,1416354,,,,,,,,black_plus_sign,,,null,,,,,,,,,,,,,,,,,,,
null,,learn_phase(without_color)4,1419861,,,,,,,,black_plus_sign,,,null,object_08a.png,object_13a.png,,,,,,,,,,,,,,,,,
null,,black_cross(without_color)4,1420362,,,,,,,,blue,,,null,object_08a.png,object_13a.png,,,,,,,,,,,,,,,,,
null,,rt_plussign_withcolor4,1420877,,,,,,,,blue,,,null,object_08a.png,object_13a.png,,,,,,,,,,,,,,,,,
1382.0999999996275,,rt_thecrossant_black4,1422391,,,,,,,,black_plus_sign,,,49,,,1,,,,,,,1,,,,,,,,,
null,,color_black4,1422499,,,,,,,,black_plus_sign,,,null,,,,,,,,,,,,,,,,,,,
null,,learn_phase(without_color)4,1426007,,,,,,,,black_plus_sign,,,null,object_13b.png,object_14c.png,,,,,,,,,,,,,,,,,
null,,black_cross(without_color)4,1426652,,,,,,,,blue,,,null,object_13b.png,object_14c.png,,,,,,,,,,,,,,,,,
null,,rt_plussign_withcolor4,1427154,,,,,,,,blue,,,null,object_13b.png,object_14c.png,,,,,,,,,,,,,,,,,
851.5999999996275,,rt_thecrossant_black4,1428531,,,,,,,,black_plus_sign,,,49,,,1,,,,,,,1,,,,,,,,,
null,,color_black4,1428640,,,,,,,,black_plus_sign,,,null,,,,,,,,,,,,,,,,,,,
null,,learn_phase(without_color)4,1432159,,,,,,,,black_plus_sign,,,null,object_05c.png,object_12b.png,,,,,,,,,,,,,,,,,
null,,black_cross(without_color)4,1433054,,,,,,,,green,,,null,object_05c.png,object_12b.png,,,,,,,,,,,,,,,,,
null,,rt_plussign_withcolor4,1433569,,,,,,,,green,,,null,object_05c.png,object_12b.png,,,,,,,,,,,,,,,,,
861.0999999996275,,rt_thecrossant_black4,1434694,,,,,,,,black_plus_sign,,,50,,,1,,,,,,,1,,,,,,,,,
null,,color_black4,1434805,,,,,,,,black_plus_sign,,,null,,,,,,,,,,,,,,,,,,,
null,,learn_phase(without_color)4,1438313,,,,,,,,black_plus_sign,,,null,object_06c.png,object_12c.png,,,,,,,,,,,,,,,,,
null,,black_cross(without_color)4,1438800,,,,,,,,blue,,,null,object_06c.png,object_12c.png,,,,,,,,,,,,,,,,,
null,,rt_plussign_withcolor4,1439316,,,,,,,,blue,,,null,object_06c.png,object_12c.png,,,,,,,,,,,,,,,,,
1190.199999999255,,rt_thecrossant_black4,1440846,,,,,,,,black_plus_sign,,,49,,,1,,,,,,,1,,,,,,,,,
null,,color_black4,1440955,,,,,,,,black_plus_sign,,,null,,,,,,,,,,,,,,,,,,,
null,,learn_phase(without_color)4,1444469,,,,,,,,black_plus_sign,,,null,object_02c.png,object_04a.png,,,,,,,,,,,,,,,,,
null,,black_cross(without_color)4,1445240,,,,,,,,green,,,null,object_02c.png,object_04a.png,,,,,,,,,,,,,,,,,
null,,rt_plussign_withcolor4,1445751,,,,,,,,green,,,null,object_02c.png,object_04a.png,,,,,,,,,,,,,,,,,
627.6999999992549,,rt_thecrossant_black4,1446996,,,,,,,,black_plus_sign,,,50,,,1,,,,,,,1,,,,,,,,,
null,,color_black4,1447105,,,,,,,,black_plus_sign,,,null,,,,,,,,,,,,,,,,,,,
null,,learn_phase(without_color)4,1450611,,,,,,,,black_plus_sign,,,null,object_14b.png,object_11a.png,,,,,,,,,,,,,,,,,
null,,black_cross(without_color)4,1451314,,,,,,,,green,,,null,object_14b.png,object_11a.png,,,,,,,,,,,,,,,,,
null,,rt_plussign_withcolor4,1451831,,,,,,,,green,,,null,object_14b.png,object_11a.png,,,,,,,,,,,,,,,,,
924.3000000007451,,rt_thecrossant_black4,1453136,,,,,,,,black_plus_sign,,,50,,,1,,,,,,,1,,,,,,,,,
null,,color_black4,1453247,,,,,,,,black_plus_sign,,,null,,,,,,,,,,,,,,,,,,,
null,,learn_phase(without_color)4,1456752,,,,,,,,black_plus_sign,,,null,object_15b.png,object_10c.png,,,,,,,,,,,,,,,,,
null,,black_cross(without_color)4,1457439,,,,,,,,green,,,null,object_15b.png,object_10c.png,,,,,,,,,,,,,,,,,
null,,rt_plussign_withcolor4,1457943,,,,,,,,green,,,null,object_15b.png,object_10c.png,,,,,,,,,,,,,,,,,
1110.4000000003725,,rt_thecrossant_black4,1459279,,,,,,,,black_plus_sign,,,50,,,1,,,,,,,1,,,,,,,,,
null,,color_black4,1459391,,,,,,,,black_plus_sign,,,null,,,,,,,,,,,,,,,,,,,
null,,learn_phase(without_color)4,1462908,,,,,,,,black_plus_sign,,,null,object_15c.png,object_09a.png,,,,,,,,,,,,,,,,,
null,,black_cross(without_color)4,1463819,,,,,,,,blue,,,null,object_15c.png,object_09a.png,,,,,,,,,,,,,,,,,
null,,rt_plussign_withcolor4,1464335,,,,,,,,blue,,,null,object_15c.png,object_09a.png,,,,,,,,,,,,,,,,,
819.7999999988824,,rt_thecrossant_black4,1465450,,,,,,,,black_plus_sign,,,49,,,1,,,,,,,1,,,,,,,,,
null,,color_black4,1465552,,,,,,,,black_plus_sign,,,null,,,,,,,,,,,,,,,,,,,
null,,learn_phase(without_color)4,1469069,,,,,,,,black_plus_sign,,,null,object_10c.png,object_03b.png,,,,,,,,,,,,,,,,,
null,,black_cross(without_color)4,1469947,,,,,,,,green,,,null,object_10c.png,object_03b.png,,,,,,,,,,,,,,,,,
null,,rt_plussign_withcolor4,1470463,,,,,,,,green,,,null,object_10c.png,object_03b.png,,,,,,,,,,,,,,,,,
1241.5,,rt_thecrossant_black4,1471613,,,,,,,,black_plus_sign,,,50,,,1,,,,,,,1,,,,,,,,,
null,,color_black4,1471723,,,,,,,,black_plus_sign,,,null,,,,,,,,,,,,,,,,,,,
null,,learn_phase(without_color)4,1475234,,,,,,,,black_plus_sign,,,null,object_12c.png,object_09b.png,,,,,,,,,,,,,,,,,
null,,black_cross(without_color)4,1475735,,,,,,,,blue,,,null,object_12c.png,object_09b.png,,,,,,,,,,,,,,,,,
null,,rt_plussign_withcolor4,1476249,,,,,,,,blue,,,null,object_12c.png,object_09b.png,,,,,,,,,,,,,,,,,
1586,,rt_thecrossant_black4,1477777,,,,,,,,black_plus_sign,,,49,,,1,,,,,,,1,,,,,,,,,
null,,color_black4,1477879,,,,,,,,black_plus_sign,,,null,,,,,,,,,,,,,,,,,,,
null,,learn_phase(without_color)4,1481386,,,,,,,,black_plus_sign,,,null,object_05a.png,object_01b.png,,,,,,,,,,,,,,,,,
null,,black_cross(without_color)4,1481842,,,,,,,,blue,,,null,object_05a.png,object_01b.png,,,,,,,,,,,,,,,,,
null,,rt_plussign_withcolor4,1482356,,,,,,,,blue,,,null,object_05a.png,object_01b.png,,,,,,,,,,,,,,,,,
672.6000000014901,,rt_thecrossant_black4,1483931,,,,,,,,black_plus_sign,,,49,,,1,,,,,,,1,,,,,,,,,
null,,color_black4,1484038,,,,,,,,black_plus_sign,,,null,,,,,,,,,,,,,,,,,,,
null,,learn_phase(without_color)4,1487549,,,,,,,,black_plus_sign,,,null,object_08c.png,object_03c.png,,,,,,,,,,,,,,,,,
null,,black_cross(without_color)4,1488001,,,,,,,,green,,,null,object_08c.png,object_03c.png,,,,,,,,,,,,,,,,,
null,,rt_plussign_withcolor4,1488514,,,,,,,,green,,,null,object_08c.png,object_03c.png,,,,,,,,,,,,,,,,,
1021,,rt_thecrossant_black4,1490078,,,,,,,,black_plus_sign,,,50,,,1,,,,,,,1,,,,,,,,,
null,,color_black4,1490186,,,,,,,,black_plus_sign,,,null,,,,,,,,,,,,,,,,,,,
null,,learn_phase(without_color)4,1493703,,,,,,,,black_plus_sign,,,null,object_12b.png,object_07b.png,,,,,,,,,,,,,,,,,
null,,black_cross(without_color)4,1494685,,,,,,,,green,,,null,object_12b.png,object_07b.png,,,,,,,,,,,,,,,,,
null,,rt_plussign_withcolor4,1495200,,,,,,,,green,,,null,object_12b.png,object_07b.png,,,,,,,,,,,,,,,,,
715.2000000011176,,rt_thecrossant_black4,1496228,,,,,,,,black_plus_sign,,,50,,,1,,,,,,,1,,,,,,,,,
null,,color_black4,1496337,,,,,,,,black_plus_sign,,,null,,,,,,,,,,,,,,,,,,,
null,,learn_phase(without_color)4,1499844,,,,,,,,black_plus_sign,,,null,object_07a.png,object_11c.png,,,,,,,,,,,,,,,,,
null,,black_cross(without_color)4,1500568,,,,,,,,blue,,,null,object_07a.png,object_11c.png,,,,,,,,,,,,,,,,,
null,,rt_plussign_withcolor4,1501083,,,,,,,,blue,,,null,object_07a.png,object_11c.png,,,,,,,,,,,,,,,,,
1778.1000000014901,,rt_thecrossant_black4,1502382,,,,,,,,black_plus_sign,,,49,,,1,,,,,,,1,,,,,,,,,
null,,color_black4,1502485,,,,,,,,black_plus_sign,,,null,,,,,,,,,,,,,,,,,,,
null,,learn_phase(without_color)4,1505999,,,,,,,,black_plus_sign,,,null,object_03c.png,object_04c.png,,,,,,,,,,,,,,,,,
null,,black_cross(without_color)4,1506630,,,,,,,,green,,,null,object_03c.png,object_04c.png,,,,,,,,,,,,,,,,,
null,,rt_plussign_withcolor4,1507144,,,,,,,,green,,,null,object_03c.png,object_04c.png,,,,,,,,,,,,,,,,,
1025.5,,rt_thecrossant_black4,1508536,,,,,,,,black_plus_sign,,,50,,,1,,,,,,,1,,,,,,,,,
null,,color_black4,1508639,,,,,,,,black_plus_sign,,,null,,,,,,,,,,,,,,,,,,,
null,,learn_phase(without_color)4,1512158,,,,,,,,black_plus_sign,,,null,object_13c.png,object_01a.png,,,,,,,,,,,,,,,,,
null,,black_cross(without_color)4,1512860,,,,,,,,green,,,null,object_13c.png,object_01a.png,,,,,,,,,,,,,,,,,
null,,rt_plussign_withcolor4,1513377,,,,,,,,green,,,null,object_13c.png,object_01a.png,,,,,,,,,,,,,,,,,
1148.5999999996275,,rt_thecrossant_black4,1514706,,,,,,,,black_plus_sign,,,50,,,1,,,,,,,1,,,,,,,,,
null,,color_black4,1514809,,,,,,,,black_plus_sign,,,null,,,,,,,,,,,,,,,,,,,
null,,learn_phase(without_color)4,1518321,,,,,,,,black_plus_sign,,,null,object_05b.png,object_10b.png,,,,,,,,,,,,,,,,,
null,,black_cross(without_color)4,1519138,,,,,,,,blue,,,null,object_05b.png,object_10b.png,,,,,,,,,,,,,,,,,
null,,rt_plussign_withcolor4,1519652,,,,,,,,blue,,,null,object_05b.png,object_10b.png,,,,,,,,,,,,,,,,,
1151.5999999996275,,rt_thecrossant_black4,1520855,,,,,,,,black_plus_sign,,,49,,,1,,,,,,,1,,,,,,,,,
null,,color_black4,1520959,,,,,,,,black_plus_sign,,,null,,,,,,,,,,,,,,,,,,,
null,,learn_phase(without_color)4,1524472,,,,,,,,black_plus_sign,,,null,object_08b.png,object_02c.png,,,,,,,,,,,,,,,,,
null,,black_cross(without_color)4,1525205,,,,,,,,green,,,null,object_08b.png,object_02c.png,,,,,,,,,,,,,,,,,
null,,rt_plussign_withcolor4,1525718,,,,,,,,green,,,null,object_08b.png,object_02c.png,,,,,,,,,,,,,,,,,
1253.4000000003725,,rt_thecrossant_black4,1527005,,,,,,,,black_plus_sign,,,50,,,1,,,,,,,1,,,,,,,,,
null,,color_black4,1527112,,,,,,,,black_plus_sign,,,null,,,,,,,,,,,,,,,,,,,
null,,learn_phase(without_color)4,1530621,,,,,,,,black_plus_sign,,,null,object_02b.png,object_14b.png,,,,,,,,,,,,,,,,,
null,,black_cross(without_color)4,1531371,,,,,,,,green,,,null,object_02b.png,object_14b.png,,,,,,,,,,,,,,,,,
null,,rt_plussign_withcolor4,1531887,,,,,,,,green,,,null,object_02b.png,object_14b.png,,,,,,,,,,,,,,,,,
870.1999999992549,,rt_thecrossant_black4,1533152,,,,,,,,black_plus_sign,,,50,,,1,,,,,,,1,,,,,,,,,
null,,color_black4,1533263,,,,,,,,black_plus_sign,,,null,,,,,,,,,,,,,,,,,,,
null,,learn_phase(without_color)4,1536780,,,,,,,,black_plus_sign,,,null,object_03a.png,object_01c.png,,,,,,,,,,,,,,,,,
null,,black_cross(without_color)4,1537821,,,,,,,,blue,,,null,object_03a.png,object_01c.png,,,,,,,,,,,,,,,,,
null,,rt_plussign_withcolor4,1538336,,,,,,,,blue,,,null,object_03a.png,object_01c.png,,,,,,,,,,,,,,,,,
863.2999999988824,,rt_thecrossant_black4,1539311,,,,,,,,black_plus_sign,,,49,,,1,,,,,,,1,,,,,,,,,
null,,color_black4,1539421,,,,,,,,black_plus_sign,,,null,,,,,,,,,,,,,,,,,,,
null,,learn_phase(without_color)4,1542937,,,,,,,,black_plus_sign,,,null,object_01a.png,object_14a.png,,,,,,,,,,,,,,,,,
null,,black_cross(without_color)4,1543967,,,,,,,,green,,,null,object_01a.png,object_14a.png,,,,,,,,,,,,,,,,,
null,,rt_plussign_withcolor4,1544480,,,,,,,,green,,,null,object_01a.png,object_14a.png,,,,,,,,,,,,,,,,,
1166.4000000003725,,rt_thecrossant_black4,1545466,,,,,,,,black_plus_sign,,,50,,,1,,,,,,,1,,,,,,,,,
null,,color_black4,1545568,,,,,,,,black_plus_sign,,,null,,,,,,,,,,,,,,,,,,,
null,,learn_phase(without_color)4,1549086,,,,,,,,black_plus_sign,,,null,object_11b.png,object_05a.png,,,,,,,,,,,,,,,,,
null,,black_cross(without_color)4,1550137,,,,,,,,green,,,null,object_11b.png,object_05a.png,,,,,,,,,,,,,,,,,
null,,rt_plussign_withcolor4,1550639,,,,,,,,green,,,null,object_11b.png,object_05a.png,,,,,,,,,,,,,,,,,
1467.300000000745,,rt_thecrossant_black4,1551609,,,,,,,,black_plus_sign,,,50,,,1,,,,,,,1,,,,,,,,,
null,,color_black4,1551719,,,,,,,,black_plus_sign,,,null,,,,,,,,,,,,,,,,,,,
null,,learn_phase(without_color)4,1555225,,,,,,,,black_plus_sign,,,null,object_11c.png,object_10a.png,,,,,,,,,,,,,,,,,
null,,black_cross(without_color)4,1556042,,,,,,,,blue,,,null,object_11c.png,object_10a.png,,,,,,,,,,,,,,,,,
null,,rt_plussign_withcolor4,1556556,,,,,,,,blue,,,null,object_11c.png,object_10a.png,,,,,,,,,,,,,,,,,
1199,,rt_thecrossant_black4,1557755,,,,,,,,black_plus_sign,,,49,,,1,,,,,,,1,,,,,,,,,
null,,color_black4,1557858,,,,,,,,black_plus_sign,,,null,,,,,,,,,,,,,,,,,,,
null,,thebreak,1557972,,,,,,,,<p></p>,,,null,,,,,,,,,,,,,,,,,,,
1774.4000000003725,,intro_0,1559748,,,,,,,,instruct,,,32,,,,,,,,,,,,,,,,,,,
4216.799999998882,,directmemory_phase4,1563967,,,,,,,,object_04c.png,,,50,,,1,,object_14c.png,object_03c.png,object_12b.png,object_03c.png,,0.7472527472527473,1,,,,,,,,
2807.300000000745,,directmemory_phase4,1566776,,,,,,,,object_13a.png,,,49,,,1,,object_08a.png,object_15c.png,object_05b.png,object_08a.png,,0.75,1,,,,,,,,
8725.099999999627,,directmemory_phase4,1575504,,,,,,,,object_11c.png,,,51,,,1,,object_15b.png,object_08c.png,object_07a.png,object_07a.png,,0.7526881720430108,1,,,,,,,,
2164.199999999255,,directmemory_phase4,1577671,,,,,,,,object_09a.png,,,51,,,1,,object_13c.png,object_08a.png,object_15c.png,object_15c.png,,0.7553191489361702,1,,,,,,,,
5454.5999999996275,,directmemory_phase4,1583128,,,,,,,,object_02c.png,,,50,,,1,,object_08a.png,object_08b.png,object_13c.png,object_08b.png,,0.7578947368421053,1,,,,,,,,
10664.200000001118,,directmemory_phase4,1593795,,,,,,,,object_03a.png,,,51,,,0,,object_11b.png,object_02a.png,object_15b.png,object_02a.png,,0.75,0,,,,,,,,
4443.199999999255,,directmemory_phase4,1598241,,,,,,,,object_14b.png,,,51,,,0,,object_15b.png,object_02b.png,object_13c.png,object_02b.png,,0.7422680412371134,0,,,,,,,,
6879.300000000745,,directmemory_phase4,1605123,,,,,,,,object_03b.png,,,51,,,1,,object_12c.png,object_13a.png,object_10c.png,object_10c.png,,0.7448979591836735,1,,,,,,,,
3241,,directmemory_phase4,1608367,,,,,,,,object_01b.png,,,51,,,1,,object_07c.png,object_10c.png,object_05a.png,object_05a.png,,0.7474747474747475,1,,,,,,,,
2630,,directmemory_phase4,1610999,,,,,,,,object_12b.png,,,51,,,1,,object_15b.png,object_05b.png,object_05c.png,object_05c.png,,0.75,1,,,,,,,,
4139.4000000003725,,directmemory_phase4,1615141,,,,,,,,object_03c.png,,,49,,,1,,object_08c.png,object_02a.png,object_13c.png,object_08c.png,,0.7524752475247525,1,,,,,,,,
2001.2999999988824,,directmemory_phase4,1617145,,,,,,,,object_04b.png,,,51,,,1,,object_10b.png,object_01a.png,object_14c.png,object_14c.png,,0.7549019607843137,1,,,,,,,,
2243.4000000003725,,directmemory_phase4,1619391,,,,,,,,object_09c.png,,,51,,,1,,object_01a.png,object_05a.png,object_13a.png,object_13a.png,,0.7572815533980582,1,,,,,,,,
3379.800000000745,,directmemory_phase4,1622773,,,,,,,,object_06b.png,,,49,,,1,,object_10b.png,object_14c.png,object_03a.png,object_10b.png,,0.7596153846153846,1,,,,,,,,
1392.9000000003725,,directmemory_phase4,1624169,,,,,,,,object_15a.png,,,49,,,1,,object_07c.png,object_11c.png,object_13a.png,object_07c.png,,0.7619047619047619,1,,,,,,,,
3213.39999999851,,directmemory_phase4,1627385,,,,,,,,object_12c.png,,,49,,,1,,object_06c.png,object_05b.png,object_13c.png,object_06c.png,,0.7641509433962265,1,,,,,,,,
1273.4000000003725,,directmemory_phase4,1628661,,,,,,,,object_11a.png,,,49,,,1,,object_14b.png,object_13a.png,object_01a.png,object_14b.png,,0.7663551401869159,1,,,,,,,,
4006.699999999255,,directmemory_phase4,1632670,,,,,,,,object_05a.png,,,51,,,1,,object_05b.png,object_05c.png,object_11b.png,object_11b.png,,0.7685185185185185,1,,,,,,,,
2374.9000000003725,,directmemory_phase4,1635047,,,,,,,,object_12a.png,,,51,,,1,,object_03a.png,object_12b.png,object_09a.png,object_09a.png,,0.7706422018348624,1,,,,,,,,
3089.699999999255,,directmemory_phase4,1638140,,,,,,,,object_07c.png,,,51,,,1,,object_02a.png,object_15b.png,object_06a.png,object_06a.png,,0.7727272727272727,1,,,,,,,,
6152.9000000003725,,directmemory_phase4,1644295,,,,,,,,object_01a.png,,,49,,,1,,object_13c.png,object_15b.png,object_08c.png,object_13c.png,,0.7747747747747747,1,,,,,,,,
6906,,directmemory_phase4,1651204,,,,,,,,object_14c.png,,,50,,,1,,object_06a.png,object_13b.png,object_02b.png,object_13b.png,,0.7767857142857143,1,,,,,,,,
2485,,directmemory_phase4,1653691,,,,,,,,object_09b.png,,,49,,,1,,object_12c.png,object_10c.png,object_09a.png,object_12c.png,,0.7787610619469026,1,,,,,,,,
7199.300000000745,,directmemory_phase4,1660893,,,,,,,,object_10c.png,,,49,,,0,,object_08a.png,object_15b.png,object_11b.png,object_15b.png,,0.7719298245614035,0,,,,,,,,
1512.9000000003725,,directmemory_phase4,1662409,,,,,,,,object_07b.png,,,51,,,1,,object_09a.png,object_01a.png,object_12b.png,object_12b.png,,0.7739130434782608,1,,,,,,,,
1916.4000000003725,,directmemory_phase4,1664328,,,,,,,,object_10a.png,,,51,,,1,,object_12b.png,object_12c.png,object_11c.png,object_11c.png,,0.7758620689655172,1,,,,,,,,
2885.800000000745,,directmemory_phase4,1667216,,,,,,,,object_01c.png,,,51,,,1,,object_07c.png,object_01a.png,object_03a.png,object_03a.png,,0.7777777777777778,1,,,,,,,,
6382.9000000003725,,directmemory_phase4,1673602,,,,,,,,object_10b.png,,,49,,,0,,object_15c.png,object_05b.png,object_07a.png,object_05b.png,,0.7711864406779662,0,,,,,,,,
1692.199999999255,,directmemory_phase4,1675297,,,,,,,,object_04a.png,,,50,,,1,,object_14c.png,object_02c.png,object_11c.png,object_02c.png,,0.773109243697479,1,,,,,,,,
3543.7000000011176,,directmemory_phase4,1678843,,,,,,,,object_14a.png,,,51,,,1,,object_07c.png,object_12b.png,object_01a.png,object_01a.png,,0.775,1,,,,,,,,
null,,thebreak,1678951,,,,,,,,<p></p>,,,null,,,,,,,,,,,,,,,,,,,
2977.7000000011176,,intro_0,1681930,,,,,,,,instruct,,,32,,,,,,,,,,,,,,,,,,,
14599.599999999627,,intro_1,1696531,,,,,,,,instruct,,,32,,,,,,,,,,,,,,,,,,,
12872.300000000745,,intro_2,1709405,,,,,,,,instruct,,,32,,,,,,,,,,,,,,,,,,,
,,intro_3,1749181,,,,,,,,instruct,,,,,,,,,,,,,,,,,,,,,,
4009.800000000745,,intro_4,1753192,,,,,,,,instruct,,,32,,,,,,,,,,,,,,,,,,,
null,,thebreak,1753296,,,,,,,,<p></p>,,,null,,,,,,,,,,,,,,,,,,,
1163.0999999996275,,intro_0,1754461,,,,,,,,instruct,,,32,,,,,,,,,,,,,,,,,,,
1720.5,,intro_1,1756183,,,,,,,,instruct,,,32,,,,,,,,,,,,,,,,,,,
1366.4000000003725,,intro_2,1757550,,,,,,,,instruct,,,32,,,,,,,,,,,,,,,,,,,
,,intro_3,1761621,,,,,,,,instruct,,,,,,,,,,,,,,,,,,,,,,
756.8000000007451,,intro_4,1762380,,,,,,,,instruct,,,32,,,,,,,,,,,,,,,,,,,
null,,thebreak,1762484,,,,,,,,<p></p>,,,null,,,,,,,,,,,,,,,,,,,
561.9000000003725,,intro_0,1763048,,,,,,,,instruct,,,32,,,,,,,,,,,,,,,,,,,
7028.699999999255,,intro_1,1770078,,,,,,,,instruct,,,32,,,,,,,,,,,,,,,,,,,
615.8000000007451,,intro_2,1770695,,,,,,,,instruct,,,32,,,,,,,,,,,,,,,,,,,
,,intro_3,1778319,,,,,,,,instruct,,,,,,,,,,,,,,,,,,,,,,
4316.800000000745,,intro_4,1782637,,,,,,,,instruct,,,32,,,,,,,,,,,,,,,,,,,
null,,inference_phase,1797640,,,,,,,,object_09c.png,,,null,object_06c.png,object_13b.png,0,,,,,object_08a.png,,0,,object_08a.png,,,,,,,
null,,warning_page,1802654,,,,,,,,warning,,,null,,,,,,,,,,,,,,,,,,,
4256.9000000003725,,inference_phase,1806913,,,,,,,,object_10a.png,,,51,object_07a.png,object_11b.png,0,,,,,object_07a.png,,0,,object_02b.png,,,,,,,
5688.800000000745,,inference_phase,1812605,,,,,,,,object_06b.png,,,51,object_06a.png,object_07a.png,0,,,,,object_05b.png,,0,,object_05b.png,,,,,,,
4655.89999999851,,inference_phase,1817263,,,,,,,,object_01b.png,,,49,object_02a.png,object_15b.png,0,,,,,object_11b.png,,0,,object_11b.png,,,,,,,
3771.800000000745,,inference_phase,1821037,,,,,,,,object_11a.png,,,50,object_02a.png,object_02b.png,0,,,,,object_02b.png,,0,,object_05c.png,,,,,,,
4083,,inference_phase,1825123,,,,,,,,object_14a.png,,,51,object_06a.png,object_08c.png,0,,,,,object_13c.png,,0,,object_13c.png,,,,,,,
2611.7999999988824,,inference_phase,1827737,,,,,,,,object_03b.png,,,49,object_05c.png,object_15b.png,0,,,,,object_15b.png,,0,,object_13b.png,,,,,,,
3297.300000000745,,inference_phase,1831037,,,,,,,,object_04a.png,,,50,object_02a.png,object_05b.png,1,,,,,object_08b.png,,0.125,,object_08b.png,,,,,,,
4973.699999999255,,inference_phase,1836016,,,,,,,,object_04c.png,,,49,object_08c.png,object_05c.png,1,,,,,object_08c.png,,0.2222222222222222,,object_11b.png,,,,,,,
3683.7000000011176,,inference_phase,1839702,,,,,,,,object_15a.png,,,49,object_06a.png,object_15c.png,1,,,,,object_06a.png,,0.3,,object_06c.png,,,,,,,
5033.299999998882,,inference_phase,1844738,,,,,,,,object_01c.png,,,50,object_11b.png,object_15b.png,1,,,,,object_02a.png,,0.36363636363636365,,object_02a.png,,,,,,,
6482.799999998882,,inference_phase,1851224,,,,,,,,object_12a.png,,,50,object_15c.png,object_06a.png,0,,,,,object_15c.png,,0.3333333333333333,,object_05b.png,,,,,,,
3751.800000000745,,inference_phase,1854978,,,,,,,,object_09b.png,,,49,object_06c.png,object_15c.png,1,,,,,object_06c.png,,0.38461538461538464,,object_05c.png,,,,,,,
3279.2000000011176,,inference_phase,1858259,,,,,,,,object_07b.png,,,49,object_05c.png,object_13c.png,1,,,,,object_05c.png,,0.42857142857142855,,object_06a.png,,,,,,,
3701.7999999988824,,inference_phase,1861964,,,,,,,,object_04b.png,,,49,object_13b.png,object_07a.png,1,,,,,object_13b.png,,0.4666666666666667,,object_15c.png,,,,,,,
,,survey,1964100,,,,,,,,survey-questions,,,,,,,,,,,,,,,,none,high,I was not doing anything else,I tried to make up stories but didn't have enough time,The objects that looked like people and other objects such as hats and masks were easier to remember,I have not participated on another platform,The abstract images made the task very challenging
