rt,responses,trial_type,time_elapsed,identifier_a,identifier_b,identifier_c,tasktype,browser_type,local_time,UTC_time,stimulus,button_pressed,response,key_press,stimulus_left,stimulus_right,accuracy,practice_cumulative_accuracy,stimulus_down_left,stimulus_down_mid,stimulus_down_right,stimulus_correct,prac_weighted_accuracy,cumulative_accuracy,weighted_accuracy,stimulus_middle,problems,smooth,distraction,strategies,easier,similar,comments,detectfocus,breakfocus,completion_code
14217.5,{worker_id:67d05a005a322e6dd63fab31},id_enter,14222,object_01a.png; object_01b.png; object_04b.png; object_06b.png; object_08c.png; object_13a.png; object_13c.png; object_02c.png; object_03a.png; object_02b.png; object_09b.png; object_13b.png; object_12b.png; object_05c.png; object_09a.png,object_04c.png; object_06c.png; object_07a.png; object_02a.png; object_04a.png; object_12a.png; object_11a.png; object_05b.png; object_03b.png; object_14c.png; object_05a.png; object_11c.png; object_10c.png; object_12c.png; object_07b.png,object_15b.png; object_15c.png; object_14a.png; object_14b.png; object_09c.png; object_10a.png; object_06a.png; object_01c.png; object_11b.png; object_08a.png; object_10b.png; object_03c.png; object_08b.png; object_15a.png; object_07c.png,interleaved,Mozilla/5.0 (Windows NT 10.0; Win64; x64) AppleWebKit/537.36 (KHTML, like Gecko) Chrome/134.0.0.0 Safari/537.36,4/28/2025, 11:49:30 AM,2025-04-28 16:49:30.338,,,,,,,,,,,,,,,,,,,,,,,,,,
42400.5,,make_fullscreen,56643,,,,,,,,fullscreen,0,,,,,,,,,,,,,,,,,,,,,,,,
5427.300000011921,,instruct_1,62073,,,,,,,,instruct,0,Next,,,,,,,,,,,,,,,,,,,,,,,
22443,,instruct_2,84519,,,,,,,,instruct,1,Next,,,,,,,,,,,,,,,,,,,,,,,
16869.30000001192,,instruct_3,101390,,,,,,,,instruct,1,Next,,,,,,,,,,,,,,,,,,,,,,,
42854.5,,instruct_4,144246,,,,,,,,instruct,1,Next,,,,,,,,,,,,,,,,,,,,,,,
35745,,instruct_5,179992,,,,,,,,instruct,1,Next,,,,,,,,,,,,,,,,,,,,,,,
9230.59999999404,,instruct_6,189224,,,,,,,,instruct,1,Next,,,,,,,,,,,,,,,,,,,,,,,
34463.30000001192,,instruct_7,223689,,,,,,,,instruct,1,Next,,,,,,,,,,,,,,,,,,,,,,,
null,,prac_atten_color_black,224182,,,,,,,,black_plus_sign,,,null,,,,,,,,,,,,,,,,,,,,,,
547.5,,prac_atten_color,225095,,,,,,,,<p style='position:absolute;top: 50%;right: 50%;transform: translate(50%, -50%);font-size: 125px;color: blue;'>+</p>,,,49,,,,,,,,,,,,,,,,,,,,,,
null,,prac_atten_color_black,227096,,,,,,,,black_plus_sign,,,null,,,,,,,,,,,,,,,,,,,,,,
null,,prac_atten_color_black,227589,,,,,,,,black_plus_sign,,,null,,,,,,,,,,,,,,,,,,,,,,
659.9000000059605,,prac_atten_color,228686,,,,,,,,<p style='position:absolute;top: 50%;right: 50%;transform: translate(50%, -50%);font-size: 125px;color: green;'>+</p>,,,50,,,,,,,,,,,,,,,,,,,,,,
null,,prac_atten_color_black,230687,,,,,,,,black_plus_sign,,,null,,,,,,,,,,,,,,,,,,,,,,
null,,prac_atten_color_black,230994,,,,,,,,black_plus_sign,,,null,,,,,,,,,,,,,,,,,,,,,,
401.90000000596046,,prac_atten_color,232057,,,,,,,,<p style='position:absolute;top: 50%;right: 50%;transform: translate(50%, -50%);font-size: 125px;color: green;'>+</p>,,,49,,,,,,,,,,,,,,,,,,,,,,
null,,prac_atten_color_black,234059,,,,,,,,black_plus_sign,,,null,,,,,,,,,,,,,,,,,,,,,,
4566.5999999940395,,attentioncheck_help,238628,,,,,,,,instruct,,,32,,,,,,,,,,,,,,,,,,,,,,
null,,prac_atten_color_black,238969,,,,,,,,black_plus_sign,,,null,,,,,,,,,,,,,,,,,,,,,,
null,,prac_atten_color,239466,,,,,,,,<p style='position:absolute;top: 50%;right: 50%;transform: translate(50%, -50%);font-size: 125px;color: blue;'>+</p>,,,null,,,,,,,,,,,,,,,,,,,,,,
641.7999999821186,,prac_atten_color_black,241468,,,,,,,,black_plus_sign,,,49,,,,,,,,,,,,,,,,,,,,,,
null,,prac_atten_color_black,242377,,,,,,,,black_plus_sign,,,null,,,,,,,,,,,,,,,,,,,,,,
637.0999999940395,,prac_atten_color,243030,,,,,,,,<p style='position:absolute;top: 50%;right: 50%;transform: translate(50%, -50%);font-size: 125px;color: green;'>+</p>,,,50,,,,,,,,,,,,,,,,,,,,,,
null,,prac_atten_color_black,245032,,,,,,,,black_plus_sign,,,null,,,,,,,,,,,,,,,,,,,,,,
null,,prac_atten_color_black,245785,,,,,,,,black_plus_sign,,,null,,,,,,,,,,,,,,,,,,,,,,
958.7999999821186,,prac_atten_color,246831,,,,,,,,<p style='position:absolute;top: 50%;right: 50%;transform: translate(50%, -50%);font-size: 125px;color: green;'>+</p>,,,50,,,,,,,,,,,,,,,,,,,,,,
null,,prac_atten_color_black,248833,,,,,,,,black_plus_sign,,,null,,,,,,,,,,,,,,,,,,,,,,
null,,prac_atten_color_black,249195,,,,,,,,black_plus_sign,,,null,,,,,,,,,,,,,,,,,,,,,,
null,,prac_atten_color,249638,,,,,,,,<p style='position:absolute;top: 50%;right: 50%;transform: translate(50%, -50%);font-size: 125px;color: blue;'>+</p>,,,null,,,,,,,,,,,,,,,,,,,,,,
319.80000001192093,,prac_atten_color_black,251641,,,,,,,,black_plus_sign,,,49,,,,,,,,,,,,,,,,,,,,,,
null,,prac_atten_color_black,252604,,,,,,,,black_plus_sign,,,null,,,,,,,,,,,,,,,,,,,,,,
703.2999999821186,,prac_atten_color,253546,,,,,,,,<p style='position:absolute;top: 50%;right: 50%;transform: translate(50%, -50%);font-size: 125px;color: green;'>+</p>,,,50,,,,,,,,,,,,,,,,,,,,,,
null,,prac_atten_color_black,255548,,,,,,,,black_plus_sign,,,null,,,,,,,,,,,,,,,,,,,,,,
null,,prac_atten_color_black,256016,,,,,,,,black_plus_sign,,,null,,,,,,,,,,,,,,,,,,,,,,
532.8000000119209,,prac_atten_color,256695,,,,,,,,<p style='position:absolute;top: 50%;right: 50%;transform: translate(50%, -50%);font-size: 125px;color: blue;'>+</p>,,,49,,,,,,,,,,,,,,,,,,,,,,
null,,prac_atten_color_black,258697,,,,,,,,black_plus_sign,,,null,,,,,,,,,,,,,,,,,,,,,,
null,,prac_atten_color_black,259425,,,,,,,,black_plus_sign,,,null,,,,,,,,,,,,,,,,,,,,,,
710.2000000178814,,prac_atten_color,260335,,,,,,,,<p style='position:absolute;top: 50%;right: 50%;transform: translate(50%, -50%);font-size: 125px;color: blue;'>+</p>,,,49,,,,,,,,,,,,,,,,,,,,,,
null,,prac_atten_color_black,262337,,,,,,,,black_plus_sign,,,null,,,,,,,,,,,,,,,,,,,,,,
15963.5,,attentioncheck_feedback,278302,,,,,,,,cross_check_feedback,0,,,,,,,,,,,,,,,,,,,,,,,,
9485.90000000596,,last_instruct,287789,,,,,,,,instruct,,,32,,,,,,,,,,,,,,,,,,,,,,
null,,prac_learn_phase(without_color),291290,,,,,,,,black_plus_sign,,,null,object_05b.png,object_01c.png,,,,,,,,,,,,,,,,,,,,
null,,prac_black_cross(without_color),292084,,,,,,,,green,,,null,object_05b.png,object_01c.png,,,,,,,,,,,,,,,,,,,,
null,,prac_rt_plussign_withcolor,292586,,,,,,,,green,,,null,object_05b.png,object_01c.png,,,,,,,,,,,,,,,,,,,,
982.4000000059605,,prac_rt_thecrossant_black,293797,,,,,,,,black_plus_sign,,,50,,,1,1,,,,,,,,,,,,,,,,,,
null,,prac_color_black,293905,,,,,,,,black_plus_sign,,,null,,,,,,,,,,,,,,,,,,,,,,
null,,prac_learn_phase(without_color),297408,,,,,,,,black_plus_sign,,,null,object_02c.png,object_05b.png,,,,,,,,,,,,,,,,,,,,
null,,black_cross(without_color)1,297999,,,,,,,,green,,,null,object_05b.png,object_01c.png,,,,,,,,,,,,,,,,,,,,
null,,prac_rt_plussign_withcolor,298500,,,,,,,,green,,,null,object_02c.png,object_05b.png,,,,,,,,,,,,,,,,,,,,
991.3000000119209,,prac_rt_thecrossant_black,299697,,,,,,,,black_plus_sign,,,50,,,1,1,,,,,,,,,,,,,,,,,,
null,,prac_color_black,299800,,,,,,,,black_plus_sign,,,null,,,,,,,,,,,,,,,,,,,,,,
null,,prac_learn_phase(without_color),303304,,,,,,,,black_plus_sign,,,null,object_04b.png,object_07a.png,,,,,,,,,,,,,,,,,,,,
null,,black_cross(without_color)1,303904,,,,,,,,green,,,null,object_05b.png,object_01c.png,,,,,,,,,,,,,,,,,,,,
null,,prac_rt_plussign_withcolor,304406,,,,,,,,blue,,,null,object_04b.png,object_07a.png,,,,,,,,,,,,,,,,,,,,
1038.800000011921,,prac_rt_thecrossant_black,305687,,,,,,,,black_plus_sign,,,49,,,1,1,,,,,,,,,,,,,,,,,,
null,,prac_color_black,305790,,,,,,,,black_plus_sign,,,null,,,,,,,,,,,,,,,,,,,,,,
null,,prac_learn_phase(without_color),309293,,,,,,,,black_plus_sign,,,null,object_03a.png,object_03b.png,,,,,,,,,,,,,,,,,,,,
null,,black_cross(without_color)1,309884,,,,,,,,green,,,null,object_05b.png,object_01c.png,,,,,,,,,,,,,,,,,,,,
null,,prac_rt_plussign_withcolor,310385,,,,,,,,blue,,,null,object_03a.png,object_03b.png,,,,,,,,,,,,,,,,,,,,
926.1000000238419,,prac_rt_thecrossant_black,311384,,,,,,,,black_plus_sign,,,49,,,1,1,,,,,,,,,,,,,,,,,,
null,,prac_color_black,311486,,,,,,,,black_plus_sign,,,null,,,,,,,,,,,,,,,,,,,,,,
12570.09999999404,,instruct_dir_01,324057,,,,,,,,instruct,0,Next,,,,,,,,,,,,,,,,,,,,,,,
6911.4000000059605,,instruct_dir_2,330970,,,,,,,,instruct,1,Next,,,,,,,,,,,,,,,,,,,,,,,
6152.699999988079,,instruct_dir_3,337123,,,,,,,,instruct,1,Next,,,,,,,,,,,,,,,,,,,,,,,
2042.9000000059605,,instruct_dir_4,339168,,,,,,,,instruct,1,Start,,,,,,,,,,,,,,,,,,,,,,,
null,,thebreak,339269,,,,,,,,<p></p>,,,null,,,,,,,,,,,,,,,,,,,,,,
1526.699999988079,,intro_0,340798,,,,,,,,instruct,,,32,,,,,,,,,,,,,,,,,,,,,,
4804.300000011921,,prac_directmemory_phase,345604,,,,,,,,practice/object_04b.png,,,50,,,1,,practice/object_03a.png,practice/object_04a.png,practice/object_02a.png,practice/object_04a.png,1,1,,,,,,,,,,,,
4363.699999988079,,prac_directmemory_phase,349969,,,,,,,,practice/object_01b.png,,,51,,,0,,practice/object_02a.png,practice/object_01a.png,practice/object_04a.png,practice/object_01a.png,0,0.5,,,,,,,,,,,,
3022.0999999940395,,prac_directmemory_phase,352993,,,,,,,,practice/object_02b.png,,,49,,,1,,practice/object_02a.png,practice/object_04a.png,practice/object_03a.png,practice/object_02a.png,1,0.6666666666666666,,,,,,,,,,,,
2718.199999988079,,prac_directmemory_phase,355716,,,,,,,,practice/object_03b.png,,,49,,,1,,practice/object_03a.png,practice/object_01a.png,practice/object_02a.png,practice/object_03a.png,1,0.75,,,,,,,,,,,,
7925.600000023842,,practice_feedback,363644,,,,,,,,practice_feedback,1,,,,,,,,,,,,,,,,,,,,,,,,
15718.700000017881,,proceed_actualTask,379363,,,,,,,,proceed_actualTask,1,Continue,,,,,,,,,,,,,,,,,,,,,,,
17343.30000001192,,last_inst,396708,,,,,,,,last_inst,,,32,,,,,,,,,,,,,,,,,,,,,,
null,,learn_phase(without_color)1,400211,,,,,,,,black_plus_sign,,,null,object_05b.png,object_01c.png,,,,,,,,,,,,,,,,,,,,
null,,black_cross(without_color)1,400803,,,,,,,,green,,,null,object_05b.png,object_01c.png,,,,,,,,,,,,,,,,,,,,
null,,rt_plussign_withcolor1,401306,,,,,,,,green,,,null,object_05b.png,object_01c.png,,,,,,,,,,,,,,,,,,,,
1256.6000000238419,,rt_thecrossant_black1,402721,,,,,,,,black_plus_sign,,,50,,,1,,,,,,,1,,,,,,,,,,,,
null,,color_black1,402825,,,,,,,,black_plus_sign,,,null,,,,,,,,,,,,,,,,,,,,,,
null,,learn_phase(without_color)1,406329,,,,,,,,black_plus_sign,,,null,object_02c.png,object_05b.png,,,,,,,,,,,,,,,,,,,,
null,,black_cross(without_color)1,407152,,,,,,,,green,,,null,object_02c.png,object_05b.png,,,,,,,,,,,,,,,,,,,,
null,,rt_plussign_withcolor1,407654,,,,,,,,green,,,null,object_02c.png,object_05b.png,,,,,,,,,,,,,,,,,,,,
727.5,,rt_thecrossant_black1,408843,,,,,,,,black_plus_sign,,,50,,,1,,,,,,,1,,,,,,,,,,,,
null,,color_black1,408946,,,,,,,,black_plus_sign,,,null,,,,,,,,,,,,,,,,,,,,,,
null,,learn_phase(without_color)1,412448,,,,,,,,black_plus_sign,,,null,object_04b.png,object_07a.png,,,,,,,,,,,,,,,,,,,,
null,,black_cross(without_color)1,413457,,,,,,,,green,,,null,object_04b.png,object_07a.png,,,,,,,,,,,,,,,,,,,,
null,,rt_plussign_withcolor1,413964,,,,,,,,green,,,null,object_04b.png,object_07a.png,,,,,,,,,,,,,,,,,,,,
1031.0999999940395,,rt_thecrossant_black1,414959,,,,,,,,black_plus_sign,,,50,,,1,,,,,,,1,,,,,,,,,,,,
null,,color_black1,415069,,,,,,,,black_plus_sign,,,null,,,,,,,,,,,,,,,,,,,,,,
null,,learn_phase(without_color)1,418572,,,,,,,,black_plus_sign,,,null,object_03a.png,object_03b.png,,,,,,,,,,,,,,,,,,,,
null,,black_cross(without_color)1,419287,,,,,,,,green,,,null,object_03a.png,object_03b.png,,,,,,,,,,,,,,,,,,,,
null,,rt_plussign_withcolor1,419789,,,,,,,,green,,,null,object_03a.png,object_03b.png,,,,,,,,,,,,,,,,,,,,
1140.0999999940395,,rt_thecrossant_black1,421081,,,,,,,,black_plus_sign,,,50,,,1,,,,,,,1,,,,,,,,,,,,
null,,color_black1,421183,,,,,,,,black_plus_sign,,,null,,,,,,,,,,,,,,,,,,,,,,
null,,learn_phase(without_color)1,424686,,,,,,,,black_plus_sign,,,null,object_12b.png,object_10c.png,,,,,,,,,,,,,,,,,,,,
null,,black_cross(without_color)1,425318,,,,,,,,blue,,,null,object_12b.png,object_10c.png,,,,,,,,,,,,,,,,,,,,
null,,rt_plussign_withcolor1,425820,,,,,,,,blue,,,null,object_12b.png,object_10c.png,,,,,,,,,,,,,,,,,,,,
959.5,,rt_thecrossant_black1,427205,,,,,,,,black_plus_sign,,,49,,,1,,,,,,,1,,,,,,,,,,,,
null,,color_black1,427306,,,,,,,,black_plus_sign,,,null,,,,,,,,,,,,,,,,,,,,,,
null,,learn_phase(without_color)1,430808,,,,,,,,black_plus_sign,,,null,object_06b.png,object_02a.png,,,,,,,,,,,,,,,,,,,,
null,,black_cross(without_color)1,431223,,,,,,,,blue,,,null,object_06b.png,object_02a.png,,,,,,,,,,,,,,,,,,,,
null,,rt_plussign_withcolor1,431726,,,,,,,,blue,,,null,object_06b.png,object_02a.png,,,,,,,,,,,,,,,,,,,,
883.3999999761581,,rt_thecrossant_black1,433328,,,,,,,,black_plus_sign,,,49,,,1,,,,,,,1,,,,,,,,,,,,
null,,color_black1,433430,,,,,,,,black_plus_sign,,,null,,,,,,,,,,,,,,,,,,,,,,
null,,learn_phase(without_color)1,436932,,,,,,,,black_plus_sign,,,null,object_12c.png,object_15a.png,,,,,,,,,,,,,,,,,,,,
null,,black_cross(without_color)1,437629,,,,,,,,green,,,null,object_12c.png,object_15a.png,,,,,,,,,,,,,,,,,,,,
null,,rt_plussign_withcolor1,438131,,,,,,,,green,,,null,object_12c.png,object_15a.png,,,,,,,,,,,,,,,,,,,,
628.2000000178814,,rt_thecrossant_black1,439440,,,,,,,,black_plus_sign,,,50,,,1,,,,,,,1,,,,,,,,,,,,
null,,color_black1,439544,,,,,,,,black_plus_sign,,,null,,,,,,,,,,,,,,,,,,,,,,
null,,learn_phase(without_color)1,443048,,,,,,,,black_plus_sign,,,null,object_11a.png,object_06a.png,,,,,,,,,,,,,,,,,,,,
null,,black_cross(without_color)1,443618,,,,,,,,blue,,,null,object_11a.png,object_06a.png,,,,,,,,,,,,,,,,,,,,
null,,rt_plussign_withcolor1,444135,,,,,,,,blue,,,null,object_11a.png,object_06a.png,,,,,,,,,,,,,,,,,,,,
891.9000000059605,,rt_thecrossant_black1,445569,,,,,,,,black_plus_sign,,,49,,,1,,,,,,,1,,,,,,,,,,,,
null,,color_black1,445671,,,,,,,,black_plus_sign,,,null,,,,,,,,,,,,,,,,,,,,,,
null,,learn_phase(without_color)1,449174,,,,,,,,black_plus_sign,,,null,object_04a.png,object_09c.png,,,,,,,,,,,,,,,,,,,,
null,,black_cross(without_color)1,449910,,,,,,,,green,,,null,object_04a.png,object_09c.png,,,,,,,,,,,,,,,,,,,,
499.30000001192093,,rt_plussign_withcolor1,450412,,,,,,,,green,,,50,object_04a.png,object_09c.png,,,,,,,,,,,,,,,,,,,,
null,,rt_thecrossant_black1,451684,,,,,,,,black_plus_sign,,,null,,,1,,,,,,,1,,,,,,,,,,,,
null,,color_black1,451786,,,,,,,,black_plus_sign,,,null,,,,,,,,,,,,,,,,,,,,,,
null,,learn_phase(without_color)1,455289,,,,,,,,black_plus_sign,,,null,object_03b.png,object_11b.png,,,,,,,,,,,,,,,,,,,,
null,,black_cross(without_color)1,455793,,,,,,,,green,,,null,object_03b.png,object_11b.png,,,,,,,,,,,,,,,,,,,,
null,,rt_plussign_withcolor1,456295,,,,,,,,green,,,null,object_03b.png,object_11b.png,,,,,,,,,,,,,,,,,,,,
859.9000000059605,,rt_thecrossant_black1,457810,,,,,,,,black_plus_sign,,,50,,,1,,,,,,,1,,,,,,,,,,,,
null,,color_black1,457913,,,,,,,,black_plus_sign,,,null,,,,,,,,,,,,,,,,,,,,,,
null,,learn_phase(without_color)1,461416,,,,,,,,black_plus_sign,,,null,object_04c.png,object_15b.png,,,,,,,,,,,,,,,,,,,,
null,,black_cross(without_color)1,462353,,,,,,,,green,,,null,object_04c.png,object_15b.png,,,,,,,,,,,,,,,,,,,,
null,,rt_plussign_withcolor1,462855,,,,,,,,green,,,null,object_04c.png,object_15b.png,,,,,,,,,,,,,,,,,,,,
657.5999999940395,,rt_thecrossant_black1,463925,,,,,,,,black_plus_sign,,,50,,,1,,,,,,,1,,,,,,,,,,,,
null,,color_black1,464027,,,,,,,,black_plus_sign,,,null,,,,,,,,,,,,,,,,,,,,,,
null,,learn_phase(without_color)1,467531,,,,,,,,black_plus_sign,,,null,object_12a.png,object_10a.png,,,,,,,,,,,,,,,,,,,,
null,,black_cross(without_color)1,468087,,,,,,,,blue,,,null,object_12a.png,object_10a.png,,,,,,,,,,,,,,,,,,,,
null,,rt_plussign_withcolor1,468589,,,,,,,,blue,,,null,object_12a.png,object_10a.png,,,,,,,,,,,,,,,,,,,,
1365.9000000059605,,rt_thecrossant_black1,470038,,,,,,,,black_plus_sign,,,49,,,1,,,,,,,1,,,,,,,,,,,,
null,,color_black1,470140,,,,,,,,black_plus_sign,,,null,,,,,,,,,,,,,,,,,,,,,,
null,,learn_phase(without_color)1,473643,,,,,,,,black_plus_sign,,,null,object_05c.png,object_12c.png,,,,,,,,,,,,,,,,,,,,
null,,black_cross(without_color)1,474594,,,,,,,,blue,,,null,object_05c.png,object_12c.png,,,,,,,,,,,,,,,,,,,,
null,,rt_plussign_withcolor1,475095,,,,,,,,blue,,,null,object_05c.png,object_12c.png,,,,,,,,,,,,,,,,,,,,
811.6999999880791,,rt_thecrossant_black1,476148,,,,,,,,black_plus_sign,,,49,,,1,,,,,,,1,,,,,,,,,,,,
null,,color_black1,476250,,,,,,,,black_plus_sign,,,null,,,,,,,,,,,,,,,,,,,,,,
null,,learn_phase(without_color)1,479752,,,,,,,,black_plus_sign,,,null,object_02a.png,object_14b.png,,,,,,,,,,,,,,,,,,,,
null,,black_cross(without_color)1,480431,,,,,,,,blue,,,null,object_02a.png,object_14b.png,,,,,,,,,,,,,,,,,,,,
null,,rt_plussign_withcolor1,480932,,,,,,,,blue,,,null,object_02a.png,object_14b.png,,,,,,,,,,,,,,,,,,,,
1223.5,,rt_thecrossant_black1,482257,,,,,,,,black_plus_sign,,,49,,,1,,,,,,,1,,,,,,,,,,,,
null,,color_black1,482360,,,,,,,,black_plus_sign,,,null,,,,,,,,,,,,,,,,,,,,,,
null,,learn_phase(without_color)1,485862,,,,,,,,black_plus_sign,,,null,object_01a.png,object_04c.png,,,,,,,,,,,,,,,,,,,,
null,,black_cross(without_color)1,486389,,,,,,,,blue,,,null,object_01a.png,object_04c.png,,,,,,,,,,,,,,,,,,,,
null,,rt_plussign_withcolor1,486891,,,,,,,,blue,,,null,object_01a.png,object_04c.png,,,,,,,,,,,,,,,,,,,,
1034.4000000059605,,rt_thecrossant_black1,488369,,,,,,,,black_plus_sign,,,49,,,1,,,,,,,1,,,,,,,,,,,,
null,,color_black1,488472,,,,,,,,black_plus_sign,,,null,,,,,,,,,,,,,,,,,,,,,,
null,,learn_phase(without_color)1,491976,,,,,,,,black_plus_sign,,,null,object_07a.png,object_14a.png,,,,,,,,,,,,,,,,,,,,
null,,black_cross(without_color)1,492662,,,,,,,,blue,,,null,object_07a.png,object_14a.png,,,,,,,,,,,,,,,,,,,,
null,,rt_plussign_withcolor1,493181,,,,,,,,blue,,,null,object_07a.png,object_14a.png,,,,,,,,,,,,,,,,,,,,
700.7999999821186,,rt_thecrossant_black1,494502,,,,,,,,black_plus_sign,,,49,,,1,,,,,,,1,,,,,,,,,,,,
null,,color_black1,494605,,,,,,,,black_plus_sign,,,null,,,,,,,,,,,,,,,,,,,,,,
null,,learn_phase(without_color)1,498108,,,,,,,,black_plus_sign,,,null,object_01b.png,object_06c.png,,,,,,,,,,,,,,,,,,,,
null,,black_cross(without_color)1,498747,,,,,,,,blue,,,null,object_01b.png,object_06c.png,,,,,,,,,,,,,,,,,,,,
null,,rt_plussign_withcolor1,499248,,,,,,,,blue,,,null,object_01b.png,object_06c.png,,,,,,,,,,,,,,,,,,,,
883.6999999880791,,rt_thecrossant_black1,500625,,,,,,,,black_plus_sign,,,49,,,1,,,,,,,1,,,,,,,,,,,,
null,,color_black1,500727,,,,,,,,black_plus_sign,,,null,,,,,,,,,,,,,,,,,,,,,,
null,,learn_phase(without_color)1,504231,,,,,,,,black_plus_sign,,,null,object_05a.png,object_10b.png,,,,,,,,,,,,,,,,,,,,
null,,black_cross(without_color)1,505041,,,,,,,,blue,,,null,object_05a.png,object_10b.png,,,,,,,,,,,,,,,,,,,,
null,,rt_plussign_withcolor1,505544,,,,,,,,blue,,,null,object_05a.png,object_10b.png,,,,,,,,,,,,,,,,,,,,
841.4000000059605,,rt_thecrossant_black1,506741,,,,,,,,black_plus_sign,,,49,,,1,,,,,,,1,,,,,,,,,,,,
null,,color_black1,506844,,,,,,,,black_plus_sign,,,null,,,,,,,,,,,,,,,,,,,,,,
null,,learn_phase(without_color)1,510349,,,,,,,,black_plus_sign,,,null,object_14c.png,object_08a.png,,,,,,,,,,,,,,,,,,,,
null,,black_cross(without_color)1,511048,,,,,,,,green,,,null,object_14c.png,object_08a.png,,,,,,,,,,,,,,,,,,,,
null,,rt_plussign_withcolor1,511551,,,,,,,,green,,,null,object_14c.png,object_08a.png,,,,,,,,,,,,,,,,,,,,
1087.8999999761581,,rt_thecrossant_black1,512856,,,,,,,,black_plus_sign,,,50,,,1,,,,,,,1,,,,,,,,,,,,
null,,color_black1,512958,,,,,,,,black_plus_sign,,,null,,,,,,,,,,,,,,,,,,,,,,
null,,learn_phase(without_color)1,516466,,,,,,,,black_plus_sign,,,null,object_10c.png,object_08b.png,,,,,,,,,,,,,,,,,,,,
null,,black_cross(without_color)1,517118,,,,,,,,green,,,null,object_10c.png,object_08b.png,,,,,,,,,,,,,,,,,,,,
null,,rt_plussign_withcolor1,517620,,,,,,,,green,,,null,object_10c.png,object_08b.png,,,,,,,,,,,,,,,,,,,,
893.6999999880791,,rt_thecrossant_black1,518977,,,,,,,,black_plus_sign,,,50,,,1,,,,,,,1,,,,,,,,,,,,
null,,color_black1,519090,,,,,,,,black_plus_sign,,,null,,,,,,,,,,,,,,,,,,,,,,
null,,learn_phase(without_color)1,522593,,,,,,,,black_plus_sign,,,null,object_13c.png,object_11a.png,,,,,,,,,,,,,,,,,,,,
null,,black_cross(without_color)1,523513,,,,,,,,blue,,,null,object_13c.png,object_11a.png,,,,,,,,,,,,,,,,,,,,
null,,rt_plussign_withcolor1,524014,,,,,,,,blue,,,null,object_13c.png,object_11a.png,,,,,,,,,,,,,,,,,,,,
891.9000000059605,,rt_thecrossant_black1,525100,,,,,,,,black_plus_sign,,,49,,,1,,,,,,,1,,,,,,,,,,,,
null,,color_black1,525210,,,,,,,,black_plus_sign,,,null,,,,,,,,,,,,,,,,,,,,,,
null,,learn_phase(without_color)1,528712,,,,,,,,black_plus_sign,,,null,object_13a.png,object_12a.png,,,,,,,,,,,,,,,,,,,,
null,,black_cross(without_color)1,529530,,,,,,,,blue,,,null,object_13a.png,object_12a.png,,,,,,,,,,,,,,,,,,,,
null,,rt_plussign_withcolor1,530032,,,,,,,,blue,,,null,object_13a.png,object_12a.png,,,,,,,,,,,,,,,,,,,,
1387.199999988079,,rt_thecrossant_black1,531219,,,,,,,,black_plus_sign,,,49,,,1,,,,,,,1,,,,,,,,,,,,
null,,color_black1,531323,,,,,,,,black_plus_sign,,,null,,,,,,,,,,,,,,,,,,,,,,
null,,learn_phase(without_color)1,534827,,,,,,,,black_plus_sign,,,null,object_02b.png,object_14c.png,,,,,,,,,,,,,,,,,,,,
null,,black_cross(without_color)1,535860,,,,,,,,blue,,,null,object_02b.png,object_14c.png,,,,,,,,,,,,,,,,,,,,
null,,rt_plussign_withcolor1,536362,,,,,,,,blue,,,null,object_02b.png,object_14c.png,,,,,,,,,,,,,,,,,,,,
1174.0999999940395,,rt_thecrossant_black1,537333,,,,,,,,black_plus_sign,,,49,,,1,,,,,,,1,,,,,,,,,,,,
null,,color_black1,537449,,,,,,,,black_plus_sign,,,null,,,,,,,,,,,,,,,,,,,,,,
null,,learn_phase(without_color)1,540953,,,,,,,,black_plus_sign,,,null,object_09b.png,object_05a.png,,,,,,,,,,,,,,,,,,,,
null,,black_cross(without_color)1,541956,,,,,,,,green,,,null,object_09b.png,object_05a.png,,,,,,,,,,,,,,,,,,,,
null,,rt_plussign_withcolor1,542457,,,,,,,,green,,,null,object_09b.png,object_05a.png,,,,,,,,,,,,,,,,,,,,
1135.300000011921,,rt_thecrossant_black1,543461,,,,,,,,black_plus_sign,,,50,,,1,,,,,,,1,,,,,,,,,,,,
null,,color_black1,543565,,,,,,,,black_plus_sign,,,null,,,,,,,,,,,,,,,,,,,,,,
null,,learn_phase(without_color)1,547081,,,,,,,,black_plus_sign,,,null,object_11c.png,object_03c.png,,,,,,,,,,,,,,,,,,,,
null,,black_cross(without_color)1,547506,,,,,,,,blue,,,null,object_11c.png,object_03c.png,,,,,,,,,,,,,,,,,,,,
null,,rt_plussign_withcolor1,548007,,,,,,,,blue,,,null,object_11c.png,object_03c.png,,,,,,,,,,,,,,,,,,,,
1426.300000011921,,rt_thecrossant_black1,549586,,,,,,,,black_plus_sign,,,49,,,1,,,,,,,1,,,,,,,,,,,,
null,,color_black1,549690,,,,,,,,black_plus_sign,,,null,,,,,,,,,,,,,,,,,,,,,,
null,,learn_phase(without_color)1,553195,,,,,,,,black_plus_sign,,,null,object_13b.png,object_11c.png,,,,,,,,,,,,,,,,,,,,
null,,black_cross(without_color)1,553887,,,,,,,,green,,,null,object_13b.png,object_11c.png,,,,,,,,,,,,,,,,,,,,
null,,rt_plussign_withcolor1,554390,,,,,,,,green,,,null,object_13b.png,object_11c.png,,,,,,,,,,,,,,,,,,,,
646.8000000119209,,rt_thecrossant_black1,555702,,,,,,,,black_plus_sign,,,50,,,1,,,,,,,1,,,,,,,,,,,,
null,,color_black1,555804,,,,,,,,black_plus_sign,,,null,,,,,,,,,,,,,,,,,,,,,,
null,,learn_phase(without_color)1,559307,,,,,,,,black_plus_sign,,,null,object_09a.png,object_07b.png,,,,,,,,,,,,,,,,,,,,
null,,black_cross(without_color)1,559863,,,,,,,,green,,,null,object_09a.png,object_07b.png,,,,,,,,,,,,,,,,,,,,
null,,rt_plussign_withcolor1,560365,,,,,,,,green,,,null,object_09a.png,object_07b.png,,,,,,,,,,,,,,,,,,,,
884.7000000178814,,rt_thecrossant_black1,561814,,,,,,,,black_plus_sign,,,50,,,1,,,,,,,1,,,,,,,,,,,,
null,,color_black1,561916,,,,,,,,black_plus_sign,,,null,,,,,,,,,,,,,,,,,,,,,,
null,,learn_phase(without_color)1,565419,,,,,,,,black_plus_sign,,,null,object_08c.png,object_04a.png,,,,,,,,,,,,,,,,,,,,
null,,black_cross(without_color)1,566223,,,,,,,,green,,,null,object_08c.png,object_04a.png,,,,,,,,,,,,,,,,,,,,
null,,rt_plussign_withcolor1,566724,,,,,,,,green,,,null,object_08c.png,object_04a.png,,,,,,,,,,,,,,,,,,,,
819.2000000178814,,rt_thecrossant_black1,567924,,,,,,,,black_plus_sign,,,50,,,1,,,,,,,1,,,,,,,,,,,,
null,,color_black1,568027,,,,,,,,black_plus_sign,,,null,,,,,,,,,,,,,,,,,,,,,,
null,,learn_phase(without_color)1,571529,,,,,,,,black_plus_sign,,,null,object_07b.png,object_07c.png,,,,,,,,,,,,,,,,,,,,
null,,black_cross(without_color)1,572361,,,,,,,,blue,,,null,object_07b.png,object_07c.png,,,,,,,,,,,,,,,,,,,,
null,,rt_plussign_withcolor1,572864,,,,,,,,blue,,,null,object_07b.png,object_07c.png,,,,,,,,,,,,,,,,,,,,
1133.9000000059605,,rt_thecrossant_black1,574037,,,,,,,,black_plus_sign,,,49,,,1,,,,,,,1,,,,,,,,,,,,
null,,color_black1,574140,,,,,,,,black_plus_sign,,,null,,,,,,,,,,,,,,,,,,,,,,
null,,learn_phase(without_color)1,577643,,,,,,,,black_plus_sign,,,null,object_06c.png,object_15c.png,,,,,,,,,,,,,,,,,,,,
null,,black_cross(without_color)1,578432,,,,,,,,blue,,,null,object_06c.png,object_15c.png,,,,,,,,,,,,,,,,,,,,
null,,rt_plussign_withcolor1,578934,,,,,,,,blue,,,null,object_06c.png,object_15c.png,,,,,,,,,,,,,,,,,,,,
1046.9000000059605,,rt_thecrossant_black1,580151,,,,,,,,black_plus_sign,,,49,,,1,,,,,,,1,,,,,,,,,,,,
null,,color_black1,580252,,,,,,,,black_plus_sign,,,null,,,,,,,,,,,,,,,,,,,,,,
null,,thebreak,580357,,,,,,,,<p></p>,,,null,,,,,,,,,,,,,,,,,,,,,,
2313.899999976158,,intro_0,582672,,,,,,,,instruct,,,32,,,,,,,,,,,,,,,,,,,,,,
6280.799999982119,,directmemory_phase1,588954,,,,,,,,object_14b.png,,,50,,,1,,object_07a.png,object_02a.png,object_06c.png,object_02a.png,,1,1,,,,,,,,,,,
3697.199999988079,,directmemory_phase1,592653,,,,,,,,object_15b.png,,,51,,,0,,object_12a.png,object_04c.png,object_07a.png,object_04c.png,,0.5,0,,,,,,,,,,,
3248,,directmemory_phase1,595904,,,,,,,,object_12a.png,,,50,,,0,,object_02b.png,object_08c.png,object_13a.png,object_13a.png,,0.3333333333333333,0,,,,,,,,,,,
3647.5999999940395,,directmemory_phase1,599554,,,,,,,,object_14a.png,,,51,,,1,,object_04c.png,object_10c.png,object_07a.png,object_07a.png,,0.5,1,,,,,,,,,,,
5775.200000017881,,directmemory_phase1,605331,,,,,,,,object_01c.png,,,49,,,0,,object_05a.png,object_11c.png,object_05b.png,object_05b.png,,0.4,0,,,,,,,,,,,
3070.7000000178814,,directmemory_phase1,608404,,,,,,,,object_07a.png,,,51,,,1,,object_02c.png,object_12b.png,object_04b.png,object_04b.png,,0.5,1,,,,,,,,,,,
4919.299999982119,,directmemory_phase1,613326,,,,,,,,object_03b.png,,,49,,,0,,object_02b.png,object_13a.png,object_03a.png,object_03a.png,,0.42857142857142855,0,,,,,,,,,,,
3413.199999988079,,directmemory_phase1,616741,,,,,,,,object_09c.png,,,51,,,1,,object_06c.png,object_05b.png,object_04a.png,object_04a.png,,0.5,1,,,,,,,,,,,
2717.9000000059605,,directmemory_phase1,619460,,,,,,,,object_15c.png,,,50,,,0,,object_06c.png,object_10c.png,object_02a.png,object_06c.png,,0.4444444444444444,0,,,,,,,,,,,
4919.799999982119,,directmemory_phase1,624382,,,,,,,,object_08a.png,,,50,,,0,,object_12a.png,object_04c.png,object_14c.png,object_14c.png,,0.4,0,,,,,,,,,,,
5181.5,,directmemory_phase1,629568,,,,,,,,object_11b.png,,,51,,,1,,object_04a.png,object_10c.png,object_03b.png,object_03b.png,,0.45454545454545453,1,,,,,,,,,,,
8690.199999988079,,directmemory_phase1,638262,,,,,,,,object_07b.png,,,51,,,1,,object_03a.png,object_13a.png,object_09a.png,object_09a.png,,0.5,1,,,,,,,,,,,
4294.300000011921,,directmemory_phase1,642560,,,,,,,,object_04a.png,,,49,,,1,,object_08c.png,object_12b.png,object_02c.png,object_08c.png,,0.5384615384615384,1,,,,,,,,,,,
3441.2999999821186,,directmemory_phase1,646004,,,,,,,,object_08b.png,,,49,,,1,,object_10c.png,object_12a.png,object_04a.png,object_10c.png,,0.5714285714285714,1,,,,,,,,,,,
5362,,directmemory_phase1,651370,,,,,,,,object_02a.png,,,51,,,1,,object_04b.png,object_05c.png,object_06b.png,object_06b.png,,0.6,1,,,,,,,,,,,
4600.800000011921,,directmemory_phase1,655973,,,,,,,,object_03c.png,,,49,,,1,,object_11c.png,object_12a.png,object_05a.png,object_11c.png,,0.625,1,,,,,,,,,,,
4234,,directmemory_phase1,660211,,,,,,,,object_10a.png,,,51,,,0,,object_12a.png,object_03b.png,object_04c.png,object_12a.png,,0.5882352941176471,0,,,,,,,,,,,
3355.9000000059605,,directmemory_phase1,663570,,,,,,,,object_04c.png,,,50,,,0,,object_02c.png,object_12b.png,object_01a.png,object_01a.png,,0.5555555555555556,0,,,,,,,,,,,
3000.800000011921,,directmemory_phase1,666572,,,,,,,,object_10c.png,,,51,,,0,,object_12b.png,object_08c.png,object_13a.png,object_12b.png,,0.5263157894736842,0,,,,,,,,,,,
3316.7000000178814,,directmemory_phase1,669890,,,,,,,,object_05b.png,,,50,,,0,,object_13a.png,object_04b.png,object_02c.png,object_02c.png,,0.5,0,,,,,,,,,,,
4662,,directmemory_phase1,674554,,,,,,,,object_05a.png,,,51,,,0,,object_12b.png,object_09b.png,object_08c.png,object_09b.png,,0.47619047619047616,0,,,,,,,,,,,
2947.5999999940395,,directmemory_phase1,677505,,,,,,,,object_11c.png,,,49,,,0,,object_06b.png,object_02b.png,object_13b.png,object_13b.png,,0.45454545454545453,0,,,,,,,,,,,
3973.800000011921,,directmemory_phase1,681482,,,,,,,,object_10b.png,,,51,,,0,,object_14c.png,object_05a.png,object_02a.png,object_05a.png,,0.43478260869565216,0,,,,,,,,,,,
2948.699999988079,,directmemory_phase1,684434,,,,,,,,object_06c.png,,,50,,,0,,object_01b.png,object_12b.png,object_04b.png,object_01b.png,,0.4166666666666667,0,,,,,,,,,,,
6756.9000000059605,,directmemory_phase1,691193,,,,,,,,object_14c.png,,,50,,,1,,object_03a.png,object_02b.png,object_09b.png,object_02b.png,,0.44,1,,,,,,,,,,,
1331.5999999940395,,directmemory_phase1,692527,,,,,,,,object_15a.png,,,49,,,1,,object_12c.png,object_11c.png,object_07a.png,object_12c.png,,0.46153846153846156,1,,,,,,,,,,,
3528.600000023842,,directmemory_phase1,696058,,,,,,,,object_07c.png,,,51,,,1,,object_05a.png,object_03b.png,object_07b.png,object_07b.png,,0.48148148148148145,1,,,,,,,,,,,
2638.5,,directmemory_phase1,698700,,,,,,,,object_12c.png,,,49,,,0,,object_01a.png,object_04b.png,object_05c.png,object_05c.png,,0.4642857142857143,0,,,,,,,,,,,
2101.7000000178814,,directmemory_phase1,700805,,,,,,,,object_11a.png,,,51,,,1,,object_02c.png,object_04b.png,object_13c.png,object_13c.png,,0.4827586206896552,1,,,,,,,,,,,
2248,,directmemory_phase1,703055,,,,,,,,object_06a.png,,,50,,,0,,object_05b.png,object_12a.png,object_11a.png,object_11a.png,,0.4666666666666667,0,,,,,,,,,,,
null,,thebreak,703159,,,,,,,,<p></p>,,,null,,,,,,,,,,,,,,,,,,,,,,
1825.0999999940395,,intro_0,704985,,,,,,,,instruct,,,32,,,,,,,,,,,,,,,,,,,,,,
null,,learn_phase(without_color)2,708488,,,,,,,,black_plus_sign,,,null,object_09b.png,object_05a.png,,,,,,,,,,,,,,,,,,,,
null,,black_cross(without_color)2,709120,,,,,,,,green,,,null,object_09b.png,object_05a.png,,,,,,,,,,,,,,,,,,,,
null,,rt_plussign_withcolor2,709624,,,,,,,,green,,,null,object_09b.png,object_05a.png,,,,,,,,,,,,,,,,,,,,
980.8000000119209,,rt_thecrossant_black2,710996,,,,,,,,black_plus_sign,,,50,,,1,,,,,,,1,,,,,,,,,,,,
null,,color_black2,711098,,,,,,,,black_plus_sign,,,null,,,,,,,,,,,,,,,,,,,,,,
null,,learn_phase(without_color)2,714600,,,,,,,,black_plus_sign,,,null,object_06c.png,object_15c.png,,,,,,,,,,,,,,,,,,,,
null,,black_cross(without_color)2,715600,,,,,,,,blue,,,null,object_06c.png,object_15c.png,,,,,,,,,,,,,,,,,,,,
null,,rt_plussign_withcolor2,716102,,,,,,,,blue,,,null,object_06c.png,object_15c.png,,,,,,,,,,,,,,,,,,,,
838.1999999880791,,rt_thecrossant_black2,717107,,,,,,,,black_plus_sign,,,49,,,1,,,,,,,1,,,,,,,,,,,,
null,,color_black2,717210,,,,,,,,black_plus_sign,,,null,,,,,,,,,,,,,,,,,,,,,,
null,,learn_phase(without_color)2,720713,,,,,,,,black_plus_sign,,,null,object_07a.png,object_14a.png,,,,,,,,,,,,,,,,,,,,
null,,black_cross(without_color)2,721779,,,,,,,,blue,,,null,object_07a.png,object_14a.png,,,,,,,,,,,,,,,,,,,,
null,,rt_plussign_withcolor2,722286,,,,,,,,blue,,,null,object_07a.png,object_14a.png,,,,,,,,,,,,,,,,,,,,
1254.5999999940395,,rt_thecrossant_black2,723227,,,,,,,,black_plus_sign,,,49,,,1,,,,,,,1,,,,,,,,,,,,
null,,color_black2,723329,,,,,,,,black_plus_sign,,,null,,,,,,,,,,,,,,,,,,,,,,
null,,learn_phase(without_color)2,726833,,,,,,,,black_plus_sign,,,null,object_07b.png,object_07c.png,,,,,,,,,,,,,,,,,,,,
null,,black_cross(without_color)2,727446,,,,,,,,green,,,null,object_07b.png,object_07c.png,,,,,,,,,,,,,,,,,,,,
null,,rt_plussign_withcolor2,727948,,,,,,,,green,,,null,object_07b.png,object_07c.png,,,,,,,,,,,,,,,,,,,,
1404.0999999940395,,rt_thecrossant_black2,729339,,,,,,,,black_plus_sign,,,50,,,1,,,,,,,1,,,,,,,,,,,,
null,,color_black2,729442,,,,,,,,black_plus_sign,,,null,,,,,,,,,,,,,,,,,,,,,,
null,,learn_phase(without_color)2,732947,,,,,,,,black_plus_sign,,,null,object_12c.png,object_15a.png,,,,,,,,,,,,,,,,,,,,
null,,black_cross(without_color)2,733512,,,,,,,,blue,,,null,object_12c.png,object_15a.png,,,,,,,,,,,,,,,,,,,,
null,,rt_plussign_withcolor2,734014,,,,,,,,blue,,,null,object_12c.png,object_15a.png,,,,,,,,,,,,,,,,,,,,
825.1999999880791,,rt_thecrossant_black2,735453,,,,,,,,black_plus_sign,,,49,,,1,,,,,,,1,,,,,,,,,,,,
null,,color_black2,735556,,,,,,,,black_plus_sign,,,null,,,,,,,,,,,,,,,,,,,,,,
null,,learn_phase(without_color)2,739060,,,,,,,,black_plus_sign,,,null,object_04b.png,object_07a.png,,,,,,,,,,,,,,,,,,,,
null,,black_cross(without_color)2,739767,,,,,,,,blue,,,null,object_04b.png,object_07a.png,,,,,,,,,,,,,,,,,,,,
null,,rt_plussign_withcolor2,740268,,,,,,,,blue,,,null,object_04b.png,object_07a.png,,,,,,,,,,,,,,,,,,,,
767.5999999940395,,rt_thecrossant_black2,741568,,,,,,,,black_plus_sign,,,49,,,1,,,,,,,1,,,,,,,,,,,,
null,,color_black2,741673,,,,,,,,black_plus_sign,,,null,,,,,,,,,,,,,,,,,,,,,,
null,,learn_phase(without_color)2,745177,,,,,,,,black_plus_sign,,,null,object_11c.png,object_03c.png,,,,,,,,,,,,,,,,,,,,
null,,black_cross(without_color)2,745695,,,,,,,,green,,,null,object_11c.png,object_03c.png,,,,,,,,,,,,,,,,,,,,
null,,rt_plussign_withcolor2,746197,,,,,,,,green,,,null,object_11c.png,object_03c.png,,,,,,,,,,,,,,,,,,,,
1084.2000000178814,,rt_thecrossant_black2,747686,,,,,,,,black_plus_sign,,,50,,,1,,,,,,,1,,,,,,,,,,,,
null,,color_black2,747789,,,,,,,,black_plus_sign,,,null,,,,,,,,,,,,,,,,,,,,,,
null,,learn_phase(without_color)2,751293,,,,,,,,black_plus_sign,,,null,object_05a.png,object_10b.png,,,,,,,,,,,,,,,,,,,,
null,,black_cross(without_color)2,752087,,,,,,,,green,,,null,object_05a.png,object_10b.png,,,,,,,,,,,,,,,,,,,,
null,,rt_plussign_withcolor2,752588,,,,,,,,green,,,null,object_05a.png,object_10b.png,,,,,,,,,,,,,,,,,,,,
773,,rt_thecrossant_black2,753800,,,,,,,,black_plus_sign,,,50,,,1,,,,,,,1,,,,,,,,,,,,
null,,color_black2,753902,,,,,,,,black_plus_sign,,,null,,,,,,,,,,,,,,,,,,,,,,
null,,learn_phase(without_color)2,757405,,,,,,,,black_plus_sign,,,null,object_04a.png,object_09c.png,,,,,,,,,,,,,,,,,,,,
null,,black_cross(without_color)2,758318,,,,,,,,green,,,null,object_04a.png,object_09c.png,,,,,,,,,,,,,,,,,,,,
null,,rt_plussign_withcolor2,758820,,,,,,,,green,,,null,object_04a.png,object_09c.png,,,,,,,,,,,,,,,,,,,,
953.9000000059605,,rt_thecrossant_black2,759913,,,,,,,,black_plus_sign,,,50,,,1,,,,,,,1,,,,,,,,,,,,
null,,color_black2,760017,,,,,,,,black_plus_sign,,,null,,,,,,,,,,,,,,,,,,,,,,
null,,learn_phase(without_color)2,763520,,,,,,,,black_plus_sign,,,null,object_14c.png,object_08a.png,,,,,,,,,,,,,,,,,,,,
null,,black_cross(without_color)2,764518,,,,,,,,green,,,null,object_14c.png,object_08a.png,,,,,,,,,,,,,,,,,,,,
null,,rt_plussign_withcolor2,765019,,,,,,,,green,,,null,object_14c.png,object_08a.png,,,,,,,,,,,,,,,,,,,,
1094.2999999821186,,rt_thecrossant_black2,766027,,,,,,,,black_plus_sign,,,50,,,1,,,,,,,1,,,,,,,,,,,,
null,,color_black2,766140,,,,,,,,black_plus_sign,,,null,,,,,,,,,,,,,,,,,,,,,,
null,,learn_phase(without_color)2,769643,,,,,,,,black_plus_sign,,,null,object_05b.png,object_01c.png,,,,,,,,,,,,,,,,,,,,
null,,black_cross(without_color)2,770612,,,,,,,,blue,,,null,object_05b.png,object_01c.png,,,,,,,,,,,,,,,,,,,,
null,,rt_plussign_withcolor2,771115,,,,,,,,blue,,,null,object_05b.png,object_01c.png,,,,,,,,,,,,,,,,,,,,
1231.2999999821186,,rt_thecrossant_black2,772153,,,,,,,,black_plus_sign,,,49,,,1,,,,,,,1,,,,,,,,,,,,
null,,color_black2,772255,,,,,,,,black_plus_sign,,,null,,,,,,,,,,,,,,,,,,,,,,
null,,learn_phase(without_color)2,775758,,,,,,,,black_plus_sign,,,null,object_12a.png,object_10a.png,,,,,,,,,,,,,,,,,,,,
null,,black_cross(without_color)2,776743,,,,,,,,blue,,,null,object_12a.png,object_10a.png,,,,,,,,,,,,,,,,,,,,
null,,rt_plussign_withcolor2,777246,,,,,,,,blue,,,null,object_12a.png,object_10a.png,,,,,,,,,,,,,,,,,,,,
1258.2999999821186,,rt_thecrossant_black2,778272,,,,,,,,black_plus_sign,,,49,,,1,,,,,,,1,,,,,,,,,,,,
null,,color_black2,778375,,,,,,,,black_plus_sign,,,null,,,,,,,,,,,,,,,,,,,,,,
null,,learn_phase(without_color)2,781879,,,,,,,,black_plus_sign,,,null,object_02a.png,object_14b.png,,,,,,,,,,,,,,,,,,,,
null,,black_cross(without_color)2,782511,,,,,,,,green,,,null,object_02a.png,object_14b.png,,,,,,,,,,,,,,,,,,,,
null,,rt_plussign_withcolor2,783014,,,,,,,,green,,,null,object_02a.png,object_14b.png,,,,,,,,,,,,,,,,,,,,
1598.4000000059605,,rt_thecrossant_black2,784386,,,,,,,,black_plus_sign,,,50,,,1,,,,,,,1,,,,,,,,,,,,
null,,color_black2,784489,,,,,,,,black_plus_sign,,,null,,,,,,,,,,,,,,,,,,,,,,
null,,learn_phase(without_color)2,787990,,,,,,,,black_plus_sign,,,null,object_05c.png,object_12c.png,,,,,,,,,,,,,,,,,,,,
null,,black_cross(without_color)2,788998,,,,,,,,blue,,,null,object_05c.png,object_12c.png,,,,,,,,,,,,,,,,,,,,
null,,rt_plussign_withcolor2,789500,,,,,,,,blue,,,null,object_05c.png,object_12c.png,,,,,,,,,,,,,,,,,,,,
1054.699999988079,,rt_thecrossant_black2,790498,,,,,,,,black_plus_sign,,,49,,,1,,,,,,,1,,,,,,,,,,,,
null,,color_black2,790600,,,,,,,,black_plus_sign,,,null,,,,,,,,,,,,,,,,,,,,,,
null,,learn_phase(without_color)2,794106,,,,,,,,black_plus_sign,,,null,object_10c.png,object_08b.png,,,,,,,,,,,,,,,,,,,,
null,,black_cross(without_color)2,794612,,,,,,,,blue,,,null,object_10c.png,object_08b.png,,,,,,,,,,,,,,,,,,,,
null,,rt_plussign_withcolor2,795113,,,,,,,,blue,,,null,object_10c.png,object_08b.png,,,,,,,,,,,,,,,,,,,,
1525.7999999821186,,rt_thecrossant_black2,796615,,,,,,,,black_plus_sign,,,49,,,1,,,,,,,1,,,,,,,,,,,,
null,,color_black2,796716,,,,,,,,black_plus_sign,,,null,,,,,,,,,,,,,,,,,,,,,,
null,,learn_phase(without_color)2,800219,,,,,,,,black_plus_sign,,,null,object_11a.png,object_06a.png,,,,,,,,,,,,,,,,,,,,
null,,black_cross(without_color)2,801188,,,,,,,,blue,,,null,object_11a.png,object_06a.png,,,,,,,,,,,,,,,,,,,,
null,,rt_plussign_withcolor2,801689,,,,,,,,blue,,,null,object_11a.png,object_06a.png,,,,,,,,,,,,,,,,,,,,
962,,rt_thecrossant_black2,802727,,,,,,,,black_plus_sign,,,49,,,1,,,,,,,1,,,,,,,,,,,,
null,,color_black2,802829,,,,,,,,black_plus_sign,,,null,,,,,,,,,,,,,,,,,,,,,,
null,,learn_phase(without_color)2,806334,,,,,,,,black_plus_sign,,,null,object_03a.png,object_03b.png,,,,,,,,,,,,,,,,,,,,
null,,black_cross(without_color)2,807050,,,,,,,,blue,,,null,object_03a.png,object_03b.png,,,,,,,,,,,,,,,,,,,,
null,,rt_plussign_withcolor2,807553,,,,,,,,blue,,,null,object_03a.png,object_03b.png,,,,,,,,,,,,,,,,,,,,
1222.2999999821186,,rt_thecrossant_black2,808860,,,,,,,,black_plus_sign,,,49,,,1,,,,,,,1,,,,,,,,,,,,
null,,color_black2,808963,,,,,,,,black_plus_sign,,,null,,,,,,,,,,,,,,,,,,,,,,
null,,learn_phase(without_color)2,812466,,,,,,,,black_plus_sign,,,null,object_13c.png,object_11a.png,,,,,,,,,,,,,,,,,,,,
null,,black_cross(without_color)2,813316,,,,,,,,green,,,null,object_13c.png,object_11a.png,,,,,,,,,,,,,,,,,,,,
null,,rt_plussign_withcolor2,813819,,,,,,,,green,,,null,object_13c.png,object_11a.png,,,,,,,,,,,,,,,,,,,,
1051.699999988079,,rt_thecrossant_black2,814974,,,,,,,,black_plus_sign,,,50,,,1,,,,,,,1,,,,,,,,,,,,
null,,color_black2,815076,,,,,,,,black_plus_sign,,,null,,,,,,,,,,,,,,,,,,,,,,
null,,learn_phase(without_color)2,818581,,,,,,,,black_plus_sign,,,null,object_01a.png,object_04c.png,,,,,,,,,,,,,,,,,,,,
null,,black_cross(without_color)2,819657,,,,,,,,blue,,,null,object_01a.png,object_04c.png,,,,,,,,,,,,,,,,,,,,
null,,rt_plussign_withcolor2,820159,,,,,,,,blue,,,null,object_01a.png,object_04c.png,,,,,,,,,,,,,,,,,,,,
1358.7000000178814,,rt_thecrossant_black2,821087,,,,,,,,black_plus_sign,,,49,,,1,,,,,,,1,,,,,,,,,,,,
null,,color_black2,821192,,,,,,,,black_plus_sign,,,null,,,,,,,,,,,,,,,,,,,,,,
null,,learn_phase(without_color)2,824695,,,,,,,,black_plus_sign,,,null,object_04c.png,object_15b.png,,,,,,,,,,,,,,,,,,,,
null,,black_cross(without_color)2,825654,,,,,,,,green,,,null,object_04c.png,object_15b.png,,,,,,,,,,,,,,,,,,,,
null,,rt_plussign_withcolor2,826156,,,,,,,,green,,,null,object_04c.png,object_15b.png,,,,,,,,,,,,,,,,,,,,
1416.2999999821186,,rt_thecrossant_black2,827203,,,,,,,,black_plus_sign,,,50,,,1,,,,,,,1,,,,,,,,,,,,
null,,color_black2,827307,,,,,,,,black_plus_sign,,,null,,,,,,,,,,,,,,,,,,,,,,
null,,learn_phase(without_color)2,830810,,,,,,,,black_plus_sign,,,null,object_02c.png,object_05b.png,,,,,,,,,,,,,,,,,,,,
null,,black_cross(without_color)2,831361,,,,,,,,green,,,null,object_02c.png,object_05b.png,,,,,,,,,,,,,,,,,,,,
null,,rt_plussign_withcolor2,831875,,,,,,,,green,,,null,object_02c.png,object_05b.png,,,,,,,,,,,,,,,,,,,,
1351.9000000059605,,rt_thecrossant_black2,833329,,,,,,,,black_plus_sign,,,50,,,1,,,,,,,1,,,,,,,,,,,,
null,,color_black2,833431,,,,,,,,black_plus_sign,,,null,,,,,,,,,,,,,,,,,,,,,,
null,,learn_phase(without_color)2,836933,,,,,,,,black_plus_sign,,,null,object_09a.png,object_07b.png,,,,,,,,,,,,,,,,,,,,
null,,black_cross(without_color)2,837600,,,,,,,,green,,,null,object_09a.png,object_07b.png,,,,,,,,,,,,,,,,,,,,
null,,rt_plussign_withcolor2,838102,,,,,,,,green,,,null,object_09a.png,object_07b.png,,,,,,,,,,,,,,,,,,,,
1001.8000000119209,,rt_thecrossant_black2,839440,,,,,,,,black_plus_sign,,,50,,,1,,,,,,,1,,,,,,,,,,,,
null,,color_black2,839543,,,,,,,,black_plus_sign,,,null,,,,,,,,,,,,,,,,,,,,,,
null,,learn_phase(without_color)2,843045,,,,,,,,black_plus_sign,,,null,object_02b.png,object_14c.png,,,,,,,,,,,,,,,,,,,,
null,,black_cross(without_color)2,843530,,,,,,,,green,,,null,object_02b.png,object_14c.png,,,,,,,,,,,,,,,,,,,,
null,,rt_plussign_withcolor2,844032,,,,,,,,green,,,null,object_02b.png,object_14c.png,,,,,,,,,,,,,,,,,,,,
1958.7999999821186,,rt_thecrossant_black2,845552,,,,,,,,black_plus_sign,,,50,,,1,,,,,,,1,,,,,,,,,,,,
null,,color_black2,845655,,,,,,,,black_plus_sign,,,null,,,,,,,,,,,,,,,,,,,,,,
null,,learn_phase(without_color)2,849158,,,,,,,,black_plus_sign,,,null,object_12b.png,object_10c.png,,,,,,,,,,,,,,,,,,,,
null,,black_cross(without_color)2,849594,,,,,,,,green,,,null,object_12b.png,object_10c.png,,,,,,,,,,,,,,,,,,,,
null,,rt_plussign_withcolor2,850096,,,,,,,,green,,,null,object_12b.png,object_10c.png,,,,,,,,,,,,,,,,,,,,
956.4000000059605,,rt_thecrossant_black2,851665,,,,,,,,black_plus_sign,,,50,,,1,,,,,,,1,,,,,,,,,,,,
null,,color_black2,851768,,,,,,,,black_plus_sign,,,null,,,,,,,,,,,,,,,,,,,,,,
null,,learn_phase(without_color)2,855272,,,,,,,,black_plus_sign,,,null,object_08c.png,object_04a.png,,,,,,,,,,,,,,,,,,,,
null,,black_cross(without_color)2,855933,,,,,,,,blue,,,null,object_08c.png,object_04a.png,,,,,,,,,,,,,,,,,,,,
null,,rt_plussign_withcolor2,856435,,,,,,,,blue,,,null,object_08c.png,object_04a.png,,,,,,,,,,,,,,,,,,,,
822,,rt_thecrossant_black2,857782,,,,,,,,black_plus_sign,,,49,,,1,,,,,,,1,,,,,,,,,,,,
null,,color_black2,857887,,,,,,,,black_plus_sign,,,null,,,,,,,,,,,,,,,,,,,,,,
null,,learn_phase(without_color)2,861391,,,,,,,,black_plus_sign,,,null,object_03b.png,object_11b.png,,,,,,,,,,,,,,,,,,,,
null,,black_cross(without_color)2,862165,,,,,,,,green,,,null,object_03b.png,object_11b.png,,,,,,,,,,,,,,,,,,,,
null,,rt_plussign_withcolor2,862668,,,,,,,,green,,,null,object_03b.png,object_11b.png,,,,,,,,,,,,,,,,,,,,
837.5999999940395,,rt_thecrossant_black2,863900,,,,,,,,black_plus_sign,,,50,,,1,,,,,,,1,,,,,,,,,,,,
null,,color_black2,864003,,,,,,,,black_plus_sign,,,null,,,,,,,,,,,,,,,,,,,,,,
null,,learn_phase(without_color)2,867507,,,,,,,,black_plus_sign,,,null,object_13b.png,object_11c.png,,,,,,,,,,,,,,,,,,,,
null,,black_cross(without_color)2,868242,,,,,,,,green,,,null,object_13b.png,object_11c.png,,,,,,,,,,,,,,,,,,,,
null,,rt_plussign_withcolor2,868744,,,,,,,,green,,,null,object_13b.png,object_11c.png,,,,,,,,,,,,,,,,,,,,
1180.5,,rt_thecrossant_black2,870025,,,,,,,,black_plus_sign,,,50,,,1,,,,,,,1,,,,,,,,,,,,
null,,color_black2,870128,,,,,,,,black_plus_sign,,,null,,,,,,,,,,,,,,,,,,,,,,
null,,learn_phase(without_color)2,873631,,,,,,,,black_plus_sign,,,null,object_01b.png,object_06c.png,,,,,,,,,,,,,,,,,,,,
null,,black_cross(without_color)2,874458,,,,,,,,green,,,null,object_01b.png,object_06c.png,,,,,,,,,,,,,,,,,,,,
null,,rt_plussign_withcolor2,874960,,,,,,,,green,,,null,object_01b.png,object_06c.png,,,,,,,,,,,,,,,,,,,,
1238.5,,rt_thecrossant_black2,876139,,,,,,,,black_plus_sign,,,50,,,1,,,,,,,1,,,,,,,,,,,,
null,,color_black2,876241,,,,,,,,black_plus_sign,,,null,,,,,,,,,,,,,,,,,,,,,,
null,,learn_phase(without_color)2,879746,,,,,,,,black_plus_sign,,,null,object_13a.png,object_12a.png,,,,,,,,,,,,,,,,,,,,
null,,black_cross(without_color)2,880831,,,,,,,,green,,,null,object_13a.png,object_12a.png,,,,,,,,,,,,,,,,,,,,
null,,rt_plussign_withcolor2,881333,,,,,,,,green,,,null,object_13a.png,object_12a.png,,,,,,,,,,,,,,,,,,,,
1247,,rt_thecrossant_black2,882255,,,,,,,,black_plus_sign,,,50,,,1,,,,,,,1,,,,,,,,,,,,
null,,color_black2,882359,,,,,,,,black_plus_sign,,,null,,,,,,,,,,,,,,,,,,,,,,
null,,learn_phase(without_color)2,885863,,,,,,,,black_plus_sign,,,null,object_06b.png,object_02a.png,,,,,,,,,,,,,,,,,,,,
null,,black_cross(without_color)2,886647,,,,,,,,blue,,,null,object_06b.png,object_02a.png,,,,,,,,,,,,,,,,,,,,
null,,rt_plussign_withcolor2,887149,,,,,,,,blue,,,null,object_06b.png,object_02a.png,,,,,,,,,,,,,,,,,,,,
1556.5999999940395,,rt_thecrossant_black2,888376,,,,,,,,black_plus_sign,,,49,,,1,,,,,,,1,,,,,,,,,,,,
null,,color_black2,888480,,,,,,,,black_plus_sign,,,null,,,,,,,,,,,,,,,,,,,,,,
null,,thebreak,888583,,,,,,,,<p></p>,,,null,,,,,,,,,,,,,,,,,,,,,,
1298.699999988079,,intro_0,889884,,,,,,,,instruct,,,32,,,,,,,,,,,,,,,,,,,,,,
3257.199999988079,,directmemory_phase2,893142,,,,,,,,object_07a.png,,,50,,,1,,object_05c.png,object_04b.png,object_08c.png,object_04b.png,,0.4838709677419355,1,,,,,,,,,,,
2862,,directmemory_phase2,896006,,,,,,,,object_11a.png,,,51,,,1,,object_12b.png,object_02c.png,object_13c.png,object_13c.png,,0.5,1,,,,,,,,,,,
2937.5,,directmemory_phase2,898946,,,,,,,,object_12a.png,,,50,,,0,,object_13a.png,object_05c.png,object_01a.png,object_13a.png,,0.48484848484848486,0,,,,,,,,,,,
3544.7000000178814,,directmemory_phase2,902493,,,,,,,,object_15b.png,,,51,,,0,,object_04c.png,object_05a.png,object_02a.png,object_04c.png,,0.47058823529411764,0,,,,,,,,,,,
3962.9000000059605,,directmemory_phase2,906459,,,,,,,,object_03b.png,,,50,,,1,,object_12b.png,object_03a.png,object_05c.png,object_03a.png,,0.4857142857142857,1,,,,,,,,,,,
1884.5999999940395,,directmemory_phase2,908347,,,,,,,,object_15a.png,,,49,,,0,,object_04a.png,object_14c.png,object_12c.png,object_12c.png,,0.4722222222222222,0,,,,,,,,,,,
2831.100000023842,,directmemory_phase2,911180,,,,,,,,object_08b.png,,,49,,,1,,object_10c.png,object_04c.png,object_04a.png,object_10c.png,,0.4864864864864865,1,,,,,,,,,,,
4633.5999999940395,,directmemory_phase2,915815,,,,,,,,object_01c.png,,,51,,,0,,object_07a.png,object_05b.png,object_04a.png,object_05b.png,,0.47368421052631576,0,,,,,,,,,,,
4132.5999999940395,,directmemory_phase2,919950,,,,,,,,object_11c.png,,,51,,,0,,object_13b.png,object_09b.png,object_01b.png,object_13b.png,,0.46153846153846156,0,,,,,,,,,,,
3463.0999999940395,,directmemory_phase2,923415,,,,,,,,object_05a.png,,,50,,,1,,object_05c.png,object_09b.png,object_01b.png,object_09b.png,,0.475,1,,,,,,,,,,,
2333.5,,directmemory_phase2,925750,,,,,,,,object_15c.png,,,50,,,1,,object_07a.png,object_06c.png,object_03b.png,object_06c.png,,0.4878048780487805,1,,,,,,,,,,,
3411.5,,directmemory_phase2,929165,,,,,,,,object_14c.png,,,49,,,0,,object_13c.png,object_02b.png,object_02c.png,object_02b.png,,0.47619047619047616,0,,,,,,,,,,,
2581.5999999940395,,directmemory_phase2,931750,,,,,,,,object_04a.png,,,49,,,1,,object_08c.png,object_06b.png,object_09b.png,object_08c.png,,0.4883720930232558,1,,,,,,,,,,,
5064.300000011921,,directmemory_phase2,936816,,,,,,,,object_10c.png,,,49,,,0,,object_02c.png,object_04b.png,object_12b.png,object_12b.png,,0.4772727272727273,0,,,,,,,,,,,
4748,,directmemory_phase2,941567,,,,,,,,object_12c.png,,,50,,,0,,object_04b.png,object_12b.png,object_05c.png,object_05c.png,,0.4666666666666667,0,,,,,,,,,,,
4784,,directmemory_phase2,946356,,,,,,,,object_02a.png,,,50,,,1,,object_02b.png,object_06b.png,object_02c.png,object_06b.png,,0.4782608695652174,1,,,,,,,,,,,
2961.2999999821186,,directmemory_phase2,949320,,,,,,,,object_08a.png,,,51,,,0,,object_14c.png,object_12c.png,object_02a.png,object_14c.png,,0.46808510638297873,0,,,,,,,,,,,
3897.5999999940395,,directmemory_phase2,953219,,,,,,,,object_14b.png,,,49,,,0,,object_05b.png,object_03b.png,object_02a.png,object_02a.png,,0.4583333333333333,0,,,,,,,,,,,
6619.799999982119,,directmemory_phase2,959840,,,,,,,,object_14a.png,,,51,,,0,,object_05a.png,object_07a.png,object_06c.png,object_07a.png,,0.4489795918367347,0,,,,,,,,,,,
2426.4000000059605,,directmemory_phase2,962268,,,,,,,,object_03c.png,,,49,,,1,,object_11c.png,object_04c.png,object_11a.png,object_11c.png,,0.46,1,,,,,,,,,,,
3810.2000000178814,,directmemory_phase2,966080,,,,,,,,object_10b.png,,,50,,,0,,object_05a.png,object_07a.png,object_04a.png,object_05a.png,,0.45098039215686275,0,,,,,,,,,,,
5744.4000000059605,,directmemory_phase2,971826,,,,,,,,object_06a.png,,,51,,,0,,object_12a.png,object_11a.png,object_10c.png,object_11a.png,,0.4423076923076923,0,,,,,,,,,,,
3272.5,,directmemory_phase2,975101,,,,,,,,object_07c.png,,,49,,,1,,object_07b.png,object_12a.png,object_04a.png,object_07b.png,,0.4528301886792453,1,,,,,,,,,,,
2445.699999988079,,directmemory_phase2,977548,,,,,,,,object_09c.png,,,50,,,0,,object_04a.png,object_07a.png,object_05a.png,object_04a.png,,0.4444444444444444,0,,,,,,,,,,,
3516.2000000178814,,directmemory_phase2,981067,,,,,,,,object_11b.png,,,49,,,0,,object_02a.png,object_11a.png,object_03b.png,object_03b.png,,0.43636363636363634,0,,,,,,,,,,,
11600.90000000596,,directmemory_phase2,992670,,,,,,,,object_06c.png,,,51,,,0,,object_01b.png,object_03a.png,object_02c.png,object_01b.png,,0.42857142857142855,0,,,,,,,,,,,
1566.699999988079,,directmemory_phase2,994239,,,,,,,,object_05b.png,,,49,,,0,,object_05c.png,object_13c.png,object_02c.png,object_02c.png,,0.42105263157894735,0,,,,,,,,,,,
3373.4000000059605,,directmemory_phase2,997617,,,,,,,,object_10a.png,,,50,,,0,,object_03b.png,object_06c.png,object_12a.png,object_12a.png,,0.41379310344827586,0,,,,,,,,,,,
2530.0999999940395,,directmemory_phase2,1000149,,,,,,,,object_04c.png,,,50,,,0,,object_01a.png,object_09b.png,object_12b.png,object_01a.png,,0.4067796610169492,0,,,,,,,,,,,
2335.7000000178814,,directmemory_phase2,1002488,,,,,,,,object_07b.png,,,49,,,1,,object_09a.png,object_02b.png,object_05c.png,object_09a.png,,0.4166666666666667,1,,,,,,,,,,,
null,,thebreak,1002592,,,,,,,,<p></p>,,,null,,,,,,,,,,,,,,,,,,,,,,
1093.7000000178814,,intro_0,1003688,,,,,,,,instruct,,,32,,,,,,,,,,,,,,,,,,,,,,
null,,learn_phase(without_color)3,1007194,,,,,,,,black_plus_sign,,,null,object_07b.png,object_07c.png,,,,,,,,,,,,,,,,,,,,
null,,black_cross(without_color)3,1008268,,,,,,,,green,,,null,object_07b.png,object_07c.png,,,,,,,,,,,,,,,,,,,,
null,,rt_plussign_withcolor3,1008782,,,,,,,,green,,,null,object_07b.png,object_07c.png,,,,,,,,,,,,,,,,,,,,
1220.5,,rt_thecrossant_black3,1009714,,,,,,,,black_plus_sign,,,50,,,1,,,,,,,1,,,,,,,,,,,,
null,,color_black3,1009817,,,,,,,,black_plus_sign,,,null,,,,,,,,,,,,,,,,,,,,,,
null,,learn_phase(without_color)3,1013331,,,,,,,,black_plus_sign,,,null,object_06c.png,object_15c.png,,,,,,,,,,,,,,,,,,,,
null,,black_cross(without_color)3,1013840,,,,,,,,blue,,,null,object_06c.png,object_15c.png,,,,,,,,,,,,,,,,,,,,
null,,rt_plussign_withcolor3,1014343,,,,,,,,blue,,,null,object_06c.png,object_15c.png,,,,,,,,,,,,,,,,,,,,
1184.2999999821186,,rt_thecrossant_black3,1015839,,,,,,,,black_plus_sign,,,49,,,1,,,,,,,1,,,,,,,,,,,,
null,,color_black3,1015944,,,,,,,,black_plus_sign,,,null,,,,,,,,,,,,,,,,,,,,,,
null,,learn_phase(without_color)3,1019447,,,,,,,,black_plus_sign,,,null,object_03b.png,object_11b.png,,,,,,,,,,,,,,,,,,,,
null,,black_cross(without_color)3,1020131,,,,,,,,blue,,,null,object_03b.png,object_11b.png,,,,,,,,,,,,,,,,,,,,
null,,rt_plussign_withcolor3,1020633,,,,,,,,blue,,,null,object_03b.png,object_11b.png,,,,,,,,,,,,,,,,,,,,
699,,rt_thecrossant_black3,1021955,,,,,,,,black_plus_sign,,,49,,,1,,,,,,,1,,,,,,,,,,,,
null,,color_black3,1022059,,,,,,,,black_plus_sign,,,null,,,,,,,,,,,,,,,,,,,,,,
null,,learn_phase(without_color)3,1025563,,,,,,,,black_plus_sign,,,null,object_14c.png,object_08a.png,,,,,,,,,,,,,,,,,,,,
null,,black_cross(without_color)3,1026185,,,,,,,,blue,,,null,object_14c.png,object_08a.png,,,,,,,,,,,,,,,,,,,,
null,,rt_plussign_withcolor3,1026687,,,,,,,,blue,,,null,object_14c.png,object_08a.png,,,,,,,,,,,,,,,,,,,,
841.7999999821186,,rt_thecrossant_black3,1028070,,,,,,,,black_plus_sign,,,49,,,1,,,,,,,1,,,,,,,,,,,,
null,,color_black3,1028172,,,,,,,,black_plus_sign,,,null,,,,,,,,,,,,,,,,,,,,,,
null,,learn_phase(without_color)3,1031676,,,,,,,,black_plus_sign,,,null,object_02b.png,object_14c.png,,,,,,,,,,,,,,,,,,,,
null,,black_cross(without_color)3,1032218,,,,,,,,green,,,null,object_02b.png,object_14c.png,,,,,,,,,,,,,,,,,,,,
null,,rt_plussign_withcolor3,1032720,,,,,,,,green,,,null,object_02b.png,object_14c.png,,,,,,,,,,,,,,,,,,,,
797.3000000119209,,rt_thecrossant_black3,1034185,,,,,,,,black_plus_sign,,,50,,,1,,,,,,,1,,,,,,,,,,,,
null,,color_black3,1034288,,,,,,,,black_plus_sign,,,null,,,,,,,,,,,,,,,,,,,,,,
null,,learn_phase(without_color)3,1037794,,,,,,,,black_plus_sign,,,null,object_12b.png,object_10c.png,,,,,,,,,,,,,,,,,,,,
null,,black_cross(without_color)3,1038812,,,,,,,,green,,,null,object_12b.png,object_10c.png,,,,,,,,,,,,,,,,,,,,
null,,rt_plussign_withcolor3,1039314,,,,,,,,green,,,null,object_12b.png,object_10c.png,,,,,,,,,,,,,,,,,,,,
819.2000000178814,,rt_thecrossant_black3,1040300,,,,,,,,black_plus_sign,,,50,,,1,,,,,,,1,,,,,,,,,,,,
null,,color_black3,1040402,,,,,,,,black_plus_sign,,,null,,,,,,,,,,,,,,,,,,,,,,
null,,learn_phase(without_color)3,1043904,,,,,,,,black_plus_sign,,,null,object_01a.png,object_04c.png,,,,,,,,,,,,,,,,,,,,
null,,black_cross(without_color)3,1044427,,,,,,,,green,,,null,object_01a.png,object_04c.png,,,,,,,,,,,,,,,,,,,,
null,,rt_plussign_withcolor3,1044929,,,,,,,,green,,,null,object_01a.png,object_04c.png,,,,,,,,,,,,,,,,,,,,
1289,,rt_thecrossant_black3,1046412,,,,,,,,black_plus_sign,,,50,,,1,,,,,,,1,,,,,,,,,,,,
null,,color_black3,1046514,,,,,,,,black_plus_sign,,,null,,,,,,,,,,,,,,,,,,,,,,
null,,learn_phase(without_color)3,1050016,,,,,,,,black_plus_sign,,,null,object_11c.png,object_03c.png,,,,,,,,,,,,,,,,,,,,
null,,black_cross(without_color)3,1050634,,,,,,,,green,,,null,object_11c.png,object_03c.png,,,,,,,,,,,,,,,,,,,,
null,,rt_plussign_withcolor3,1051137,,,,,,,,green,,,null,object_11c.png,object_03c.png,,,,,,,,,,,,,,,,,,,,
732,,rt_thecrossant_black3,1052525,,,,,,,,black_plus_sign,,,50,,,1,,,,,,,1,,,,,,,,,,,,
null,,color_black3,1052627,,,,,,,,black_plus_sign,,,null,,,,,,,,,,,,,,,,,,,,,,
null,,learn_phase(without_color)3,1056129,,,,,,,,black_plus_sign,,,null,object_05c.png,object_12c.png,,,,,,,,,,,,,,,,,,,,
null,,black_cross(without_color)3,1056907,,,,,,,,blue,,,null,object_05c.png,object_12c.png,,,,,,,,,,,,,,,,,,,,
null,,rt_plussign_withcolor3,1057409,,,,,,,,blue,,,null,object_05c.png,object_12c.png,,,,,,,,,,,,,,,,,,,,
854.5999999940395,,rt_thecrossant_black3,1058649,,,,,,,,black_plus_sign,,,49,,,1,,,,,,,1,,,,,,,,,,,,
null,,color_black3,1058758,,,,,,,,black_plus_sign,,,null,,,,,,,,,,,,,,,,,,,,,,
null,,learn_phase(without_color)3,1062261,,,,,,,,black_plus_sign,,,null,object_04c.png,object_15b.png,,,,,,,,,,,,,,,,,,,,
null,,black_cross(without_color)3,1062790,,,,,,,,green,,,null,object_04c.png,object_15b.png,,,,,,,,,,,,,,,,,,,,
null,,rt_plussign_withcolor3,1063291,,,,,,,,green,,,null,object_04c.png,object_15b.png,,,,,,,,,,,,,,,,,,,,
1032,,rt_thecrossant_black3,1064767,,,,,,,,black_plus_sign,,,50,,,1,,,,,,,1,,,,,,,,,,,,
null,,color_black3,1064885,,,,,,,,black_plus_sign,,,null,,,,,,,,,,,,,,,,,,,,,,
null,,learn_phase(without_color)3,1068388,,,,,,,,black_plus_sign,,,null,object_12c.png,object_15a.png,,,,,,,,,,,,,,,,,,,,
null,,black_cross(without_color)3,1069059,,,,,,,,green,,,null,object_12c.png,object_15a.png,,,,,,,,,,,,,,,,,,,,
null,,rt_plussign_withcolor3,1069560,,,,,,,,green,,,null,object_12c.png,object_15a.png,,,,,,,,,,,,,,,,,,,,
789.7000000178814,,rt_thecrossant_black3,1070895,,,,,,,,black_plus_sign,,,50,,,1,,,,,,,1,,,,,,,,,,,,
null,,color_black3,1070997,,,,,,,,black_plus_sign,,,null,,,,,,,,,,,,,,,,,,,,,,
null,,learn_phase(without_color)3,1074501,,,,,,,,black_plus_sign,,,null,object_07a.png,object_14a.png,,,,,,,,,,,,,,,,,,,,
null,,black_cross(without_color)3,1075061,,,,,,,,blue,,,null,object_07a.png,object_14a.png,,,,,,,,,,,,,,,,,,,,
null,,rt_plussign_withcolor3,1075563,,,,,,,,blue,,,null,object_07a.png,object_14a.png,,,,,,,,,,,,,,,,,,,,
900.4000000059605,,rt_thecrossant_black3,1077008,,,,,,,,black_plus_sign,,,49,,,1,,,,,,,1,,,,,,,,,,,,
null,,color_black3,1077121,,,,,,,,black_plus_sign,,,null,,,,,,,,,,,,,,,,,,,,,,
null,,learn_phase(without_color)3,1080624,,,,,,,,black_plus_sign,,,null,object_02a.png,object_14b.png,,,,,,,,,,,,,,,,,,,,
null,,black_cross(without_color)3,1081448,,,,,,,,green,,,null,object_02a.png,object_14b.png,,,,,,,,,,,,,,,,,,,,
null,,rt_plussign_withcolor3,1081950,,,,,,,,green,,,null,object_02a.png,object_14b.png,,,,,,,,,,,,,,,,,,,,
925.5999999940395,,rt_thecrossant_black3,1083131,,,,,,,,black_plus_sign,,,50,,,1,,,,,,,1,,,,,,,,,,,,
null,,color_black3,1083234,,,,,,,,black_plus_sign,,,null,,,,,,,,,,,,,,,,,,,,,,
null,,learn_phase(without_color)3,1086738,,,,,,,,black_plus_sign,,,null,object_05a.png,object_10b.png,,,,,,,,,,,,,,,,,,,,
null,,black_cross(without_color)3,1087766,,,,,,,,green,,,null,object_05a.png,object_10b.png,,,,,,,,,,,,,,,,,,,,
null,,rt_plussign_withcolor3,1088268,,,,,,,,green,,,null,object_05a.png,object_10b.png,,,,,,,,,,,,,,,,,,,,
1000.2000000178814,,rt_thecrossant_black3,1089246,,,,,,,,black_plus_sign,,,50,,,1,,,,,,,1,,,,,,,,,,,,
null,,color_black3,1089348,,,,,,,,black_plus_sign,,,null,,,,,,,,,,,,,,,,,,,,,,
null,,learn_phase(without_color)3,1092851,,,,,,,,black_plus_sign,,,null,object_09a.png,object_07b.png,,,,,,,,,,,,,,,,,,,,
null,,black_cross(without_color)3,1093504,,,,,,,,green,,,null,object_09a.png,object_07b.png,,,,,,,,,,,,,,,,,,,,
null,,rt_plussign_withcolor3,1094007,,,,,,,,green,,,null,object_09a.png,object_07b.png,,,,,,,,,,,,,,,,,,,,
1284,,rt_thecrossant_black3,1095361,,,,,,,,black_plus_sign,,,50,,,1,,,,,,,1,,,,,,,,,,,,
null,,color_black3,1095462,,,,,,,,black_plus_sign,,,null,,,,,,,,,,,,,,,,,,,,,,
null,,learn_phase(without_color)3,1098965,,,,,,,,black_plus_sign,,,null,object_11a.png,object_06a.png,,,,,,,,,,,,,,,,,,,,
null,,black_cross(without_color)3,1099964,,,,,,,,blue,,,null,object_11a.png,object_06a.png,,,,,,,,,,,,,,,,,,,,
null,,rt_plussign_withcolor3,1100466,,,,,,,,blue,,,null,object_11a.png,object_06a.png,,,,,,,,,,,,,,,,,,,,
763.6000000238419,,rt_thecrossant_black3,1101473,,,,,,,,black_plus_sign,,,49,,,1,,,,,,,1,,,,,,,,,,,,
null,,color_black3,1101576,,,,,,,,black_plus_sign,,,null,,,,,,,,,,,,,,,,,,,,,,
null,,learn_phase(without_color)3,1105079,,,,,,,,black_plus_sign,,,null,object_12a.png,object_10a.png,,,,,,,,,,,,,,,,,,,,
null,,black_cross(without_color)3,1105917,,,,,,,,green,,,null,object_12a.png,object_10a.png,,,,,,,,,,,,,,,,,,,,
null,,rt_plussign_withcolor3,1106421,,,,,,,,green,,,null,object_12a.png,object_10a.png,,,,,,,,,,,,,,,,,,,,
1283.1000000238419,,rt_thecrossant_black3,1107592,,,,,,,,black_plus_sign,,,50,,,1,,,,,,,1,,,,,,,,,,,,
null,,color_black3,1107696,,,,,,,,black_plus_sign,,,null,,,,,,,,,,,,,,,,,,,,,,
null,,learn_phase(without_color)3,1111200,,,,,,,,black_plus_sign,,,null,object_08c.png,object_04a.png,,,,,,,,,,,,,,,,,,,,
null,,black_cross(without_color)3,1111639,,,,,,,,green,,,null,object_08c.png,object_04a.png,,,,,,,,,,,,,,,,,,,,
null,,rt_plussign_withcolor3,1112141,,,,,,,,green,,,null,object_08c.png,object_04a.png,,,,,,,,,,,,,,,,,,,,
1032.2000000178814,,rt_thecrossant_black3,1113707,,,,,,,,black_plus_sign,,,50,,,1,,,,,,,1,,,,,,,,,,,,
null,,color_black3,1113809,,,,,,,,black_plus_sign,,,null,,,,,,,,,,,,,,,,,,,,,,
null,,learn_phase(without_color)3,1117316,,,,,,,,black_plus_sign,,,null,object_13a.png,object_12a.png,,,,,,,,,,,,,,,,,,,,
null,,black_cross(without_color)3,1117719,,,,,,,,green,,,null,object_13a.png,object_12a.png,,,,,,,,,,,,,,,,,,,,
null,,rt_plussign_withcolor3,1118222,,,,,,,,green,,,null,object_13a.png,object_12a.png,,,,,,,,,,,,,,,,,,,,
566.0999999940395,,rt_thecrossant_black3,1119823,,,,,,,,black_plus_sign,,,50,,,1,,,,,,,1,,,,,,,,,,,,
null,,color_black3,1119924,,,,,,,,black_plus_sign,,,null,,,,,,,,,,,,,,,,,,,,,,
null,,learn_phase(without_color)3,1123427,,,,,,,,black_plus_sign,,,null,object_13b.png,object_11c.png,,,,,,,,,,,,,,,,,,,,
null,,black_cross(without_color)3,1124525,,,,,,,,green,,,null,object_13b.png,object_11c.png,,,,,,,,,,,,,,,,,,,,
null,,rt_plussign_withcolor3,1125028,,,,,,,,green,,,null,object_13b.png,object_11c.png,,,,,,,,,,,,,,,,,,,,
506.69999998807907,,rt_thecrossant_black3,1125934,,,,,,,,black_plus_sign,,,50,,,1,,,,,,,1,,,,,,,,,,,,
null,,color_black3,1126037,,,,,,,,black_plus_sign,,,null,,,,,,,,,,,,,,,,,,,,,,
null,,learn_phase(without_color)3,1129540,,,,,,,,black_plus_sign,,,null,object_13c.png,object_11a.png,,,,,,,,,,,,,,,,,,,,
null,,black_cross(without_color)3,1130195,,,,,,,,blue,,,null,object_13c.png,object_11a.png,,,,,,,,,,,,,,,,,,,,
null,,rt_plussign_withcolor3,1130698,,,,,,,,blue,,,null,object_13c.png,object_11a.png,,,,,,,,,,,,,,,,,,,,
1215.800000011921,,rt_thecrossant_black3,1132047,,,,,,,,black_plus_sign,,,49,,,1,,,,,,,1,,,,,,,,,,,,
null,,color_black3,1132149,,,,,,,,black_plus_sign,,,null,,,,,,,,,,,,,,,,,,,,,,
null,,learn_phase(without_color)3,1135652,,,,,,,,black_plus_sign,,,null,object_04b.png,object_07a.png,,,,,,,,,,,,,,,,,,,,
null,,black_cross(without_color)3,1136270,,,,,,,,blue,,,null,object_04b.png,object_07a.png,,,,,,,,,,,,,,,,,,,,
null,,rt_plussign_withcolor3,1136773,,,,,,,,blue,,,null,object_04b.png,object_07a.png,,,,,,,,,,,,,,,,,,,,
816.9000000059605,,rt_thecrossant_black3,1138159,,,,,,,,black_plus_sign,,,49,,,1,,,,,,,1,,,,,,,,,,,,
null,,color_black3,1138262,,,,,,,,black_plus_sign,,,null,,,,,,,,,,,,,,,,,,,,,,
null,,learn_phase(without_color)3,1141765,,,,,,,,black_plus_sign,,,null,object_02c.png,object_05b.png,,,,,,,,,,,,,,,,,,,,
null,,black_cross(without_color)3,1142839,,,,,,,,green,,,null,object_02c.png,object_05b.png,,,,,,,,,,,,,,,,,,,,
null,,rt_plussign_withcolor3,1143341,,,,,,,,green,,,null,object_02c.png,object_05b.png,,,,,,,,,,,,,,,,,,,,
885.5999999940395,,rt_thecrossant_black3,1144273,,,,,,,,black_plus_sign,,,50,,,1,,,,,,,1,,,,,,,,,,,,
null,,color_black3,1144375,,,,,,,,black_plus_sign,,,null,,,,,,,,,,,,,,,,,,,,,,
null,,learn_phase(without_color)3,1147879,,,,,,,,black_plus_sign,,,null,object_09b.png,object_05a.png,,,,,,,,,,,,,,,,,,,,
null,,black_cross(without_color)3,1148891,,,,,,,,blue,,,null,object_09b.png,object_05a.png,,,,,,,,,,,,,,,,,,,,
null,,rt_plussign_withcolor3,1149395,,,,,,,,blue,,,null,object_09b.png,object_05a.png,,,,,,,,,,,,,,,,,,,,
1224.9000000059605,,rt_thecrossant_black3,1150394,,,,,,,,black_plus_sign,,,49,,,1,,,,,,,1,,,,,,,,,,,,
null,,color_black3,1150496,,,,,,,,black_plus_sign,,,null,,,,,,,,,,,,,,,,,,,,,,
null,,learn_phase(without_color)3,1154015,,,,,,,,black_plus_sign,,,null,object_01b.png,object_06c.png,,,,,,,,,,,,,,,,,,,,
null,,black_cross(without_color)3,1155058,,,,,,,,blue,,,null,object_01b.png,object_06c.png,,,,,,,,,,,,,,,,,,,,
null,,rt_plussign_withcolor3,1155560,,,,,,,,blue,,,null,object_01b.png,object_06c.png,,,,,,,,,,,,,,,,,,,,
1281.7000000178814,,rt_thecrossant_black3,1156524,,,,,,,,black_plus_sign,,,49,,,1,,,,,,,1,,,,,,,,,,,,
null,,color_black3,1156627,,,,,,,,black_plus_sign,,,null,,,,,,,,,,,,,,,,,,,,,,
null,,learn_phase(without_color)3,1160129,,,,,,,,black_plus_sign,,,null,object_06b.png,object_02a.png,,,,,,,,,,,,,,,,,,,,
null,,black_cross(without_color)3,1160720,,,,,,,,green,,,null,object_06b.png,object_02a.png,,,,,,,,,,,,,,,,,,,,
null,,rt_plussign_withcolor3,1161223,,,,,,,,green,,,null,object_06b.png,object_02a.png,,,,,,,,,,,,,,,,,,,,
1289.300000011921,,rt_thecrossant_black3,1162654,,,,,,,,black_plus_sign,,,50,,,1,,,,,,,1,,,,,,,,,,,,
null,,color_black3,1162757,,,,,,,,black_plus_sign,,,null,,,,,,,,,,,,,,,,,,,,,,
null,,learn_phase(without_color)3,1166261,,,,,,,,black_plus_sign,,,null,object_10c.png,object_08b.png,,,,,,,,,,,,,,,,,,,,
null,,black_cross(without_color)3,1167325,,,,,,,,green,,,null,object_10c.png,object_08b.png,,,,,,,,,,,,,,,,,,,,
null,,rt_plussign_withcolor3,1167826,,,,,,,,green,,,null,object_10c.png,object_08b.png,,,,,,,,,,,,,,,,,,,,
922.9000000059605,,rt_thecrossant_black3,1168768,,,,,,,,black_plus_sign,,,50,,,1,,,,,,,1,,,,,,,,,,,,
null,,color_black3,1168871,,,,,,,,black_plus_sign,,,null,,,,,,,,,,,,,,,,,,,,,,
null,,learn_phase(without_color)3,1172375,,,,,,,,black_plus_sign,,,null,object_03a.png,object_03b.png,,,,,,,,,,,,,,,,,,,,
null,,black_cross(without_color)3,1173215,,,,,,,,green,,,null,object_03a.png,object_03b.png,,,,,,,,,,,,,,,,,,,,
null,,rt_plussign_withcolor3,1173717,,,,,,,,green,,,null,object_03a.png,object_03b.png,,,,,,,,,,,,,,,,,,,,
1219.800000011921,,rt_thecrossant_black3,1174899,,,,,,,,black_plus_sign,,,50,,,1,,,,,,,1,,,,,,,,,,,,
null,,color_black3,1175002,,,,,,,,black_plus_sign,,,null,,,,,,,,,,,,,,,,,,,,,,
null,,learn_phase(without_color)3,1178506,,,,,,,,black_plus_sign,,,null,object_04a.png,object_09c.png,,,,,,,,,,,,,,,,,,,,
null,,black_cross(without_color)3,1179479,,,,,,,,green,,,null,object_04a.png,object_09c.png,,,,,,,,,,,,,,,,,,,,
null,,rt_plussign_withcolor3,1179981,,,,,,,,green,,,null,object_04a.png,object_09c.png,,,,,,,,,,,,,,,,,,,,
1042.4000000059605,,rt_thecrossant_black3,1181013,,,,,,,,black_plus_sign,,,50,,,1,,,,,,,1,,,,,,,,,,,,
null,,color_black3,1181115,,,,,,,,black_plus_sign,,,null,,,,,,,,,,,,,,,,,,,,,,
null,,learn_phase(without_color)3,1184618,,,,,,,,black_plus_sign,,,null,object_05b.png,object_01c.png,,,,,,,,,,,,,,,,,,,,
null,,black_cross(without_color)3,1185143,,,,,,,,green,,,null,object_05b.png,object_01c.png,,,,,,,,,,,,,,,,,,,,
null,,rt_plussign_withcolor3,1185645,,,,,,,,green,,,null,object_05b.png,object_01c.png,,,,,,,,,,,,,,,,,,,,
1083.699999988079,,rt_thecrossant_black3,1187125,,,,,,,,black_plus_sign,,,50,,,1,,,,,,,1,,,,,,,,,,,,
null,,color_black3,1187227,,,,,,,,black_plus_sign,,,null,,,,,,,,,,,,,,,,,,,,,,
null,,thebreak,1187331,,,,,,,,<p></p>,,,null,,,,,,,,,,,,,,,,,,,,,,
846.7000000178814,,intro_0,1188180,,,,,,,,instruct,,,32,,,,,,,,,,,,,,,,,,,,,,
4674.299999982119,,directmemory_phase3,1192857,,,,,,,,object_07a.png,,,51,,,0,,object_04b.png,object_05c.png,object_01b.png,object_04b.png,,0.4098360655737705,0,,,,,,,,,,,
3633.2000000178814,,directmemory_phase3,1196493,,,,,,,,object_15b.png,,,51,,,0,,object_12a.png,object_04c.png,object_11c.png,object_04c.png,,0.4032258064516129,0,,,,,,,,,,,
2845.0999999940395,,directmemory_phase3,1199341,,,,,,,,object_15a.png,,,50,,,0,,object_04a.png,object_14c.png,object_12c.png,object_12c.png,,0.3968253968253968,0,,,,,,,,,,,
3193.399999976158,,directmemory_phase3,1202536,,,,,,,,object_12a.png,,,50,,,1,,object_05c.png,object_13a.png,object_02c.png,object_13a.png,,0.40625,1,,,,,,,,,,,
4494.700000017881,,directmemory_phase3,1207036,,,,,,,,object_06c.png,,,50,,,0,,object_01b.png,object_06b.png,object_09b.png,object_01b.png,,0.4,0,,,,,,,,,,,
2522.800000011921,,directmemory_phase3,1209561,,,,,,,,object_03c.png,,,49,,,0,,object_02a.png,object_11c.png,object_07a.png,object_11c.png,,0.3939393939393939,0,,,,,,,,,,,
1474.800000011921,,directmemory_phase3,1211039,,,,,,,,object_07b.png,,,50,,,0,,object_08c.png,object_02c.png,object_09a.png,object_09a.png,,0.3880597014925373,0,,,,,,,,,,,
3371.5999999940395,,directmemory_phase3,1214414,,,,,,,,object_12c.png,,,51,,,1,,object_06b.png,object_01b.png,object_05c.png,object_05c.png,,0.39705882352941174,1,,,,,,,,,,,
10445.699999988079,,directmemory_phase3,1224863,,,,,,,,object_08a.png,,,49,,,1,,object_14c.png,object_12a.png,object_03b.png,object_14c.png,,0.4057971014492754,1,,,,,,,,,,,
4073.199999988079,,directmemory_phase3,1228938,,,,,,,,object_02a.png,,,51,,,0,,object_06b.png,object_13a.png,object_12b.png,object_06b.png,,0.4,0,,,,,,,,,,,
1369,,directmemory_phase3,1230310,,,,,,,,object_14b.png,,,50,,,0,,object_02a.png,object_03b.png,object_12a.png,object_02a.png,,0.39436619718309857,0,,,,,,,,,,,
269.2999999821186,,directmemory_phase3,1230582,,,,,,,,object_10a.png,,,49,,,0,,object_05a.png,object_12a.png,object_05b.png,object_12a.png,,0.3888888888888889,0,,,,,,,,,,,
2661.7999999821186,,directmemory_phase3,1233245,,,,,,,,object_06a.png,,,51,,,0,,object_04a.png,object_11a.png,object_12c.png,object_11a.png,,0.3835616438356164,0,,,,,,,,,,,
2117.0999999940395,,directmemory_phase3,1235365,,,,,,,,object_09c.png,,,49,,,1,,object_04a.png,object_12c.png,object_06c.png,object_04a.png,,0.3918918918918919,1,,,,,,,,,,,
1382.9000000059605,,directmemory_phase3,1236752,,,,,,,,object_04c.png,,,50,,,0,,object_01a.png,object_01b.png,object_03a.png,object_01a.png,,0.38666666666666666,0,,,,,,,,,,,
2623.9000000059605,,directmemory_phase3,1239379,,,,,,,,object_05a.png,,,49,,,0,,object_12b.png,object_02b.png,object_09b.png,object_09b.png,,0.3815789473684211,0,,,,,,,,,,,
2736.5999999940395,,directmemory_phase3,1242120,,,,,,,,object_10b.png,,,50,,,0,,object_06c.png,object_05b.png,object_05a.png,object_05a.png,,0.37662337662337664,0,,,,,,,,,,,
2275.5,,directmemory_phase3,1244399,,,,,,,,object_05b.png,,,51,,,1,,object_13a.png,object_04b.png,object_02c.png,object_02c.png,,0.38461538461538464,1,,,,,,,,,,,
2722.300000011921,,directmemory_phase3,1247125,,,,,,,,object_10c.png,,,50,,,0,,object_13b.png,object_02b.png,object_12b.png,object_12b.png,,0.379746835443038,0,,,,,,,,,,,
1999.4000000059605,,directmemory_phase3,1249127,,,,,,,,object_11b.png,,,49,,,0,,object_11a.png,object_12a.png,object_03b.png,object_03b.png,,0.375,0,,,,,,,,,,,
1560.800000011921,,directmemory_phase3,1250692,,,,,,,,object_15c.png,,,51,,,1,,object_05a.png,object_04a.png,object_06c.png,object_06c.png,,0.38271604938271603,1,,,,,,,,,,,
4769.600000023842,,directmemory_phase3,1255464,,,,,,,,object_03b.png,,,50,,,0,,object_03a.png,object_05c.png,object_08c.png,object_03a.png,,0.3780487804878049,0,,,,,,,,,,,
1733.4000000059605,,directmemory_phase3,1257200,,,,,,,,object_04a.png,,,51,,,1,,object_01b.png,object_04b.png,object_08c.png,object_08c.png,,0.3855421686746988,1,,,,,,,,,,,
3625.9000000059605,,directmemory_phase3,1260830,,,,,,,,object_01c.png,,,50,,,0,,object_07a.png,object_12c.png,object_05b.png,object_05b.png,,0.38095238095238093,0,,,,,,,,,,,
2524.800000011921,,directmemory_phase3,1263356,,,,,,,,object_11a.png,,,51,,,0,,object_12b.png,object_13c.png,object_01a.png,object_13c.png,,0.3764705882352941,0,,,,,,,,,,,
1542.800000011921,,directmemory_phase3,1264901,,,,,,,,object_08b.png,,,49,,,1,,object_10c.png,object_11a.png,object_04c.png,object_10c.png,,0.38372093023255816,1,,,,,,,,,,,
1499.5,,directmemory_phase3,1266404,,,,,,,,object_14c.png,,,50,,,1,,object_13a.png,object_02b.png,object_13b.png,object_02b.png,,0.39080459770114945,1,,,,,,,,,,,
2157.9000000059605,,directmemory_phase3,1268564,,,,,,,,object_14a.png,,,49,,,0,,object_06c.png,object_12c.png,object_07a.png,object_07a.png,,0.38636363636363635,0,,,,,,,,,,,
1697,,directmemory_phase3,1270265,,,,,,,,object_11c.png,,,50,,,1,,object_08c.png,object_13b.png,object_04b.png,object_13b.png,,0.39325842696629215,1,,,,,,,,,,,
2956.100000023842,,directmemory_phase3,1273225,,,,,,,,object_07c.png,,,51,,,1,,object_04c.png,object_07a.png,object_07b.png,object_07b.png,,0.4,1,,,,,,,,,,,
null,,thebreak,1273328,,,,,,,,<p></p>,,,null,,,,,,,,,,,,,,,,,,,,,,
1046.8999999761581,,intro_0,1274376,,,,,,,,instruct,,,32,,,,,,,,,,,,,,,,,,,,,,
null,,learn_phase(without_color)4,1277878,,,,,,,,black_plus_sign,,,null,object_05a.png,object_10b.png,,,,,,,,,,,,,,,,,,,,
null,,black_cross(without_color)4,1278946,,,,,,,,blue,,,null,object_05a.png,object_10b.png,,,,,,,,,,,,,,,,,,,,
null,,rt_plussign_withcolor4,1279448,,,,,,,,blue,,,null,object_05a.png,object_10b.png,,,,,,,,,,,,,,,,,,,,
1432.8999999761581,,rt_thecrossant_black4,1280385,,,,,,,,black_plus_sign,,,49,,,1,,,,,,,1,,,,,,,,,,,,
null,,color_black4,1280488,,,,,,,,black_plus_sign,,,null,,,,,,,,,,,,,,,,,,,,,,
null,,learn_phase(without_color)4,1283992,,,,,,,,black_plus_sign,,,null,object_11a.png,object_06a.png,,,,,,,,,,,,,,,,,,,,
null,,black_cross(without_color)4,1284808,,,,,,,,blue,,,null,object_11a.png,object_06a.png,,,,,,,,,,,,,,,,,,,,
null,,rt_plussign_withcolor4,1285309,,,,,,,,blue,,,null,object_11a.png,object_06a.png,,,,,,,,,,,,,,,,,,,,
1286.7999999821186,,rt_thecrossant_black4,1286499,,,,,,,,black_plus_sign,,,49,,,1,,,,,,,1,,,,,,,,,,,,
null,,color_black4,1286602,,,,,,,,black_plus_sign,,,null,,,,,,,,,,,,,,,,,,,,,,
null,,learn_phase(without_color)4,1290103,,,,,,,,black_plus_sign,,,null,object_11c.png,object_03c.png,,,,,,,,,,,,,,,,,,,,
null,,black_cross(without_color)4,1290957,,,,,,,,green,,,null,object_11c.png,object_03c.png,,,,,,,,,,,,,,,,,,,,
484.09999999403954,,rt_plussign_withcolor4,1291459,,,,,,,,green,,,50,object_11c.png,object_03c.png,,,,,,,,,,,,,,,,,,,,
null,,rt_thecrossant_black4,1292610,,,,,,,,black_plus_sign,,,null,,,1,,,,,,,1,,,,,,,,,,,,
null,,color_black4,1292713,,,,,,,,black_plus_sign,,,null,,,,,,,,,,,,,,,,,,,,,,
null,,learn_phase(without_color)4,1296219,,,,,,,,black_plus_sign,,,null,object_12b.png,object_10c.png,,,,,,,,,,,,,,,,,,,,
null,,black_cross(without_color)4,1296974,,,,,,,,green,,,null,object_12b.png,object_10c.png,,,,,,,,,,,,,,,,,,,,
null,,rt_plussign_withcolor4,1297477,,,,,,,,green,,,null,object_12b.png,object_10c.png,,,,,,,,,,,,,,,,,,,,
1007.9000000059605,,rt_thecrossant_black4,1298725,,,,,,,,black_plus_sign,,,50,,,1,,,,,,,1,,,,,,,,,,,,
null,,color_black4,1298828,,,,,,,,black_plus_sign,,,null,,,,,,,,,,,,,,,,,,,,,,
null,,learn_phase(without_color)4,1302330,,,,,,,,black_plus_sign,,,null,object_13a.png,object_12a.png,,,,,,,,,,,,,,,,,,,,
null,,black_cross(without_color)4,1302905,,,,,,,,green,,,null,object_13a.png,object_12a.png,,,,,,,,,,,,,,,,,,,,
null,,rt_plussign_withcolor4,1303408,,,,,,,,green,,,null,object_13a.png,object_12a.png,,,,,,,,,,,,,,,,,,,,
969.1999999880791,,rt_thecrossant_black4,1304843,,,,,,,,black_plus_sign,,,50,,,1,,,,,,,1,,,,,,,,,,,,
null,,color_black4,1304947,,,,,,,,black_plus_sign,,,null,,,,,,,,,,,,,,,,,,,,,,
null,,learn_phase(without_color)4,1308451,,,,,,,,black_plus_sign,,,null,object_09a.png,object_07b.png,,,,,,,,,,,,,,,,,,,,
null,,black_cross(without_color)4,1309375,,,,,,,,blue,,,null,object_09a.png,object_07b.png,,,,,,,,,,,,,,,,,,,,
null,,rt_plussign_withcolor4,1309878,,,,,,,,blue,,,null,object_09a.png,object_07b.png,,,,,,,,,,,,,,,,,,,,
729.1000000238419,,rt_thecrossant_black4,1310959,,,,,,,,black_plus_sign,,,49,,,1,,,,,,,1,,,,,,,,,,,,
null,,color_black4,1311061,,,,,,,,black_plus_sign,,,null,,,,,,,,,,,,,,,,,,,,,,
null,,learn_phase(without_color)4,1314564,,,,,,,,black_plus_sign,,,null,object_06b.png,object_02a.png,,,,,,,,,,,,,,,,,,,,
null,,black_cross(without_color)4,1315337,,,,,,,,green,,,null,object_06b.png,object_02a.png,,,,,,,,,,,,,,,,,,,,
null,,rt_plussign_withcolor4,1315840,,,,,,,,green,,,null,object_06b.png,object_02a.png,,,,,,,,,,,,,,,,,,,,
1244.8999999761581,,rt_thecrossant_black4,1317071,,,,,,,,black_plus_sign,,,50,,,1,,,,,,,1,,,,,,,,,,,,
null,,color_black4,1317174,,,,,,,,black_plus_sign,,,null,,,,,,,,,,,,,,,,,,,,,,
null,,learn_phase(without_color)4,1320678,,,,,,,,black_plus_sign,,,null,object_01b.png,object_06c.png,,,,,,,,,,,,,,,,,,,,
null,,black_cross(without_color)4,1321686,,,,,,,,green,,,null,object_01b.png,object_06c.png,,,,,,,,,,,,,,,,,,,,
null,,rt_plussign_withcolor4,1322188,,,,,,,,green,,,null,object_01b.png,object_06c.png,,,,,,,,,,,,,,,,,,,,
1122.5,,rt_thecrossant_black4,1323200,,,,,,,,black_plus_sign,,,50,,,1,,,,,,,1,,,,,,,,,,,,
null,,color_black4,1323309,,,,,,,,black_plus_sign,,,null,,,,,,,,,,,,,,,,,,,,,,
null,,learn_phase(without_color)4,1326811,,,,,,,,black_plus_sign,,,null,object_04b.png,object_07a.png,,,,,,,,,,,,,,,,,,,,
null,,black_cross(without_color)4,1327543,,,,,,,,green,,,null,object_04b.png,object_07a.png,,,,,,,,,,,,,,,,,,,,
null,,rt_plussign_withcolor4,1328046,,,,,,,,green,,,null,object_04b.png,object_07a.png,,,,,,,,,,,,,,,,,,,,
1358.0999999940395,,rt_thecrossant_black4,1329319,,,,,,,,black_plus_sign,,,50,,,1,,,,,,,1,,,,,,,,,,,,
null,,color_black4,1329430,,,,,,,,black_plus_sign,,,null,,,,,,,,,,,,,,,,,,,,,,
null,,learn_phase(without_color)4,1332934,,,,,,,,black_plus_sign,,,null,object_13c.png,object_11a.png,,,,,,,,,,,,,,,,,,,,
null,,black_cross(without_color)4,1333700,,,,,,,,green,,,null,object_13c.png,object_11a.png,,,,,,,,,,,,,,,,,,,,
null,,rt_plussign_withcolor4,1334202,,,,,,,,green,,,null,object_13c.png,object_11a.png,,,,,,,,,,,,,,,,,,,,
928.5,,rt_thecrossant_black4,1335442,,,,,,,,black_plus_sign,,,50,,,1,,,,,,,1,,,,,,,,,,,,
null,,color_black4,1335544,,,,,,,,black_plus_sign,,,null,,,,,,,,,,,,,,,,,,,,,,
null,,learn_phase(without_color)4,1339052,,,,,,,,black_plus_sign,,,null,object_12a.png,object_10a.png,,,,,,,,,,,,,,,,,,,,
null,,black_cross(without_color)4,1339609,,,,,,,,blue,,,null,object_12a.png,object_10a.png,,,,,,,,,,,,,,,,,,,,
null,,rt_plussign_withcolor4,1340112,,,,,,,,blue,,,null,object_12a.png,object_10a.png,,,,,,,,,,,,,,,,,,,,
1028.300000011921,,rt_thecrossant_black4,1341563,,,,,,,,black_plus_sign,,,49,,,1,,,,,,,1,,,,,,,,,,,,
null,,color_black4,1341667,,,,,,,,black_plus_sign,,,null,,,,,,,,,,,,,,,,,,,,,,
null,,learn_phase(without_color)4,1345170,,,,,,,,black_plus_sign,,,null,object_10c.png,object_08b.png,,,,,,,,,,,,,,,,,,,,
null,,black_cross(without_color)4,1345868,,,,,,,,blue,,,null,object_10c.png,object_08b.png,,,,,,,,,,,,,,,,,,,,
null,,rt_plussign_withcolor4,1346371,,,,,,,,blue,,,null,object_10c.png,object_08b.png,,,,,,,,,,,,,,,,,,,,
747.6999999880791,,rt_thecrossant_black4,1347685,,,,,,,,black_plus_sign,,,49,,,1,,,,,,,1,,,,,,,,,,,,
null,,color_black4,1347802,,,,,,,,black_plus_sign,,,null,,,,,,,,,,,,,,,,,,,,,,
null,,learn_phase(without_color)4,1351304,,,,,,,,black_plus_sign,,,null,object_13b.png,object_11c.png,,,,,,,,,,,,,,,,,,,,
null,,black_cross(without_color)4,1352244,,,,,,,,green,,,null,object_13b.png,object_11c.png,,,,,,,,,,,,,,,,,,,,
null,,rt_plussign_withcolor4,1352748,,,,,,,,green,,,null,object_13b.png,object_11c.png,,,,,,,,,,,,,,,,,,,,
963.5,,rt_thecrossant_black4,1353814,,,,,,,,black_plus_sign,,,50,,,1,,,,,,,1,,,,,,,,,,,,
null,,color_black4,1353918,,,,,,,,black_plus_sign,,,null,,,,,,,,,,,,,,,,,,,,,,
null,,learn_phase(without_color)4,1357423,,,,,,,,black_plus_sign,,,null,object_04a.png,object_09c.png,,,,,,,,,,,,,,,,,,,,
null,,black_cross(without_color)4,1358393,,,,,,,,blue,,,null,object_04a.png,object_09c.png,,,,,,,,,,,,,,,,,,,,
null,,rt_plussign_withcolor4,1358896,,,,,,,,blue,,,null,object_04a.png,object_09c.png,,,,,,,,,,,,,,,,,,,,
1129,,rt_thecrossant_black4,1359933,,,,,,,,black_plus_sign,,,49,,,1,,,,,,,1,,,,,,,,,,,,
null,,color_black4,1360035,,,,,,,,black_plus_sign,,,null,,,,,,,,,,,,,,,,,,,,,,
null,,learn_phase(without_color)4,1363538,,,,,,,,black_plus_sign,,,null,object_02c.png,object_05b.png,,,,,,,,,,,,,,,,,,,,
null,,black_cross(without_color)4,1363978,,,,,,,,green,,,null,object_02c.png,object_05b.png,,,,,,,,,,,,,,,,,,,,
null,,rt_plussign_withcolor4,1364480,,,,,,,,green,,,null,object_02c.png,object_05b.png,,,,,,,,,,,,,,,,,,,,
1221.0999999940395,,rt_thecrossant_black4,1366047,,,,,,,,black_plus_sign,,,50,,,1,,,,,,,1,,,,,,,,,,,,
null,,color_black4,1366150,,,,,,,,black_plus_sign,,,null,,,,,,,,,,,,,,,,,,,,,,
null,,learn_phase(without_color)4,1369653,,,,,,,,black_plus_sign,,,null,object_04c.png,object_15b.png,,,,,,,,,,,,,,,,,,,,
null,,black_cross(without_color)4,1370738,,,,,,,,green,,,null,object_04c.png,object_15b.png,,,,,,,,,,,,,,,,,,,,
null,,rt_plussign_withcolor4,1371240,,,,,,,,green,,,null,object_04c.png,object_15b.png,,,,,,,,,,,,,,,,,,,,
862.0999999940395,,rt_thecrossant_black4,1372160,,,,,,,,black_plus_sign,,,50,,,1,,,,,,,1,,,,,,,,,,,,
null,,color_black4,1372263,,,,,,,,black_plus_sign,,,null,,,,,,,,,,,,,,,,,,,,,,
null,,learn_phase(without_color)4,1375767,,,,,,,,black_plus_sign,,,null,object_07a.png,object_14a.png,,,,,,,,,,,,,,,,,,,,
null,,black_cross(without_color)4,1376500,,,,,,,,blue,,,null,object_07a.png,object_14a.png,,,,,,,,,,,,,,,,,,,,
null,,rt_plussign_withcolor4,1377018,,,,,,,,blue,,,null,object_07a.png,object_14a.png,,,,,,,,,,,,,,,,,,,,
1334.9000000059605,,rt_thecrossant_black4,1378291,,,,,,,,black_plus_sign,,,49,,,1,,,,,,,1,,,,,,,,,,,,
null,,color_black4,1378395,,,,,,,,black_plus_sign,,,null,,,,,,,,,,,,,,,,,,,,,,
null,,learn_phase(without_color)4,1381896,,,,,,,,black_plus_sign,,,null,object_08c.png,object_04a.png,,,,,,,,,,,,,,,,,,,,
null,,black_cross(without_color)4,1382364,,,,,,,,green,,,null,object_08c.png,object_04a.png,,,,,,,,,,,,,,,,,,,,
null,,rt_plussign_withcolor4,1382867,,,,,,,,green,,,null,object_08c.png,object_04a.png,,,,,,,,,,,,,,,,,,,,
1016.5999999940395,,rt_thecrossant_black4,1384403,,,,,,,,black_plus_sign,,,50,,,1,,,,,,,1,,,,,,,,,,,,
null,,color_black4,1384506,,,,,,,,black_plus_sign,,,null,,,,,,,,,,,,,,,,,,,,,,
null,,learn_phase(without_color)4,1388011,,,,,,,,black_plus_sign,,,null,object_02b.png,object_14c.png,,,,,,,,,,,,,,,,,,,,
null,,black_cross(without_color)4,1388984,,,,,,,,blue,,,null,object_02b.png,object_14c.png,,,,,,,,,,,,,,,,,,,,
null,,rt_plussign_withcolor4,1389486,,,,,,,,blue,,,null,object_02b.png,object_14c.png,,,,,,,,,,,,,,,,,,,,
634,,rt_thecrossant_black4,1390518,,,,,,,,black_plus_sign,,,49,,,1,,,,,,,1,,,,,,,,,,,,
null,,color_black4,1390630,,,,,,,,black_plus_sign,,,null,,,,,,,,,,,,,,,,,,,,,,
null,,learn_phase(without_color)4,1394133,,,,,,,,black_plus_sign,,,null,object_05c.png,object_12c.png,,,,,,,,,,,,,,,,,,,,
null,,black_cross(without_color)4,1394751,,,,,,,,blue,,,null,object_05c.png,object_12c.png,,,,,,,,,,,,,,,,,,,,
null,,rt_plussign_withcolor4,1395253,,,,,,,,blue,,,null,object_05c.png,object_12c.png,,,,,,,,,,,,,,,,,,,,
1268.2999999821186,,rt_thecrossant_black4,1396643,,,,,,,,black_plus_sign,,,49,,,1,,,,,,,1,,,,,,,,,,,,
null,,color_black4,1396746,,,,,,,,black_plus_sign,,,null,,,,,,,,,,,,,,,,,,,,,,
null,,learn_phase(without_color)4,1400251,,,,,,,,black_plus_sign,,,null,object_03b.png,object_11b.png,,,,,,,,,,,,,,,,,,,,
null,,black_cross(without_color)4,1400870,,,,,,,,green,,,null,object_03b.png,object_11b.png,,,,,,,,,,,,,,,,,,,,
null,,rt_plussign_withcolor4,1401373,,,,,,,,green,,,null,object_03b.png,object_11b.png,,,,,,,,,,,,,,,,,,,,
811,,rt_thecrossant_black4,1402766,,,,,,,,black_plus_sign,,,50,,,1,,,,,,,1,,,,,,,,,,,,
null,,color_black4,1402869,,,,,,,,black_plus_sign,,,null,,,,,,,,,,,,,,,,,,,,,,
null,,learn_phase(without_color)4,1406373,,,,,,,,black_plus_sign,,,null,object_09b.png,object_05a.png,,,,,,,,,,,,,,,,,,,,
null,,black_cross(without_color)4,1407171,,,,,,,,green,,,null,object_09b.png,object_05a.png,,,,,,,,,,,,,,,,,,,,
null,,rt_plussign_withcolor4,1407673,,,,,,,,green,,,null,object_09b.png,object_05a.png,,,,,,,,,,,,,,,,,,,,
921.5,,rt_thecrossant_black4,1408879,,,,,,,,black_plus_sign,,,50,,,1,,,,,,,1,,,,,,,,,,,,
null,,color_black4,1408983,,,,,,,,black_plus_sign,,,null,,,,,,,,,,,,,,,,,,,,,,
null,,learn_phase(without_color)4,1412487,,,,,,,,black_plus_sign,,,null,object_06c.png,object_15c.png,,,,,,,,,,,,,,,,,,,,
null,,black_cross(without_color)4,1412896,,,,,,,,blue,,,null,object_06c.png,object_15c.png,,,,,,,,,,,,,,,,,,,,
null,,rt_plussign_withcolor4,1413399,,,,,,,,blue,,,null,object_06c.png,object_15c.png,,,,,,,,,,,,,,,,,,,,
1142.2000000178814,,rt_thecrossant_black4,1414998,,,,,,,,black_plus_sign,,,49,,,1,,,,,,,1,,,,,,,,,,,,
null,,color_black4,1415100,,,,,,,,black_plus_sign,,,null,,,,,,,,,,,,,,,,,,,,,,
null,,learn_phase(without_color)4,1418603,,,,,,,,black_plus_sign,,,null,object_05b.png,object_01c.png,,,,,,,,,,,,,,,,,,,,
null,,black_cross(without_color)4,1419210,,,,,,,,blue,,,null,object_05b.png,object_01c.png,,,,,,,,,,,,,,,,,,,,
null,,rt_plussign_withcolor4,1419713,,,,,,,,blue,,,null,object_05b.png,object_01c.png,,,,,,,,,,,,,,,,,,,,
665.9000000059605,,rt_thecrossant_black4,1421112,,,,,,,,black_plus_sign,,,49,,,1,,,,,,,1,,,,,,,,,,,,
null,,color_black4,1421215,,,,,,,,black_plus_sign,,,null,,,,,,,,,,,,,,,,,,,,,,
null,,learn_phase(without_color)4,1424717,,,,,,,,black_plus_sign,,,null,object_12c.png,object_15a.png,,,,,,,,,,,,,,,,,,,,
null,,black_cross(without_color)4,1425216,,,,,,,,blue,,,null,object_12c.png,object_15a.png,,,,,,,,,,,,,,,,,,,,
null,,rt_plussign_withcolor4,1425718,,,,,,,,blue,,,null,object_12c.png,object_15a.png,,,,,,,,,,,,,,,,,,,,
873.0999999940395,,rt_thecrossant_black4,1427225,,,,,,,,black_plus_sign,,,49,,,1,,,,,,,1,,,,,,,,,,,,
null,,color_black4,1427327,,,,,,,,black_plus_sign,,,null,,,,,,,,,,,,,,,,,,,,,,
null,,learn_phase(without_color)4,1430830,,,,,,,,black_plus_sign,,,null,object_14c.png,object_08a.png,,,,,,,,,,,,,,,,,,,,
null,,black_cross(without_color)4,1431775,,,,,,,,green,,,null,object_14c.png,object_08a.png,,,,,,,,,,,,,,,,,,,,
null,,rt_plussign_withcolor4,1432277,,,,,,,,green,,,null,object_14c.png,object_08a.png,,,,,,,,,,,,,,,,,,,,
692.3000000119209,,rt_thecrossant_black4,1433337,,,,,,,,black_plus_sign,,,50,,,1,,,,,,,1,,,,,,,,,,,,
null,,color_black4,1433440,,,,,,,,black_plus_sign,,,null,,,,,,,,,,,,,,,,,,,,,,
null,,learn_phase(without_color)4,1436944,,,,,,,,black_plus_sign,,,null,object_01a.png,object_04c.png,,,,,,,,,,,,,,,,,,,,
null,,black_cross(without_color)4,1437551,,,,,,,,green,,,null,object_01a.png,object_04c.png,,,,,,,,,,,,,,,,,,,,
null,,rt_plussign_withcolor4,1438052,,,,,,,,green,,,null,object_01a.png,object_04c.png,,,,,,,,,,,,,,,,,,,,
1228.5999999940395,,rt_thecrossant_black4,1439450,,,,,,,,black_plus_sign,,,50,,,1,,,,,,,1,,,,,,,,,,,,
null,,color_black4,1439553,,,,,,,,black_plus_sign,,,null,,,,,,,,,,,,,,,,,,,,,,
null,,learn_phase(without_color)4,1443056,,,,,,,,black_plus_sign,,,null,object_03a.png,object_03b.png,,,,,,,,,,,,,,,,,,,,
null,,black_cross(without_color)4,1443567,,,,,,,,blue,,,null,object_03a.png,object_03b.png,,,,,,,,,,,,,,,,,,,,
null,,rt_plussign_withcolor4,1444069,,,,,,,,blue,,,null,object_03a.png,object_03b.png,,,,,,,,,,,,,,,,,,,,
772.3999999761581,,rt_thecrossant_black4,1445564,,,,,,,,black_plus_sign,,,49,,,1,,,,,,,1,,,,,,,,,,,,
null,,color_black4,1445666,,,,,,,,black_plus_sign,,,null,,,,,,,,,,,,,,,,,,,,,,
null,,learn_phase(without_color)4,1449170,,,,,,,,black_plus_sign,,,null,object_02a.png,object_14b.png,,,,,,,,,,,,,,,,,,,,
null,,black_cross(without_color)4,1449755,,,,,,,,green,,,null,object_02a.png,object_14b.png,,,,,,,,,,,,,,,,,,,,
null,,rt_plussign_withcolor4,1450257,,,,,,,,green,,,null,object_02a.png,object_14b.png,,,,,,,,,,,,,,,,,,,,
759.9000000059605,,rt_thecrossant_black4,1451676,,,,,,,,black_plus_sign,,,50,,,1,,,,,,,1,,,,,,,,,,,,
null,,color_black4,1451779,,,,,,,,black_plus_sign,,,null,,,,,,,,,,,,,,,,,,,,,,
null,,learn_phase(without_color)4,1455284,,,,,,,,black_plus_sign,,,null,object_07b.png,object_07c.png,,,,,,,,,,,,,,,,,,,,
null,,black_cross(without_color)4,1456081,,,,,,,,green,,,null,object_07b.png,object_07c.png,,,,,,,,,,,,,,,,,,,,
null,,rt_plussign_withcolor4,1456583,,,,,,,,green,,,null,object_07b.png,object_07c.png,,,,,,,,,,,,,,,,,,,,
834.6999999880791,,rt_thecrossant_black4,1457793,,,,,,,,black_plus_sign,,,50,,,1,,,,,,,1,,,,,,,,,,,,
null,,color_black4,1457895,,,,,,,,black_plus_sign,,,null,,,,,,,,,,,,,,,,,,,,,,
null,,thebreak,1457998,,,,,,,,<p></p>,,,null,,,,,,,,,,,,,,,,,,,,,,
1006.9000000059605,,intro_0,1459007,,,,,,,,instruct,,,32,,,,,,,,,,,,,,,,,,,,,,
5341.5999999940395,,directmemory_phase4,1464350,,,,,,,,object_11c.png,,,49,,,0,,object_03a.png,object_04b.png,object_13b.png,object_13b.png,,0.3956043956043956,0,,,,,,,,,,,
5989.699999988079,,directmemory_phase4,1470343,,,,,,,,object_08a.png,,,49,,,0,,object_02a.png,object_14c.png,object_12c.png,object_14c.png,,0.391304347826087,0,,,,,,,,,,,
12085.200000017881,,directmemory_phase4,1482433,,,,,,,,object_05a.png,,,50,,,0,,object_09b.png,object_04b.png,object_01a.png,object_09b.png,,0.3870967741935484,0,,,,,,,,,,,
7800.100000023842,,directmemory_phase4,1490236,,,,,,,,object_02a.png,,,51,,,0,,object_06b.png,object_05c.png,object_13c.png,object_06b.png,,0.3829787234042553,0,,,,,,,,,,,
2656.2000000178814,,directmemory_phase4,1492895,,,,,,,,object_04c.png,,,49,,,1,,object_01a.png,object_13c.png,object_04b.png,object_01a.png,,0.3894736842105263,1,,,,,,,,,,,
3188.5999999940395,,directmemory_phase4,1496087,,,,,,,,object_06c.png,,,51,,,1,,object_13a.png,object_05c.png,object_01b.png,object_01b.png,,0.3958333333333333,1,,,,,,,,,,,
2881.0999999940395,,directmemory_phase4,1498970,,,,,,,,object_14a.png,,,51,,,0,,object_10c.png,object_07a.png,object_04c.png,object_07a.png,,0.3917525773195876,0,,,,,,,,,,,
3847.699999988079,,directmemory_phase4,1502820,,,,,,,,object_10a.png,,,49,,,0,,object_14c.png,object_10c.png,object_12a.png,object_12a.png,,0.3877551020408163,0,,,,,,,,,,,
3591.300000011921,,directmemory_phase4,1506413,,,,,,,,object_12a.png,,,49,,,0,,object_08c.png,object_13c.png,object_13a.png,object_13a.png,,0.3838383838383838,0,,,,,,,,,,,
4433.199999988079,,directmemory_phase4,1510847,,,,,,,,object_07a.png,,,51,,,0,,object_04b.png,object_02b.png,object_13c.png,object_04b.png,,0.38,0,,,,,,,,,,,
6789.5999999940395,,directmemory_phase4,1517638,,,,,,,,object_07c.png,,,50,,,0,,object_07b.png,object_11c.png,object_11a.png,object_07b.png,,0.37623762376237624,0,,,,,,,,,,,
5242.300000011921,,directmemory_phase4,1522883,,,,,,,,object_07b.png,,,49,,,0,,object_13b.png,object_05c.png,object_09a.png,object_09a.png,,0.37254901960784315,0,,,,,,,,,,,
4594.799999982119,,directmemory_phase4,1527481,,,,,,,,object_03c.png,,,50,,,0,,object_11c.png,object_12a.png,object_04a.png,object_11c.png,,0.36893203883495146,0,,,,,,,,,,,
3610.199999988079,,directmemory_phase4,1531097,,,,,,,,object_08b.png,,,51,,,1,,object_06c.png,object_04c.png,object_10c.png,object_10c.png,,0.375,1,,,,,,,,,,,
2921.4000000059605,,directmemory_phase4,1534021,,,,,,,,object_15c.png,,,51,,,1,,object_11a.png,object_12c.png,object_06c.png,object_06c.png,,0.38095238095238093,1,,,,,,,,,,,
2248,,directmemory_phase4,1536272,,,,,,,,object_09c.png,,,51,,,0,,object_04a.png,object_12c.png,object_11a.png,object_04a.png,,0.37735849056603776,0,,,,,,,,,,,
2627.300000011921,,directmemory_phase4,1538904,,,,,,,,object_05b.png,,,50,,,0,,object_13b.png,object_05c.png,object_02c.png,object_02c.png,,0.37383177570093457,0,,,,,,,,,,,
3795.5999999940395,,directmemory_phase4,1542702,,,,,,,,object_12c.png,,,51,,,1,,object_13a.png,object_13b.png,object_05c.png,object_05c.png,,0.37962962962962965,1,,,,,,,,,,,
2783.199999988079,,directmemory_phase4,1545487,,,,,,,,object_04a.png,,,49,,,1,,object_08c.png,object_03a.png,object_13b.png,object_08c.png,,0.3853211009174312,1,,,,,,,,,,,
3840.5999999940395,,directmemory_phase4,1549330,,,,,,,,object_11b.png,,,51,,,0,,object_11a.png,object_03b.png,object_14c.png,object_03b.png,,0.38181818181818183,0,,,,,,,,,,,
4490,,directmemory_phase4,1553822,,,,,,,,object_10b.png,,,50,,,1,,object_04c.png,object_05a.png,object_11c.png,object_05a.png,,0.38738738738738737,1,,,,,,,,,,,
3787.9000000059605,,directmemory_phase4,1557614,,,,,,,,object_01c.png,,,49,,,1,,object_05b.png,object_12a.png,object_10c.png,object_05b.png,,0.39285714285714285,1,,,,,,,,,,,
2232.199999988079,,directmemory_phase4,1559849,,,,,,,,object_15a.png,,,50,,,0,,object_14c.png,object_06c.png,object_12c.png,object_12c.png,,0.3893805309734513,0,,,,,,,,,,,
2759,,directmemory_phase4,1562613,,,,,,,,object_06a.png,,,50,,,1,,object_06c.png,object_11a.png,object_07a.png,object_11a.png,,0.39473684210526316,1,,,,,,,,,,,
2289.5,,directmemory_phase4,1564906,,,,,,,,object_14b.png,,,51,,,0,,object_03b.png,object_02a.png,object_05b.png,object_02a.png,,0.391304347826087,0,,,,,,,,,,,
7849.0999999940395,,directmemory_phase4,1572756,,,,,,,,object_14c.png,,,49,,,0,,object_03a.png,object_13c.png,object_02b.png,object_02b.png,,0.3879310344827586,0,,,,,,,,,,,
8244.399999976158,,directmemory_phase4,1581003,,,,,,,,object_11a.png,,,51,,,0,,object_08c.png,object_13c.png,object_04b.png,object_13c.png,,0.38461538461538464,0,,,,,,,,,,,
3099,,directmemory_phase4,1584106,,,,,,,,object_10c.png,,,51,,,1,,object_05c.png,object_13a.png,object_12b.png,object_12b.png,,0.3898305084745763,1,,,,,,,,,,,
3647.100000023842,,directmemory_phase4,1587757,,,,,,,,object_15b.png,,,51,,,1,,object_04a.png,object_12c.png,object_04c.png,object_04c.png,,0.3949579831932773,1,,,,,,,,,,,
3078,,directmemory_phase4,1590840,,,,,,,,object_03b.png,,,49,,,1,,object_03a.png,object_01b.png,object_02c.png,object_03a.png,,0.4,1,,,,,,,,,,,
null,,thebreak,1590946,,,,,,,,<p></p>,,,null,,,,,,,,,,,,,,,,,,,,,,
5956.699999988079,,intro_0,1596905,,,,,,,,instruct,,,32,,,,,,,,,,,,,,,,,,,,,,
16914.09999999404,,intro_1,1613821,,,,,,,,instruct,,,32,,,,,,,,,,,,,,,,,,,,,,
6632.699999988079,,intro_2,1620455,,,,,,,,instruct,,,32,,,,,,,,,,,,,,,,,,,,,,
,,intro_3,1648510,,,,,,,,instruct,,,,,,,,,,,,,,,,,,,,,,,,,
9763.800000011921,,intro_4,1658275,,,,,,,,instruct,,,32,,,,,,,,,,,,,,,,,,,,,,
null,,thebreak,1658377,,,,,,,,<p></p>,,,null,,,,,,,,,,,,,,,,,,,,,,
2119.199999988079,,intro_0,1660499,,,,,,,,instruct,,,32,,,,,,,,,,,,,,,,,,,,,,
4707.799999982119,,intro_1,1665208,,,,,,,,instruct,,,32,,,,,,,,,,,,,,,,,,,,,,
906.1999999880791,,intro_2,1666115,,,,,,,,instruct,,,32,,,,,,,,,,,,,,,,,,,,,,
,,intro_3,1674749,,,,,,,,instruct,,,,,,,,,,,,,,,,,,,,,,,,,
1057.5,,intro_4,1675808,,,,,,,,instruct,,,32,,,,,,,,,,,,,,,,,,,,,,
null,,thebreak,1675917,,,,,,,,<p></p>,,,null,,,,,,,,,,,,,,,,,,,,,,
437.40000000596046,,intro_0,1676356,,,,,,,,instruct,,,32,,,,,,,,,,,,,,,,,,,,,,
721.5,,intro_1,1677079,,,,,,,,instruct,,,32,,,,,,,,,,,,,,,,,,,,,,
1060.199999988079,,intro_2,1678140,,,,,,,,instruct,,,32,,,,,,,,,,,,,,,,,,,,,,
,,intro_3,1692135,,,,,,,,instruct,,,,,,,,,,,,,,,,,,,,,,,,,
1506.2000000178814,,intro_4,1693644,,,,,,,,instruct,,,32,,,,,,,,,,,,,,,,,,,,,,
3102.9000000059605,,inference_phase,1696748,,,,,,,,object_06a.png,,,50,object_02c.png,object_02b.png,1,,,,,object_13c.png,,1,,object_13c.png,,,,,,,,,,
3908.800000011921,,inference_phase,1700659,,,,,,,,object_10a.png,,,49,object_13c.png,object_13a.png,0,,,,,object_13a.png,,0.5,,object_08c.png,,,,,,,,,,
2144.7999999821186,,inference_phase,1702807,,,,,,,,object_15c.png,,,51,object_13b.png,object_01b.png,1,,,,,object_01b.png,,0.6666666666666666,,object_08c.png,,,,,,,,,,
2156.2999999821186,,inference_phase,1704966,,,,,,,,object_01c.png,,,50,object_09b.png,object_13c.png,1,,,,,object_02c.png,,0.75,,object_02c.png,,,,,,,,,,
1789.199999988079,,inference_phase,1706759,,,,,,,,object_08a.png,,,49,object_02b.png,object_13b.png,1,,,,,object_02b.png,,0.8,,object_02c.png,,,,,,,,,,
1405.800000011921,,inference_phase,1708169,,,,,,,,object_14a.png,,,51,object_02b.png,object_01b.png,0,,,,,object_04b.png,,0.6666666666666666,,object_04b.png,,,,,,,,,,
2116.0999999940395,,inference_phase,1710289,,,,,,,,object_09c.png,,,51,object_06b.png,object_05c.png,0,,,,,object_08c.png,,0.5714285714285714,,object_08c.png,,,,,,,,,,
1502,,inference_phase,1711793,,,,,,,,object_07c.png,,,49,object_03a.png,object_09a.png,0,,,,,object_09a.png,,0.5,,object_01b.png,,,,,,,,,,
2445.7999999821186,,inference_phase,1714242,,,,,,,,object_14b.png,,,51,object_05c.png,object_06b.png,1,,,,,object_06b.png,,0.5555555555555556,,object_13b.png,,,,,,,,,,
2551.7000000178814,,inference_phase,1716798,,,,,,,,object_11b.png,,,49,object_01a.png,object_05c.png,0,,,,,object_03a.png,,0.5,,object_03a.png,,,,,,,,,,
1638.0999999940395,,inference_phase,1718439,,,,,,,,object_15b.png,,,51,object_01a.png,object_06b.png,0,,,,,object_01a.png,,0.45454545454545453,,object_09b.png,,,,,,,,,,
1824.0999999940395,,inference_phase,1720265,,,,,,,,object_10b.png,,,50,object_09b.png,object_05c.png,0,,,,,object_09b.png,,0.4166666666666667,,object_08c.png,,,,,,,,,,
4572.9000000059605,,inference_phase,1724841,,,,,,,,object_03c.png,,,51,object_13b.png,object_01a.png,0,,,,,object_13b.png,,0.38461538461538464,,object_09b.png,,,,,,,,,,
2400.2000000178814,,inference_phase,1727245,,,,,,,,object_15a.png,,,49,object_01a.png,object_02b.png,0,,,,,object_05c.png,,0.35714285714285715,,object_05c.png,,,,,,,,,,
6018.799999982119,,inference_phase,1733265,,,,,,,,object_08b.png,,,51,object_01a.png,object_08c.png,0,,,,,object_12b.png,,0.3333333333333333,,object_12b.png,,,,,,,,,,
,,survey,1874387,,,,,,,,survey-questions,,,,,,,,,,,,,,,,none,high,No, I was not,I tried as much as possible to recall the objects pairs and committed them to memory,Yes, as some had similar colors,No, I have not participated in a similar study,The task was interesting and a bit tasking,,,
30288.80000001192,,thank_you,1904704,,,,,,,,<p> Congratulations, you are all done!</p><p> <strong>Please click space on your keyboard to end the experiment!</strong> The secret code to enter at the beginning screen is: <strong>CIMBPENS</strong></p><p> Please make sure to submit the HIT and email uciccnl@gmail.com if you had any issues! </p><br><p>Please remember to submit this data by clicking space after copying the code. Failure of submission will lead to in-complete payment</p>,,,32,,,,,,,,,,,,,,,,,,,,4,1,C78LSMTN
