rt,responses,trial_type,time_elapsed,identifier_a,identifier_b,identifier_c,tasktype,browser_type,local_time,UTC_time,stimulus,button_pressed,response,key_press,stimulus_left,stimulus_right,practice_cumulative_accuracy,accuracy,stimulus_down_left,stimulus_down_mid,stimulus_down_right,stimulus_correct,prac_weighted_accuracy,cumulative_accuracy,weighted_accuracy,stimulus_middle,problems,smooth,distraction,strategies,easier,similar,comments,detectfocus,breakfocus,completion_code
20776.30000001192,{worker_id:67f0f41f47eb50d095c38f61},id_enter,20785,object_03a.png; object_02b.png; object_07b.png; object_12a.png; object_15a.png; object_07c.png; object_01b.png; object_11c.png; object_11b.png; object_09b.png; object_14c.png; object_10b.png; object_05c.png; object_10c.png; object_05a.png,object_04a.png; object_13b.png; object_08b.png; object_12b.png; object_07a.png; object_15c.png; object_02a.png; object_10a.png; object_14b.png; object_08c.png; object_04c.png; object_03b.png; object_02c.png; object_05b.png; object_13a.png,object_15b.png; object_03c.png; object_13c.png; object_01a.png; object_06a.png; object_12c.png; object_09a.png; object_06c.png; object_01c.png; object_06b.png; object_04b.png; object_09c.png; object_14a.png; object_08a.png; object_11a.png,interleaved,Mozilla/5.0 (Windows NT 10.0; Win64; x64) AppleWebKit/537.36 (KHTML, like Gecko) Chrome/135.0.0.0 Safari/537.36,4/28/2025, 11:51:45 AM,2025-04-28 16:51:45.387,,,,,,,,,,,,,,,,,,,,,,,,,,
3987.0999999940395,,make_fullscreen,24814,,,,,,,,fullscreen,0,,,,,,,,,,,,,,,,,,,,,,,,
97169.80000001192,,instruct_1,121989,,,,,,,,instruct,0,Next,,,,,,,,,,,,,,,,,,,,,,,
187507.69999998808,,instruct_2,309501,,,,,,,,instruct,1,Next,,,,,,,,,,,,,,,,,,,,,,,
11677.699999988079,,instruct_3,321181,,,,,,,,instruct,1,Next,,,,,,,,,,,,,,,,,,,,,,,
78373.59999999404,,instruct_4,399557,,,,,,,,instruct,1,Next,,,,,,,,,,,,,,,,,,,,,,,
18717.59999999404,,instruct_5,418277,,,,,,,,instruct,1,Next,,,,,,,,,,,,,,,,,,,,,,,
4589.700000017881,,instruct_6,422868,,,,,,,,instruct,1,Next,,,,,,,,,,,,,,,,,,,,,,,
45469.80000001192,,instruct_7,468340,,,,,,,,instruct,1,Next,,,,,,,,,,,,,,,,,,,,,,,
null,,prac_atten_color_black,468853,,,,,,,,black_plus_sign,,,null,,,,,,,,,,,,,,,,,,,,,,
null,,prac_atten_color,469752,,,,,,,,<p style='position:absolute;top: 50%;right: 50%;transform: translate(50%, -50%);font-size: 125px;color: blue;'>+</p>,,,null,,,,,,,,,,,,,,,,,,,,,,
665.2999999821186,,prac_atten_color_black,471757,,,,,,,,black_plus_sign,,,49,,,,,,,,,,,,,,,,,,,,,,
null,,prac_atten_color_black,472283,,,,,,,,black_plus_sign,,,null,,,,,,,,,,,,,,,,,,,,,,
null,,prac_atten_color,472704,,,,,,,,<p style='position:absolute;top: 50%;right: 50%;transform: translate(50%, -50%);font-size: 125px;color: green;'>+</p>,,,null,,,,,,,,,,,,,,,,,,,,,,
286.09999999403954,,prac_atten_color_black,474713,,,,,,,,black_plus_sign,,,50,,,,,,,,,,,,,,,,,,,,,,
null,,prac_atten_color_black,475706,,,,,,,,black_plus_sign,,,null,,,,,,,,,,,,,,,,,,,,,,
552.5999999940395,,prac_atten_color,476743,,,,,,,,<p style='position:absolute;top: 50%;right: 50%;transform: translate(50%, -50%);font-size: 125px;color: green;'>+</p>,,,50,,,,,,,,,,,,,,,,,,,,,,
null,,prac_atten_color_black,478758,,,,,,,,black_plus_sign,,,null,,,,,,,,,,,,,,,,,,,,,,
null,,prac_atten_color_black,479146,,,,,,,,black_plus_sign,,,null,,,,,,,,,,,,,,,,,,,,,,
null,,prac_atten_color,479586,,,,,,,,<p style='position:absolute;top: 50%;right: 50%;transform: translate(50%, -50%);font-size: 125px;color: blue;'>+</p>,,,null,,,,,,,,,,,,,,,,,,,,,,
754.0999999940395,,prac_atten_color_black,481597,,,,,,,,black_plus_sign,,,49,,,,,,,,,,,,,,,,,,,,,,
null,,prac_atten_color_black,482575,,,,,,,,black_plus_sign,,,null,,,,,,,,,,,,,,,,,,,,,,
null,,prac_atten_color,483412,,,,,,,,<p style='position:absolute;top: 50%;right: 50%;transform: translate(50%, -50%);font-size: 125px;color: green;'>+</p>,,,null,,,,,,,,,,,,,,,,,,,,,,
178.7000000178814,,prac_atten_color_black,485422,,,,,,,,black_plus_sign,,,50,,,,,,,,,,,,,,,,,,,,,,
null,,prac_atten_color_black,486013,,,,,,,,black_plus_sign,,,null,,,,,,,,,,,,,,,,,,,,,,
null,,prac_atten_color,486449,,,,,,,,<p style='position:absolute;top: 50%;right: 50%;transform: translate(50%, -50%);font-size: 125px;color: green;'>+</p>,,,null,,,,,,,,,,,,,,,,,,,,,,
664.7999999821186,,prac_atten_color_black,488461,,,,,,,,black_plus_sign,,,50,,,,,,,,,,,,,,,,,,,,,,
null,,prac_atten_color_black,489449,,,,,,,,black_plus_sign,,,null,,,,,,,,,,,,,,,,,,,,,,
null,,prac_atten_color,489868,,,,,,,,<p style='position:absolute;top: 50%;right: 50%;transform: translate(50%, -50%);font-size: 125px;color: blue;'>+</p>,,,null,,,,,,,,,,,,,,,,,,,,,,
406.10000002384186,,prac_atten_color_black,491874,,,,,,,,black_plus_sign,,,49,,,,,,,,,,,,,,,,,,,,,,
null,,prac_atten_color_black,492878,,,,,,,,black_plus_sign,,,null,,,,,,,,,,,,,,,,,,,,,,
838.9000000059605,,prac_atten_color,493867,,,,,,,,<p style='position:absolute;top: 50%;right: 50%;transform: translate(50%, -50%);font-size: 125px;color: green;'>+</p>,,,50,,,,,,,,,,,,,,,,,,,,,,
null,,prac_atten_color_black,495875,,,,,,,,black_plus_sign,,,null,,,,,,,,,,,,,,,,,,,,,,
null,,prac_atten_color_black,496314,,,,,,,,black_plus_sign,,,null,,,,,,,,,,,,,,,,,,,,,,
null,,prac_atten_color,497332,,,,,,,,<p style='position:absolute;top: 50%;right: 50%;transform: translate(50%, -50%);font-size: 125px;color: blue;'>+</p>,,,null,,,,,,,,,,,,,,,,,,,,,,
0.5,,prac_atten_color_black,499342,,,,,,,,black_plus_sign,,,49,,,,,,,,,,,,,,,,,,,,,,
null,,prac_atten_color_black,499761,,,,,,,,black_plus_sign,,,null,,,,,,,,,,,,,,,,,,,,,,
null,,prac_atten_color,500333,,,,,,,,<p style='position:absolute;top: 50%;right: 50%;transform: translate(50%, -50%);font-size: 125px;color: blue;'>+</p>,,,null,,,,,,,,,,,,,,,,,,,,,,
160,,prac_atten_color_black,502345,,,,,,,,black_plus_sign,,,49,,,,,,,,,,,,,,,,,,,,,,
17982.5,,attentioncheck_feedback,520332,,,,,,,,cross_check_feedback,0,,,,,,,,,,,,,,,,,,,,,,,,
57106.30000001192,,last_instruct,577440,,,,,,,,instruct,,,32,,,,,,,,,,,,,,,,,,,,,,
null,,prac_learn_phase(without_color),580946,,,,,,,,black_plus_sign,,,null,object_14b.png,object_01c.png,,,,,,,,,,,,,,,,,,,,
null,,prac_black_cross(without_color),581841,,,,,,,,blue,,,null,object_14b.png,object_01c.png,,,,,,,,,,,,,,,,,,,,
null,,prac_rt_plussign_withcolor,582352,,,,,,,,blue,,,null,object_14b.png,object_01c.png,,,,,,,,,,,,,,,,,,,,
null,,prac_rt_thecrossant_black,583481,,,,,,,,black_plus_sign,,,null,,,NaN,,,,,,,,,,,,,,,,,,,
null,,prac_color_black,583590,,,,,,,,black_plus_sign,,,null,,,,,,,,,,,,,,,,,,,,,,
null,,prac_learn_phase(without_color),587096,,,,,,,,black_plus_sign,,,null,object_12a.png,object_12b.png,,,,,,,,,,,,,,,,,,,,
null,,black_cross(without_color)1,588072,,,,,,,,green,,,null,object_14b.png,object_01c.png,,,,,,,,,,,,,,,,,,,,
null,,prac_rt_plussign_withcolor,588583,,,,,,,,green,,,null,object_12a.png,object_12b.png,,,,,,,,,,,,,,,,,,,,
null,,prac_rt_thecrossant_black,589957,,,,,,,,black_plus_sign,,,null,,,NaN,,,,,,,,,,,,,,,,,,,
null,,warning_page,594965,,,,,,,,warning,,,null,,,,,,,,,,,,,,,,,,,,,,
null,,prac_color_black,595075,,,,,,,,black_plus_sign,,,null,,,,,,,,,,,,,,,,,,,,,,
null,,prac_learn_phase(without_color),598585,,,,,,,,black_plus_sign,,,null,object_05b.png,object_08a.png,,,,,,,,,,,,,,,,,,,,
null,,black_cross(without_color)1,599571,,,,,,,,green,,,null,object_14b.png,object_01c.png,,,,,,,,,,,,,,,,,,,,
null,,prac_rt_plussign_withcolor,600080,,,,,,,,green,,,null,object_05b.png,object_08a.png,,,,,,,,,,,,,,,,,,,,
1297,,prac_rt_thecrossant_black,601566,,,,,,,,black_plus_sign,,,50,,,1,1,,,,,,,,,,,,,,,,,,
null,,prac_color_black,601675,,,,,,,,black_plus_sign,,,null,,,,,,,,,,,,,,,,,,,,,,
null,,prac_learn_phase(without_color),605182,,,,,,,,black_plus_sign,,,null,object_02b.png,object_13b.png,,,,,,,,,,,,,,,,,,,,
null,,black_cross(without_color)1,606155,,,,,,,,green,,,null,object_14b.png,object_01c.png,,,,,,,,,,,,,,,,,,,,
null,,prac_rt_plussign_withcolor,606668,,,,,,,,green,,,null,object_02b.png,object_13b.png,,,,,,,,,,,,,,,,,,,,
851.4000000059605,,prac_rt_thecrossant_black,607914,,,,,,,,black_plus_sign,,,50,,,1,1,,,,,,,,,,,,,,,,,,
null,,prac_color_black,608023,,,,,,,,black_plus_sign,,,null,,,,,,,,,,,,,,,,,,,,,,
8603.09999999404,,instruct_dir_01,616631,,,,,,,,instruct,0,Next,,,,,,,,,,,,,,,,,,,,,,,
13576.799999982119,,instruct_dir_2,630213,,,,,,,,instruct,1,Next,,,,,,,,,,,,,,,,,,,,,,,
4821.699999988079,,instruct_dir_3,635036,,,,,,,,instruct,1,Next,,,,,,,,,,,,,,,,,,,,,,,
5334.0999999940395,,instruct_dir_4,640372,,,,,,,,instruct,1,Start,,,,,,,,,,,,,,,,,,,,,,,
null,,thebreak,640489,,,,,,,,<p></p>,,,null,,,,,,,,,,,,,,,,,,,,,,
1484.6000000238419,,intro_0,641976,,,,,,,,instruct,,,32,,,,,,,,,,,,,,,,,,,,,,
3164.600000023842,,prac_directmemory_phase,645144,,,,,,,,practice/object_04b.png,,,51,,,,1,practice/object_03a.png,practice/object_01a.png,practice/object_04a.png,practice/object_04a.png,1,1,,,,,,,,,,,,
3720.5999999940395,,prac_directmemory_phase,648870,,,,,,,,practice/object_01b.png,,,50,,,,1,practice/object_04a.png,practice/object_01a.png,practice/object_02a.png,practice/object_01a.png,1,1,,,,,,,,,,,,
2861.0999999940395,,prac_directmemory_phase,651735,,,,,,,,practice/object_02b.png,,,51,,,,0,practice/object_01a.png,practice/object_02a.png,practice/object_03a.png,practice/object_02a.png,0,0.6666666666666666,,,,,,,,,,,,
3327.2999999821186,,prac_directmemory_phase,655067,,,,,,,,practice/object_03b.png,,,49,,,,1,practice/object_03a.png,practice/object_01a.png,practice/object_04a.png,practice/object_03a.png,1,0.75,,,,,,,,,,,,
58518.19999998808,,practice_feedback,713588,,,,,,,,practice_feedback,1,,,,,,,,,,,,,,,,,,,,,,,,
73054.5,,proceed_actualTask,786644,,,,,,,,proceed_actualTask,1,Continue,,,,,,,,,,,,,,,,,,,,,,,
41031.70000001788,,last_inst,827677,,,,,,,,last_inst,,,32,,,,,,,,,,,,,,,,,,,,,,
null,,learn_phase(without_color)1,831191,,,,,,,,black_plus_sign,,,null,object_14b.png,object_01c.png,,,,,,,,,,,,,,,,,,,,
null,,black_cross(without_color)1,832169,,,,,,,,green,,,null,object_14b.png,object_01c.png,,,,,,,,,,,,,,,,,,,,
null,,rt_plussign_withcolor1,832682,,,,,,,,green,,,null,object_14b.png,object_01c.png,,,,,,,,,,,,,,,,,,,,
1486.5999999940395,,rt_thecrossant_black1,833719,,,,,,,,black_plus_sign,,,50,,,,1,,,,,,1,,,,,,,,,,,,
null,,color_black1,833827,,,,,,,,black_plus_sign,,,null,,,,,,,,,,,,,,,,,,,,,,
null,,learn_phase(without_color)1,837350,,,,,,,,black_plus_sign,,,null,object_12a.png,object_12b.png,,,,,,,,,,,,,,,,,,,,
null,,black_cross(without_color)1,838289,,,,,,,,blue,,,null,object_12a.png,object_12b.png,,,,,,,,,,,,,,,,,,,,
null,,rt_plussign_withcolor1,838800,,,,,,,,blue,,,null,object_12a.png,object_12b.png,,,,,,,,,,,,,,,,,,,,
761.8000000119209,,rt_thecrossant_black1,839883,,,,,,,,black_plus_sign,,,49,,,,1,,,,,,1,,,,,,,,,,,,
null,,color_black1,839993,,,,,,,,black_plus_sign,,,null,,,,,,,,,,,,,,,,,,,,,,
null,,learn_phase(without_color)1,843503,,,,,,,,black_plus_sign,,,null,object_05b.png,object_08a.png,,,,,,,,,,,,,,,,,,,,
null,,black_cross(without_color)1,844276,,,,,,,,blue,,,null,object_05b.png,object_08a.png,,,,,,,,,,,,,,,,,,,,
null,,rt_plussign_withcolor1,844792,,,,,,,,blue,,,null,object_05b.png,object_08a.png,,,,,,,,,,,,,,,,,,,,
1330,,rt_thecrossant_black1,846042,,,,,,,,black_plus_sign,,,49,,,,1,,,,,,1,,,,,,,,,,,,
null,,color_black1,846151,,,,,,,,black_plus_sign,,,null,,,,,,,,,,,,,,,,,,,,,,
null,,learn_phase(without_color)1,849658,,,,,,,,black_plus_sign,,,null,object_02b.png,object_13b.png,,,,,,,,,,,,,,,,,,,,
null,,black_cross(without_color)1,850433,,,,,,,,blue,,,null,object_02b.png,object_13b.png,,,,,,,,,,,,,,,,,,,,
null,,rt_plussign_withcolor1,850943,,,,,,,,blue,,,null,object_02b.png,object_13b.png,,,,,,,,,,,,,,,,,,,,
1025.5,,rt_thecrossant_black1,852197,,,,,,,,black_plus_sign,,,49,,,,1,,,,,,1,,,,,,,,,,,,
null,,color_black1,852304,,,,,,,,black_plus_sign,,,null,,,,,,,,,,,,,,,,,,,,,,
null,,learn_phase(without_color)1,855818,,,,,,,,black_plus_sign,,,null,object_01b.png,object_02a.png,,,,,,,,,,,,,,,,,,,,
null,,black_cross(without_color)1,856806,,,,,,,,green,,,null,object_01b.png,object_02a.png,,,,,,,,,,,,,,,,,,,,
null,,rt_plussign_withcolor1,857320,,,,,,,,green,,,null,object_01b.png,object_02a.png,,,,,,,,,,,,,,,,,,,,
1110.300000011921,,rt_thecrossant_black1,858355,,,,,,,,black_plus_sign,,,50,,,,1,,,,,,1,,,,,,,,,,,,
null,,color_black1,858463,,,,,,,,black_plus_sign,,,null,,,,,,,,,,,,,,,,,,,,,,
null,,learn_phase(without_color)1,861978,,,,,,,,black_plus_sign,,,null,object_08c.png,object_06b.png,,,,,,,,,,,,,,,,,,,,
null,,black_cross(without_color)1,862675,,,,,,,,green,,,null,object_08c.png,object_06b.png,,,,,,,,,,,,,,,,,,,,
null,,rt_plussign_withcolor1,863186,,,,,,,,green,,,null,object_08c.png,object_06b.png,,,,,,,,,,,,,,,,,,,,
1598.699999988079,,rt_thecrossant_black1,864506,,,,,,,,black_plus_sign,,,50,,,,1,,,,,,1,,,,,,,,,,,,
null,,color_black1,864616,,,,,,,,black_plus_sign,,,null,,,,,,,,,,,,,,,,,,,,,,
null,,learn_phase(without_color)1,868124,,,,,,,,black_plus_sign,,,null,object_08b.png,object_13c.png,,,,,,,,,,,,,,,,,,,,
null,,black_cross(without_color)1,868990,,,,,,,,blue,,,null,object_08b.png,object_13c.png,,,,,,,,,,,,,,,,,,,,
null,,rt_plussign_withcolor1,869502,,,,,,,,blue,,,null,object_08b.png,object_13c.png,,,,,,,,,,,,,,,,,,,,
1222.5,,rt_thecrossant_black1,870661,,,,,,,,black_plus_sign,,,49,,,,1,,,,,,1,,,,,,,,,,,,
null,,color_black1,870769,,,,,,,,black_plus_sign,,,null,,,,,,,,,,,,,,,,,,,,,,
null,,learn_phase(without_color)1,874283,,,,,,,,black_plus_sign,,,null,object_03a.png,object_04a.png,,,,,,,,,,,,,,,,,,,,
null,,black_cross(without_color)1,874780,,,,,,,,green,,,null,object_03a.png,object_04a.png,,,,,,,,,,,,,,,,,,,,
null,,rt_plussign_withcolor1,875293,,,,,,,,green,,,null,object_03a.png,object_04a.png,,,,,,,,,,,,,,,,,,,,
1474.0999999940395,,rt_thecrossant_black1,876823,,,,,,,,black_plus_sign,,,50,,,,1,,,,,,1,,,,,,,,,,,,
null,,color_black1,876932,,,,,,,,black_plus_sign,,,null,,,,,,,,,,,,,,,,,,,,,,
null,,learn_phase(without_color)1,880441,,,,,,,,black_plus_sign,,,null,object_13b.png,object_03c.png,,,,,,,,,,,,,,,,,,,,
null,,black_cross(without_color)1,880951,,,,,,,,blue,,,null,object_13b.png,object_03c.png,,,,,,,,,,,,,,,,,,,,
null,,rt_plussign_withcolor1,881463,,,,,,,,blue,,,null,object_13b.png,object_03c.png,,,,,,,,,,,,,,,,,,,,
1275.199999988079,,rt_thecrossant_black1,882986,,,,,,,,black_plus_sign,,,49,,,,1,,,,,,1,,,,,,,,,,,,
null,,color_black1,883097,,,,,,,,black_plus_sign,,,null,,,,,,,,,,,,,,,,,,,,,,
null,,learn_phase(without_color)1,886602,,,,,,,,black_plus_sign,,,null,object_15c.png,object_12c.png,,,,,,,,,,,,,,,,,,,,
null,,black_cross(without_color)1,887190,,,,,,,,blue,,,null,object_15c.png,object_12c.png,,,,,,,,,,,,,,,,,,,,
null,,rt_plussign_withcolor1,887705,,,,,,,,blue,,,null,object_15c.png,object_12c.png,,,,,,,,,,,,,,,,,,,,
832.8000000119209,,rt_thecrossant_black1,889137,,,,,,,,black_plus_sign,,,49,,,,1,,,,,,1,,,,,,,,,,,,
null,,color_black1,889248,,,,,,,,black_plus_sign,,,null,,,,,,,,,,,,,,,,,,,,,,
null,,learn_phase(without_color)1,892763,,,,,,,,black_plus_sign,,,null,object_12b.png,object_01a.png,,,,,,,,,,,,,,,,,,,,
null,,black_cross(without_color)1,893307,,,,,,,,green,,,null,object_12b.png,object_01a.png,,,,,,,,,,,,,,,,,,,,
null,,rt_plussign_withcolor1,893818,,,,,,,,green,,,null,object_12b.png,object_01a.png,,,,,,,,,,,,,,,,,,,,
977.0999999940395,,rt_thecrossant_black1,895290,,,,,,,,black_plus_sign,,,50,,,,1,,,,,,1,,,,,,,,,,,,
null,,color_black1,895400,,,,,,,,black_plus_sign,,,null,,,,,,,,,,,,,,,,,,,,,,
null,,learn_phase(without_color)1,898910,,,,,,,,black_plus_sign,,,null,object_07a.png,object_06a.png,,,,,,,,,,,,,,,,,,,,
null,,black_cross(without_color)1,899852,,,,,,,,green,,,null,object_07a.png,object_06a.png,,,,,,,,,,,,,,,,,,,,
null,,rt_plussign_withcolor1,900362,,,,,,,,green,,,null,object_07a.png,object_06a.png,,,,,,,,,,,,,,,,,,,,
1199.699999988079,,rt_thecrossant_black1,901429,,,,,,,,black_plus_sign,,,50,,,,1,,,,,,1,,,,,,,,,,,,
null,,color_black1,901538,,,,,,,,black_plus_sign,,,null,,,,,,,,,,,,,,,,,,,,,,
null,,learn_phase(without_color)1,905060,,,,,,,,black_plus_sign,,,null,object_14c.png,object_04c.png,,,,,,,,,,,,,,,,,,,,
null,,black_cross(without_color)1,905771,,,,,,,,green,,,null,object_14c.png,object_04c.png,,,,,,,,,,,,,,,,,,,,
null,,rt_plussign_withcolor1,906286,,,,,,,,green,,,null,object_14c.png,object_04c.png,,,,,,,,,,,,,,,,,,,,
1233,,rt_thecrossant_black1,907599,,,,,,,,black_plus_sign,,,50,,,,1,,,,,,1,,,,,,,,,,,,
null,,color_black1,907707,,,,,,,,black_plus_sign,,,null,,,,,,,,,,,,,,,,,,,,,,
null,,learn_phase(without_color)1,911218,,,,,,,,black_plus_sign,,,null,object_07c.png,object_15c.png,,,,,,,,,,,,,,,,,,,,
null,,black_cross(without_color)1,912028,,,,,,,,green,,,null,object_07c.png,object_15c.png,,,,,,,,,,,,,,,,,,,,
null,,rt_plussign_withcolor1,912544,,,,,,,,green,,,null,object_07c.png,object_15c.png,,,,,,,,,,,,,,,,,,,,
963.6999999880791,,rt_thecrossant_black1,913750,,,,,,,,black_plus_sign,,,50,,,,1,,,,,,1,,,,,,,,,,,,
null,,color_black1,913862,,,,,,,,black_plus_sign,,,null,,,,,,,,,,,,,,,,,,,,,,
null,,learn_phase(without_color)1,917377,,,,,,,,black_plus_sign,,,null,object_15a.png,object_07a.png,,,,,,,,,,,,,,,,,,,,
null,,black_cross(without_color)1,918209,,,,,,,,green,,,null,object_15a.png,object_07a.png,,,,,,,,,,,,,,,,,,,,
null,,rt_plussign_withcolor1,918723,,,,,,,,green,,,null,object_15a.png,object_07a.png,,,,,,,,,,,,,,,,,,,,
1090.5,,rt_thecrossant_black1,919916,,,,,,,,black_plus_sign,,,50,,,,1,,,,,,1,,,,,,,,,,,,
null,,color_black1,920025,,,,,,,,black_plus_sign,,,null,,,,,,,,,,,,,,,,,,,,,,
null,,learn_phase(without_color)1,923531,,,,,,,,black_plus_sign,,,null,object_02a.png,object_09a.png,,,,,,,,,,,,,,,,,,,,
null,,black_cross(without_color)1,924213,,,,,,,,green,,,null,object_02a.png,object_09a.png,,,,,,,,,,,,,,,,,,,,
null,,rt_plussign_withcolor1,924728,,,,,,,,green,,,null,object_02a.png,object_09a.png,,,,,,,,,,,,,,,,,,,,
949.3999999761581,,rt_thecrossant_black1,926075,,,,,,,,black_plus_sign,,,50,,,,1,,,,,,1,,,,,,,,,,,,
null,,color_black1,926184,,,,,,,,black_plus_sign,,,null,,,,,,,,,,,,,,,,,,,,,,
null,,learn_phase(without_color)1,929703,,,,,,,,black_plus_sign,,,null,object_05c.png,object_02c.png,,,,,,,,,,,,,,,,,,,,
null,,black_cross(without_color)1,930243,,,,,,,,green,,,null,object_05c.png,object_02c.png,,,,,,,,,,,,,,,,,,,,
null,,rt_plussign_withcolor1,930758,,,,,,,,green,,,null,object_05c.png,object_02c.png,,,,,,,,,,,,,,,,,,,,
846.1000000238419,,rt_thecrossant_black1,932252,,,,,,,,black_plus_sign,,,50,,,,1,,,,,,1,,,,,,,,,,,,
null,,color_black1,932360,,,,,,,,black_plus_sign,,,null,,,,,,,,,,,,,,,,,,,,,,
null,,learn_phase(without_color)1,935867,,,,,,,,black_plus_sign,,,null,object_10a.png,object_06c.png,,,,,,,,,,,,,,,,,,,,
null,,black_cross(without_color)1,936484,,,,,,,,blue,,,null,object_10a.png,object_06c.png,,,,,,,,,,,,,,,,,,,,
null,,rt_plussign_withcolor1,937000,,,,,,,,blue,,,null,object_10a.png,object_06c.png,,,,,,,,,,,,,,,,,,,,
1197.4000000059605,,rt_thecrossant_black1,938402,,,,,,,,black_plus_sign,,,49,,,,1,,,,,,1,,,,,,,,,,,,
null,,color_black1,938510,,,,,,,,black_plus_sign,,,null,,,,,,,,,,,,,,,,,,,,,,
null,,learn_phase(without_color)1,942020,,,,,,,,black_plus_sign,,,null,object_07b.png,object_08b.png,,,,,,,,,,,,,,,,,,,,
null,,black_cross(without_color)1,942625,,,,,,,,blue,,,null,object_07b.png,object_08b.png,,,,,,,,,,,,,,,,,,,,
null,,rt_plussign_withcolor1,943139,,,,,,,,blue,,,null,object_07b.png,object_08b.png,,,,,,,,,,,,,,,,,,,,
710.5999999940395,,rt_thecrossant_black1,944547,,,,,,,,black_plus_sign,,,49,,,,1,,,,,,1,,,,,,,,,,,,
null,,color_black1,944657,,,,,,,,black_plus_sign,,,null,,,,,,,,,,,,,,,,,,,,,,
null,,learn_phase(without_color)1,948171,,,,,,,,black_plus_sign,,,null,object_05a.png,object_13a.png,,,,,,,,,,,,,,,,,,,,
null,,black_cross(without_color)1,948790,,,,,,,,blue,,,null,object_05a.png,object_13a.png,,,,,,,,,,,,,,,,,,,,
420.80000001192093,,rt_plussign_withcolor1,949300,,,,,,,,blue,,,49,object_05a.png,object_13a.png,,,,,,,,,,,,,,,,,,,,
null,,rt_thecrossant_black1,950694,,,,,,,,black_plus_sign,,,null,,,,1,,,,,,1,,,,,,,,,,,,
null,,color_black1,950802,,,,,,,,black_plus_sign,,,null,,,,,,,,,,,,,,,,,,,,,,
null,,learn_phase(without_color)1,954322,,,,,,,,black_plus_sign,,,null,object_10c.png,object_05b.png,,,,,,,,,,,,,,,,,,,,
null,,black_cross(without_color)1,955218,,,,,,,,blue,,,null,object_10c.png,object_05b.png,,,,,,,,,,,,,,,,,,,,
472.30000001192093,,rt_plussign_withcolor1,955729,,,,,,,,blue,,,49,object_10c.png,object_05b.png,,,,,,,,,,,,,,,,,,,,
null,,rt_thecrossant_black1,956843,,,,,,,,black_plus_sign,,,null,,,,1,,,,,,1,,,,,,,,,,,,
null,,color_black1,956952,,,,,,,,black_plus_sign,,,null,,,,,,,,,,,,,,,,,,,,,,
null,,learn_phase(without_color)1,960466,,,,,,,,black_plus_sign,,,null,object_04c.png,object_04b.png,,,,,,,,,,,,,,,,,,,,
null,,black_cross(without_color)1,961315,,,,,,,,blue,,,null,object_04c.png,object_04b.png,,,,,,,,,,,,,,,,,,,,
null,,rt_plussign_withcolor1,961826,,,,,,,,blue,,,null,object_04c.png,object_04b.png,,,,,,,,,,,,,,,,,,,,
1220.0999999940395,,rt_thecrossant_black1,962998,,,,,,,,black_plus_sign,,,49,,,,1,,,,,,1,,,,,,,,,,,,
null,,color_black1,963107,,,,,,,,black_plus_sign,,,null,,,,,,,,,,,,,,,,,,,,,,
null,,learn_phase(without_color)1,966627,,,,,,,,black_plus_sign,,,null,object_13a.png,object_11a.png,,,,,,,,,,,,,,,,,,,,
null,,black_cross(without_color)1,967712,,,,,,,,blue,,,null,object_13a.png,object_11a.png,,,,,,,,,,,,,,,,,,,,
null,,rt_plussign_withcolor1,968225,,,,,,,,blue,,,null,object_13a.png,object_11a.png,,,,,,,,,,,,,,,,,,,,
1707.1000000238419,,rt_thecrossant_black1,969150,,,,,,,,black_plus_sign,,,49,,,,1,,,,,,1,,,,,,,,,,,,
null,,color_black1,969267,,,,,,,,black_plus_sign,,,null,,,,,,,,,,,,,,,,,,,,,,
null,,learn_phase(without_color)1,972780,,,,,,,,black_plus_sign,,,null,object_04a.png,object_15b.png,,,,,,,,,,,,,,,,,,,,
null,,black_cross(without_color)1,973568,,,,,,,,green,,,null,object_04a.png,object_15b.png,,,,,,,,,,,,,,,,,,,,
null,,rt_plussign_withcolor1,974079,,,,,,,,green,,,null,object_04a.png,object_15b.png,,,,,,,,,,,,,,,,,,,,
1226,,rt_thecrossant_black1,975328,,,,,,,,black_plus_sign,,,50,,,,1,,,,,,1,,,,,,,,,,,,
null,,color_black1,975442,,,,,,,,black_plus_sign,,,null,,,,,,,,,,,,,,,,,,,,,,
null,,learn_phase(without_color)1,978949,,,,,,,,black_plus_sign,,,null,object_03b.png,object_09c.png,,,,,,,,,,,,,,,,,,,,
null,,black_cross(without_color)1,979459,,,,,,,,blue,,,null,object_03b.png,object_09c.png,,,,,,,,,,,,,,,,,,,,
null,,rt_plussign_withcolor1,979974,,,,,,,,blue,,,null,object_03b.png,object_09c.png,,,,,,,,,,,,,,,,,,,,
947.0999999940395,,rt_thecrossant_black1,981476,,,,,,,,black_plus_sign,,,49,,,,1,,,,,,1,,,,,,,,,,,,
null,,color_black1,981587,,,,,,,,black_plus_sign,,,null,,,,,,,,,,,,,,,,,,,,,,
null,,learn_phase(without_color)1,985095,,,,,,,,black_plus_sign,,,null,object_10b.png,object_03b.png,,,,,,,,,,,,,,,,,,,,
null,,black_cross(without_color)1,985588,,,,,,,,green,,,null,object_10b.png,object_03b.png,,,,,,,,,,,,,,,,,,,,
451.40000000596046,,rt_plussign_withcolor1,986091,,,,,,,,green,,,50,object_10b.png,object_03b.png,,,,,,,,,,,,,,,,,,,,
null,,rt_thecrossant_black1,987614,,,,,,,,black_plus_sign,,,null,,,,1,,,,,,1,,,,,,,,,,,,
null,,color_black1,987721,,,,,,,,black_plus_sign,,,null,,,,,,,,,,,,,,,,,,,,,,
null,,learn_phase(without_color)1,991226,,,,,,,,black_plus_sign,,,null,object_11b.png,object_14b.png,,,,,,,,,,,,,,,,,,,,
null,,black_cross(without_color)1,992290,,,,,,,,blue,,,null,object_11b.png,object_14b.png,,,,,,,,,,,,,,,,,,,,
null,,rt_plussign_withcolor1,992798,,,,,,,,blue,,,null,object_11b.png,object_14b.png,,,,,,,,,,,,,,,,,,,,
888.6999999880791,,rt_thecrossant_black1,993755,,,,,,,,black_plus_sign,,,49,,,,1,,,,,,1,,,,,,,,,,,,
null,,color_black1,993864,,,,,,,,black_plus_sign,,,null,,,,,,,,,,,,,,,,,,,,,,
null,,learn_phase(without_color)1,997384,,,,,,,,black_plus_sign,,,null,object_02c.png,object_14a.png,,,,,,,,,,,,,,,,,,,,
null,,black_cross(without_color)1,998222,,,,,,,,green,,,null,object_02c.png,object_14a.png,,,,,,,,,,,,,,,,,,,,
null,,rt_plussign_withcolor1,998735,,,,,,,,green,,,null,object_02c.png,object_14a.png,,,,,,,,,,,,,,,,,,,,
1213.5,,rt_thecrossant_black1,999914,,,,,,,,black_plus_sign,,,50,,,,1,,,,,,1,,,,,,,,,,,,
null,,color_black1,1000022,,,,,,,,black_plus_sign,,,null,,,,,,,,,,,,,,,,,,,,,,
null,,learn_phase(without_color)1,1003529,,,,,,,,black_plus_sign,,,null,object_09b.png,object_08c.png,,,,,,,,,,,,,,,,,,,,
null,,black_cross(without_color)1,1004038,,,,,,,,green,,,null,object_09b.png,object_08c.png,,,,,,,,,,,,,,,,,,,,
null,,rt_plussign_withcolor1,1004549,,,,,,,,green,,,null,object_09b.png,object_08c.png,,,,,,,,,,,,,,,,,,,,
1162.9000000059605,,rt_thecrossant_black1,1006066,,,,,,,,black_plus_sign,,,50,,,,1,,,,,,1,,,,,,,,,,,,
null,,color_black1,1006175,,,,,,,,black_plus_sign,,,null,,,,,,,,,,,,,,,,,,,,,,
null,,learn_phase(without_color)1,1009692,,,,,,,,black_plus_sign,,,null,object_11c.png,object_10a.png,,,,,,,,,,,,,,,,,,,,
null,,black_cross(without_color)1,1010760,,,,,,,,green,,,null,object_11c.png,object_10a.png,,,,,,,,,,,,,,,,,,,,
476.2000000178814,,rt_plussign_withcolor1,1011262,,,,,,,,green,,,50,object_11c.png,object_10a.png,,,,,,,,,,,,,,,,,,,,
null,,rt_thecrossant_black1,1012213,,,,,,,,black_plus_sign,,,null,,,,1,,,,,,1,,,,,,,,,,,,
null,,color_black1,1012320,,,,,,,,black_plus_sign,,,null,,,,,,,,,,,,,,,,,,,,,,
null,,thebreak,1012430,,,,,,,,<p></p>,,,null,,,,,,,,,,,,,,,,,,,,,,
19749.69999998808,,intro_0,1032183,,,,,,,,instruct,,,32,,,,,,,,,,,,,,,,,,,,,,
6825,,directmemory_phase1,1039011,,,,,,,,object_06c.png,,,50,,,,0,object_10a.png,object_05b.png,object_04c.png,object_10a.png,,0,0,,,,,,,,,,,
8330.799999982119,,directmemory_phase1,1047349,,,,,,,,object_12c.png,,,49,,,,1,object_15c.png,object_13b.png,object_04a.png,object_15c.png,,0.5,1,,,,,,,,,,,
12665.700000017881,,directmemory_phase1,1060019,,,,,,,,object_15b.png,,,49,,,,1,object_04a.png,object_08c.png,object_14b.png,object_04a.png,,0.6666666666666666,1,,,,,,,,,,,
9656.100000023842,,directmemory_phase1,1069678,,,,,,,,object_08c.png,,,50,,,,1,object_11b.png,object_09b.png,object_14c.png,object_09b.png,,0.75,1,,,,,,,,,,,
9831.90000000596,,directmemory_phase1,1079513,,,,,,,,object_04b.png,,,51,,,,1,object_12b.png,object_15c.png,object_04c.png,object_04c.png,,0.8,1,,,,,,,,,,,
null,,directmemory_phase1,1094518,,,,,,,,object_06b.png,,,null,,,,0,object_08c.png,object_04c.png,object_07a.png,object_08c.png,,0.6666666666666666,0,,,,,,,,,,,
null,,warning_page,1099537,,,,,,,,warning,,,null,,,,,,,,,,,,,,,,,,,,,,
3114.800000011921,,directmemory_phase1,1102654,,,,,,,,object_01c.png,,,50,,,,1,object_10a.png,object_14b.png,object_07a.png,object_14b.png,,0.7142857142857143,1,,,,,,,,,,,
8382,,directmemory_phase1,1111041,,,,,,,,object_13b.png,,,49,,,,1,object_02b.png,object_01b.png,object_07b.png,object_02b.png,,0.75,1,,,,,,,,,,,
5784.5999999940395,,directmemory_phase1,1116834,,,,,,,,object_06a.png,,,51,,,,1,object_02a.png,object_12b.png,object_07a.png,object_07a.png,,0.7777777777777778,1,,,,,,,,,,,
9317.5,,directmemory_phase1,1126160,,,,,,,,object_13c.png,,,49,,,,0,object_14b.png,object_08b.png,object_15c.png,object_08b.png,,0.7,0,,,,,,,,,,,
6054.4000000059605,,directmemory_phase1,1132219,,,,,,,,object_04c.png,,,51,,,,1,object_11c.png,object_03a.png,object_14c.png,object_14c.png,,0.7272727272727273,1,,,,,,,,,,,
5848.300000011921,,directmemory_phase1,1138073,,,,,,,,object_14b.png,,,50,,,,1,object_10c.png,object_11b.png,object_07b.png,object_11b.png,,0.75,1,,,,,,,,,,,
2144.7000000178814,,directmemory_phase1,1140222,,,,,,,,object_14a.png,,,50,,,,1,object_14b.png,object_02c.png,object_08c.png,object_02c.png,,0.7692307692307693,1,,,,,,,,,,,
5462,,directmemory_phase1,1145687,,,,,,,,object_05b.png,,,50,,,,1,object_11b.png,object_10c.png,object_07b.png,object_10c.png,,0.7857142857142857,1,,,,,,,,,,,
4382.4000000059605,,directmemory_phase1,1150072,,,,,,,,object_07a.png,,,49,,,,1,object_15a.png,object_10b.png,object_12a.png,object_15a.png,,0.8,1,,,,,,,,,,,
10542.09999999404,,directmemory_phase1,1160618,,,,,,,,object_03c.png,,,50,,,,1,object_07a.png,object_13b.png,object_04a.png,object_13b.png,,0.8125,1,,,,,,,,,,,
9303.300000011921,,directmemory_phase1,1169925,,,,,,,,object_08a.png,,,51,,,,1,object_02a.png,object_04a.png,object_05b.png,object_05b.png,,0.8235294117647058,1,,,,,,,,,,,
12010.90000000596,,directmemory_phase1,1181940,,,,,,,,object_10a.png,,,49,,,,1,object_11c.png,object_07b.png,object_10c.png,object_11c.png,,0.8333333333333334,1,,,,,,,,,,,
8796,,directmemory_phase1,1190741,,,,,,,,object_09c.png,,,49,,,,1,object_03b.png,object_15c.png,object_08c.png,object_03b.png,,0.8421052631578947,1,,,,,,,,,,,
2027.9000000059605,,directmemory_phase1,1192776,,,,,,,,object_08b.png,,,49,,,,1,object_07b.png,object_15a.png,object_09b.png,object_07b.png,,0.85,1,,,,,,,,,,,
10920,,directmemory_phase1,1203701,,,,,,,,object_01a.png,,,49,,,,0,object_13b.png,object_12b.png,object_14b.png,object_12b.png,,0.8095238095238095,0,,,,,,,,,,,
4989.799999982119,,directmemory_phase1,1208695,,,,,,,,object_12b.png,,,50,,,,1,object_01b.png,object_12a.png,object_07c.png,object_12a.png,,0.8181818181818182,1,,,,,,,,,,,
13358.600000023842,,directmemory_phase1,1222061,,,,,,,,object_03b.png,,,49,,,,0,object_12a.png,object_10b.png,object_11b.png,object_10b.png,,0.782608695652174,0,,,,,,,,,,,
5842.800000011921,,directmemory_phase1,1227908,,,,,,,,object_13a.png,,,51,,,,1,object_12a.png,object_05c.png,object_05a.png,object_05a.png,,0.7916666666666666,1,,,,,,,,,,,
10375.200000017881,,directmemory_phase1,1238287,,,,,,,,object_02a.png,,,51,,,,1,object_12a.png,object_07c.png,object_01b.png,object_01b.png,,0.8,1,,,,,,,,,,,
7052.699999988079,,directmemory_phase1,1245345,,,,,,,,object_11a.png,,,50,,,,1,object_08c.png,object_13a.png,object_05b.png,object_13a.png,,0.8076923076923077,1,,,,,,,,,,,
9736.700000017881,,directmemory_phase1,1255087,,,,,,,,object_02c.png,,,50,,,,0,object_05c.png,object_07c.png,object_14c.png,object_05c.png,,0.7777777777777778,0,,,,,,,,,,,
8967,,directmemory_phase1,1264058,,,,,,,,object_04a.png,,,49,,,,0,object_01b.png,object_03a.png,object_10c.png,object_03a.png,,0.75,0,,,,,,,,,,,
7622.9000000059605,,directmemory_phase1,1271685,,,,,,,,object_09a.png,,,50,,,,0,object_02a.png,object_08b.png,object_14b.png,object_02a.png,,0.7241379310344828,0,,,,,,,,,,,
10543.300000011921,,directmemory_phase1,1282233,,,,,,,,object_15c.png,,,51,,,,1,object_10b.png,object_02b.png,object_07c.png,object_07c.png,,0.7333333333333333,1,,,,,,,,,,,
null,,thebreak,1282344,,,,,,,,<p></p>,,,null,,,,,,,,,,,,,,,,,,,,,,
1694.5999999940395,,intro_0,1284041,,,,,,,,instruct,,,32,,,,,,,,,,,,,,,,,,,,,,
null,,learn_phase(without_color)2,1287555,,,,,,,,black_plus_sign,,,null,object_07b.png,object_08b.png,,,,,,,,,,,,,,,,,,,,
null,,black_cross(without_color)2,1288162,,,,,,,,green,,,null,object_07b.png,object_08b.png,,,,,,,,,,,,,,,,,,,,
null,,rt_plussign_withcolor2,1288675,,,,,,,,green,,,null,object_07b.png,object_08b.png,,,,,,,,,,,,,,,,,,,,
984.4000000059605,,rt_thecrossant_black2,1290079,,,,,,,,black_plus_sign,,,50,,,,1,,,,,,1,,,,,,,,,,,,
null,,color_black2,1290187,,,,,,,,black_plus_sign,,,null,,,,,,,,,,,,,,,,,,,,,,
null,,learn_phase(without_color)2,1293696,,,,,,,,black_plus_sign,,,null,object_10a.png,object_06c.png,,,,,,,,,,,,,,,,,,,,
null,,black_cross(without_color)2,1294129,,,,,,,,blue,,,null,object_10a.png,object_06c.png,,,,,,,,,,,,,,,,,,,,
null,,rt_plussign_withcolor2,1294640,,,,,,,,blue,,,null,object_10a.png,object_06c.png,,,,,,,,,,,,,,,,,,,,
896.3000000119209,,rt_thecrossant_black2,1296232,,,,,,,,black_plus_sign,,,49,,,,1,,,,,,1,,,,,,,,,,,,
null,,color_black2,1296342,,,,,,,,black_plus_sign,,,null,,,,,,,,,,,,,,,,,,,,,,
null,,learn_phase(without_color)2,1299848,,,,,,,,black_plus_sign,,,null,object_08c.png,object_06b.png,,,,,,,,,,,,,,,,,,,,
null,,black_cross(without_color)2,1300948,,,,,,,,green,,,null,object_08c.png,object_06b.png,,,,,,,,,,,,,,,,,,,,
438.90000000596046,,rt_plussign_withcolor2,1301463,,,,,,,,green,,,50,object_08c.png,object_06b.png,,,,,,,,,,,,,,,,,,,,
null,,rt_thecrossant_black2,1302377,,,,,,,,black_plus_sign,,,null,,,,1,,,,,,1,,,,,,,,,,,,
null,,color_black2,1302487,,,,,,,,black_plus_sign,,,null,,,,,,,,,,,,,,,,,,,,,,
null,,learn_phase(without_color)2,1305994,,,,,,,,black_plus_sign,,,null,object_08b.png,object_13c.png,,,,,,,,,,,,,,,,,,,,
null,,black_cross(without_color)2,1306526,,,,,,,,green,,,null,object_08b.png,object_13c.png,,,,,,,,,,,,,,,,,,,,
null,,rt_plussign_withcolor2,1307037,,,,,,,,green,,,null,object_08b.png,object_13c.png,,,,,,,,,,,,,,,,,,,,
1466.699999988079,,rt_thecrossant_black2,1308540,,,,,,,,black_plus_sign,,,50,,,,1,,,,,,1,,,,,,,,,,,,
null,,color_black2,1308646,,,,,,,,black_plus_sign,,,null,,,,,,,,,,,,,,,,,,,,,,
null,,learn_phase(without_color)2,1312153,,,,,,,,black_plus_sign,,,null,object_09b.png,object_08c.png,,,,,,,,,,,,,,,,,,,,
null,,black_cross(without_color)2,1313000,,,,,,,,green,,,null,object_09b.png,object_08c.png,,,,,,,,,,,,,,,,,,,,
null,,rt_plussign_withcolor2,1313510,,,,,,,,green,,,null,object_09b.png,object_08c.png,,,,,,,,,,,,,,,,,,,,
739.9000000059605,,rt_thecrossant_black2,1314684,,,,,,,,black_plus_sign,,,50,,,,1,,,,,,1,,,,,,,,,,,,
null,,color_black2,1314793,,,,,,,,black_plus_sign,,,null,,,,,,,,,,,,,,,,,,,,,,
null,,learn_phase(without_color)2,1318303,,,,,,,,black_plus_sign,,,null,object_14c.png,object_04c.png,,,,,,,,,,,,,,,,,,,,
null,,black_cross(without_color)2,1319056,,,,,,,,blue,,,null,object_14c.png,object_04c.png,,,,,,,,,,,,,,,,,,,,
null,,rt_plussign_withcolor2,1319569,,,,,,,,blue,,,null,object_14c.png,object_04c.png,,,,,,,,,,,,,,,,,,,,
1352.300000011921,,rt_thecrossant_black2,1320839,,,,,,,,black_plus_sign,,,49,,,,1,,,,,,1,,,,,,,,,,,,
null,,color_black2,1320949,,,,,,,,black_plus_sign,,,null,,,,,,,,,,,,,,,,,,,,,,
null,,learn_phase(without_color)2,1324462,,,,,,,,black_plus_sign,,,null,object_12b.png,object_01a.png,,,,,,,,,,,,,,,,,,,,
null,,black_cross(without_color)2,1325094,,,,,,,,blue,,,null,object_12b.png,object_01a.png,,,,,,,,,,,,,,,,,,,,
null,,rt_plussign_withcolor2,1325605,,,,,,,,blue,,,null,object_12b.png,object_01a.png,,,,,,,,,,,,,,,,,,,,
1130.2999999821186,,rt_thecrossant_black2,1326994,,,,,,,,black_plus_sign,,,49,,,,1,,,,,,1,,,,,,,,,,,,
null,,color_black2,1327104,,,,,,,,black_plus_sign,,,null,,,,,,,,,,,,,,,,,,,,,,
null,,learn_phase(without_color)2,1330617,,,,,,,,black_plus_sign,,,null,object_11b.png,object_14b.png,,,,,,,,,,,,,,,,,,,,
null,,black_cross(without_color)2,1331702,,,,,,,,green,,,null,object_11b.png,object_14b.png,,,,,,,,,,,,,,,,,,,,
null,,rt_plussign_withcolor2,1332216,,,,,,,,green,,,null,object_11b.png,object_14b.png,,,,,,,,,,,,,,,,,,,,
1256.5,,rt_thecrossant_black2,1333157,,,,,,,,black_plus_sign,,,50,,,,1,,,,,,1,,,,,,,,,,,,
null,,color_black2,1333265,,,,,,,,black_plus_sign,,,null,,,,,,,,,,,,,,,,,,,,,,
null,,learn_phase(without_color)2,1336773,,,,,,,,black_plus_sign,,,null,object_07c.png,object_15c.png,,,,,,,,,,,,,,,,,,,,
null,,black_cross(without_color)2,1337579,,,,,,,,green,,,null,object_07c.png,object_15c.png,,,,,,,,,,,,,,,,,,,,
null,,rt_plussign_withcolor2,1338093,,,,,,,,green,,,null,object_07c.png,object_15c.png,,,,,,,,,,,,,,,,,,,,
1622.0999999940395,,rt_thecrossant_black2,1339317,,,,,,,,black_plus_sign,,,50,,,,1,,,,,,1,,,,,,,,,,,,
null,,color_black2,1339427,,,,,,,,black_plus_sign,,,null,,,,,,,,,,,,,,,,,,,,,,
null,,learn_phase(without_color)2,1342944,,,,,,,,black_plus_sign,,,null,object_10c.png,object_05b.png,,,,,,,,,,,,,,,,,,,,
null,,black_cross(without_color)2,1343684,,,,,,,,green,,,null,object_10c.png,object_05b.png,,,,,,,,,,,,,,,,,,,,
null,,rt_plussign_withcolor2,1344195,,,,,,,,green,,,null,object_10c.png,object_05b.png,,,,,,,,,,,,,,,,,,,,
1513.199999988079,,rt_thecrossant_black2,1345483,,,,,,,,black_plus_sign,,,50,,,,1,,,,,,1,,,,,,,,,,,,
null,,color_black2,1345593,,,,,,,,black_plus_sign,,,null,,,,,,,,,,,,,,,,,,,,,,
null,,learn_phase(without_color)2,1349099,,,,,,,,black_plus_sign,,,null,object_03b.png,object_09c.png,,,,,,,,,,,,,,,,,,,,
null,,black_cross(without_color)2,1350148,,,,,,,,green,,,null,object_03b.png,object_09c.png,,,,,,,,,,,,,,,,,,,,
null,,rt_plussign_withcolor2,1350660,,,,,,,,green,,,null,object_03b.png,object_09c.png,,,,,,,,,,,,,,,,,,,,
869.9000000059605,,rt_thecrossant_black2,1351629,,,,,,,,black_plus_sign,,,50,,,,1,,,,,,1,,,,,,,,,,,,
null,,color_black2,1351739,,,,,,,,black_plus_sign,,,null,,,,,,,,,,,,,,,,,,,,,,
null,,learn_phase(without_color)2,1355256,,,,,,,,black_plus_sign,,,null,object_15a.png,object_07a.png,,,,,,,,,,,,,,,,,,,,
null,,black_cross(without_color)2,1356158,,,,,,,,green,,,null,object_15a.png,object_07a.png,,,,,,,,,,,,,,,,,,,,
null,,rt_plussign_withcolor2,1356671,,,,,,,,green,,,null,object_15a.png,object_07a.png,,,,,,,,,,,,,,,,,,,,
1334.2999999821186,,rt_thecrossant_black2,1357787,,,,,,,,black_plus_sign,,,50,,,,1,,,,,,1,,,,,,,,,,,,
null,,color_black2,1357894,,,,,,,,black_plus_sign,,,null,,,,,,,,,,,,,,,,,,,,,,
null,,learn_phase(without_color)2,1361402,,,,,,,,black_plus_sign,,,null,object_02b.png,object_13b.png,,,,,,,,,,,,,,,,,,,,
null,,black_cross(without_color)2,1361885,,,,,,,,green,,,null,object_02b.png,object_13b.png,,,,,,,,,,,,,,,,,,,,
null,,rt_plussign_withcolor2,1362397,,,,,,,,green,,,null,object_02b.png,object_13b.png,,,,,,,,,,,,,,,,,,,,
1210.0999999940395,,rt_thecrossant_black2,1363944,,,,,,,,black_plus_sign,,,50,,,,1,,,,,,1,,,,,,,,,,,,
null,,color_black2,1364054,,,,,,,,black_plus_sign,,,null,,,,,,,,,,,,,,,,,,,,,,
null,,learn_phase(without_color)2,1367567,,,,,,,,black_plus_sign,,,null,object_03a.png,object_04a.png,,,,,,,,,,,,,,,,,,,,
null,,black_cross(without_color)2,1368408,,,,,,,,blue,,,null,object_03a.png,object_04a.png,,,,,,,,,,,,,,,,,,,,
null,,rt_plussign_withcolor2,1368924,,,,,,,,blue,,,null,object_03a.png,object_04a.png,,,,,,,,,,,,,,,,,,,,
718.0999999940395,,rt_thecrossant_black2,1370113,,,,,,,,black_plus_sign,,,49,,,,1,,,,,,1,,,,,,,,,,,,
null,,color_black2,1370222,,,,,,,,black_plus_sign,,,null,,,,,,,,,,,,,,,,,,,,,,
null,,learn_phase(without_color)2,1373737,,,,,,,,black_plus_sign,,,null,object_04a.png,object_15b.png,,,,,,,,,,,,,,,,,,,,
null,,black_cross(without_color)2,1374694,,,,,,,,green,,,null,object_04a.png,object_15b.png,,,,,,,,,,,,,,,,,,,,
null,,rt_plussign_withcolor2,1375202,,,,,,,,green,,,null,object_04a.png,object_15b.png,,,,,,,,,,,,,,,,,,,,
941.0999999940395,,rt_thecrossant_black2,1376270,,,,,,,,black_plus_sign,,,50,,,,1,,,,,,1,,,,,,,,,,,,
null,,color_black2,1376379,,,,,,,,black_plus_sign,,,null,,,,,,,,,,,,,,,,,,,,,,
null,,learn_phase(without_color)2,1379884,,,,,,,,black_plus_sign,,,null,object_10b.png,object_03b.png,,,,,,,,,,,,,,,,,,,,
null,,black_cross(without_color)2,1380690,,,,,,,,blue,,,null,object_10b.png,object_03b.png,,,,,,,,,,,,,,,,,,,,
null,,rt_plussign_withcolor2,1381209,,,,,,,,blue,,,null,object_10b.png,object_03b.png,,,,,,,,,,,,,,,,,,,,
1053.7000000178814,,rt_thecrossant_black2,1382415,,,,,,,,black_plus_sign,,,49,,,,1,,,,,,1,,,,,,,,,,,,
null,,color_black2,1382522,,,,,,,,black_plus_sign,,,null,,,,,,,,,,,,,,,,,,,,,,
null,,learn_phase(without_color)2,1386026,,,,,,,,black_plus_sign,,,null,object_14b.png,object_01c.png,,,,,,,,,,,,,,,,,,,,
null,,black_cross(without_color)2,1386659,,,,,,,,green,,,null,object_14b.png,object_01c.png,,,,,,,,,,,,,,,,,,,,
null,,rt_plussign_withcolor2,1387172,,,,,,,,green,,,null,object_14b.png,object_01c.png,,,,,,,,,,,,,,,,,,,,
1029.7999999821186,,rt_thecrossant_black2,1388562,,,,,,,,black_plus_sign,,,50,,,,1,,,,,,1,,,,,,,,,,,,
null,,color_black2,1388671,,,,,,,,black_plus_sign,,,null,,,,,,,,,,,,,,,,,,,,,,
null,,learn_phase(without_color)2,1392179,,,,,,,,black_plus_sign,,,null,object_15c.png,object_12c.png,,,,,,,,,,,,,,,,,,,,
null,,black_cross(without_color)2,1393060,,,,,,,,green,,,null,object_15c.png,object_12c.png,,,,,,,,,,,,,,,,,,,,
null,,rt_plussign_withcolor2,1393571,,,,,,,,green,,,null,object_15c.png,object_12c.png,,,,,,,,,,,,,,,,,,,,
857,,rt_thecrossant_black2,1394717,,,,,,,,black_plus_sign,,,50,,,,1,,,,,,1,,,,,,,,,,,,
null,,color_black2,1394827,,,,,,,,black_plus_sign,,,null,,,,,,,,,,,,,,,,,,,,,,
null,,learn_phase(without_color)2,1398343,,,,,,,,black_plus_sign,,,null,object_13a.png,object_11a.png,,,,,,,,,,,,,,,,,,,,
null,,black_cross(without_color)2,1398795,,,,,,,,green,,,null,object_13a.png,object_11a.png,,,,,,,,,,,,,,,,,,,,
null,,rt_plussign_withcolor2,1399307,,,,,,,,green,,,null,object_13a.png,object_11a.png,,,,,,,,,,,,,,,,,,,,
1117.699999988079,,rt_thecrossant_black2,1400881,,,,,,,,black_plus_sign,,,50,,,,1,,,,,,1,,,,,,,,,,,,
null,,color_black2,1400990,,,,,,,,black_plus_sign,,,null,,,,,,,,,,,,,,,,,,,,,,
null,,learn_phase(without_color)2,1404496,,,,,,,,black_plus_sign,,,null,object_04c.png,object_04b.png,,,,,,,,,,,,,,,,,,,,
null,,black_cross(without_color)2,1405360,,,,,,,,green,,,null,object_04c.png,object_04b.png,,,,,,,,,,,,,,,,,,,,
null,,rt_plussign_withcolor2,1405871,,,,,,,,green,,,null,object_04c.png,object_04b.png,,,,,,,,,,,,,,,,,,,,
735,,rt_thecrossant_black2,1407037,,,,,,,,black_plus_sign,,,50,,,,1,,,,,,1,,,,,,,,,,,,
null,,color_black2,1407146,,,,,,,,black_plus_sign,,,null,,,,,,,,,,,,,,,,,,,,,,
null,,learn_phase(without_color)2,1410652,,,,,,,,black_plus_sign,,,null,object_01b.png,object_02a.png,,,,,,,,,,,,,,,,,,,,
null,,black_cross(without_color)2,1411593,,,,,,,,green,,,null,object_01b.png,object_02a.png,,,,,,,,,,,,,,,,,,,,
490,,rt_plussign_withcolor2,1412103,,,,,,,,green,,,50,object_01b.png,object_02a.png,,,,,,,,,,,,,,,,,,,,
null,,rt_thecrossant_black2,1413175,,,,,,,,black_plus_sign,,,null,,,,1,,,,,,1,,,,,,,,,,,,
null,,color_black2,1413288,,,,,,,,black_plus_sign,,,null,,,,,,,,,,,,,,,,,,,,,,
null,,learn_phase(without_color)2,1416801,,,,,,,,black_plus_sign,,,null,object_02c.png,object_14a.png,,,,,,,,,,,,,,,,,,,,
null,,black_cross(without_color)2,1417671,,,,,,,,blue,,,null,object_02c.png,object_14a.png,,,,,,,,,,,,,,,,,,,,
360.2000000178814,,rt_plussign_withcolor2,1418175,,,,,,,,blue,,,49,object_02c.png,object_14a.png,,,,,,,,,,,,,,,,,,,,
null,,rt_thecrossant_black2,1419327,,,,,,,,black_plus_sign,,,null,,,,1,,,,,,1,,,,,,,,,,,,
null,,color_black2,1419436,,,,,,,,black_plus_sign,,,null,,,,,,,,,,,,,,,,,,,,,,
null,,learn_phase(without_color)2,1422953,,,,,,,,black_plus_sign,,,null,object_12a.png,object_12b.png,,,,,,,,,,,,,,,,,,,,
null,,black_cross(without_color)2,1423461,,,,,,,,green,,,null,object_12a.png,object_12b.png,,,,,,,,,,,,,,,,,,,,
null,,rt_plussign_withcolor2,1423973,,,,,,,,green,,,null,object_12a.png,object_12b.png,,,,,,,,,,,,,,,,,,,,
1129.5999999940395,,rt_thecrossant_black2,1425483,,,,,,,,black_plus_sign,,,50,,,,1,,,,,,1,,,,,,,,,,,,
null,,color_black2,1425592,,,,,,,,black_plus_sign,,,null,,,,,,,,,,,,,,,,,,,,,,
null,,learn_phase(without_color)2,1429106,,,,,,,,black_plus_sign,,,null,object_05a.png,object_13a.png,,,,,,,,,,,,,,,,,,,,
null,,black_cross(without_color)2,1430168,,,,,,,,green,,,null,object_05a.png,object_13a.png,,,,,,,,,,,,,,,,,,,,
472.09999999403954,,rt_plussign_withcolor2,1430672,,,,,,,,green,,,50,object_05a.png,object_13a.png,,,,,,,,,,,,,,,,,,,,
null,,rt_thecrossant_black2,1431640,,,,,,,,black_plus_sign,,,null,,,,1,,,,,,1,,,,,,,,,,,,
null,,color_black2,1431749,,,,,,,,black_plus_sign,,,null,,,,,,,,,,,,,,,,,,,,,,
null,,learn_phase(without_color)2,1435264,,,,,,,,black_plus_sign,,,null,object_05b.png,object_08a.png,,,,,,,,,,,,,,,,,,,,
null,,black_cross(without_color)2,1435773,,,,,,,,green,,,null,object_05b.png,object_08a.png,,,,,,,,,,,,,,,,,,,,
null,,rt_plussign_withcolor2,1436285,,,,,,,,green,,,null,object_05b.png,object_08a.png,,,,,,,,,,,,,,,,,,,,
1150.4000000059605,,rt_thecrossant_black2,1437799,,,,,,,,black_plus_sign,,,50,,,,1,,,,,,1,,,,,,,,,,,,
null,,color_black2,1437908,,,,,,,,black_plus_sign,,,null,,,,,,,,,,,,,,,,,,,,,,
null,,learn_phase(without_color)2,1441415,,,,,,,,black_plus_sign,,,null,object_13b.png,object_03c.png,,,,,,,,,,,,,,,,,,,,
null,,black_cross(without_color)2,1442512,,,,,,,,blue,,,null,object_13b.png,object_03c.png,,,,,,,,,,,,,,,,,,,,
295.5,,rt_plussign_withcolor2,1443027,,,,,,,,blue,,,50,object_13b.png,object_03c.png,,,,,,,,,,,,,,,,,,,,
null,,rt_thecrossant_black2,1443961,,,,,,,,black_plus_sign,,,49,,,,0,,,,,,0.9615384615384616,,,,,,,,,,,,
null,,color_black2,1444068,,,,,,,,black_plus_sign,,,null,,,,,,,,,,,,,,,,,,,,,,
null,,learn_phase(without_color)2,1447583,,,,,,,,black_plus_sign,,,null,object_11c.png,object_10a.png,,,,,,,,,,,,,,,,,,,,
null,,black_cross(without_color)2,1448292,,,,,,,,green,,,null,object_11c.png,object_10a.png,,,,,,,,,,,,,,,,,,,,
null,,rt_plussign_withcolor2,1448804,,,,,,,,green,,,null,object_11c.png,object_10a.png,,,,,,,,,,,,,,,,,,,,
1461.699999988079,,rt_thecrossant_black2,1450132,,,,,,,,black_plus_sign,,,50,,,,1,,,,,,0.9629629629629629,,,,,,,,,,,,
null,,color_black2,1450241,,,,,,,,black_plus_sign,,,null,,,,,,,,,,,,,,,,,,,,,,
null,,learn_phase(without_color)2,1453759,,,,,,,,black_plus_sign,,,null,object_02a.png,object_09a.png,,,,,,,,,,,,,,,,,,,,
null,,black_cross(without_color)2,1454500,,,,,,,,blue,,,null,object_02a.png,object_09a.png,,,,,,,,,,,,,,,,,,,,
502.60000002384186,,rt_plussign_withcolor2,1455005,,,,,,,,blue,,,49,object_02a.png,object_09a.png,,,,,,,,,,,,,,,,,,,,
null,,rt_thecrossant_black2,1456282,,,,,,,,black_plus_sign,,,null,,,,1,,,,,,0.9642857142857143,,,,,,,,,,,,
null,,color_black2,1456389,,,,,,,,black_plus_sign,,,null,,,,,,,,,,,,,,,,,,,,,,
null,,learn_phase(without_color)2,1459892,,,,,,,,black_plus_sign,,,null,object_07a.png,object_06a.png,,,,,,,,,,,,,,,,,,,,
null,,black_cross(without_color)2,1460496,,,,,,,,green,,,null,object_07a.png,object_06a.png,,,,,,,,,,,,,,,,,,,,
null,,rt_plussign_withcolor2,1460999,,,,,,,,green,,,null,object_07a.png,object_06a.png,,,,,,,,,,,,,,,,,,,,
1295,,rt_thecrossant_black2,1462413,,,,,,,,black_plus_sign,,,50,,,,1,,,,,,0.9655172413793104,,,,,,,,,,,,
null,,color_black2,1462522,,,,,,,,black_plus_sign,,,null,,,,,,,,,,,,,,,,,,,,,,
null,,learn_phase(without_color)2,1466036,,,,,,,,black_plus_sign,,,null,object_05c.png,object_02c.png,,,,,,,,,,,,,,,,,,,,
null,,black_cross(without_color)2,1467056,,,,,,,,blue,,,null,object_05c.png,object_02c.png,,,,,,,,,,,,,,,,,,,,
null,,rt_plussign_withcolor2,1467565,,,,,,,,blue,,,null,object_05c.png,object_02c.png,,,,,,,,,,,,,,,,,,,,
763.5999999940395,,rt_thecrossant_black2,1468575,,,,,,,,black_plus_sign,,,49,,,,1,,,,,,0.9666666666666667,,,,,,,,,,,,
null,,color_black2,1468683,,,,,,,,black_plus_sign,,,null,,,,,,,,,,,,,,,,,,,,,,
null,,thebreak,1468792,,,,,,,,<p></p>,,,null,,,,,,,,,,,,,,,,,,,,,,
19830.59999999404,,intro_0,1488626,,,,,,,,instruct,,,32,,,,,,,,,,,,,,,,,,,,,,
3016.800000011921,,directmemory_phase2,1491646,,,,,,,,object_14b.png,,,51,,,,1,object_01b.png,object_10c.png,object_11b.png,object_11b.png,,0.7419354838709677,1,,,,,,,,,,,
9441.100000023842,,directmemory_phase2,1501092,,,,,,,,object_09a.png,,,51,,,,0,object_02c.png,object_02a.png,object_08b.png,object_02a.png,,0.71875,0,,,,,,,,,,,
4335.200000017881,,directmemory_phase2,1505432,,,,,,,,object_02c.png,,,50,,,,0,object_05c.png,object_01b.png,object_15a.png,object_05c.png,,0.696969696969697,0,,,,,,,,,,,
9544.09999999404,,directmemory_phase2,1514980,,,,,,,,object_04c.png,,,49,,,,0,object_11c.png,object_14c.png,object_09b.png,object_14c.png,,0.6764705882352942,0,,,,,,,,,,,
4390,,directmemory_phase2,1519375,,,,,,,,object_09c.png,,,51,,,,1,object_08c.png,object_12b.png,object_03b.png,object_03b.png,,0.6857142857142857,1,,,,,,,,,,,
6279.200000017881,,directmemory_phase2,1525660,,,,,,,,object_13a.png,,,49,,,,1,object_05a.png,object_09b.png,object_10c.png,object_05a.png,,0.6944444444444444,1,,,,,,,,,,,
12451.09999999404,,directmemory_phase2,1538118,,,,,,,,object_03c.png,,,50,,,,0,object_10a.png,object_03b.png,object_13b.png,object_13b.png,,0.6756756756756757,0,,,,,,,,,,,
6941.9000000059605,,directmemory_phase2,1545065,,,,,,,,object_12b.png,,,49,,,,1,object_12a.png,object_14c.png,object_10c.png,object_12a.png,,0.6842105263157895,1,,,,,,,,,,,
257,,directmemory_phase2,1545328,,,,,,,,object_08b.png,,,49,,,,1,object_07b.png,object_10c.png,object_10b.png,object_07b.png,,0.6923076923076923,1,,,,,,,,,,,
6828.5999999940395,,directmemory_phase2,1552161,,,,,,,,object_03b.png,,,51,,,,0,object_10c.png,object_10b.png,object_01b.png,object_10b.png,,0.675,0,,,,,,,,,,,
2606.600000023842,,directmemory_phase2,1554774,,,,,,,,object_12c.png,,,49,,,,1,object_15c.png,object_02a.png,object_14b.png,object_15c.png,,0.6829268292682927,1,,,,,,,,,,,
12074,,directmemory_phase2,1566853,,,,,,,,object_15c.png,,,51,,,,1,object_07b.png,object_10c.png,object_07c.png,object_07c.png,,0.6904761904761905,1,,,,,,,,,,,
11067.59999999404,,directmemory_phase2,1577926,,,,,,,,object_06c.png,,,50,,,,1,object_04c.png,object_10a.png,object_05b.png,object_10a.png,,0.6976744186046512,1,,,,,,,,,,,
8106.0999999940395,,directmemory_phase2,1586037,,,,,,,,object_08c.png,,,51,,,,1,object_03a.png,object_10b.png,object_09b.png,object_09b.png,,0.7045454545454546,1,,,,,,,,,,,
4932.799999982119,,directmemory_phase2,1590975,,,,,,,,object_13b.png,,,51,,,,1,object_05c.png,object_07b.png,object_02b.png,object_02b.png,,0.7111111111111111,1,,,,,,,,,,,
10715.299999982119,,directmemory_phase2,1601694,,,,,,,,object_04b.png,,,50,,,,0,object_13b.png,object_04a.png,object_04c.png,object_04c.png,,0.6956521739130435,0,,,,,,,,,,,
9646.59999999404,,directmemory_phase2,1611346,,,,,,,,object_02a.png,,,50,,,,1,object_10c.png,object_01b.png,object_07c.png,object_01b.png,,0.7021276595744681,1,,,,,,,,,,,
6246.4000000059605,,directmemory_phase2,1617597,,,,,,,,object_01c.png,,,50,,,,0,object_14b.png,object_03b.png,object_04a.png,object_14b.png,,0.6875,0,,,,,,,,,,,
11718,,directmemory_phase2,1629320,,,,,,,,object_05b.png,,,50,,,,1,object_03a.png,object_10c.png,object_15a.png,object_10c.png,,0.6938775510204082,1,,,,,,,,,,,
4561.5,,directmemory_phase2,1633886,,,,,,,,object_11a.png,,,51,,,,1,object_04c.png,object_08b.png,object_13a.png,object_13a.png,,0.7,1,,,,,,,,,,,
2801.0999999940395,,directmemory_phase2,1636694,,,,,,,,object_07a.png,,,50,,,,1,object_01b.png,object_15a.png,object_07b.png,object_15a.png,,0.7058823529411765,1,,,,,,,,,,,
4354.800000011921,,directmemory_phase2,1641054,,,,,,,,object_06a.png,,,51,,,,1,object_02a.png,object_04c.png,object_07a.png,object_07a.png,,0.7115384615384616,1,,,,,,,,,,,
12280.700000017881,,directmemory_phase2,1653340,,,,,,,,object_13c.png,,,50,,,,1,object_12b.png,object_08b.png,object_03b.png,object_08b.png,,0.7169811320754716,1,,,,,,,,,,,
12094,,directmemory_phase2,1665441,,,,,,,,object_14a.png,,,50,,,,0,object_07a.png,object_15c.png,object_02c.png,object_02c.png,,0.7037037037037037,0,,,,,,,,,,,
4932.799999982119,,directmemory_phase2,1670381,,,,,,,,object_06b.png,,,49,,,,1,object_08c.png,object_14b.png,object_07a.png,object_08c.png,,0.7090909090909091,1,,,,,,,,,,,
12203.5,,directmemory_phase2,1682590,,,,,,,,object_04a.png,,,50,,,,1,object_01b.png,object_03a.png,object_10c.png,object_03a.png,,0.7142857142857143,1,,,,,,,,,,,
9635.40000000596,,directmemory_phase2,1692229,,,,,,,,object_10a.png,,,49,,,,1,object_11c.png,object_07c.png,object_03a.png,object_11c.png,,0.7192982456140351,1,,,,,,,,,,,
12515.699999988079,,directmemory_phase2,1704750,,,,,,,,object_01a.png,,,50,,,,0,object_07a.png,object_15c.png,object_12b.png,object_12b.png,,0.7068965517241379,0,,,,,,,,,,,
2385.7000000178814,,directmemory_phase2,1707141,,,,,,,,object_15b.png,,,50,,,,1,object_07a.png,object_04a.png,object_15c.png,object_04a.png,,0.711864406779661,1,,,,,,,,,,,
6022.800000011921,,directmemory_phase2,1713169,,,,,,,,object_08a.png,,,50,,,,1,object_07a.png,object_05b.png,object_08b.png,object_05b.png,,0.7166666666666667,1,,,,,,,,,,,
null,,thebreak,1713288,,,,,,,,<p></p>,,,null,,,,,,,,,,,,,,,,,,,,,,
6377.4000000059605,,intro_0,1719667,,,,,,,,instruct,,,32,,,,,,,,,,,,,,,,,,,,,,
null,,learn_phase(without_color)3,1723180,,,,,,,,black_plus_sign,,,null,object_07c.png,object_15c.png,,,,,,,,,,,,,,,,,,,,
null,,black_cross(without_color)3,1723969,,,,,,,,blue,,,null,object_07c.png,object_15c.png,,,,,,,,,,,,,,,,,,,,
null,,rt_plussign_withcolor3,1724482,,,,,,,,blue,,,null,object_07c.png,object_15c.png,,,,,,,,,,,,,,,,,,,,
null,,rt_thecrossant_black3,1725705,,,,,,,,black_plus_sign,,,null,,,,,,,,,,NaN,,,,,,,,,,,,
null,,color_black3,1725814,,,,,,,,black_plus_sign,,,null,,,,,,,,,,,,,,,,,,,,,,
null,,learn_phase(without_color)3,1729333,,,,,,,,black_plus_sign,,,null,object_12a.png,object_12b.png,,,,,,,,,,,,,,,,,,,,
null,,black_cross(without_color)3,1729815,,,,,,,,green,,,null,object_12a.png,object_12b.png,,,,,,,,,,,,,,,,,,,,
null,,rt_plussign_withcolor3,1730326,,,,,,,,green,,,null,object_12a.png,object_12b.png,,,,,,,,,,,,,,,,,,,,
1184,,rt_thecrossant_black3,1731867,,,,,,,,black_plus_sign,,,50,,,,1,,,,,,1,,,,,,,,,,,,
null,,color_black3,1731974,,,,,,,,black_plus_sign,,,null,,,,,,,,,,,,,,,,,,,,,,
null,,learn_phase(without_color)3,1735480,,,,,,,,black_plus_sign,,,null,object_13b.png,object_03c.png,,,,,,,,,,,,,,,,,,,,
null,,black_cross(without_color)3,1736530,,,,,,,,blue,,,null,object_13b.png,object_03c.png,,,,,,,,,,,,,,,,,,,,
null,,rt_plussign_withcolor3,1737043,,,,,,,,blue,,,null,object_13b.png,object_03c.png,,,,,,,,,,,,,,,,,,,,
585.3000000119209,,rt_thecrossant_black3,1738021,,,,,,,,black_plus_sign,,,49,,,,1,,,,,,1,,,,,,,,,,,,
null,,color_black3,1738130,,,,,,,,black_plus_sign,,,null,,,,,,,,,,,,,,,,,,,,,,
null,,learn_phase(without_color)3,1741640,,,,,,,,black_plus_sign,,,null,object_05a.png,object_13a.png,,,,,,,,,,,,,,,,,,,,
null,,black_cross(without_color)3,1742248,,,,,,,,green,,,null,object_05a.png,object_13a.png,,,,,,,,,,,,,,,,,,,,
null,,rt_plussign_withcolor3,1742761,,,,,,,,green,,,null,object_05a.png,object_13a.png,,,,,,,,,,,,,,,,,,,,
1192.199999988079,,rt_thecrossant_black3,1744190,,,,,,,,black_plus_sign,,,50,,,,1,,,,,,1,,,,,,,,,,,,
null,,color_black3,1744301,,,,,,,,black_plus_sign,,,null,,,,,,,,,,,,,,,,,,,,,,
null,,learn_phase(without_color)3,1747817,,,,,,,,black_plus_sign,,,null,object_15c.png,object_12c.png,,,,,,,,,,,,,,,,,,,,
null,,black_cross(without_color)3,1748343,,,,,,,,green,,,null,object_15c.png,object_12c.png,,,,,,,,,,,,,,,,,,,,
null,,rt_plussign_withcolor3,1748855,,,,,,,,green,,,null,object_15c.png,object_12c.png,,,,,,,,,,,,,,,,,,,,
1246.5,,rt_thecrossant_black3,1750359,,,,,,,,black_plus_sign,,,50,,,,1,,,,,,1,,,,,,,,,,,,
null,,color_black3,1750469,,,,,,,,black_plus_sign,,,null,,,,,,,,,,,,,,,,,,,,,,
null,,learn_phase(without_color)3,1753982,,,,,,,,black_plus_sign,,,null,object_10a.png,object_06c.png,,,,,,,,,,,,,,,,,,,,
null,,black_cross(without_color)3,1755063,,,,,,,,green,,,null,object_10a.png,object_06c.png,,,,,,,,,,,,,,,,,,,,
330.69999998807907,,rt_plussign_withcolor3,1755575,,,,,,,,green,,,50,object_10a.png,object_06c.png,,,,,,,,,,,,,,,,,,,,
null,,rt_thecrossant_black3,1756523,,,,,,,,black_plus_sign,,,null,,,,1,,,,,,1,,,,,,,,,,,,
null,,color_black3,1756631,,,,,,,,black_plus_sign,,,null,,,,,,,,,,,,,,,,,,,,,,
null,,learn_phase(without_color)3,1760147,,,,,,,,black_plus_sign,,,null,object_15a.png,object_07a.png,,,,,,,,,,,,,,,,,,,,
null,,black_cross(without_color)3,1760593,,,,,,,,green,,,null,object_15a.png,object_07a.png,,,,,,,,,,,,,,,,,,,,
null,,rt_plussign_withcolor3,1761107,,,,,,,,green,,,null,object_15a.png,object_07a.png,,,,,,,,,,,,,,,,,,,,
2003.699999988079,,rt_thecrossant_black3,1762697,,,,,,,,black_plus_sign,,,50,,,,1,,,,,,1,,,,,,,,,,,,
null,,color_black3,1762807,,,,,,,,black_plus_sign,,,null,,,,,,,,,,,,,,,,,,,,,,
null,,learn_phase(without_color)3,1766320,,,,,,,,black_plus_sign,,,null,object_02c.png,object_14a.png,,,,,,,,,,,,,,,,,,,,
null,,black_cross(without_color)3,1767001,,,,,,,,green,,,null,object_02c.png,object_14a.png,,,,,,,,,,,,,,,,,,,,
null,,rt_plussign_withcolor3,1767515,,,,,,,,green,,,null,object_02c.png,object_14a.png,,,,,,,,,,,,,,,,,,,,
616.2999999821186,,rt_thecrossant_black3,1768855,,,,,,,,black_plus_sign,,,50,,,,1,,,,,,1,,,,,,,,,,,,
null,,color_black3,1768963,,,,,,,,black_plus_sign,,,null,,,,,,,,,,,,,,,,,,,,,,
null,,learn_phase(without_color)3,1772472,,,,,,,,black_plus_sign,,,null,object_10b.png,object_03b.png,,,,,,,,,,,,,,,,,,,,
null,,black_cross(without_color)3,1773200,,,,,,,,blue,,,null,object_10b.png,object_03b.png,,,,,,,,,,,,,,,,,,,,
null,,rt_plussign_withcolor3,1773712,,,,,,,,blue,,,null,object_10b.png,object_03b.png,,,,,,,,,,,,,,,,,,,,
1426.0999999940395,,rt_thecrossant_black3,1775012,,,,,,,,black_plus_sign,,,49,,,,1,,,,,,1,,,,,,,,,,,,
null,,color_black3,1775120,,,,,,,,black_plus_sign,,,null,,,,,,,,,,,,,,,,,,,,,,
null,,learn_phase(without_color)3,1778630,,,,,,,,black_plus_sign,,,null,object_08b.png,object_13c.png,,,,,,,,,,,,,,,,,,,,
null,,black_cross(without_color)3,1779201,,,,,,,,blue,,,null,object_08b.png,object_13c.png,,,,,,,,,,,,,,,,,,,,
null,,rt_plussign_withcolor3,1779716,,,,,,,,blue,,,null,object_08b.png,object_13c.png,,,,,,,,,,,,,,,,,,,,
848.8000000119209,,rt_thecrossant_black3,1781156,,,,,,,,black_plus_sign,,,49,,,,1,,,,,,1,,,,,,,,,,,,
null,,color_black3,1781265,,,,,,,,black_plus_sign,,,null,,,,,,,,,,,,,,,,,,,,,,
null,,learn_phase(without_color)3,1784787,,,,,,,,black_plus_sign,,,null,object_04c.png,object_04b.png,,,,,,,,,,,,,,,,,,,,
null,,black_cross(without_color)3,1785291,,,,,,,,blue,,,null,object_04c.png,object_04b.png,,,,,,,,,,,,,,,,,,,,
null,,rt_plussign_withcolor3,1785803,,,,,,,,blue,,,null,object_04c.png,object_04b.png,,,,,,,,,,,,,,,,,,,,
669.9000000059605,,rt_thecrossant_black3,1787318,,,,,,,,black_plus_sign,,,49,,,,1,,,,,,1,,,,,,,,,,,,
null,,color_black3,1787426,,,,,,,,black_plus_sign,,,null,,,,,,,,,,,,,,,,,,,,,,
null,,learn_phase(without_color)3,1790940,,,,,,,,black_plus_sign,,,null,object_07a.png,object_06a.png,,,,,,,,,,,,,,,,,,,,
null,,black_cross(without_color)3,1791657,,,,,,,,green,,,null,object_07a.png,object_06a.png,,,,,,,,,,,,,,,,,,,,
null,,rt_plussign_withcolor3,1792178,,,,,,,,green,,,null,object_07a.png,object_06a.png,,,,,,,,,,,,,,,,,,,,
null,,rt_thecrossant_black3,1793484,,,,,,,,black_plus_sign,,,null,,,,,,,,,,1,,,,,,,,,,,,
null,,color_black3,1793592,,,,,,,,black_plus_sign,,,null,,,,,,,,,,,,,,,,,,,,,,
null,,learn_phase(without_color)3,1797099,,,,,,,,black_plus_sign,,,null,object_11b.png,object_14b.png,,,,,,,,,,,,,,,,,,,,
null,,black_cross(without_color)3,1797548,,,,,,,,green,,,null,object_11b.png,object_14b.png,,,,,,,,,,,,,,,,,,,,
null,,rt_plussign_withcolor3,1798072,,,,,,,,green,,,null,object_11b.png,object_14b.png,,,,,,,,,,,,,,,,,,,,
894.1999999880791,,rt_thecrossant_black3,1799647,,,,,,,,black_plus_sign,,,50,,,,1,,,,,,1,,,,,,,,,,,,
null,,color_black3,1799756,,,,,,,,black_plus_sign,,,null,,,,,,,,,,,,,,,,,,,,,,
null,,learn_phase(without_color)3,1803273,,,,,,,,black_plus_sign,,,null,object_09b.png,object_08c.png,,,,,,,,,,,,,,,,,,,,
null,,black_cross(without_color)3,1803956,,,,,,,,blue,,,null,object_09b.png,object_08c.png,,,,,,,,,,,,,,,,,,,,
null,,rt_plussign_withcolor3,1804468,,,,,,,,blue,,,null,object_09b.png,object_08c.png,,,,,,,,,,,,,,,,,,,,
598,,rt_thecrossant_black3,1805807,,,,,,,,black_plus_sign,,,49,,,,1,,,,,,1,,,,,,,,,,,,
null,,color_black3,1805912,,,,,,,,black_plus_sign,,,null,,,,,,,,,,,,,,,,,,,,,,
null,,learn_phase(without_color)3,1809422,,,,,,,,black_plus_sign,,,null,object_04a.png,object_15b.png,,,,,,,,,,,,,,,,,,,,
null,,black_cross(without_color)3,1810317,,,,,,,,blue,,,null,object_04a.png,object_15b.png,,,,,,,,,,,,,,,,,,,,
null,,rt_plussign_withcolor3,1810826,,,,,,,,blue,,,null,object_04a.png,object_15b.png,,,,,,,,,,,,,,,,,,,,
1081.800000011921,,rt_thecrossant_black3,1811956,,,,,,,,black_plus_sign,,,49,,,,1,,,,,,1,,,,,,,,,,,,
null,,color_black3,1812065,,,,,,,,black_plus_sign,,,null,,,,,,,,,,,,,,,,,,,,,,
null,,learn_phase(without_color)3,1815588,,,,,,,,black_plus_sign,,,null,object_02a.png,object_09a.png,,,,,,,,,,,,,,,,,,,,
null,,black_cross(without_color)3,1816466,,,,,,,,blue,,,null,object_02a.png,object_09a.png,,,,,,,,,,,,,,,,,,,,
null,,rt_plussign_withcolor3,1816977,,,,,,,,blue,,,null,object_02a.png,object_09a.png,,,,,,,,,,,,,,,,,,,,
1189.4000000059605,,rt_thecrossant_black3,1818126,,,,,,,,black_plus_sign,,,49,,,,1,,,,,,1,,,,,,,,,,,,
null,,color_black3,1818236,,,,,,,,black_plus_sign,,,null,,,,,,,,,,,,,,,,,,,,,,
null,,learn_phase(without_color)3,1821758,,,,,,,,black_plus_sign,,,null,object_13a.png,object_11a.png,,,,,,,,,,,,,,,,,,,,
null,,black_cross(without_color)3,1822250,,,,,,,,blue,,,null,object_13a.png,object_11a.png,,,,,,,,,,,,,,,,,,,,
null,,rt_plussign_withcolor3,1822762,,,,,,,,blue,,,null,object_13a.png,object_11a.png,,,,,,,,,,,,,,,,,,,,
974.8000000119209,,rt_thecrossant_black3,1824290,,,,,,,,black_plus_sign,,,49,,,,1,,,,,,1,,,,,,,,,,,,
null,,color_black3,1824401,,,,,,,,black_plus_sign,,,null,,,,,,,,,,,,,,,,,,,,,,
null,,learn_phase(without_color)3,1827915,,,,,,,,black_plus_sign,,,null,object_14c.png,object_04c.png,,,,,,,,,,,,,,,,,,,,
null,,black_cross(without_color)3,1828597,,,,,,,,green,,,null,object_14c.png,object_04c.png,,,,,,,,,,,,,,,,,,,,
null,,rt_plussign_withcolor3,1829110,,,,,,,,green,,,null,object_14c.png,object_04c.png,,,,,,,,,,,,,,,,,,,,
1267.0999999940395,,rt_thecrossant_black3,1830461,,,,,,,,black_plus_sign,,,50,,,,1,,,,,,1,,,,,,,,,,,,
null,,color_black3,1830570,,,,,,,,black_plus_sign,,,null,,,,,,,,,,,,,,,,,,,,,,
null,,learn_phase(without_color)3,1834090,,,,,,,,black_plus_sign,,,null,object_11c.png,object_10a.png,,,,,,,,,,,,,,,,,,,,
null,,black_cross(without_color)3,1834524,,,,,,,,blue,,,null,object_11c.png,object_10a.png,,,,,,,,,,,,,,,,,,,,
null,,rt_plussign_withcolor3,1835036,,,,,,,,blue,,,null,object_11c.png,object_10a.png,,,,,,,,,,,,,,,,,,,,
1184.199999988079,,rt_thecrossant_black3,1836627,,,,,,,,black_plus_sign,,,49,,,,1,,,,,,1,,,,,,,,,,,,
null,,color_black3,1836734,,,,,,,,black_plus_sign,,,null,,,,,,,,,,,,,,,,,,,,,,
null,,learn_phase(without_color)3,1840247,,,,,,,,black_plus_sign,,,null,object_07b.png,object_08b.png,,,,,,,,,,,,,,,,,,,,
null,,black_cross(without_color)3,1841226,,,,,,,,green,,,null,object_07b.png,object_08b.png,,,,,,,,,,,,,,,,,,,,
null,,rt_plussign_withcolor3,1841742,,,,,,,,green,,,null,object_07b.png,object_08b.png,,,,,,,,,,,,,,,,,,,,
1321.2999999821186,,rt_thecrossant_black3,1842791,,,,,,,,black_plus_sign,,,50,,,,1,,,,,,1,,,,,,,,,,,,
null,,color_black3,1842901,,,,,,,,black_plus_sign,,,null,,,,,,,,,,,,,,,,,,,,,,
null,,learn_phase(without_color)3,1846415,,,,,,,,black_plus_sign,,,null,object_02b.png,object_13b.png,,,,,,,,,,,,,,,,,,,,
null,,black_cross(without_color)3,1847188,,,,,,,,blue,,,null,object_02b.png,object_13b.png,,,,,,,,,,,,,,,,,,,,
null,,rt_plussign_withcolor3,1847697,,,,,,,,blue,,,null,object_02b.png,object_13b.png,,,,,,,,,,,,,,,,,,,,
1206.7999999821186,,rt_thecrossant_black3,1848936,,,,,,,,black_plus_sign,,,49,,,,1,,,,,,1,,,,,,,,,,,,
null,,color_black3,1849045,,,,,,,,black_plus_sign,,,null,,,,,,,,,,,,,,,,,,,,,,
null,,learn_phase(without_color)3,1852557,,,,,,,,black_plus_sign,,,null,object_05c.png,object_02c.png,,,,,,,,,,,,,,,,,,,,
null,,black_cross(without_color)3,1853174,,,,,,,,green,,,null,object_05c.png,object_02c.png,,,,,,,,,,,,,,,,,,,,
null,,rt_plussign_withcolor3,1853686,,,,,,,,green,,,null,object_05c.png,object_02c.png,,,,,,,,,,,,,,,,,,,,
null,,rt_thecrossant_black3,1855101,,,,,,,,black_plus_sign,,,null,,,,,,,,,,1,,,,,,,,,,,,
null,,color_black3,1855210,,,,,,,,black_plus_sign,,,null,,,,,,,,,,,,,,,,,,,,,,
null,,learn_phase(without_color)3,1858719,,,,,,,,black_plus_sign,,,null,object_01b.png,object_02a.png,,,,,,,,,,,,,,,,,,,,
null,,black_cross(without_color)3,1859625,,,,,,,,green,,,null,object_01b.png,object_02a.png,,,,,,,,,,,,,,,,,,,,
null,,rt_plussign_withcolor3,1860138,,,,,,,,green,,,null,object_01b.png,object_02a.png,,,,,,,,,,,,,,,,,,,,
975.2000000178814,,rt_thecrossant_black3,1861253,,,,,,,,black_plus_sign,,,50,,,,1,,,,,,1,,,,,,,,,,,,
null,,color_black3,1861362,,,,,,,,black_plus_sign,,,null,,,,,,,,,,,,,,,,,,,,,,
null,,learn_phase(without_color)3,1864882,,,,,,,,black_plus_sign,,,null,object_12b.png,object_01a.png,,,,,,,,,,,,,,,,,,,,
null,,black_cross(without_color)3,1865945,,,,,,,,blue,,,null,object_12b.png,object_01a.png,,,,,,,,,,,,,,,,,,,,
null,,rt_plussign_withcolor3,1866458,,,,,,,,blue,,,null,object_12b.png,object_01a.png,,,,,,,,,,,,,,,,,,,,
1271.0999999940395,,rt_thecrossant_black3,1867415,,,,,,,,black_plus_sign,,,49,,,,1,,,,,,1,,,,,,,,,,,,
null,,color_black3,1867524,,,,,,,,black_plus_sign,,,null,,,,,,,,,,,,,,,,,,,,,,
null,,learn_phase(without_color)3,1871034,,,,,,,,black_plus_sign,,,null,object_14b.png,object_01c.png,,,,,,,,,,,,,,,,,,,,
null,,black_cross(without_color)3,1872115,,,,,,,,green,,,null,object_14b.png,object_01c.png,,,,,,,,,,,,,,,,,,,,
null,,rt_plussign_withcolor3,1872627,,,,,,,,green,,,null,object_14b.png,object_01c.png,,,,,,,,,,,,,,,,,,,,
1591.1000000238419,,rt_thecrossant_black3,1873576,,,,,,,,black_plus_sign,,,50,,,,1,,,,,,1,,,,,,,,,,,,
null,,color_black3,1873696,,,,,,,,black_plus_sign,,,null,,,,,,,,,,,,,,,,,,,,,,
null,,learn_phase(without_color)3,1877201,,,,,,,,black_plus_sign,,,null,object_08c.png,object_06b.png,,,,,,,,,,,,,,,,,,,,
null,,black_cross(without_color)3,1877869,,,,,,,,green,,,null,object_08c.png,object_06b.png,,,,,,,,,,,,,,,,,,,,
null,,rt_plussign_withcolor3,1878380,,,,,,,,green,,,null,object_08c.png,object_06b.png,,,,,,,,,,,,,,,,,,,,
1463.4000000059605,,rt_thecrossant_black3,1879741,,,,,,,,black_plus_sign,,,50,,,,1,,,,,,1,,,,,,,,,,,,
null,,color_black3,1879847,,,,,,,,black_plus_sign,,,null,,,,,,,,,,,,,,,,,,,,,,
null,,learn_phase(without_color)3,1883357,,,,,,,,black_plus_sign,,,null,object_03a.png,object_04a.png,,,,,,,,,,,,,,,,,,,,
null,,black_cross(without_color)3,1884352,,,,,,,,blue,,,null,object_03a.png,object_04a.png,,,,,,,,,,,,,,,,,,,,
null,,rt_plussign_withcolor3,1884866,,,,,,,,blue,,,null,object_03a.png,object_04a.png,,,,,,,,,,,,,,,,,,,,
922.5999999940395,,rt_thecrossant_black3,1885903,,,,,,,,black_plus_sign,,,49,,,,1,,,,,,1,,,,,,,,,,,,
null,,color_black3,1886012,,,,,,,,black_plus_sign,,,null,,,,,,,,,,,,,,,,,,,,,,
null,,learn_phase(without_color)3,1889530,,,,,,,,black_plus_sign,,,null,object_05b.png,object_08a.png,,,,,,,,,,,,,,,,,,,,
null,,black_cross(without_color)3,1890288,,,,,,,,green,,,null,object_05b.png,object_08a.png,,,,,,,,,,,,,,,,,,,,
null,,rt_plussign_withcolor3,1890806,,,,,,,,green,,,null,object_05b.png,object_08a.png,,,,,,,,,,,,,,,,,,,,
1169.199999988079,,rt_thecrossant_black3,1892067,,,,,,,,black_plus_sign,,,50,,,,1,,,,,,1,,,,,,,,,,,,
null,,color_black3,1892176,,,,,,,,black_plus_sign,,,null,,,,,,,,,,,,,,,,,,,,,,
null,,learn_phase(without_color)3,1895695,,,,,,,,black_plus_sign,,,null,object_10c.png,object_05b.png,,,,,,,,,,,,,,,,,,,,
null,,black_cross(without_color)3,1896351,,,,,,,,blue,,,null,object_10c.png,object_05b.png,,,,,,,,,,,,,,,,,,,,
null,,rt_plussign_withcolor3,1896855,,,,,,,,blue,,,null,object_10c.png,object_05b.png,,,,,,,,,,,,,,,,,,,,
872.1999999880791,,rt_thecrossant_black3,1898217,,,,,,,,black_plus_sign,,,49,,,,1,,,,,,1,,,,,,,,,,,,
null,,color_black3,1898326,,,,,,,,black_plus_sign,,,null,,,,,,,,,,,,,,,,,,,,,,
null,,learn_phase(without_color)3,1901843,,,,,,,,black_plus_sign,,,null,object_03b.png,object_09c.png,,,,,,,,,,,,,,,,,,,,
null,,black_cross(without_color)3,1902862,,,,,,,,blue,,,null,object_03b.png,object_09c.png,,,,,,,,,,,,,,,,,,,,
null,,rt_plussign_withcolor3,1903370,,,,,,,,blue,,,null,object_03b.png,object_09c.png,,,,,,,,,,,,,,,,,,,,
1010.1000000238419,,rt_thecrossant_black3,1904375,,,,,,,,black_plus_sign,,,49,,,,1,,,,,,1,,,,,,,,,,,,
null,,color_black3,1904485,,,,,,,,black_plus_sign,,,null,,,,,,,,,,,,,,,,,,,,,,
null,,thebreak,1904606,,,,,,,,<p></p>,,,null,,,,,,,,,,,,,,,,,,,,,,
62726.40000000596,,intro_0,1967336,,,,,,,,instruct,,,32,,,,,,,,,,,,,,,,,,,,,,
2683.2000000178814,,directmemory_phase3,1970022,,,,,,,,object_08a.png,,,50,,,,1,object_15c.png,object_05b.png,object_10a.png,object_05b.png,,0.7213114754098361,1,,,,,,,,,,,
9797.199999988079,,directmemory_phase3,1979825,,,,,,,,object_03b.png,,,50,,,,1,object_07c.png,object_10b.png,object_11c.png,object_10b.png,,0.7258064516129032,1,,,,,,,,,,,
6269.600000023842,,directmemory_phase3,1986101,,,,,,,,object_09c.png,,,51,,,,1,object_04a.png,object_07a.png,object_03b.png,object_03b.png,,0.7301587301587301,1,,,,,,,,,,,
2890.5999999940395,,directmemory_phase3,1988997,,,,,,,,object_02c.png,,,49,,,,1,object_05c.png,object_03a.png,object_02b.png,object_05c.png,,0.734375,1,,,,,,,,,,,
3400.699999988079,,directmemory_phase3,1992403,,,,,,,,object_04b.png,,,50,,,,1,object_05b.png,object_04c.png,object_13b.png,object_04c.png,,0.7384615384615385,1,,,,,,,,,,,
2415.199999988079,,directmemory_phase3,1994823,,,,,,,,object_13b.png,,,50,,,,1,object_03a.png,object_02b.png,object_07c.png,object_02b.png,,0.7424242424242424,1,,,,,,,,,,,
5660.4000000059605,,directmemory_phase3,2000488,,,,,,,,object_06b.png,,,51,,,,1,object_15c.png,object_13b.png,object_08c.png,object_08c.png,,0.746268656716418,1,,,,,,,,,,,
3921.7999999821186,,directmemory_phase3,2004415,,,,,,,,object_04a.png,,,49,,,,1,object_03a.png,object_12a.png,object_14c.png,object_03a.png,,0.75,1,,,,,,,,,,,
3145.4000000059605,,directmemory_phase3,2007566,,,,,,,,object_04c.png,,,49,,,,1,object_14c.png,object_12a.png,object_05c.png,object_14c.png,,0.7536231884057971,1,,,,,,,,,,,
13133.40000000596,,directmemory_phase3,2020704,,,,,,,,object_14a.png,,,50,,,,0,object_02c.png,object_04c.png,object_08c.png,object_02c.png,,0.7428571428571429,0,,,,,,,,,,,
10014.90000000596,,directmemory_phase3,2030724,,,,,,,,object_06a.png,,,49,,,,0,object_10a.png,object_07a.png,object_04a.png,object_07a.png,,0.7323943661971831,0,,,,,,,,,,,
7448.299999982119,,directmemory_phase3,2038178,,,,,,,,object_12c.png,,,50,,,,1,object_13b.png,object_15c.png,object_07a.png,object_15c.png,,0.7361111111111112,1,,,,,,,,,,,
5536.300000011921,,directmemory_phase3,2043719,,,,,,,,object_12b.png,,,51,,,,1,object_10b.png,object_01b.png,object_12a.png,object_12a.png,,0.7397260273972602,1,,,,,,,,,,,
1900,,directmemory_phase3,2045624,,,,,,,,object_08b.png,,,51,,,,1,object_03a.png,object_05c.png,object_07b.png,object_07b.png,,0.7432432432432432,1,,,,,,,,,,,
5622,,directmemory_phase3,2051253,,,,,,,,object_13a.png,,,49,,,,1,object_05a.png,object_05c.png,object_11b.png,object_05a.png,,0.7466666666666667,1,,,,,,,,,,,
4656.4000000059605,,directmemory_phase3,2055912,,,,,,,,object_03c.png,,,49,,,,1,object_13b.png,object_02c.png,object_03b.png,object_13b.png,,0.75,1,,,,,,,,,,,
12280.09999999404,,directmemory_phase3,2068198,,,,,,,,object_05b.png,,,49,,,,1,object_10c.png,object_05c.png,object_09b.png,object_10c.png,,0.7532467532467533,1,,,,,,,,,,,
3727.199999988079,,directmemory_phase3,2071930,,,,,,,,object_15b.png,,,49,,,,1,object_04a.png,object_04c.png,object_15c.png,object_04a.png,,0.7564102564102564,1,,,,,,,,,,,
10046.299999982119,,directmemory_phase3,2081980,,,,,,,,object_14b.png,,,50,,,,1,object_09b.png,object_11b.png,object_02b.png,object_11b.png,,0.759493670886076,1,,,,,,,,,,,
3361.5999999940395,,directmemory_phase3,2085346,,,,,,,,object_01c.png,,,49,,,,1,object_14b.png,object_08c.png,object_05b.png,object_14b.png,,0.7625,1,,,,,,,,,,,
10168.200000017881,,directmemory_phase3,2095519,,,,,,,,object_10a.png,,,50,,,,1,object_01b.png,object_11c.png,object_10c.png,object_11c.png,,0.7654320987654321,1,,,,,,,,,,,
4089.9000000059605,,directmemory_phase3,2099615,,,,,,,,object_09a.png,,,50,,,,1,object_08c.png,object_02a.png,object_07a.png,object_02a.png,,0.7682926829268293,1,,,,,,,,,,,
6728.200000017881,,directmemory_phase3,2106347,,,,,,,,object_11a.png,,,50,,,,0,object_02a.png,object_15c.png,object_13a.png,object_13a.png,,0.7590361445783133,0,,,,,,,,,,,
8213.59999999404,,directmemory_phase3,2114566,,,,,,,,object_15c.png,,,49,,,,1,object_07c.png,object_09b.png,object_01b.png,object_07c.png,,0.7619047619047619,1,,,,,,,,,,,
1703.9000000059605,,directmemory_phase3,2116275,,,,,,,,object_01a.png,,,50,,,,1,object_13b.png,object_12b.png,object_08b.png,object_12b.png,,0.7647058823529411,1,,,,,,,,,,,
5455.5,,directmemory_phase3,2121737,,,,,,,,object_06c.png,,,49,,,,1,object_10a.png,object_14b.png,object_03b.png,object_10a.png,,0.7674418604651163,1,,,,,,,,,,,
2462.699999988079,,directmemory_phase3,2124206,,,,,,,,object_07a.png,,,49,,,,1,object_15a.png,object_03a.png,object_10c.png,object_15a.png,,0.7701149425287356,1,,,,,,,,,,,
8838,,directmemory_phase3,2133047,,,,,,,,object_02a.png,,,49,,,,1,object_01b.png,object_03a.png,object_09b.png,object_01b.png,,0.7727272727272727,1,,,,,,,,,,,
8629.700000017881,,directmemory_phase3,2141682,,,,,,,,object_13c.png,,,51,,,,0,object_08b.png,object_05b.png,object_07a.png,object_08b.png,,0.7640449438202247,0,,,,,,,,,,,
6667.100000023842,,directmemory_phase3,2148354,,,,,,,,object_08c.png,,,50,,,,1,object_10b.png,object_09b.png,object_10c.png,object_09b.png,,0.7666666666666667,1,,,,,,,,,,,
null,,thebreak,2148472,,,,,,,,<p></p>,,,null,,,,,,,,,,,,,,,,,,,,,,
7251.5,,intro_0,2155728,,,,,,,,instruct,,,32,,,,,,,,,,,,,,,,,,,,,,
null,,learn_phase(without_color)4,2159236,,,,,,,,black_plus_sign,,,null,object_02b.png,object_13b.png,,,,,,,,,,,,,,,,,,,,
null,,black_cross(without_color)4,2159792,,,,,,,,green,,,null,object_02b.png,object_13b.png,,,,,,,,,,,,,,,,,,,,
null,,rt_plussign_withcolor4,2160309,,,,,,,,green,,,null,object_02b.png,object_13b.png,,,,,,,,,,,,,,,,,,,,
873.5,,rt_thecrossant_black4,2161790,,,,,,,,black_plus_sign,,,50,,,,1,,,,,,1,,,,,,,,,,,,
null,,color_black4,2161899,,,,,,,,black_plus_sign,,,null,,,,,,,,,,,,,,,,,,,,,,
null,,learn_phase(without_color)4,2165416,,,,,,,,black_plus_sign,,,null,object_15a.png,object_07a.png,,,,,,,,,,,,,,,,,,,,
null,,black_cross(without_color)4,2165988,,,,,,,,blue,,,null,object_15a.png,object_07a.png,,,,,,,,,,,,,,,,,,,,
null,,rt_plussign_withcolor4,2166499,,,,,,,,blue,,,null,object_15a.png,object_07a.png,,,,,,,,,,,,,,,,,,,,
847.7999999821186,,rt_thecrossant_black4,2167949,,,,,,,,black_plus_sign,,,49,,,,1,,,,,,1,,,,,,,,,,,,
null,,color_black4,2168058,,,,,,,,black_plus_sign,,,null,,,,,,,,,,,,,,,,,,,,,,
null,,learn_phase(without_color)4,2171565,,,,,,,,black_plus_sign,,,null,object_07b.png,object_08b.png,,,,,,,,,,,,,,,,,,,,
null,,black_cross(without_color)4,2172067,,,,,,,,green,,,null,object_07b.png,object_08b.png,,,,,,,,,,,,,,,,,,,,
null,,rt_plussign_withcolor4,2172575,,,,,,,,green,,,null,object_07b.png,object_08b.png,,,,,,,,,,,,,,,,,,,,
796.8999999761581,,rt_thecrossant_black4,2174106,,,,,,,,black_plus_sign,,,50,,,,1,,,,,,1,,,,,,,,,,,,
null,,color_black4,2174216,,,,,,,,black_plus_sign,,,null,,,,,,,,,,,,,,,,,,,,,,
null,,learn_phase(without_color)4,2177736,,,,,,,,black_plus_sign,,,null,object_03a.png,object_04a.png,,,,,,,,,,,,,,,,,,,,
null,,black_cross(without_color)4,2178522,,,,,,,,blue,,,null,object_03a.png,object_04a.png,,,,,,,,,,,,,,,,,,,,
null,,rt_plussign_withcolor4,2179029,,,,,,,,blue,,,null,object_03a.png,object_04a.png,,,,,,,,,,,,,,,,,,,,
657.5,,rt_thecrossant_black4,2180267,,,,,,,,black_plus_sign,,,49,,,,1,,,,,,1,,,,,,,,,,,,
null,,color_black4,2180380,,,,,,,,black_plus_sign,,,null,,,,,,,,,,,,,,,,,,,,,,
null,,learn_phase(without_color)4,2183900,,,,,,,,black_plus_sign,,,null,object_11b.png,object_14b.png,,,,,,,,,,,,,,,,,,,,
null,,black_cross(without_color)4,2184595,,,,,,,,green,,,null,object_11b.png,object_14b.png,,,,,,,,,,,,,,,,,,,,
null,,rt_plussign_withcolor4,2185107,,,,,,,,green,,,null,object_11b.png,object_14b.png,,,,,,,,,,,,,,,,,,,,
1119.800000011921,,rt_thecrossant_black4,2186437,,,,,,,,black_plus_sign,,,50,,,,1,,,,,,1,,,,,,,,,,,,
null,,color_black4,2186546,,,,,,,,black_plus_sign,,,null,,,,,,,,,,,,,,,,,,,,,,
null,,learn_phase(without_color)4,2190050,,,,,,,,black_plus_sign,,,null,object_08c.png,object_06b.png,,,,,,,,,,,,,,,,,,,,
null,,black_cross(without_color)4,2190654,,,,,,,,green,,,null,object_08c.png,object_06b.png,,,,,,,,,,,,,,,,,,,,
null,,rt_plussign_withcolor4,2191166,,,,,,,,green,,,null,object_08c.png,object_06b.png,,,,,,,,,,,,,,,,,,,,
1809.5999999940395,,rt_thecrossant_black4,2192594,,,,,,,,black_plus_sign,,,50,,,,1,,,,,,1,,,,,,,,,,,,
null,,color_black4,2192703,,,,,,,,black_plus_sign,,,null,,,,,,,,,,,,,,,,,,,,,,
null,,learn_phase(without_color)4,2196220,,,,,,,,black_plus_sign,,,null,object_07a.png,object_06a.png,,,,,,,,,,,,,,,,,,,,
null,,black_cross(without_color)4,2197116,,,,,,,,blue,,,null,object_07a.png,object_06a.png,,,,,,,,,,,,,,,,,,,,
null,,rt_plussign_withcolor4,2197628,,,,,,,,blue,,,null,object_07a.png,object_06a.png,,,,,,,,,,,,,,,,,,,,
992.8000000119209,,rt_thecrossant_black4,2198745,,,,,,,,black_plus_sign,,,49,,,,1,,,,,,1,,,,,,,,,,,,
null,,color_black4,2198856,,,,,,,,black_plus_sign,,,null,,,,,,,,,,,,,,,,,,,,,,
null,,learn_phase(without_color)4,2202361,,,,,,,,black_plus_sign,,,null,object_03b.png,object_09c.png,,,,,,,,,,,,,,,,,,,,
null,,black_cross(without_color)4,2203133,,,,,,,,green,,,null,object_03b.png,object_09c.png,,,,,,,,,,,,,,,,,,,,
null,,rt_plussign_withcolor4,2203645,,,,,,,,green,,,null,object_03b.png,object_09c.png,,,,,,,,,,,,,,,,,,,,
1883.7000000178814,,rt_thecrossant_black4,2204895,,,,,,,,black_plus_sign,,,50,,,,1,,,,,,1,,,,,,,,,,,,
null,,color_black4,2205004,,,,,,,,black_plus_sign,,,null,,,,,,,,,,,,,,,,,,,,,,
null,,learn_phase(without_color)4,2208525,,,,,,,,black_plus_sign,,,null,object_08b.png,object_13c.png,,,,,,,,,,,,,,,,,,,,
null,,black_cross(without_color)4,2209563,,,,,,,,blue,,,null,object_08b.png,object_13c.png,,,,,,,,,,,,,,,,,,,,
null,,rt_plussign_withcolor4,2210076,,,,,,,,blue,,,null,object_08b.png,object_13c.png,,,,,,,,,,,,,,,,,,,,
null,,rt_thecrossant_black4,2211054,,,,,,,,black_plus_sign,,,null,,,,,,,,,,1,,,,,,,,,,,,
null,,color_black4,2211163,,,,,,,,black_plus_sign,,,null,,,,,,,,,,,,,,,,,,,,,,
null,,learn_phase(without_color)4,2214670,,,,,,,,black_plus_sign,,,null,object_10a.png,object_06c.png,,,,,,,,,,,,,,,,,,,,
null,,black_cross(without_color)4,2215259,,,,,,,,green,,,null,object_10a.png,object_06c.png,,,,,,,,,,,,,,,,,,,,
null,,rt_plussign_withcolor4,2215772,,,,,,,,green,,,null,object_10a.png,object_06c.png,,,,,,,,,,,,,,,,,,,,
1450.7000000178814,,rt_thecrossant_black4,2217207,,,,,,,,black_plus_sign,,,50,,,,1,,,,,,1,,,,,,,,,,,,
null,,color_black4,2217315,,,,,,,,black_plus_sign,,,null,,,,,,,,,,,,,,,,,,,,,,
null,,learn_phase(without_color)4,2220821,,,,,,,,black_plus_sign,,,null,object_02c.png,object_14a.png,,,,,,,,,,,,,,,,,,,,
null,,black_cross(without_color)4,2221316,,,,,,,,green,,,null,object_02c.png,object_14a.png,,,,,,,,,,,,,,,,,,,,
null,,rt_plussign_withcolor4,2221831,,,,,,,,green,,,null,object_02c.png,object_14a.png,,,,,,,,,,,,,,,,,,,,
904.9000000059605,,rt_thecrossant_black4,2223366,,,,,,,,black_plus_sign,,,50,,,,1,,,,,,1,,,,,,,,,,,,
null,,color_black4,2223484,,,,,,,,black_plus_sign,,,null,,,,,,,,,,,,,,,,,,,,,,
null,,learn_phase(without_color)4,2226999,,,,,,,,black_plus_sign,,,null,object_10b.png,object_03b.png,,,,,,,,,,,,,,,,,,,,
null,,black_cross(without_color)4,2227781,,,,,,,,green,,,null,object_10b.png,object_03b.png,,,,,,,,,,,,,,,,,,,,
381.90000000596046,,rt_plussign_withcolor4,2228297,,,,,,,,green,,,50,object_10b.png,object_03b.png,,,,,,,,,,,,,,,,,,,,
null,,rt_thecrossant_black4,2229541,,,,,,,,black_plus_sign,,,null,,,,1,,,,,,1,,,,,,,,,,,,
null,,color_black4,2229649,,,,,,,,black_plus_sign,,,null,,,,,,,,,,,,,,,,,,,,,,
null,,learn_phase(without_color)4,2233167,,,,,,,,black_plus_sign,,,null,object_14b.png,object_01c.png,,,,,,,,,,,,,,,,,,,,
null,,black_cross(without_color)4,2233743,,,,,,,,green,,,null,object_14b.png,object_01c.png,,,,,,,,,,,,,,,,,,,,
null,,rt_plussign_withcolor4,2234253,,,,,,,,green,,,null,object_14b.png,object_01c.png,,,,,,,,,,,,,,,,,,,,
1015.2000000178814,,rt_thecrossant_black4,2235703,,,,,,,,black_plus_sign,,,50,,,,1,,,,,,1,,,,,,,,,,,,
null,,color_black4,2235813,,,,,,,,black_plus_sign,,,null,,,,,,,,,,,,,,,,,,,,,,
null,,learn_phase(without_color)4,2239319,,,,,,,,black_plus_sign,,,null,object_05c.png,object_02c.png,,,,,,,,,,,,,,,,,,,,
null,,black_cross(without_color)4,2239999,,,,,,,,blue,,,null,object_05c.png,object_02c.png,,,,,,,,,,,,,,,,,,,,
null,,rt_plussign_withcolor4,2240511,,,,,,,,blue,,,null,object_05c.png,object_02c.png,,,,,,,,,,,,,,,,,,,,
814.6000000238419,,rt_thecrossant_black4,2241841,,,,,,,,black_plus_sign,,,49,,,,1,,,,,,1,,,,,,,,,,,,
null,,color_black4,2241951,,,,,,,,black_plus_sign,,,null,,,,,,,,,,,,,,,,,,,,,,
null,,learn_phase(without_color)4,2245459,,,,,,,,black_plus_sign,,,null,object_13b.png,object_03c.png,,,,,,,,,,,,,,,,,,,,
null,,black_cross(without_color)4,2245880,,,,,,,,blue,,,null,object_13b.png,object_03c.png,,,,,,,,,,,,,,,,,,,,
null,,rt_plussign_withcolor4,2246392,,,,,,,,blue,,,null,object_13b.png,object_03c.png,,,,,,,,,,,,,,,,,,,,
1188.199999988079,,rt_thecrossant_black4,2248000,,,,,,,,black_plus_sign,,,49,,,,1,,,,,,1,,,,,,,,,,,,
null,,color_black4,2248108,,,,,,,,black_plus_sign,,,null,,,,,,,,,,,,,,,,,,,,,,
null,,learn_phase(without_color)4,2251629,,,,,,,,black_plus_sign,,,null,object_13a.png,object_11a.png,,,,,,,,,,,,,,,,,,,,
null,,black_cross(without_color)4,2252343,,,,,,,,blue,,,null,object_13a.png,object_11a.png,,,,,,,,,,,,,,,,,,,,
null,,rt_plussign_withcolor4,2252854,,,,,,,,blue,,,null,object_13a.png,object_11a.png,,,,,,,,,,,,,,,,,,,,
631.1999999880791,,rt_thecrossant_black4,2254167,,,,,,,,black_plus_sign,,,49,,,,1,,,,,,1,,,,,,,,,,,,
null,,color_black4,2254276,,,,,,,,black_plus_sign,,,null,,,,,,,,,,,,,,,,,,,,,,
null,,learn_phase(without_color)4,2257796,,,,,,,,black_plus_sign,,,null,object_07c.png,object_15c.png,,,,,,,,,,,,,,,,,,,,
null,,black_cross(without_color)4,2258889,,,,,,,,green,,,null,object_07c.png,object_15c.png,,,,,,,,,,,,,,,,,,,,
null,,rt_plussign_withcolor4,2259399,,,,,,,,green,,,null,object_07c.png,object_15c.png,,,,,,,,,,,,,,,,,,,,
1065.2999999821186,,rt_thecrossant_black4,2260331,,,,,,,,black_plus_sign,,,50,,,,1,,,,,,1,,,,,,,,,,,,
null,,color_black4,2260442,,,,,,,,black_plus_sign,,,null,,,,,,,,,,,,,,,,,,,,,,
null,,learn_phase(without_color)4,2263952,,,,,,,,black_plus_sign,,,null,object_15c.png,object_12c.png,,,,,,,,,,,,,,,,,,,,
null,,black_cross(without_color)4,2264878,,,,,,,,blue,,,null,object_15c.png,object_12c.png,,,,,,,,,,,,,,,,,,,,
476.69999998807907,,rt_plussign_withcolor4,2265392,,,,,,,,blue,,,49,object_15c.png,object_12c.png,,,,,,,,,,,,,,,,,,,,
null,,rt_thecrossant_black4,2266500,,,,,,,,black_plus_sign,,,null,,,,1,,,,,,1,,,,,,,,,,,,
null,,color_black4,2266610,,,,,,,,black_plus_sign,,,null,,,,,,,,,,,,,,,,,,,,,,
null,,learn_phase(without_color)4,2270117,,,,,,,,black_plus_sign,,,null,object_10c.png,object_05b.png,,,,,,,,,,,,,,,,,,,,
null,,black_cross(without_color)4,2270896,,,,,,,,blue,,,null,object_10c.png,object_05b.png,,,,,,,,,,,,,,,,,,,,
null,,rt_plussign_withcolor4,2271410,,,,,,,,blue,,,null,object_10c.png,object_05b.png,,,,,,,,,,,,,,,,,,,,
1087.5999999940395,,rt_thecrossant_black4,2272660,,,,,,,,black_plus_sign,,,49,,,,1,,,,,,1,,,,,,,,,,,,
null,,color_black4,2272768,,,,,,,,black_plus_sign,,,null,,,,,,,,,,,,,,,,,,,,,,
null,,learn_phase(without_color)4,2276279,,,,,,,,black_plus_sign,,,null,object_12b.png,object_01a.png,,,,,,,,,,,,,,,,,,,,
null,,black_cross(without_color)4,2277114,,,,,,,,green,,,null,object_12b.png,object_01a.png,,,,,,,,,,,,,,,,,,,,
null,,rt_plussign_withcolor4,2277627,,,,,,,,green,,,null,object_12b.png,object_01a.png,,,,,,,,,,,,,,,,,,,,
1112.2000000178814,,rt_thecrossant_black4,2278803,,,,,,,,black_plus_sign,,,50,,,,1,,,,,,1,,,,,,,,,,,,
null,,color_black4,2278911,,,,,,,,black_plus_sign,,,null,,,,,,,,,,,,,,,,,,,,,,
null,,learn_phase(without_color)4,2282429,,,,,,,,black_plus_sign,,,null,object_05b.png,object_08a.png,,,,,,,,,,,,,,,,,,,,
null,,black_cross(without_color)4,2283173,,,,,,,,green,,,null,object_05b.png,object_08a.png,,,,,,,,,,,,,,,,,,,,
null,,rt_plussign_withcolor4,2283684,,,,,,,,green,,,null,object_05b.png,object_08a.png,,,,,,,,,,,,,,,,,,,,
989.8000000119209,,rt_thecrossant_black4,2284963,,,,,,,,black_plus_sign,,,50,,,,1,,,,,,1,,,,,,,,,,,,
null,,color_black4,2285072,,,,,,,,black_plus_sign,,,null,,,,,,,,,,,,,,,,,,,,,,
null,,learn_phase(without_color)4,2288579,,,,,,,,black_plus_sign,,,null,object_04c.png,object_04b.png,,,,,,,,,,,,,,,,,,,,
null,,black_cross(without_color)4,2289673,,,,,,,,blue,,,null,object_04c.png,object_04b.png,,,,,,,,,,,,,,,,,,,,
null,,rt_plussign_withcolor4,2290190,,,,,,,,blue,,,null,object_04c.png,object_04b.png,,,,,,,,,,,,,,,,,,,,
944.5,,rt_thecrossant_black4,2291125,,,,,,,,black_plus_sign,,,49,,,,1,,,,,,1,,,,,,,,,,,,
null,,color_black4,2291234,,,,,,,,black_plus_sign,,,null,,,,,,,,,,,,,,,,,,,,,,
null,,learn_phase(without_color)4,2294743,,,,,,,,black_plus_sign,,,null,object_02a.png,object_09a.png,,,,,,,,,,,,,,,,,,,,
null,,black_cross(without_color)4,2295286,,,,,,,,green,,,null,object_02a.png,object_09a.png,,,,,,,,,,,,,,,,,,,,
null,,rt_plussign_withcolor4,2295794,,,,,,,,green,,,null,object_02a.png,object_09a.png,,,,,,,,,,,,,,,,,,,,
1604.300000011921,,rt_thecrossant_black4,2297267,,,,,,,,black_plus_sign,,,50,,,,1,,,,,,1,,,,,,,,,,,,
null,,color_black4,2297376,,,,,,,,black_plus_sign,,,null,,,,,,,,,,,,,,,,,,,,,,
null,,learn_phase(without_color)4,2300893,,,,,,,,black_plus_sign,,,null,object_14c.png,object_04c.png,,,,,,,,,,,,,,,,,,,,
null,,black_cross(without_color)4,2301480,,,,,,,,green,,,null,object_14c.png,object_04c.png,,,,,,,,,,,,,,,,,,,,
null,,rt_plussign_withcolor4,2301992,,,,,,,,green,,,null,object_14c.png,object_04c.png,,,,,,,,,,,,,,,,,,,,
886.5999999940395,,rt_thecrossant_black4,2303426,,,,,,,,black_plus_sign,,,50,,,,1,,,,,,1,,,,,,,,,,,,
null,,color_black4,2303533,,,,,,,,black_plus_sign,,,null,,,,,,,,,,,,,,,,,,,,,,
null,,learn_phase(without_color)4,2307036,,,,,,,,black_plus_sign,,,null,object_11c.png,object_10a.png,,,,,,,,,,,,,,,,,,,,
null,,black_cross(without_color)4,2307810,,,,,,,,blue,,,null,object_11c.png,object_10a.png,,,,,,,,,,,,,,,,,,,,
null,,rt_plussign_withcolor4,2308321,,,,,,,,blue,,,null,object_11c.png,object_10a.png,,,,,,,,,,,,,,,,,,,,
938.2000000178814,,rt_thecrossant_black4,2309568,,,,,,,,black_plus_sign,,,49,,,,1,,,,,,1,,,,,,,,,,,,
null,,color_black4,2309678,,,,,,,,black_plus_sign,,,null,,,,,,,,,,,,,,,,,,,,,,
null,,learn_phase(without_color)4,2313197,,,,,,,,black_plus_sign,,,null,object_04a.png,object_15b.png,,,,,,,,,,,,,,,,,,,,
null,,black_cross(without_color)4,2313752,,,,,,,,green,,,null,object_04a.png,object_15b.png,,,,,,,,,,,,,,,,,,,,
null,,rt_plussign_withcolor4,2314265,,,,,,,,green,,,null,object_04a.png,object_15b.png,,,,,,,,,,,,,,,,,,,,
928,,rt_thecrossant_black4,2315730,,,,,,,,black_plus_sign,,,50,,,,1,,,,,,1,,,,,,,,,,,,
null,,color_black4,2315838,,,,,,,,black_plus_sign,,,null,,,,,,,,,,,,,,,,,,,,,,
null,,learn_phase(without_color)4,2319356,,,,,,,,black_plus_sign,,,null,object_09b.png,object_08c.png,,,,,,,,,,,,,,,,,,,,
null,,black_cross(without_color)4,2320283,,,,,,,,blue,,,null,object_09b.png,object_08c.png,,,,,,,,,,,,,,,,,,,,
464.10000002384186,,rt_plussign_withcolor4,2320794,,,,,,,,blue,,,49,object_09b.png,object_08c.png,,,,,,,,,,,,,,,,,,,,
null,,rt_thecrossant_black4,2321892,,,,,,,,black_plus_sign,,,null,,,,1,,,,,,1,,,,,,,,,,,,
null,,color_black4,2321999,,,,,,,,black_plus_sign,,,null,,,,,,,,,,,,,,,,,,,,,,
null,,learn_phase(without_color)4,2325516,,,,,,,,black_plus_sign,,,null,object_12a.png,object_12b.png,,,,,,,,,,,,,,,,,,,,
null,,black_cross(without_color)4,2326353,,,,,,,,blue,,,null,object_12a.png,object_12b.png,,,,,,,,,,,,,,,,,,,,
446.2999999821186,,rt_plussign_withcolor4,2326862,,,,,,,,blue,,,49,object_12a.png,object_12b.png,,,,,,,,,,,,,,,,,,,,
null,,rt_thecrossant_black4,2328055,,,,,,,,black_plus_sign,,,null,,,,1,,,,,,1,,,,,,,,,,,,
null,,color_black4,2328161,,,,,,,,black_plus_sign,,,null,,,,,,,,,,,,,,,,,,,,,,
null,,learn_phase(without_color)4,2331677,,,,,,,,black_plus_sign,,,null,object_01b.png,object_02a.png,,,,,,,,,,,,,,,,,,,,
null,,black_cross(without_color)4,2332311,,,,,,,,blue,,,null,object_01b.png,object_02a.png,,,,,,,,,,,,,,,,,,,,
null,,rt_plussign_withcolor4,2332821,,,,,,,,blue,,,null,object_01b.png,object_02a.png,,,,,,,,,,,,,,,,,,,,
1110.800000011921,,rt_thecrossant_black4,2334197,,,,,,,,black_plus_sign,,,49,,,,1,,,,,,1,,,,,,,,,,,,
null,,color_black4,2334305,,,,,,,,black_plus_sign,,,null,,,,,,,,,,,,,,,,,,,,,,
null,,learn_phase(without_color)4,2337824,,,,,,,,black_plus_sign,,,null,object_05a.png,object_13a.png,,,,,,,,,,,,,,,,,,,,
null,,black_cross(without_color)4,2338240,,,,,,,,green,,,null,object_05a.png,object_13a.png,,,,,,,,,,,,,,,,,,,,
null,,rt_plussign_withcolor4,2338751,,,,,,,,green,,,null,object_05a.png,object_13a.png,,,,,,,,,,,,,,,,,,,,
985.4000000059605,,rt_thecrossant_black4,2340359,,,,,,,,black_plus_sign,,,50,,,,1,,,,,,1,,,,,,,,,,,,
null,,color_black4,2340468,,,,,,,,black_plus_sign,,,null,,,,,,,,,,,,,,,,,,,,,,
null,,thebreak,2340575,,,,,,,,<p></p>,,,null,,,,,,,,,,,,,,,,,,,,,,
8067.799999982119,,intro_0,2348645,,,,,,,,instruct,,,32,,,,,,,,,,,,,,,,,,,,,,
5656.199999988079,,directmemory_phase4,2354305,,,,,,,,object_02a.png,,,50,,,,0,object_07b.png,object_10c.png,object_01b.png,object_01b.png,,0.7582417582417582,0,,,,,,,,,,,
3591.699999988079,,directmemory_phase4,2357902,,,,,,,,object_10a.png,,,51,,,,1,object_10b.png,object_10c.png,object_11c.png,object_11c.png,,0.7608695652173914,1,,,,,,,,,,,
3437.300000011921,,directmemory_phase4,2361344,,,,,,,,object_04c.png,,,50,,,,1,object_07b.png,object_14c.png,object_12a.png,object_14c.png,,0.7634408602150538,1,,,,,,,,,,,
1682.8999999761581,,directmemory_phase4,2363029,,,,,,,,object_11a.png,,,51,,,,1,object_08c.png,object_04c.png,object_13a.png,object_13a.png,,0.7659574468085106,1,,,,,,,,,,,
3739.100000023842,,directmemory_phase4,2366773,,,,,,,,object_06c.png,,,49,,,,1,object_10a.png,object_03b.png,object_05b.png,object_10a.png,,0.7684210526315789,1,,,,,,,,,,,
1465.699999988079,,directmemory_phase4,2368245,,,,,,,,object_01a.png,,,51,,,,1,object_14b.png,object_02c.png,object_12b.png,object_12b.png,,0.7708333333333334,1,,,,,,,,,,,
3906.7999999821186,,directmemory_phase4,2372158,,,,,,,,object_08b.png,,,51,,,,0,object_07b.png,object_07c.png,object_10c.png,object_07b.png,,0.7628865979381443,0,,,,,,,,,,,
1566.1000000238419,,directmemory_phase4,2373729,,,,,,,,object_05b.png,,,50,,,,0,object_10c.png,object_02b.png,object_14c.png,object_10c.png,,0.7551020408163265,0,,,,,,,,,,,
7560.4000000059605,,directmemory_phase4,2381295,,,,,,,,object_14a.png,,,50,,,,1,object_07a.png,object_02c.png,object_08c.png,object_02c.png,,0.7575757575757576,1,,,,,,,,,,,
2562.699999988079,,directmemory_phase4,2383865,,,,,,,,object_13a.png,,,49,,,,1,object_05a.png,object_02b.png,object_10c.png,object_05a.png,,0.76,1,,,,,,,,,,,
2019.300000011921,,directmemory_phase4,2385890,,,,,,,,object_13b.png,,,49,,,,1,object_02b.png,object_15a.png,object_11b.png,object_02b.png,,0.7623762376237624,1,,,,,,,,,,,
8306.40000000596,,directmemory_phase4,2394202,,,,,,,,object_09a.png,,,49,,,,0,object_15c.png,object_02a.png,object_02c.png,object_02a.png,,0.7549019607843137,0,,,,,,,,,,,
4444,,directmemory_phase4,2398651,,,,,,,,object_15b.png,,,50,,,,1,object_12b.png,object_04a.png,object_04c.png,object_04a.png,,0.7572815533980582,1,,,,,,,,,,,
4828.699999988079,,directmemory_phase4,2403485,,,,,,,,object_08c.png,,,51,,,,1,object_05c.png,object_10b.png,object_09b.png,object_09b.png,,0.7596153846153846,1,,,,,,,,,,,
13095.299999982119,,directmemory_phase4,2416586,,,,,,,,object_02c.png,,,50,,,,0,object_11b.png,object_10b.png,object_05c.png,object_05c.png,,0.7523809523809524,0,,,,,,,,,,,
3869.7000000178814,,directmemory_phase4,2420461,,,,,,,,object_08a.png,,,49,,,,1,object_05b.png,object_08c.png,object_07a.png,object_05b.png,,0.7547169811320755,1,,,,,,,,,,,
4921.9000000059605,,directmemory_phase4,2425389,,,,,,,,object_13c.png,,,50,,,,1,object_10a.png,object_08b.png,object_02a.png,object_08b.png,,0.7570093457943925,1,,,,,,,,,,,
4358.0999999940395,,directmemory_phase4,2429753,,,,,,,,object_03c.png,,,49,,,,1,object_13b.png,object_14b.png,object_08c.png,object_13b.png,,0.7592592592592593,1,,,,,,,,,,,
1504.699999988079,,directmemory_phase4,2431265,,,,,,,,object_12b.png,,,49,,,,1,object_12a.png,object_10b.png,object_11b.png,object_12a.png,,0.7614678899082569,1,,,,,,,,,,,
6223.799999982119,,directmemory_phase4,2437494,,,,,,,,object_04a.png,,,49,,,,1,object_03a.png,object_05c.png,object_12a.png,object_03a.png,,0.7636363636363637,1,,,,,,,,,,,
9091.800000011921,,directmemory_phase4,2446589,,,,,,,,object_03b.png,,,50,,,,0,object_10b.png,object_11b.png,object_07b.png,object_10b.png,,0.7567567567567568,0,,,,,,,,,,,
6471.200000017881,,directmemory_phase4,2453065,,,,,,,,object_01c.png,,,49,,,,1,object_14b.png,object_04a.png,object_10a.png,object_14b.png,,0.7589285714285714,1,,,,,,,,,,,
8207.5,,directmemory_phase4,2461279,,,,,,,,object_14b.png,,,50,,,,1,object_12a.png,object_11b.png,object_10b.png,object_11b.png,,0.7610619469026548,1,,,,,,,,,,,
2195.9000000059605,,directmemory_phase4,2463480,,,,,,,,object_09c.png,,,51,,,,1,object_04a.png,object_05b.png,object_03b.png,object_03b.png,,0.7631578947368421,1,,,,,,,,,,,
5585.5999999940395,,directmemory_phase4,2469071,,,,,,,,object_06a.png,,,51,,,,1,object_08b.png,object_14b.png,object_07a.png,object_07a.png,,0.7652173913043478,1,,,,,,,,,,,
4195.800000011921,,directmemory_phase4,2473271,,,,,,,,object_15c.png,,,51,,,,1,object_11b.png,object_12a.png,object_07c.png,object_07c.png,,0.7672413793103449,1,,,,,,,,,,,
1435.5,,directmemory_phase4,2474711,,,,,,,,object_04b.png,,,50,,,,1,object_05b.png,object_04c.png,object_12b.png,object_04c.png,,0.7692307692307693,1,,,,,,,,,,,
1187.300000011921,,directmemory_phase4,2475903,,,,,,,,object_12c.png,,,49,,,,1,object_15c.png,object_10a.png,object_05b.png,object_15c.png,,0.7711864406779662,1,,,,,,,,,,,
2664.300000011921,,directmemory_phase4,2478573,,,,,,,,object_06b.png,,,50,,,,1,object_12b.png,object_08c.png,object_04a.png,object_08c.png,,0.773109243697479,1,,,,,,,,,,,
2368.5,,directmemory_phase4,2480947,,,,,,,,object_07a.png,,,50,,,,1,object_11c.png,object_15a.png,object_12a.png,object_15a.png,,0.775,1,,,,,,,,,,,
null,,thebreak,2481061,,,,,,,,<p></p>,,,null,,,,,,,,,,,,,,,,,,,,,,
7881.4000000059605,,intro_0,2488945,,,,,,,,instruct,,,32,,,,,,,,,,,,,,,,,,,,,,
55330.59999999404,,intro_1,2544279,,,,,,,,instruct,,,32,,,,,,,,,,,,,,,,,,,,,,
5667.100000023842,,intro_2,2549948,,,,,,,,instruct,,,32,,,,,,,,,,,,,,,,,,,,,,
,,intro_3,2582888,,,,,,,,instruct,,,,,,,,,,,,,,,,,,,,,,,,,
7056.699999988079,,intro_4,2589947,,,,,,,,instruct,,,32,,,,,,,,,,,,,,,,,,,,,,
6685.5999999940395,,inference_phase,2596637,,,,,,,,object_09c.png,,,49,object_10b.png,object_01b.png,,1,,,,object_10b.png,,1,,object_15a.png,,,,,,,,,,
7807.4000000059605,,inference_phase,2604454,,,,,,,,object_13c.png,,,51,object_14c.png,object_07b.png,,1,,,,object_07b.png,,1,,object_11b.png,,,,,,,,,,
5040,,inference_phase,2609498,,,,,,,,object_15b.png,,,51,object_10b.png,object_07c.png,,0,,,,object_03a.png,,0.6666666666666666,,object_03a.png,,,,,,,,,,
5370.799999982119,,inference_phase,2614875,,,,,,,,object_11a.png,,,49,object_12a.png,object_05a.png,,0,,,,object_05a.png,,0.5,,object_09b.png,,,,,,,,,,
6494.9000000059605,,inference_phase,2621375,,,,,,,,object_01a.png,,,51,object_12a.png,object_10c.png,,0,,,,object_12a.png,,0.4,,object_10b.png,,,,,,,,,,
2837.5999999940395,,inference_phase,2624218,,,,,,,,object_04b.png,,,50,object_15a.png,object_12a.png,,1,,,,object_14c.png,,0.5,,object_14c.png,,,,,,,,,,
5231.5999999940395,,inference_phase,2629455,,,,,,,,object_06c.png,,,49,object_10b.png,object_11c.png,,0,,,,object_11c.png,,0.42857142857142855,,object_10c.png,,,,,,,,,,
2465,,inference_phase,2631925,,,,,,,,object_14a.png,,,49,object_07c.png,object_12a.png,,0,,,,object_05c.png,,0.375,,object_05c.png,,,,,,,,,,
11096.700000017881,,inference_phase,2643024,,,,,,,,object_03c.png,,,50,object_10b.png,object_02b.png,,0,,,,object_02b.png,,0.3333333333333333,,object_12a.png,,,,,,,,,,
8825.799999982119,,inference_phase,2651855,,,,,,,,object_12c.png,,,49,object_11b.png,object_12a.png,,0,,,,object_07c.png,,0.3,,object_07c.png,,,,,,,,,,
8490.799999982119,,inference_phase,2660352,,,,,,,,object_01c.png,,,50,object_09b.png,object_07b.png,,1,,,,object_11b.png,,0.36363636363636365,,object_11b.png,,,,,,,,,,
2322.5,,inference_phase,2662680,,,,,,,,object_09a.png,,,50,object_01b.png,object_05c.png,,0,,,,object_01b.png,,0.3333333333333333,,object_03a.png,,,,,,,,,,
11636.199999988079,,inference_phase,2674321,,,,,,,,object_06a.png,,,51,object_14c.png,object_15a.png,,1,,,,object_15a.png,,0.38461538461538464,,object_05c.png,,,,,,,,,,
9557.40000000596,,inference_phase,2683884,,,,,,,,object_06b.png,,,50,object_11c.png,object_10c.png,,1,,,,object_09b.png,,0.42857142857142855,,object_09b.png,,,,,,,,,,
10418.300000011921,,inference_phase,2694308,,,,,,,,object_08a.png,,,50,object_07b.png,object_10c.png,,0,,,,object_10c.png,,0.4,,object_03a.png,,,,,,,,,,
,,survey,2857936,,,,,,,,survey-questions,,,,,,,,,,,,,,,,none,high,nothing ,i gave them names like alien , balls and all that to help me remember,yes. the objects with balls and alien like was the easiest,no,it was very interesting,,,
65184.30000001192,,thank_you,2923171,,,,,,,,<p> Congratulations, you are all done!</p><p> <strong>Please click space on your keyboard to end the experiment!</strong> The secret code to enter at the beginning screen is: <strong>CIMBPENS</strong></p><p> Please make sure to submit the HIT and email uciccnl@gmail.com if you had any issues! </p><br><p>Please remember to submit this data by clicking space after copying the code. Failure of submission will lead to in-complete payment</p>,,,32,,,,,,,,,,,,,,,,,,,,6,2,C78LSMTN
