rt,responses,trial_type,time_elapsed,identifier_a,identifier_b,identifier_c,tasktype,browser_type,local_time,UTC_time,stimulus,button_pressed,response,key_press,stimulus_left,stimulus_right,accuracy,practice_cumulative_accuracy,stimulus_down_left,stimulus_down_mid,stimulus_down_right,stimulus_correct,prac_weighted_accuracy,cumulative_accuracy,failed_practice,weighted_accuracy,stimulus_middle,problems,smooth,distraction,strategies,easier,similar,comments,detectfocus,breakfocus,completion_code
4826.299999952316,{worker_id:6316cc3a5fbb98d30e5e15c3},id_enter,4828,object_14c.png; object_05b.png; object_01c.png; object_12a.png; object_14b.png; object_03a.png; object_13a.png; object_05c.png; object_01b.png; object_08a.png; object_12b.png; object_03c.png; object_09c.png; object_08b.png; object_10a.png,object_15c.png; object_13c.png; object_09a.png; object_11c.png; object_04b.png; object_02b.png; object_12c.png; object_10b.png; object_11a.png; object_15b.png; object_01a.png; object_06c.png; object_02c.png; object_06a.png; object_10c.png,object_04a.png; object_02a.png; object_07b.png; object_15a.png; object_06b.png; object_07a.png; object_07c.png; object_09b.png; object_08c.png; object_04c.png; object_05a.png; object_03b.png; object_11b.png; object_13b.png; object_14a.png,blocked,Mozilla/5.0 (Windows NT 10.0; Win64; x64) AppleWebKit/537.36 (KHTML, like Gecko) Chrome/135.0.0.0 Safari/537.36,4/28/2025, 11:46:09 AM,2025-04-28 16:46:09.575,,,,,,,,,,,,,,,,,,,,,,,,,,,
15317.299999952316,,make_fullscreen,20163,,,,,,,,fullscreen,0,,,,,,,,,,,,,,,,,,,,,,,,,
6896.899999976158,,instruct_1,27062,,,,,,,,instruct,0,Next,,,,,,,,,,,,,,,,,,,,,,,,
11662.699999988079,,instruct_2,38725,,,,,,,,instruct,1,Next,,,,,,,,,,,,,,,,,,,,,,,,
8792.300000011921,,instruct_3,47519,,,,,,,,instruct,1,Next,,,,,,,,,,,,,,,,,,,,,,,,
24177.600000023842,,instruct_4,71697,,,,,,,,instruct,1,Next,,,,,,,,,,,,,,,,,,,,,,,,
13343.399999976158,,instruct_5,85041,,,,,,,,instruct,1,Next,,,,,,,,,,,,,,,,,,,,,,,,
5503.200000047684,,instruct_6,90545,,,,,,,,instruct,1,Next,,,,,,,,,,,,,,,,,,,,,,,,
35558.5,,instruct_7,126105,,,,,,,,instruct,1,Next,,,,,,,,,,,,,,,,,,,,,,,,
null,,prac_atten_color_black,126622,,,,,,,,black_plus_sign,,,null,,,,,,,,,,,,,,,,,,,,,,,
null,,prac_atten_color,127510,,,,,,,,<p style='position:absolute;top: 50%;right: 50%;transform: translate(50%, -50%);font-size: 125px;color: blue;'>+</p>,,,null,,,,,,,,,,,,,,,,,,,,,,,
1231.800000011921,,prac_atten_color_black,129512,,,,,,,,black_plus_sign,,,49,,,,,,,,,,,,,,,,,,,,,,,
null,,prac_atten_color_black,130029,,,,,,,,black_plus_sign,,,null,,,,,,,,,,,,,,,,,,,,,,,
null,,prac_atten_color,130547,,,,,,,,<p style='position:absolute;top: 50%;right: 50%;transform: translate(50%, -50%);font-size: 125px;color: green;'>+</p>,,,null,,,,,,,,,,,,,,,,,,,,,,,
106.90000003576279,,prac_atten_color_black,132548,,,,,,,,black_plus_sign,,,50,,,,,,,,,,,,,,,,,,,,,,,
null,,prac_atten_color_black,133433,,,,,,,,black_plus_sign,,,null,,,,,,,,,,,,,,,,,,,,,,,
null,,prac_atten_color,133912,,,,,,,,<p style='position:absolute;top: 50%;right: 50%;transform: translate(50%, -50%);font-size: 125px;color: green;'>+</p>,,,null,,,,,,,,,,,,,,,,,,,,,,,
485.39999997615814,,prac_atten_color_black,135914,,,,,,,,black_plus_sign,,,50,,,,,,,,,,,,,,,,,,,,,,,
null,,prac_atten_color_black,136838,,,,,,,,black_plus_sign,,,null,,,,,,,,,,,,,,,,,,,,,,,
568.1999999880791,,prac_atten_color,137618,,,,,,,,<p style='position:absolute;top: 50%;right: 50%;transform: translate(50%, -50%);font-size: 125px;color: blue;'>+</p>,,,49,,,,,,,,,,,,,,,,,,,,,,,
null,,prac_atten_color_black,139620,,,,,,,,black_plus_sign,,,null,,,,,,,,,,,,,,,,,,,,,,,
null,,prac_atten_color_black,140242,,,,,,,,black_plus_sign,,,null,,,,,,,,,,,,,,,,,,,,,,,
675.3000000119209,,prac_atten_color,141074,,,,,,,,<p style='position:absolute;top: 50%;right: 50%;transform: translate(50%, -50%);font-size: 125px;color: green;'>+</p>,,,50,,,,,,,,,,,,,,,,,,,,,,,
null,,prac_atten_color_black,143075,,,,,,,,black_plus_sign,,,null,,,,,,,,,,,,,,,,,,,,,,,
null,,prac_atten_color_black,143645,,,,,,,,black_plus_sign,,,null,,,,,,,,,,,,,,,,,,,,,,,
null,,prac_atten_color,144521,,,,,,,,<p style='position:absolute;top: 50%;right: 50%;transform: translate(50%, -50%);font-size: 125px;color: green;'>+</p>,,,null,,,,,,,,,,,,,,,,,,,,,,,
1084.1000000238419,,prac_atten_color_black,146523,,,,,,,,black_plus_sign,,,50,,,,,,,,,,,,,,,,,,,,,,,
null,,prac_atten_color_black,147050,,,,,,,,black_plus_sign,,,null,,,,,,,,,,,,,,,,,,,,,,,
747.3000000119209,,prac_atten_color,148063,,,,,,,,<p style='position:absolute;top: 50%;right: 50%;transform: translate(50%, -50%);font-size: 125px;color: blue;'>+</p>,,,49,,,,,,,,,,,,,,,,,,,,,,,
null,,prac_atten_color_black,150065,,,,,,,,black_plus_sign,,,null,,,,,,,,,,,,,,,,,,,,,,,
null,,prac_atten_color_black,150454,,,,,,,,black_plus_sign,,,null,,,,,,,,,,,,,,,,,,,,,,,
583,,prac_atten_color,151061,,,,,,,,<p style='position:absolute;top: 50%;right: 50%;transform: translate(50%, -50%);font-size: 125px;color: green;'>+</p>,,,50,,,,,,,,,,,,,,,,,,,,,,,
null,,prac_atten_color_black,153062,,,,,,,,black_plus_sign,,,null,,,,,,,,,,,,,,,,,,,,,,,
null,,prac_atten_color_black,153858,,,,,,,,black_plus_sign,,,null,,,,,,,,,,,,,,,,,,,,,,,
null,,prac_atten_color,154721,,,,,,,,<p style='position:absolute;top: 50%;right: 50%;transform: translate(50%, -50%);font-size: 125px;color: blue;'>+</p>,,,null,,,,,,,,,,,,,,,,,,,,,,,
883.8999999761581,,prac_atten_color_black,156722,,,,,,,,black_plus_sign,,,49,,,,,,,,,,,,,,,,,,,,,,,
null,,prac_atten_color_black,157262,,,,,,,,black_plus_sign,,,null,,,,,,,,,,,,,,,,,,,,,,,
631.5,,prac_atten_color,157927,,,,,,,,<p style='position:absolute;top: 50%;right: 50%;transform: translate(50%, -50%);font-size: 125px;color: blue;'>+</p>,,,49,,,,,,,,,,,,,,,,,,,,,,,
null,,prac_atten_color_black,159928,,,,,,,,black_plus_sign,,,null,,,,,,,,,,,,,,,,,,,,,,,
23971.600000023842,,attentioncheck_feedback,183901,,,,,,,,cross_check_feedback,0,,,,,,,,,,,,,,,,,,,,,,,,,
12705,,last_instruct,196606,,,,,,,,instruct,,,32,,,,,,,,,,,,,,,,,,,,,,,
null,,prac_learn_phase(without_color),200108,,,,,,,,black_plus_sign,,,null,object_03a.png,object_02b.png,,,,,,,,,,,,,,,,,,,,,
null,,prac_black_cross(without_color),200646,,,,,,,,green,,,null,object_03a.png,object_02b.png,,,,,,,,,,,,,,,,,,,,,
null,,prac_rt_plussign_withcolor,201148,,,,,,,,green,,,null,object_03a.png,object_02b.png,,,,,,,,,,,,,,,,,,,,,
1653.6000000238419,,prac_rt_thecrossant_black,202612,,,,,,,,black_plus_sign,,,50,,,1,1,,,,,,,,,,,,,,,,,,,
null,,prac_color_black,202714,,,,,,,,black_plus_sign,,,null,,,,,,,,,,,,,,,,,,,,,,,
null,,prac_learn_phase(without_color),206215,,,,,,,,black_plus_sign,,,null,object_05c.png,object_10b.png,,,,,,,,,,,,,,,,,,,,,
null,,black_cross(without_color)1,206626,,,,,,,,green,,,null,object_03a.png,object_02b.png,,,,,,,,,,,,,,,,,,,,,
null,,prac_rt_plussign_withcolor,207128,,,,,,,,green,,,null,object_05c.png,object_10b.png,,,,,,,,,,,,,,,,,,,,,
1125.199999988079,,prac_rt_thecrossant_black,208565,,,,,,,,black_plus_sign,,,50,,,1,1,,,,,,,,,,,,,,,,,,,
null,,prac_color_black,208666,,,,,,,,black_plus_sign,,,null,,,,,,,,,,,,,,,,,,,,,,,
null,,prac_learn_phase(without_color),212168,,,,,,,,black_plus_sign,,,null,object_09c.png,object_02c.png,,,,,,,,,,,,,,,,,,,,,
null,,black_cross(without_color)1,212579,,,,,,,,green,,,null,object_03a.png,object_02b.png,,,,,,,,,,,,,,,,,,,,,
null,,prac_rt_plussign_withcolor,213080,,,,,,,,green,,,null,object_09c.png,object_02c.png,,,,,,,,,,,,,,,,,,,,,
876.8000000119209,,prac_rt_thecrossant_black,214613,,,,,,,,black_plus_sign,,,50,,,1,1,,,,,,,,,,,,,,,,,,,
null,,prac_color_black,214715,,,,,,,,black_plus_sign,,,null,,,,,,,,,,,,,,,,,,,,,,,
null,,prac_learn_phase(without_color),218216,,,,,,,,black_plus_sign,,,null,object_12b.png,object_01a.png,,,,,,,,,,,,,,,,,,,,,
null,,black_cross(without_color)1,218626,,,,,,,,green,,,null,object_03a.png,object_02b.png,,,,,,,,,,,,,,,,,,,,,
null,,prac_rt_plussign_withcolor,219127,,,,,,,,blue,,,null,object_12b.png,object_01a.png,,,,,,,,,,,,,,,,,,,,,
758.6000000238419,,prac_rt_thecrossant_black,220117,,,,,,,,black_plus_sign,,,49,,,1,1,,,,,,,,,,,,,,,,,,,
null,,prac_color_black,220218,,,,,,,,black_plus_sign,,,null,,,,,,,,,,,,,,,,,,,,,,,
10906.400000035763,,instruct_dir_01,231126,,,,,,,,instruct,0,Next,,,,,,,,,,,,,,,,,,,,,,,,
18910.69999998808,,instruct_dir_2,250037,,,,,,,,instruct,1,Next,,,,,,,,,,,,,,,,,,,,,,,,
7402.5,,instruct_dir_3,257441,,,,,,,,instruct,1,Next,,,,,,,,,,,,,,,,,,,,,,,,
11239.799999952316,,instruct_dir_4,268682,,,,,,,,instruct,1,Start,,,,,,,,,,,,,,,,,,,,,,,,
null,,thebreak,268782,,,,,,,,<p></p>,,,null,,,,,,,,,,,,,,,,,,,,,,,
2078.600000023842,,intro_0,270862,,,,,,,,instruct,,,32,,,,,,,,,,,,,,,,,,,,,,,
12719.300000011921,,prac_directmemory_phase,283582,,,,,,,,practice/object_04b.png,,,51,,,0,,practice/object_04a.png,practice/object_02a.png,practice/object_01a.png,practice/object_04a.png,0,0,,,,,,,,,,,,,
3822.5,,prac_directmemory_phase,287406,,,,,,,,practice/object_02b.png,,,50,,,1,,practice/object_03a.png,practice/object_02a.png,practice/object_04a.png,practice/object_02a.png,1,0.5,,,,,,,,,,,,,
7575,,prac_directmemory_phase,294982,,,,,,,,practice/object_03b.png,,,51,,,0,,practice/object_03a.png,practice/object_01a.png,practice/object_04a.png,practice/object_03a.png,0,0.3333333333333333,,,,,,,,,,,,,
4462.899999976158,,prac_directmemory_phase,299446,,,,,,,,practice/object_01b.png,,,50,,,0,,practice/object_03a.png,practice/object_02a.png,practice/object_01a.png,practice/object_01a.png,0,0.25,,,,,,,,,,,,,
7795.200000047684,,practice_feedback_force_restart,307242,,,,,,,,practice_feedback,0,,,,,,,,,,,,,1,,,,,,,,,,,,
13211,,last_instruct,320454,,,,,,,,instruct,,,32,,,,,,,,,,,,,,,,,,,,,,,
null,,prac_learn_phase(without_color),323955,,,,,,,,black_plus_sign,,,null,object_03a.png,object_02b.png,,,,,,,,,,,,,,,,,,,,,
null,,prac_black_cross(without_color),324954,,,,,,,,green,,,null,object_03a.png,object_02b.png,,,,,,,,,,,,,,,,,,,,,
null,,prac_rt_plussign_withcolor,325455,,,,,,,,green,,,null,object_03a.png,object_02b.png,,,,,,,,,,,,,,,,,,,,,
null,,prac_rt_thecrossant_black,326460,,,,,,,,black_plus_sign,,,null,,,,1,,,,,,,,,,,,,,,,,,,
null,,prac_color_black,326561,,,,,,,,black_plus_sign,,,null,,,,,,,,,,,,,,,,,,,,,,,
null,,prac_learn_phase(without_color),330063,,,,,,,,black_plus_sign,,,null,object_05c.png,object_10b.png,,,,,,,,,,,,,,,,,,,,,
null,,black_cross(without_color)1,330473,,,,,,,,green,,,null,object_03a.png,object_02b.png,,,,,,,,,,,,,,,,,,,,,
null,,prac_rt_plussign_withcolor,330974,,,,,,,,green,,,null,object_05c.png,object_10b.png,,,,,,,,,,,,,,,,,,,,,
null,,prac_rt_thecrossant_black,331922,,,,,,,,black_plus_sign,,,null,,,,1,,,,,,,,,,,,,,,,,,,
null,,warning_page,336923,,,,,,,,warning,,,null,,,,,,,,,,,,,,,,,,,,,,,
null,,prac_color_black,337025,,,,,,,,black_plus_sign,,,null,,,,,,,,,,,,,,,,,,,,,,,
null,,prac_learn_phase(without_color),340527,,,,,,,,black_plus_sign,,,null,object_09c.png,object_02c.png,,,,,,,,,,,,,,,,,,,,,
null,,black_cross(without_color)1,340939,,,,,,,,green,,,null,object_03a.png,object_02b.png,,,,,,,,,,,,,,,,,,,,,
null,,prac_rt_plussign_withcolor,341440,,,,,,,,green,,,null,object_09c.png,object_02c.png,,,,,,,,,,,,,,,,,,,,,
1686.800000011921,,prac_rt_thecrossant_black,342773,,,,,,,,black_plus_sign,,,50,,,1,1,,,,,,,,,,,,,,,,,,,
null,,prac_color_black,342875,,,,,,,,black_plus_sign,,,null,,,,,,,,,,,,,,,,,,,,,,,
null,,prac_learn_phase(without_color),346376,,,,,,,,black_plus_sign,,,null,object_12b.png,object_01a.png,,,,,,,,,,,,,,,,,,,,,
null,,black_cross(without_color)1,346787,,,,,,,,green,,,null,object_03a.png,object_02b.png,,,,,,,,,,,,,,,,,,,,,
null,,prac_rt_plussign_withcolor,347288,,,,,,,,blue,,,null,object_12b.png,object_01a.png,,,,,,,,,,,,,,,,,,,,,
949,,prac_rt_thecrossant_black,348727,,,,,,,,black_plus_sign,,,49,,,1,1,,,,,,,,,,,,,,,,,,,
null,,prac_color_black,348829,,,,,,,,black_plus_sign,,,null,,,,,,,,,,,,,,,,,,,,,,,
2939.800000011921,,instruct_dir_01,351769,,,,,,,,instruct,0,Next,,,,,,,,,,,,,,,,,,,,,,,,
2053.199999988079,,instruct_dir_2,353823,,,,,,,,instruct,1,Next,,,,,,,,,,,,,,,,,,,,,,,,
3918.199999988079,,instruct_dir_3,357743,,,,,,,,instruct,1,Next,,,,,,,,,,,,,,,,,,,,,,,,
1552.7000000476837,,instruct_dir_4,359296,,,,,,,,instruct,1,Start,,,,,,,,,,,,,,,,,,,,,,,,
null,,thebreak,359398,,,,,,,,<p></p>,,,null,,,,,,,,,,,,,,,,,,,,,,,
2326.7000000476837,,intro_0,361725,,,,,,,,instruct,,,32,,,,,,,,,,,,,,,,,,,,,,,
6063.399999976158,,prac_directmemory_phase,367789,,,,,,,,practice/object_04b.png,,,49,,,1,,practice/object_04a.png,practice/object_02a.png,practice/object_01a.png,practice/object_04a.png,1,1,,,,,,,,,,,,,
4038.7000000476837,,prac_directmemory_phase,371829,,,,,,,,practice/object_02b.png,,,50,,,1,,practice/object_03a.png,practice/object_02a.png,practice/object_04a.png,practice/object_02a.png,1,1,,,,,,,,,,,,,
4430.800000011921,,prac_directmemory_phase,376261,,,,,,,,practice/object_03b.png,,,49,,,1,,practice/object_03a.png,practice/object_01a.png,practice/object_04a.png,practice/object_03a.png,1,1,,,,,,,,,,,,,
4823.199999988079,,prac_directmemory_phase,381085,,,,,,,,practice/object_01b.png,,,51,,,1,,practice/object_03a.png,practice/object_02a.png,practice/object_01a.png,practice/object_01a.png,1,1,,,,,,,,,,,,,
6680.199999988079,,practice_feedback,387767,,,,,,,,practice_feedback,1,,,,,,,,,,,,,,,,,,,,,,,,,
10580.100000023842,,proceed_actualTask,398348,,,,,,,,proceed_actualTask,1,Continue,,,,,,,,,,,,,,,,,,,,,,,,
11408.800000011921,,last_inst,409757,,,,,,,,last_inst,,,32,,,,,,,,,,,,,,,,,,,,,,,
null,,learn_phase(without_color)1,413259,,,,,,,,black_plus_sign,,,null,object_03a.png,object_02b.png,,,,,,,,,,,,,,,,,,,,,
null,,black_cross(without_color)1,413669,,,,,,,,green,,,null,object_03a.png,object_02b.png,,,,,,,,,,,,,,,,,,,,,
null,,rt_plussign_withcolor1,414170,,,,,,,,green,,,null,object_03a.png,object_02b.png,,,,,,,,,,,,,,,,,,,,,
1184.1000000238419,,rt_thecrossant_black1,415763,,,,,,,,black_plus_sign,,,50,,,1,,,,,,,1,,,,,,,,,,,,,
null,,color_black1,415865,,,,,,,,black_plus_sign,,,null,,,,,,,,,,,,,,,,,,,,,,,
null,,learn_phase(without_color)1,419366,,,,,,,,black_plus_sign,,,null,object_05c.png,object_10b.png,,,,,,,,,,,,,,,,,,,,,
null,,black_cross(without_color)1,420276,,,,,,,,green,,,null,object_05c.png,object_10b.png,,,,,,,,,,,,,,,,,,,,,
null,,rt_plussign_withcolor1,420778,,,,,,,,green,,,null,object_05c.png,object_10b.png,,,,,,,,,,,,,,,,,,,,,
1057.5,,rt_thecrossant_black1,421872,,,,,,,,black_plus_sign,,,50,,,1,,,,,,,1,,,,,,,,,,,,,
null,,color_black1,421973,,,,,,,,black_plus_sign,,,null,,,,,,,,,,,,,,,,,,,,,,,
null,,learn_phase(without_color)1,425474,,,,,,,,black_plus_sign,,,null,object_09c.png,object_02c.png,,,,,,,,,,,,,,,,,,,,,
null,,black_cross(without_color)1,426001,,,,,,,,blue,,,null,object_09c.png,object_02c.png,,,,,,,,,,,,,,,,,,,,,
null,,rt_plussign_withcolor1,426502,,,,,,,,blue,,,null,object_09c.png,object_02c.png,,,,,,,,,,,,,,,,,,,,,
1206.0999999642372,,rt_thecrossant_black1,427979,,,,,,,,black_plus_sign,,,49,,,1,,,,,,,1,,,,,,,,,,,,,
null,,color_black1,428080,,,,,,,,black_plus_sign,,,null,,,,,,,,,,,,,,,,,,,,,,,
null,,learn_phase(without_color)1,431582,,,,,,,,black_plus_sign,,,null,object_12b.png,object_01a.png,,,,,,,,,,,,,,,,,,,,,
null,,black_cross(without_color)1,432468,,,,,,,,green,,,null,object_12b.png,object_01a.png,,,,,,,,,,,,,,,,,,,,,
null,,rt_plussign_withcolor1,432970,,,,,,,,green,,,null,object_12b.png,object_01a.png,,,,,,,,,,,,,,,,,,,,,
651.3000000119209,,rt_thecrossant_black1,434087,,,,,,,,black_plus_sign,,,50,,,1,,,,,,,1,,,,,,,,,,,,,
null,,color_black1,434188,,,,,,,,black_plus_sign,,,null,,,,,,,,,,,,,,,,,,,,,,,
null,,learn_phase(without_color)1,437690,,,,,,,,black_plus_sign,,,null,object_03c.png,object_06c.png,,,,,,,,,,,,,,,,,,,,,
null,,black_cross(without_color)1,438783,,,,,,,,green,,,null,object_03c.png,object_06c.png,,,,,,,,,,,,,,,,,,,,,
null,,rt_plussign_withcolor1,439284,,,,,,,,green,,,null,object_03c.png,object_06c.png,,,,,,,,,,,,,,,,,,,,,
1161.300000011921,,rt_thecrossant_black1,440198,,,,,,,,black_plus_sign,,,50,,,1,,,,,,,1,,,,,,,,,,,,,
null,,color_black1,440299,,,,,,,,black_plus_sign,,,null,,,,,,,,,,,,,,,,,,,,,,,
null,,learn_phase(without_color)1,443802,,,,,,,,black_plus_sign,,,null,object_08b.png,object_06a.png,,,,,,,,,,,,,,,,,,,,,
null,,black_cross(without_color)1,444708,,,,,,,,blue,,,null,object_08b.png,object_06a.png,,,,,,,,,,,,,,,,,,,,,
null,,rt_plussign_withcolor1,445209,,,,,,,,blue,,,null,object_08b.png,object_06a.png,,,,,,,,,,,,,,,,,,,,,
1198.4000000357628,,rt_thecrossant_black1,446306,,,,,,,,black_plus_sign,,,49,,,1,,,,,,,1,,,,,,,,,,,,,
null,,color_black1,446407,,,,,,,,black_plus_sign,,,null,,,,,,,,,,,,,,,,,,,,,,,
null,,learn_phase(without_color)1,449909,,,,,,,,black_plus_sign,,,null,object_01c.png,object_09a.png,,,,,,,,,,,,,,,,,,,,,
null,,black_cross(without_color)1,450959,,,,,,,,green,,,null,object_01c.png,object_09a.png,,,,,,,,,,,,,,,,,,,,,
null,,rt_plussign_withcolor1,451459,,,,,,,,green,,,null,object_01c.png,object_09a.png,,,,,,,,,,,,,,,,,,,,,
1044.6000000238419,,rt_thecrossant_black1,452413,,,,,,,,black_plus_sign,,,50,,,1,,,,,,,1,,,,,,,,,,,,,
null,,color_black1,452515,,,,,,,,black_plus_sign,,,null,,,,,,,,,,,,,,,,,,,,,,,
null,,learn_phase(without_color)1,456017,,,,,,,,black_plus_sign,,,null,object_13a.png,object_12c.png,,,,,,,,,,,,,,,,,,,,,
null,,black_cross(without_color)1,456852,,,,,,,,green,,,null,object_13a.png,object_12c.png,,,,,,,,,,,,,,,,,,,,,
488.4000000357628,,rt_plussign_withcolor1,457353,,,,,,,,green,,,50,object_13a.png,object_12c.png,,,,,,,,,,,,,,,,,,,,,
null,,rt_thecrossant_black1,458520,,,,,,,,black_plus_sign,,,null,,,1,,,,,,,1,,,,,,,,,,,,,
null,,color_black1,458622,,,,,,,,black_plus_sign,,,null,,,,,,,,,,,,,,,,,,,,,,,
null,,learn_phase(without_color)1,462124,,,,,,,,black_plus_sign,,,null,object_10a.png,object_10c.png,,,,,,,,,,,,,,,,,,,,,
null,,black_cross(without_color)1,462969,,,,,,,,green,,,null,object_10a.png,object_10c.png,,,,,,,,,,,,,,,,,,,,,
null,,rt_plussign_withcolor1,463470,,,,,,,,green,,,null,object_10a.png,object_10c.png,,,,,,,,,,,,,,,,,,,,,
1307.8999999761581,,rt_thecrossant_black1,464628,,,,,,,,black_plus_sign,,,50,,,1,,,,,,,1,,,,,,,,,,,,,
null,,color_black1,464730,,,,,,,,black_plus_sign,,,null,,,,,,,,,,,,,,,,,,,,,,,
null,,learn_phase(without_color)1,468241,,,,,,,,black_plus_sign,,,null,object_01b.png,object_11a.png,,,,,,,,,,,,,,,,,,,,,
null,,black_cross(without_color)1,469172,,,,,,,,green,,,null,object_01b.png,object_11a.png,,,,,,,,,,,,,,,,,,,,,
null,,rt_plussign_withcolor1,469674,,,,,,,,green,,,null,object_01b.png,object_11a.png,,,,,,,,,,,,,,,,,,,,,
1081.199999988079,,rt_thecrossant_black1,470745,,,,,,,,black_plus_sign,,,50,,,1,,,,,,,1,,,,,,,,,,,,,
null,,color_black1,470847,,,,,,,,black_plus_sign,,,null,,,,,,,,,,,,,,,,,,,,,,,
null,,learn_phase(without_color)1,474348,,,,,,,,black_plus_sign,,,null,object_08a.png,object_15b.png,,,,,,,,,,,,,,,,,,,,,
null,,black_cross(without_color)1,475238,,,,,,,,blue,,,null,object_08a.png,object_15b.png,,,,,,,,,,,,,,,,,,,,,
null,,rt_plussign_withcolor1,475740,,,,,,,,blue,,,null,object_08a.png,object_15b.png,,,,,,,,,,,,,,,,,,,,,
1045.6000000238419,,rt_thecrossant_black1,476853,,,,,,,,black_plus_sign,,,49,,,1,,,,,,,1,,,,,,,,,,,,,
null,,color_black1,476955,,,,,,,,black_plus_sign,,,null,,,,,,,,,,,,,,,,,,,,,,,
null,,learn_phase(without_color)1,480456,,,,,,,,black_plus_sign,,,null,object_12a.png,object_11c.png,,,,,,,,,,,,,,,,,,,,,
null,,black_cross(without_color)1,481125,,,,,,,,blue,,,null,object_12a.png,object_11c.png,,,,,,,,,,,,,,,,,,,,,
null,,rt_plussign_withcolor1,481627,,,,,,,,blue,,,null,object_12a.png,object_11c.png,,,,,,,,,,,,,,,,,,,,,
1214.300000011921,,rt_thecrossant_black1,482960,,,,,,,,black_plus_sign,,,49,,,1,,,,,,,1,,,,,,,,,,,,,
null,,color_black1,483065,,,,,,,,black_plus_sign,,,null,,,,,,,,,,,,,,,,,,,,,,,
null,,learn_phase(without_color)1,486567,,,,,,,,black_plus_sign,,,null,object_14c.png,object_15c.png,,,,,,,,,,,,,,,,,,,,,
null,,black_cross(without_color)1,487212,,,,,,,,blue,,,null,object_14c.png,object_15c.png,,,,,,,,,,,,,,,,,,,,,
null,,rt_plussign_withcolor1,487713,,,,,,,,blue,,,null,object_14c.png,object_15c.png,,,,,,,,,,,,,,,,,,,,,
1218.699999988079,,rt_thecrossant_black1,489072,,,,,,,,black_plus_sign,,,49,,,1,,,,,,,1,,,,,,,,,,,,,
null,,color_black1,489173,,,,,,,,black_plus_sign,,,null,,,,,,,,,,,,,,,,,,,,,,,
null,,learn_phase(without_color)1,492675,,,,,,,,black_plus_sign,,,null,object_14b.png,object_04b.png,,,,,,,,,,,,,,,,,,,,,
null,,black_cross(without_color)1,493478,,,,,,,,blue,,,null,object_14b.png,object_04b.png,,,,,,,,,,,,,,,,,,,,,
null,,rt_plussign_withcolor1,493979,,,,,,,,blue,,,null,object_14b.png,object_04b.png,,,,,,,,,,,,,,,,,,,,,
888.9000000357628,,rt_thecrossant_black1,495178,,,,,,,,black_plus_sign,,,49,,,1,,,,,,,1,,,,,,,,,,,,,
null,,color_black1,495280,,,,,,,,black_plus_sign,,,null,,,,,,,,,,,,,,,,,,,,,,,
null,,learn_phase(without_color)1,498782,,,,,,,,black_plus_sign,,,null,object_05b.png,object_13c.png,,,,,,,,,,,,,,,,,,,,,
null,,black_cross(without_color)1,499365,,,,,,,,green,,,null,object_05b.png,object_13c.png,,,,,,,,,,,,,,,,,,,,,
null,,rt_plussign_withcolor1,499867,,,,,,,,green,,,null,object_05b.png,object_13c.png,,,,,,,,,,,,,,,,,,,,,
926.8999999761581,,rt_thecrossant_black1,501286,,,,,,,,black_plus_sign,,,50,,,1,,,,,,,1,,,,,,,,,,,,,
null,,color_black1,501387,,,,,,,,black_plus_sign,,,null,,,,,,,,,,,,,,,,,,,,,,,
null,,thebreak,501489,,,,,,,,<p></p>,,,null,,,,,,,,,,,,,,,,,,,,,,,
1186.3999999761581,,intro_0,502677,,,,,,,,instruct,,,32,,,,,,,,,,,,,,,,,,,,,,,
5695.600000023842,,directmemory_phase1,508373,,,,,,,,object_02b.png,,,51,,,1,,object_05c.png,object_13a.png,object_03a.png,object_03a.png,,1,,1,,,,,,,,,,,
5326.100000023842,,directmemory_phase1,513700,,,,,,,,object_15b.png,,,49,,,1,,object_08a.png,object_14b.png,object_01c.png,object_08a.png,,1,,1,,,,,,,,,,,
5639.300000011921,,directmemory_phase1,519341,,,,,,,,object_06c.png,,,49,,,0,,object_01b.png,object_05b.png,object_03c.png,object_03c.png,,0.6666666666666666,,0,,,,,,,,,,,
3838.400000035763,,directmemory_phase1,523180,,,,,,,,object_11c.png,,,51,,,1,,object_05c.png,object_13a.png,object_12a.png,object_12a.png,,0.75,,1,,,,,,,,,,,
2654.800000011921,,directmemory_phase1,525836,,,,,,,,object_06a.png,,,51,,,1,,object_01b.png,object_03c.png,object_08b.png,object_08b.png,,0.8,,1,,,,,,,,,,,
3815.2000000476837,,directmemory_phase1,529653,,,,,,,,object_02c.png,,,49,,,1,,object_09c.png,object_08b.png,object_12a.png,object_09c.png,,0.8333333333333334,,1,,,,,,,,,,,
5334.5,,directmemory_phase1,534988,,,,,,,,object_15c.png,,,50,,,0,,object_14c.png,object_08a.png,object_01b.png,object_14c.png,,0.7142857142857143,,0,,,,,,,,,,,
5775,,directmemory_phase1,540764,,,,,,,,object_04b.png,,,51,,,0,,object_03c.png,object_14b.png,object_03a.png,object_14b.png,,0.625,,0,,,,,,,,,,,
4334.800000011921,,directmemory_phase1,545100,,,,,,,,object_10b.png,,,50,,,0,,object_14c.png,object_08a.png,object_05c.png,object_05c.png,,0.5555555555555556,,0,,,,,,,,,,,
4070.699999988079,,directmemory_phase1,549172,,,,,,,,object_11a.png,,,51,,,1,,object_12b.png,object_08b.png,object_01b.png,object_01b.png,,0.6,,1,,,,,,,,,,,
3078.900000035763,,directmemory_phase1,552253,,,,,,,,object_13c.png,,,51,,,0,,object_12a.png,object_05b.png,object_09c.png,object_05b.png,,0.5454545454545454,,0,,,,,,,,,,,
5662.600000023842,,directmemory_phase1,557916,,,,,,,,object_01a.png,,,51,,,1,,object_05c.png,object_13a.png,object_12b.png,object_12b.png,,0.5833333333333334,,1,,,,,,,,,,,
3110.800000011921,,directmemory_phase1,561028,,,,,,,,object_10c.png,,,50,,,1,,object_01c.png,object_10a.png,object_08b.png,object_10a.png,,0.6153846153846154,,1,,,,,,,,,,,
2463,,directmemory_phase1,563492,,,,,,,,object_12c.png,,,49,,,1,,object_13a.png,object_12b.png,object_05b.png,object_13a.png,,0.6428571428571429,,1,,,,,,,,,,,
3030.900000035763,,directmemory_phase1,566524,,,,,,,,object_09a.png,,,50,,,1,,object_14b.png,object_01c.png,object_05c.png,object_01c.png,,0.6666666666666666,,1,,,,,,,,,,,
null,,thebreak,566626,,,,,,,,<p></p>,,,null,,,,,,,,,,,,,,,,,,,,,,,
1713,,intro_0,568340,,,,,,,,instruct,,,32,,,,,,,,,,,,,,,,,,,,,,,
null,,learn_phase(without_color)2,571842,,,,,,,,black_plus_sign,,,null,object_08a.png,object_15b.png,,,,,,,,,,,,,,,,,,,,,
null,,black_cross(without_color)2,572836,,,,,,,,blue,,,null,object_08a.png,object_15b.png,,,,,,,,,,,,,,,,,,,,,
null,,rt_plussign_withcolor2,573338,,,,,,,,blue,,,null,object_08a.png,object_15b.png,,,,,,,,,,,,,,,,,,,,,
1334.7000000476837,,rt_thecrossant_black2,574346,,,,,,,,black_plus_sign,,,49,,,1,,,,,,,1,,,,,,,,,,,,,
null,,color_black2,574448,,,,,,,,black_plus_sign,,,null,,,,,,,,,,,,,,,,,,,,,,,
null,,learn_phase(without_color)2,577950,,,,,,,,black_plus_sign,,,null,object_01b.png,object_11a.png,,,,,,,,,,,,,,,,,,,,,
null,,black_cross(without_color)2,578596,,,,,,,,green,,,null,object_01b.png,object_11a.png,,,,,,,,,,,,,,,,,,,,,
null,,rt_plussign_withcolor2,579097,,,,,,,,green,,,null,object_01b.png,object_11a.png,,,,,,,,,,,,,,,,,,,,,
1415.5,,rt_thecrossant_black2,580453,,,,,,,,black_plus_sign,,,50,,,1,,,,,,,1,,,,,,,,,,,,,
null,,color_black2,580555,,,,,,,,black_plus_sign,,,null,,,,,,,,,,,,,,,,,,,,,,,
null,,learn_phase(without_color)2,584056,,,,,,,,black_plus_sign,,,null,object_08b.png,object_06a.png,,,,,,,,,,,,,,,,,,,,,
null,,black_cross(without_color)2,584762,,,,,,,,blue,,,null,object_08b.png,object_06a.png,,,,,,,,,,,,,,,,,,,,,
null,,rt_plussign_withcolor2,585263,,,,,,,,blue,,,null,object_08b.png,object_06a.png,,,,,,,,,,,,,,,,,,,,,
797.3999999761581,,rt_thecrossant_black2,586561,,,,,,,,black_plus_sign,,,49,,,1,,,,,,,1,,,,,,,,,,,,,
null,,color_black2,586662,,,,,,,,black_plus_sign,,,null,,,,,,,,,,,,,,,,,,,,,,,
null,,learn_phase(without_color)2,590164,,,,,,,,black_plus_sign,,,null,object_03c.png,object_06c.png,,,,,,,,,,,,,,,,,,,,,
null,,black_cross(without_color)2,591076,,,,,,,,blue,,,null,object_03c.png,object_06c.png,,,,,,,,,,,,,,,,,,,,,
null,,rt_plussign_withcolor2,591577,,,,,,,,blue,,,null,object_03c.png,object_06c.png,,,,,,,,,,,,,,,,,,,,,
1653.7999999523163,,rt_thecrossant_black2,592668,,,,,,,,black_plus_sign,,,49,,,1,,,,,,,1,,,,,,,,,,,,,
null,,color_black2,592770,,,,,,,,black_plus_sign,,,null,,,,,,,,,,,,,,,,,,,,,,,
null,,learn_phase(without_color)2,596272,,,,,,,,black_plus_sign,,,null,object_05c.png,object_10b.png,,,,,,,,,,,,,,,,,,,,,
null,,black_cross(without_color)2,597018,,,,,,,,green,,,null,object_05c.png,object_10b.png,,,,,,,,,,,,,,,,,,,,,
null,,rt_plussign_withcolor2,597519,,,,,,,,green,,,null,object_05c.png,object_10b.png,,,,,,,,,,,,,,,,,,,,,
1039.6000000238419,,rt_thecrossant_black2,598777,,,,,,,,black_plus_sign,,,50,,,1,,,,,,,1,,,,,,,,,,,,,
null,,color_black2,598879,,,,,,,,black_plus_sign,,,null,,,,,,,,,,,,,,,,,,,,,,,
null,,learn_phase(without_color)2,602382,,,,,,,,black_plus_sign,,,null,object_10a.png,object_10c.png,,,,,,,,,,,,,,,,,,,,,
null,,black_cross(without_color)2,603376,,,,,,,,green,,,null,object_10a.png,object_10c.png,,,,,,,,,,,,,,,,,,,,,
null,,rt_plussign_withcolor2,603877,,,,,,,,green,,,null,object_10a.png,object_10c.png,,,,,,,,,,,,,,,,,,,,,
1522.199999988079,,rt_thecrossant_black2,604885,,,,,,,,black_plus_sign,,,50,,,1,,,,,,,1,,,,,,,,,,,,,
null,,color_black2,604987,,,,,,,,black_plus_sign,,,null,,,,,,,,,,,,,,,,,,,,,,,
null,,learn_phase(without_color)2,608488,,,,,,,,black_plus_sign,,,null,object_13a.png,object_12c.png,,,,,,,,,,,,,,,,,,,,,
null,,black_cross(without_color)2,609512,,,,,,,,blue,,,null,object_13a.png,object_12c.png,,,,,,,,,,,,,,,,,,,,,
null,,rt_plussign_withcolor2,610013,,,,,,,,blue,,,null,object_13a.png,object_12c.png,,,,,,,,,,,,,,,,,,,,,
1195.3999999761581,,rt_thecrossant_black2,610992,,,,,,,,black_plus_sign,,,49,,,1,,,,,,,1,,,,,,,,,,,,,
null,,color_black2,611093,,,,,,,,black_plus_sign,,,null,,,,,,,,,,,,,,,,,,,,,,,
null,,learn_phase(without_color)2,614595,,,,,,,,black_plus_sign,,,null,object_14b.png,object_04b.png,,,,,,,,,,,,,,,,,,,,,
null,,black_cross(without_color)2,615342,,,,,,,,blue,,,null,object_14b.png,object_04b.png,,,,,,,,,,,,,,,,,,,,,
null,,rt_plussign_withcolor2,615843,,,,,,,,blue,,,null,object_14b.png,object_04b.png,,,,,,,,,,,,,,,,,,,,,
1426.199999988079,,rt_thecrossant_black2,617098,,,,,,,,black_plus_sign,,,49,,,1,,,,,,,1,,,,,,,,,,,,,
null,,color_black2,617200,,,,,,,,black_plus_sign,,,null,,,,,,,,,,,,,,,,,,,,,,,
null,,learn_phase(without_color)2,620702,,,,,,,,black_plus_sign,,,null,object_01c.png,object_09a.png,,,,,,,,,,,,,,,,,,,,,
null,,black_cross(without_color)2,621349,,,,,,,,green,,,null,object_01c.png,object_09a.png,,,,,,,,,,,,,,,,,,,,,
null,,rt_plussign_withcolor2,621850,,,,,,,,green,,,null,object_01c.png,object_09a.png,,,,,,,,,,,,,,,,,,,,,
983.1999999880791,,rt_thecrossant_black2,623206,,,,,,,,black_plus_sign,,,50,,,1,,,,,,,1,,,,,,,,,,,,,
null,,color_black2,623307,,,,,,,,black_plus_sign,,,null,,,,,,,,,,,,,,,,,,,,,,,
null,,learn_phase(without_color)2,626808,,,,,,,,black_plus_sign,,,null,object_12b.png,object_01a.png,,,,,,,,,,,,,,,,,,,,,
null,,black_cross(without_color)2,627864,,,,,,,,blue,,,null,object_12b.png,object_01a.png,,,,,,,,,,,,,,,,,,,,,
null,,rt_plussign_withcolor2,628365,,,,,,,,blue,,,null,object_12b.png,object_01a.png,,,,,,,,,,,,,,,,,,,,,
856,,rt_thecrossant_black2,629322,,,,,,,,black_plus_sign,,,49,,,1,,,,,,,1,,,,,,,,,,,,,
null,,color_black2,629423,,,,,,,,black_plus_sign,,,null,,,,,,,,,,,,,,,,,,,,,,,
null,,learn_phase(without_color)2,632925,,,,,,,,black_plus_sign,,,null,object_05b.png,object_13c.png,,,,,,,,,,,,,,,,,,,,,
null,,black_cross(without_color)2,634019,,,,,,,,green,,,null,object_05b.png,object_13c.png,,,,,,,,,,,,,,,,,,,,,
null,,rt_plussign_withcolor2,634521,,,,,,,,green,,,null,object_05b.png,object_13c.png,,,,,,,,,,,,,,,,,,,,,
1492.199999988079,,rt_thecrossant_black2,635430,,,,,,,,black_plus_sign,,,50,,,1,,,,,,,1,,,,,,,,,,,,,
null,,color_black2,635532,,,,,,,,black_plus_sign,,,null,,,,,,,,,,,,,,,,,,,,,,,
null,,learn_phase(without_color)2,639033,,,,,,,,black_plus_sign,,,null,object_09c.png,object_02c.png,,,,,,,,,,,,,,,,,,,,,
null,,black_cross(without_color)2,639667,,,,,,,,blue,,,null,object_09c.png,object_02c.png,,,,,,,,,,,,,,,,,,,,,
null,,rt_plussign_withcolor2,640168,,,,,,,,blue,,,null,object_09c.png,object_02c.png,,,,,,,,,,,,,,,,,,,,,
1436.2999999523163,,rt_thecrossant_black2,641536,,,,,,,,black_plus_sign,,,49,,,1,,,,,,,1,,,,,,,,,,,,,
null,,color_black2,641637,,,,,,,,black_plus_sign,,,null,,,,,,,,,,,,,,,,,,,,,,,
null,,learn_phase(without_color)2,645139,,,,,,,,black_plus_sign,,,null,object_03a.png,object_02b.png,,,,,,,,,,,,,,,,,,,,,
null,,black_cross(without_color)2,645812,,,,,,,,blue,,,null,object_03a.png,object_02b.png,,,,,,,,,,,,,,,,,,,,,
null,,rt_plussign_withcolor2,646314,,,,,,,,blue,,,null,object_03a.png,object_02b.png,,,,,,,,,,,,,,,,,,,,,
1094.699999988079,,rt_thecrossant_black2,647643,,,,,,,,black_plus_sign,,,50,,,0,,,,,,,0.9230769230769231,,,,,,,,,,,,,
null,,color_black2,647745,,,,,,,,black_plus_sign,,,null,,,,,,,,,,,,,,,,,,,,,,,
null,,learn_phase(without_color)2,651247,,,,,,,,black_plus_sign,,,null,object_14c.png,object_15c.png,,,,,,,,,,,,,,,,,,,,,
null,,black_cross(without_color)2,651985,,,,,,,,blue,,,null,object_14c.png,object_15c.png,,,,,,,,,,,,,,,,,,,,,
null,,rt_plussign_withcolor2,652487,,,,,,,,blue,,,null,object_14c.png,object_15c.png,,,,,,,,,,,,,,,,,,,,,
840.1000000238419,,rt_thecrossant_black2,653752,,,,,,,,black_plus_sign,,,49,,,1,,,,,,,0.9285714285714286,,,,,,,,,,,,,
null,,color_black2,653853,,,,,,,,black_plus_sign,,,null,,,,,,,,,,,,,,,,,,,,,,,
null,,learn_phase(without_color)2,657354,,,,,,,,black_plus_sign,,,null,object_12a.png,object_11c.png,,,,,,,,,,,,,,,,,,,,,
null,,black_cross(without_color)2,658000,,,,,,,,green,,,null,object_12a.png,object_11c.png,,,,,,,,,,,,,,,,,,,,,
null,,rt_plussign_withcolor2,658502,,,,,,,,green,,,null,object_12a.png,object_11c.png,,,,,,,,,,,,,,,,,,,,,
898.5,,rt_thecrossant_black2,659859,,,,,,,,black_plus_sign,,,50,,,1,,,,,,,0.9333333333333333,,,,,,,,,,,,,
null,,color_black2,659962,,,,,,,,black_plus_sign,,,null,,,,,,,,,,,,,,,,,,,,,,,
null,,thebreak,660064,,,,,,,,<p></p>,,,null,,,,,,,,,,,,,,,,,,,,,,,
1779.3999999761581,,intro_0,661844,,,,,,,,instruct,,,32,,,,,,,,,,,,,,,,,,,,,,,
5423.200000047684,,directmemory_phase2,667268,,,,,,,,object_06c.png,,,49,,,1,,object_03c.png,object_12a.png,object_13a.png,object_03c.png,,0.6875,,1,,,,,,,,,,,
3943,,directmemory_phase2,671212,,,,,,,,object_11c.png,,,51,,,1,,object_08a.png,object_14b.png,object_12a.png,object_12a.png,,0.7058823529411765,,1,,,,,,,,,,,
2334.5,,directmemory_phase2,673548,,,,,,,,object_01a.png,,,50,,,1,,object_13a.png,object_12b.png,object_01b.png,object_12b.png,,0.7222222222222222,,1,,,,,,,,,,,
4150.800000011921,,directmemory_phase2,677700,,,,,,,,object_10c.png,,,51,,,1,,object_14c.png,object_13a.png,object_10a.png,object_10a.png,,0.7368421052631579,,1,,,,,,,,,,,
3278.900000035763,,directmemory_phase2,680980,,,,,,,,object_13c.png,,,50,,,1,,object_08a.png,object_05b.png,object_12b.png,object_05b.png,,0.75,,1,,,,,,,,,,,
4358.899999976158,,directmemory_phase2,685340,,,,,,,,object_11a.png,,,50,,,1,,object_08a.png,object_01b.png,object_03c.png,object_01b.png,,0.7619047619047619,,1,,,,,,,,,,,
4406.600000023842,,directmemory_phase2,689748,,,,,,,,object_15b.png,,,49,,,0,,object_05b.png,object_08a.png,object_12a.png,object_08a.png,,0.7272727272727273,,0,,,,,,,,,,,
3046.7000000476837,,directmemory_phase2,692796,,,,,,,,object_02c.png,,,50,,,0,,object_14b.png,object_01b.png,object_09c.png,object_09c.png,,0.6956521739130435,,0,,,,,,,,,,,
1886.9000000357628,,directmemory_phase2,694684,,,,,,,,object_04b.png,,,49,,,1,,object_14b.png,object_13a.png,object_08b.png,object_14b.png,,0.7083333333333334,,1,,,,,,,,,,,
2486.800000011921,,directmemory_phase2,697172,,,,,,,,object_06a.png,,,51,,,1,,object_01c.png,object_14b.png,object_08b.png,object_08b.png,,0.72,,1,,,,,,,,,,,
1814.3999999761581,,directmemory_phase2,698988,,,,,,,,object_12c.png,,,50,,,1,,object_09c.png,object_13a.png,object_05c.png,object_13a.png,,0.7307692307692307,,1,,,,,,,,,,,
2575,,directmemory_phase2,701564,,,,,,,,object_15c.png,,,51,,,1,,object_09c.png,object_05c.png,object_14c.png,object_14c.png,,0.7407407407407407,,1,,,,,,,,,,,
3142.599999964237,,directmemory_phase2,704708,,,,,,,,object_02b.png,,,50,,,1,,object_14c.png,object_03a.png,object_01b.png,object_03a.png,,0.75,,1,,,,,,,,,,,
2510.800000011921,,directmemory_phase2,707220,,,,,,,,object_09a.png,,,49,,,1,,object_01c.png,object_14b.png,object_01b.png,object_01c.png,,0.7586206896551724,,1,,,,,,,,,,,
5998.799999952316,,directmemory_phase2,713220,,,,,,,,object_10b.png,,,51,,,0,,object_12b.png,object_05c.png,object_01b.png,object_05c.png,,0.7333333333333333,,0,,,,,,,,,,,
null,,thebreak,713322,,,,,,,,<p></p>,,,null,,,,,,,,,,,,,,,,,,,,,,,
9489.5,,intro_0,722812,,,,,,,,instruct,,,32,,,,,,,,,,,,,,,,,,,,,,,
null,,learn_phase(without_color)3,726313,,,,,,,,black_plus_sign,,,null,object_03a.png,object_02b.png,,,,,,,,,,,,,,,,,,,,,
null,,black_cross(without_color)3,727054,,,,,,,,blue,,,null,object_03a.png,object_02b.png,,,,,,,,,,,,,,,,,,,,,
null,,rt_plussign_withcolor3,727556,,,,,,,,blue,,,null,object_03a.png,object_02b.png,,,,,,,,,,,,,,,,,,,,,
998,,rt_thecrossant_black3,728818,,,,,,,,black_plus_sign,,,49,,,1,,,,,,,1,,,,,,,,,,,,,
null,,color_black3,728919,,,,,,,,black_plus_sign,,,null,,,,,,,,,,,,,,,,,,,,,,,
null,,learn_phase(without_color)3,732421,,,,,,,,black_plus_sign,,,null,object_03c.png,object_06c.png,,,,,,,,,,,,,,,,,,,,,
null,,black_cross(without_color)3,733205,,,,,,,,green,,,null,object_03c.png,object_06c.png,,,,,,,,,,,,,,,,,,,,,
null,,rt_plussign_withcolor3,733706,,,,,,,,green,,,null,object_03c.png,object_06c.png,,,,,,,,,,,,,,,,,,,,,
1015.8999999761581,,rt_thecrossant_black3,734926,,,,,,,,black_plus_sign,,,50,,,1,,,,,,,1,,,,,,,,,,,,,
null,,color_black3,735027,,,,,,,,black_plus_sign,,,null,,,,,,,,,,,,,,,,,,,,,,,
null,,learn_phase(without_color)3,738529,,,,,,,,black_plus_sign,,,null,object_14c.png,object_15c.png,,,,,,,,,,,,,,,,,,,,,
null,,black_cross(without_color)3,739598,,,,,,,,blue,,,null,object_14c.png,object_15c.png,,,,,,,,,,,,,,,,,,,,,
null,,rt_plussign_withcolor3,740099,,,,,,,,blue,,,null,object_14c.png,object_15c.png,,,,,,,,,,,,,,,,,,,,,
1137.199999988079,,rt_thecrossant_black3,741033,,,,,,,,black_plus_sign,,,49,,,1,,,,,,,1,,,,,,,,,,,,,
null,,color_black3,741134,,,,,,,,black_plus_sign,,,null,,,,,,,,,,,,,,,,,,,,,,,
null,,learn_phase(without_color)3,744636,,,,,,,,black_plus_sign,,,null,object_10a.png,object_10c.png,,,,,,,,,,,,,,,,,,,,,
null,,black_cross(without_color)3,745258,,,,,,,,blue,,,null,object_10a.png,object_10c.png,,,,,,,,,,,,,,,,,,,,,
null,,rt_plussign_withcolor3,745759,,,,,,,,blue,,,null,object_10a.png,object_10c.png,,,,,,,,,,,,,,,,,,,,,
1555.300000011921,,rt_thecrossant_black3,747140,,,,,,,,black_plus_sign,,,49,,,1,,,,,,,1,,,,,,,,,,,,,
null,,color_black3,747242,,,,,,,,black_plus_sign,,,null,,,,,,,,,,,,,,,,,,,,,,,
null,,learn_phase(without_color)3,750743,,,,,,,,black_plus_sign,,,null,object_08a.png,object_15b.png,,,,,,,,,,,,,,,,,,,,,
null,,black_cross(without_color)3,751660,,,,,,,,green,,,null,object_08a.png,object_15b.png,,,,,,,,,,,,,,,,,,,,,
null,,rt_plussign_withcolor3,752162,,,,,,,,green,,,null,object_08a.png,object_15b.png,,,,,,,,,,,,,,,,,,,,,
1089,,rt_thecrossant_black3,753248,,,,,,,,black_plus_sign,,,50,,,1,,,,,,,1,,,,,,,,,,,,,
null,,color_black3,753349,,,,,,,,black_plus_sign,,,null,,,,,,,,,,,,,,,,,,,,,,,
null,,learn_phase(without_color)3,756851,,,,,,,,black_plus_sign,,,null,object_01c.png,object_09a.png,,,,,,,,,,,,,,,,,,,,,
null,,black_cross(without_color)3,757817,,,,,,,,green,,,null,object_01c.png,object_09a.png,,,,,,,,,,,,,,,,,,,,,
null,,rt_plussign_withcolor3,758318,,,,,,,,green,,,null,object_01c.png,object_09a.png,,,,,,,,,,,,,,,,,,,,,
1092.8999999761581,,rt_thecrossant_black3,759354,,,,,,,,black_plus_sign,,,50,,,1,,,,,,,1,,,,,,,,,,,,,
null,,color_black3,759456,,,,,,,,black_plus_sign,,,null,,,,,,,,,,,,,,,,,,,,,,,
null,,learn_phase(without_color)3,762958,,,,,,,,black_plus_sign,,,null,object_13a.png,object_12c.png,,,,,,,,,,,,,,,,,,,,,
null,,black_cross(without_color)3,763822,,,,,,,,green,,,null,object_13a.png,object_12c.png,,,,,,,,,,,,,,,,,,,,,
null,,rt_plussign_withcolor3,764323,,,,,,,,green,,,null,object_13a.png,object_12c.png,,,,,,,,,,,,,,,,,,,,,
1344.5,,rt_thecrossant_black3,765462,,,,,,,,black_plus_sign,,,50,,,1,,,,,,,1,,,,,,,,,,,,,
null,,color_black3,765564,,,,,,,,black_plus_sign,,,null,,,,,,,,,,,,,,,,,,,,,,,
null,,learn_phase(without_color)3,769066,,,,,,,,black_plus_sign,,,null,object_12b.png,object_01a.png,,,,,,,,,,,,,,,,,,,,,
null,,black_cross(without_color)3,769520,,,,,,,,green,,,null,object_12b.png,object_01a.png,,,,,,,,,,,,,,,,,,,,,
null,,rt_plussign_withcolor3,770022,,,,,,,,green,,,null,object_12b.png,object_01a.png,,,,,,,,,,,,,,,,,,,,,
1278.199999988079,,rt_thecrossant_black3,771571,,,,,,,,black_plus_sign,,,50,,,1,,,,,,,1,,,,,,,,,,,,,
null,,color_black3,771672,,,,,,,,black_plus_sign,,,null,,,,,,,,,,,,,,,,,,,,,,,
null,,learn_phase(without_color)3,775174,,,,,,,,black_plus_sign,,,null,object_08b.png,object_06a.png,,,,,,,,,,,,,,,,,,,,,
null,,black_cross(without_color)3,775948,,,,,,,,blue,,,null,object_08b.png,object_06a.png,,,,,,,,,,,,,,,,,,,,,
479.19999998807907,,rt_plussign_withcolor3,776450,,,,,,,,blue,,,49,object_08b.png,object_06a.png,,,,,,,,,,,,,,,,,,,,,
null,,rt_thecrossant_black3,777679,,,,,,,,black_plus_sign,,,null,,,1,,,,,,,1,,,,,,,,,,,,,
null,,color_black3,777786,,,,,,,,black_plus_sign,,,null,,,,,,,,,,,,,,,,,,,,,,,
null,,learn_phase(without_color)3,781288,,,,,,,,black_plus_sign,,,null,object_01b.png,object_11a.png,,,,,,,,,,,,,,,,,,,,,
null,,black_cross(without_color)3,782100,,,,,,,,blue,,,null,object_01b.png,object_11a.png,,,,,,,,,,,,,,,,,,,,,
null,,rt_plussign_withcolor3,782601,,,,,,,,blue,,,null,object_01b.png,object_11a.png,,,,,,,,,,,,,,,,,,,,,
1361.3999999761581,,rt_thecrossant_black3,783792,,,,,,,,black_plus_sign,,,49,,,1,,,,,,,1,,,,,,,,,,,,,
null,,color_black3,783894,,,,,,,,black_plus_sign,,,null,,,,,,,,,,,,,,,,,,,,,,,
null,,learn_phase(without_color)3,787395,,,,,,,,black_plus_sign,,,null,object_12a.png,object_11c.png,,,,,,,,,,,,,,,,,,,,,
null,,black_cross(without_color)3,788207,,,,,,,,blue,,,null,object_12a.png,object_11c.png,,,,,,,,,,,,,,,,,,,,,
null,,rt_plussign_withcolor3,788708,,,,,,,,blue,,,null,object_12a.png,object_11c.png,,,,,,,,,,,,,,,,,,,,,
1493.1000000238419,,rt_thecrossant_black3,789899,,,,,,,,black_plus_sign,,,49,,,1,,,,,,,1,,,,,,,,,,,,,
null,,color_black3,790001,,,,,,,,black_plus_sign,,,null,,,,,,,,,,,,,,,,,,,,,,,
null,,learn_phase(without_color)3,793503,,,,,,,,black_plus_sign,,,null,object_14b.png,object_04b.png,,,,,,,,,,,,,,,,,,,,,
null,,black_cross(without_color)3,793921,,,,,,,,blue,,,null,object_14b.png,object_04b.png,,,,,,,,,,,,,,,,,,,,,
null,,rt_plussign_withcolor3,794423,,,,,,,,blue,,,null,object_14b.png,object_04b.png,,,,,,,,,,,,,,,,,,,,,
969.8000000119209,,rt_thecrossant_black3,796007,,,,,,,,black_plus_sign,,,49,,,1,,,,,,,1,,,,,,,,,,,,,
null,,color_black3,796108,,,,,,,,black_plus_sign,,,null,,,,,,,,,,,,,,,,,,,,,,,
null,,learn_phase(without_color)3,799610,,,,,,,,black_plus_sign,,,null,object_09c.png,object_02c.png,,,,,,,,,,,,,,,,,,,,,
null,,black_cross(without_color)3,800639,,,,,,,,blue,,,null,object_09c.png,object_02c.png,,,,,,,,,,,,,,,,,,,,,
null,,rt_plussign_withcolor3,801140,,,,,,,,blue,,,null,object_09c.png,object_02c.png,,,,,,,,,,,,,,,,,,,,,
635.1999999880791,,rt_thecrossant_black3,802113,,,,,,,,black_plus_sign,,,49,,,1,,,,,,,1,,,,,,,,,,,,,
null,,color_black3,802214,,,,,,,,black_plus_sign,,,null,,,,,,,,,,,,,,,,,,,,,,,
null,,learn_phase(without_color)3,805716,,,,,,,,black_plus_sign,,,null,object_05b.png,object_13c.png,,,,,,,,,,,,,,,,,,,,,
null,,black_cross(without_color)3,806160,,,,,,,,blue,,,null,object_05b.png,object_13c.png,,,,,,,,,,,,,,,,,,,,,
null,,rt_plussign_withcolor3,806663,,,,,,,,blue,,,null,object_05b.png,object_13c.png,,,,,,,,,,,,,,,,,,,,,
1299.9000000357628,,rt_thecrossant_black3,808222,,,,,,,,black_plus_sign,,,49,,,1,,,,,,,1,,,,,,,,,,,,,
null,,color_black3,808323,,,,,,,,black_plus_sign,,,null,,,,,,,,,,,,,,,,,,,,,,,
null,,learn_phase(without_color)3,811824,,,,,,,,black_plus_sign,,,null,object_05c.png,object_10b.png,,,,,,,,,,,,,,,,,,,,,
null,,black_cross(without_color)3,812264,,,,,,,,blue,,,null,object_05c.png,object_10b.png,,,,,,,,,,,,,,,,,,,,,
null,,rt_plussign_withcolor3,812765,,,,,,,,blue,,,null,object_05c.png,object_10b.png,,,,,,,,,,,,,,,,,,,,,
804.1999999880791,,rt_thecrossant_black3,814330,,,,,,,,black_plus_sign,,,49,,,1,,,,,,,1,,,,,,,,,,,,,
null,,color_black3,814431,,,,,,,,black_plus_sign,,,null,,,,,,,,,,,,,,,,,,,,,,,
null,,thebreak,814532,,,,,,,,<p></p>,,,null,,,,,,,,,,,,,,,,,,,,,,,
1510.0999999642372,,intro_0,816043,,,,,,,,instruct,,,32,,,,,,,,,,,,,,,,,,,,,,,
3695.399999976158,,directmemory_phase3,819739,,,,,,,,object_11a.png,,,49,,,1,,object_01b.png,object_05b.png,object_03a.png,object_01b.png,,0.7419354838709677,,1,,,,,,,,,,,
3150.599999964237,,directmemory_phase3,822891,,,,,,,,object_06a.png,,,51,,,1,,object_03a.png,object_01c.png,object_08b.png,object_08b.png,,0.75,,1,,,,,,,,,,,
3126.899999976158,,directmemory_phase3,826019,,,,,,,,object_02c.png,,,49,,,1,,object_09c.png,object_08a.png,object_12a.png,object_09c.png,,0.7575757575757576,,1,,,,,,,,,,,
2526.7999999523163,,directmemory_phase3,828547,,,,,,,,object_09a.png,,,50,,,1,,object_05b.png,object_01c.png,object_13a.png,object_01c.png,,0.7647058823529411,,1,,,,,,,,,,,
2663,,directmemory_phase3,831211,,,,,,,,object_15c.png,,,51,,,1,,object_13a.png,object_14b.png,object_14c.png,object_14c.png,,0.7714285714285715,,1,,,,,,,,,,,
2798.399999976158,,directmemory_phase3,834011,,,,,,,,object_11c.png,,,50,,,1,,object_05b.png,object_12a.png,object_09c.png,object_12a.png,,0.7777777777777778,,1,,,,,,,,,,,
2750.800000011921,,directmemory_phase3,836763,,,,,,,,object_06c.png,,,51,,,1,,object_12b.png,object_05b.png,object_03c.png,object_03c.png,,0.7837837837837838,,1,,,,,,,,,,,
2710.600000023842,,directmemory_phase3,839475,,,,,,,,object_13c.png,,,51,,,1,,object_14b.png,object_13a.png,object_05b.png,object_05b.png,,0.7894736842105263,,1,,,,,,,,,,,
2662.899999976158,,directmemory_phase3,842139,,,,,,,,object_10c.png,,,51,,,1,,object_13a.png,object_05b.png,object_10a.png,object_10a.png,,0.7948717948717948,,1,,,,,,,,,,,
2230.699999988079,,directmemory_phase3,844371,,,,,,,,object_02b.png,,,49,,,1,,object_03a.png,object_14c.png,object_08b.png,object_03a.png,,0.8,,1,,,,,,,,,,,
9518.699999988079,,directmemory_phase3,853891,,,,,,,,object_10b.png,,,49,,,1,,object_05c.png,object_03a.png,object_09c.png,object_05c.png,,0.8048780487804879,,1,,,,,,,,,,,
2542.600000023842,,directmemory_phase3,856435,,,,,,,,object_12c.png,,,49,,,1,,object_13a.png,object_12a.png,object_01b.png,object_13a.png,,0.8095238095238095,,1,,,,,,,,,,,
1582.6000000238419,,directmemory_phase3,858019,,,,,,,,object_01a.png,,,50,,,1,,object_12a.png,object_12b.png,object_03a.png,object_12b.png,,0.813953488372093,,1,,,,,,,,,,,
1734.5,,directmemory_phase3,859755,,,,,,,,object_04b.png,,,51,,,1,,object_01b.png,object_12a.png,object_14b.png,object_14b.png,,0.8181818181818182,,1,,,,,,,,,,,
4686.899999976158,,directmemory_phase3,864443,,,,,,,,object_15b.png,,,51,,,1,,object_09c.png,object_13a.png,object_08a.png,object_08a.png,,0.8222222222222222,,1,,,,,,,,,,,
null,,thebreak,864545,,,,,,,,<p></p>,,,null,,,,,,,,,,,,,,,,,,,,,,,
2784.699999988079,,intro_0,867331,,,,,,,,instruct,,,32,,,,,,,,,,,,,,,,,,,,,,,
null,,learn_phase(without_color)4,870833,,,,,,,,black_plus_sign,,,null,object_05b.png,object_13c.png,,,,,,,,,,,,,,,,,,,,,
null,,black_cross(without_color)4,871336,,,,,,,,blue,,,null,object_05b.png,object_13c.png,,,,,,,,,,,,,,,,,,,,,
null,,rt_plussign_withcolor4,871838,,,,,,,,blue,,,null,object_05b.png,object_13c.png,,,,,,,,,,,,,,,,,,,,,
702,,rt_thecrossant_black4,873339,,,,,,,,black_plus_sign,,,49,,,1,,,,,,,1,,,,,,,,,,,,,
null,,color_black4,873440,,,,,,,,black_plus_sign,,,null,,,,,,,,,,,,,,,,,,,,,,,
null,,learn_phase(without_color)4,876942,,,,,,,,black_plus_sign,,,null,object_13a.png,object_12c.png,,,,,,,,,,,,,,,,,,,,,
null,,black_cross(without_color)4,877944,,,,,,,,blue,,,null,object_13a.png,object_12c.png,,,,,,,,,,,,,,,,,,,,,
null,,rt_plussign_withcolor4,878445,,,,,,,,blue,,,null,object_13a.png,object_12c.png,,,,,,,,,,,,,,,,,,,,,
727.4000000357628,,rt_thecrossant_black4,879446,,,,,,,,black_plus_sign,,,49,,,1,,,,,,,1,,,,,,,,,,,,,
null,,color_black4,879548,,,,,,,,black_plus_sign,,,null,,,,,,,,,,,,,,,,,,,,,,,
null,,learn_phase(without_color)4,883049,,,,,,,,black_plus_sign,,,null,object_12a.png,object_11c.png,,,,,,,,,,,,,,,,,,,,,
null,,black_cross(without_color)4,883828,,,,,,,,green,,,null,object_12a.png,object_11c.png,,,,,,,,,,,,,,,,,,,,,
486.10000002384186,,rt_plussign_withcolor4,884330,,,,,,,,green,,,50,object_12a.png,object_11c.png,,,,,,,,,,,,,,,,,,,,,
null,,rt_thecrossant_black4,885554,,,,,,,,black_plus_sign,,,null,,,1,,,,,,,1,,,,,,,,,,,,,
null,,color_black4,885656,,,,,,,,black_plus_sign,,,null,,,,,,,,,,,,,,,,,,,,,,,
null,,learn_phase(without_color)4,889159,,,,,,,,black_plus_sign,,,null,object_08a.png,object_15b.png,,,,,,,,,,,,,,,,,,,,,
null,,black_cross(without_color)4,889687,,,,,,,,green,,,null,object_08a.png,object_15b.png,,,,,,,,,,,,,,,,,,,,,
null,,rt_plussign_withcolor4,890188,,,,,,,,green,,,null,object_08a.png,object_15b.png,,,,,,,,,,,,,,,,,,,,,
1235.9000000357628,,rt_thecrossant_black4,891664,,,,,,,,black_plus_sign,,,50,,,1,,,,,,,1,,,,,,,,,,,,,
null,,color_black4,891766,,,,,,,,black_plus_sign,,,null,,,,,,,,,,,,,,,,,,,,,,,
null,,learn_phase(without_color)4,895268,,,,,,,,black_plus_sign,,,null,object_03a.png,object_02b.png,,,,,,,,,,,,,,,,,,,,,
null,,black_cross(without_color)4,895885,,,,,,,,blue,,,null,object_03a.png,object_02b.png,,,,,,,,,,,,,,,,,,,,,
null,,rt_plussign_withcolor4,896387,,,,,,,,blue,,,null,object_03a.png,object_02b.png,,,,,,,,,,,,,,,,,,,,,
712.6999999880791,,rt_thecrossant_black4,897773,,,,,,,,black_plus_sign,,,49,,,1,,,,,,,1,,,,,,,,,,,,,
null,,color_black4,897874,,,,,,,,black_plus_sign,,,null,,,,,,,,,,,,,,,,,,,,,,,
null,,learn_phase(without_color)4,901377,,,,,,,,black_plus_sign,,,null,object_01b.png,object_11a.png,,,,,,,,,,,,,,,,,,,,,
null,,black_cross(without_color)4,902123,,,,,,,,green,,,null,object_01b.png,object_11a.png,,,,,,,,,,,,,,,,,,,,,
null,,rt_plussign_withcolor4,902624,,,,,,,,green,,,null,object_01b.png,object_11a.png,,,,,,,,,,,,,,,,,,,,,
782,,rt_thecrossant_black4,903881,,,,,,,,black_plus_sign,,,50,,,1,,,,,,,1,,,,,,,,,,,,,
null,,color_black4,903983,,,,,,,,black_plus_sign,,,null,,,,,,,,,,,,,,,,,,,,,,,
null,,learn_phase(without_color)4,907484,,,,,,,,black_plus_sign,,,null,object_01c.png,object_09a.png,,,,,,,,,,,,,,,,,,,,,
null,,black_cross(without_color)4,908379,,,,,,,,blue,,,null,object_01c.png,object_09a.png,,,,,,,,,,,,,,,,,,,,,
null,,rt_plussign_withcolor4,908880,,,,,,,,blue,,,null,object_01c.png,object_09a.png,,,,,,,,,,,,,,,,,,,,,
982.8000000119209,,rt_thecrossant_black4,909989,,,,,,,,black_plus_sign,,,49,,,1,,,,,,,1,,,,,,,,,,,,,
null,,color_black4,910094,,,,,,,,black_plus_sign,,,null,,,,,,,,,,,,,,,,,,,,,,,
null,,learn_phase(without_color)4,913610,,,,,,,,black_plus_sign,,,null,object_12b.png,object_01a.png,,,,,,,,,,,,,,,,,,,,,
null,,black_cross(without_color)4,914676,,,,,,,,green,,,null,object_12b.png,object_01a.png,,,,,,,,,,,,,,,,,,,,,
null,,rt_plussign_withcolor4,915177,,,,,,,,green,,,null,object_12b.png,object_01a.png,,,,,,,,,,,,,,,,,,,,,
1049.800000011921,,rt_thecrossant_black4,916115,,,,,,,,black_plus_sign,,,50,,,1,,,,,,,1,,,,,,,,,,,,,
null,,color_black4,916217,,,,,,,,black_plus_sign,,,null,,,,,,,,,,,,,,,,,,,,,,,
null,,learn_phase(without_color)4,919719,,,,,,,,black_plus_sign,,,null,object_10a.png,object_10c.png,,,,,,,,,,,,,,,,,,,,,
null,,black_cross(without_color)4,920226,,,,,,,,green,,,null,object_10a.png,object_10c.png,,,,,,,,,,,,,,,,,,,,,
null,,rt_plussign_withcolor4,920728,,,,,,,,green,,,null,object_10a.png,object_10c.png,,,,,,,,,,,,,,,,,,,,,
1286.3999999761581,,rt_thecrossant_black4,922224,,,,,,,,black_plus_sign,,,50,,,1,,,,,,,1,,,,,,,,,,,,,
null,,color_black4,922325,,,,,,,,black_plus_sign,,,null,,,,,,,,,,,,,,,,,,,,,,,
null,,learn_phase(without_color)4,925826,,,,,,,,black_plus_sign,,,null,object_09c.png,object_02c.png,,,,,,,,,,,,,,,,,,,,,
null,,black_cross(without_color)4,926816,,,,,,,,green,,,null,object_09c.png,object_02c.png,,,,,,,,,,,,,,,,,,,,,
474.10000002384186,,rt_plussign_withcolor4,927317,,,,,,,,green,,,50,object_09c.png,object_02c.png,,,,,,,,,,,,,,,,,,,,,
null,,rt_thecrossant_black4,928331,,,,,,,,black_plus_sign,,,null,,,1,,,,,,,1,,,,,,,,,,,,,
null,,color_black4,928432,,,,,,,,black_plus_sign,,,null,,,,,,,,,,,,,,,,,,,,,,,
null,,learn_phase(without_color)4,931935,,,,,,,,black_plus_sign,,,null,object_14b.png,object_04b.png,,,,,,,,,,,,,,,,,,,,,
null,,black_cross(without_color)4,932503,,,,,,,,blue,,,null,object_14b.png,object_04b.png,,,,,,,,,,,,,,,,,,,,,
null,,rt_plussign_withcolor4,933004,,,,,,,,blue,,,null,object_14b.png,object_04b.png,,,,,,,,,,,,,,,,,,,,,
1222,,rt_thecrossant_black4,934439,,,,,,,,black_plus_sign,,,49,,,1,,,,,,,1,,,,,,,,,,,,,
null,,color_black4,934540,,,,,,,,black_plus_sign,,,null,,,,,,,,,,,,,,,,,,,,,,,
null,,learn_phase(without_color)4,938042,,,,,,,,black_plus_sign,,,null,object_08b.png,object_06a.png,,,,,,,,,,,,,,,,,,,,,
null,,black_cross(without_color)4,938596,,,,,,,,green,,,null,object_08b.png,object_06a.png,,,,,,,,,,,,,,,,,,,,,
null,,rt_plussign_withcolor4,939097,,,,,,,,green,,,null,object_08b.png,object_06a.png,,,,,,,,,,,,,,,,,,,,,
716,,rt_thecrossant_black4,940547,,,,,,,,black_plus_sign,,,50,,,1,,,,,,,1,,,,,,,,,,,,,
null,,color_black4,940649,,,,,,,,black_plus_sign,,,null,,,,,,,,,,,,,,,,,,,,,,,
null,,learn_phase(without_color)4,944151,,,,,,,,black_plus_sign,,,null,object_05c.png,object_10b.png,,,,,,,,,,,,,,,,,,,,,
null,,black_cross(without_color)4,944885,,,,,,,,blue,,,null,object_05c.png,object_10b.png,,,,,,,,,,,,,,,,,,,,,
null,,rt_plussign_withcolor4,945386,,,,,,,,blue,,,null,object_05c.png,object_10b.png,,,,,,,,,,,,,,,,,,,,,
1027.699999988079,,rt_thecrossant_black4,946654,,,,,,,,black_plus_sign,,,49,,,1,,,,,,,1,,,,,,,,,,,,,
null,,color_black4,946756,,,,,,,,black_plus_sign,,,null,,,,,,,,,,,,,,,,,,,,,,,
null,,learn_phase(without_color)4,950257,,,,,,,,black_plus_sign,,,null,object_03c.png,object_06c.png,,,,,,,,,,,,,,,,,,,,,
null,,black_cross(without_color)4,950876,,,,,,,,green,,,null,object_03c.png,object_06c.png,,,,,,,,,,,,,,,,,,,,,
null,,rt_plussign_withcolor4,951377,,,,,,,,green,,,null,object_03c.png,object_06c.png,,,,,,,,,,,,,,,,,,,,,
1098.1000000238419,,rt_thecrossant_black4,952762,,,,,,,,black_plus_sign,,,50,,,1,,,,,,,1,,,,,,,,,,,,,
null,,color_black4,952864,,,,,,,,black_plus_sign,,,null,,,,,,,,,,,,,,,,,,,,,,,
null,,learn_phase(without_color)4,956366,,,,,,,,black_plus_sign,,,null,object_14c.png,object_15c.png,,,,,,,,,,,,,,,,,,,,,
null,,black_cross(without_color)4,957238,,,,,,,,green,,,null,object_14c.png,object_15c.png,,,,,,,,,,,,,,,,,,,,,
null,,rt_plussign_withcolor4,957740,,,,,,,,green,,,null,object_14c.png,object_15c.png,,,,,,,,,,,,,,,,,,,,,
754.8999999761581,,rt_thecrossant_black4,958871,,,,,,,,black_plus_sign,,,50,,,1,,,,,,,1,,,,,,,,,,,,,
null,,color_black4,958972,,,,,,,,black_plus_sign,,,null,,,,,,,,,,,,,,,,,,,,,,,
null,,thebreak,959074,,,,,,,,<p></p>,,,null,,,,,,,,,,,,,,,,,,,,,,,
1215.800000011921,,intro_0,960291,,,,,,,,instruct,,,32,,,,,,,,,,,,,,,,,,,,,,,
3351.199999988079,,directmemory_phase4,963643,,,,,,,,object_02b.png,,,49,,,1,,object_03a.png,object_12a.png,object_14b.png,object_03a.png,,0.8260869565217391,,1,,,,,,,,,,,
1558.300000011921,,directmemory_phase4,965203,,,,,,,,object_09a.png,,,50,,,1,,object_09c.png,object_01c.png,object_14c.png,object_01c.png,,0.8297872340425532,,1,,,,,,,,,,,
4526.5,,directmemory_phase4,969730,,,,,,,,object_10b.png,,,49,,,1,,object_05c.png,object_03c.png,object_01c.png,object_05c.png,,0.8333333333333334,,1,,,,,,,,,,,
2110.699999988079,,directmemory_phase4,971842,,,,,,,,object_15c.png,,,51,,,1,,object_01b.png,object_01c.png,object_14c.png,object_14c.png,,0.8367346938775511,,1,,,,,,,,,,,
2734.800000011921,,directmemory_phase4,974579,,,,,,,,object_02c.png,,,49,,,1,,object_09c.png,object_03a.png,object_05c.png,object_09c.png,,0.84,,1,,,,,,,,,,,
2862.699999988079,,directmemory_phase4,977442,,,,,,,,object_15b.png,,,51,,,1,,object_05b.png,object_03c.png,object_08a.png,object_08a.png,,0.8431372549019608,,1,,,,,,,,,,,
2166.699999988079,,directmemory_phase4,979610,,,,,,,,object_10c.png,,,51,,,1,,object_08b.png,object_03c.png,object_10a.png,object_10a.png,,0.8461538461538461,,1,,,,,,,,,,,
2422.599999964237,,directmemory_phase4,982034,,,,,,,,object_12c.png,,,51,,,1,,object_14c.png,object_08b.png,object_13a.png,object_13a.png,,0.8490566037735849,,1,,,,,,,,,,,
1662.7000000476837,,directmemory_phase4,983698,,,,,,,,object_06a.png,,,51,,,1,,object_13a.png,object_01b.png,object_08b.png,object_08b.png,,0.8518518518518519,,1,,,,,,,,,,,
6118.699999988079,,directmemory_phase4,989819,,,,,,,,object_13c.png,,,49,,,1,,object_05b.png,object_01c.png,object_09c.png,object_05b.png,,0.8545454545454545,,1,,,,,,,,,,,
3806.599999964237,,directmemory_phase4,993626,,,,,,,,object_11a.png,,,49,,,1,,object_01b.png,object_14c.png,object_14b.png,object_01b.png,,0.8571428571428571,,1,,,,,,,,,,,
2270.5,,directmemory_phase4,995898,,,,,,,,object_11c.png,,,49,,,1,,object_12a.png,object_05c.png,object_14c.png,object_12a.png,,0.8596491228070176,,1,,,,,,,,,,,
2206.800000011921,,directmemory_phase4,998106,,,,,,,,object_06c.png,,,49,,,1,,object_03c.png,object_01b.png,object_05b.png,object_03c.png,,0.8620689655172413,,1,,,,,,,,,,,
1774.800000011921,,directmemory_phase4,999883,,,,,,,,object_04b.png,,,51,,,1,,object_01b.png,object_12b.png,object_14b.png,object_14b.png,,0.864406779661017,,1,,,,,,,,,,,
1486.5,,directmemory_phase4,1001370,,,,,,,,object_01a.png,,,49,,,1,,object_12b.png,object_05c.png,object_14c.png,object_12b.png,,0.8666666666666667,,1,,,,,,,,,,,
null,,thebreak,1001472,,,,,,,,<p></p>,,,null,,,,,,,,,,,,,,,,,,,,,,,
3601.100000023842,,intro_0,1005074,,,,,,,,instruct,,,32,,,,,,,,,,,,,,,,,,,,,,,
null,,learn_phase(without_color)5,1008576,,,,,,,,black_plus_sign,,,null,object_06c.png,object_03b.png,,,,,,,,,,,,,,,,,,,,,
null,,black_cross(without_color)5,1009254,,,,,,,,green,,,null,object_06c.png,object_03b.png,,,,,,,,,,,,,,,,,,,,,
null,,rt_plussign_withcolor5,1009757,,,,,,,,green,,,null,object_06c.png,object_03b.png,,,,,,,,,,,,,,,,,,,,,
1749.8999999761581,,rt_thecrossant_black5,1011082,,,,,,,,black_plus_sign,,,50,,,1,,,,,,,1,,,,,,,,,,,,,
null,,color_black5,1011183,,,,,,,,black_plus_sign,,,null,,,,,,,,,,,,,,,,,,,,,,,
null,,learn_phase(without_color)5,1014685,,,,,,,,black_plus_sign,,,null,object_15b.png,object_04c.png,,,,,,,,,,,,,,,,,,,,,
null,,black_cross(without_color)5,1015666,,,,,,,,green,,,null,object_15b.png,object_04c.png,,,,,,,,,,,,,,,,,,,,,
null,,rt_plussign_withcolor5,1016167,,,,,,,,green,,,null,object_15b.png,object_04c.png,,,,,,,,,,,,,,,,,,,,,
1226.8999999761581,,rt_thecrossant_black5,1017189,,,,,,,,black_plus_sign,,,50,,,1,,,,,,,1,,,,,,,,,,,,,
null,,color_black5,1017292,,,,,,,,black_plus_sign,,,null,,,,,,,,,,,,,,,,,,,,,,,
null,,learn_phase(without_color)5,1020794,,,,,,,,black_plus_sign,,,null,object_15c.png,object_04a.png,,,,,,,,,,,,,,,,,,,,,
null,,black_cross(without_color)5,1021839,,,,,,,,blue,,,null,object_15c.png,object_04a.png,,,,,,,,,,,,,,,,,,,,,
null,,rt_plussign_withcolor5,1022340,,,,,,,,blue,,,null,object_15c.png,object_04a.png,,,,,,,,,,,,,,,,,,,,,
1173.1000000238419,,rt_thecrossant_black5,1023299,,,,,,,,black_plus_sign,,,49,,,1,,,,,,,1,,,,,,,,,,,,,
null,,color_black5,1023400,,,,,,,,black_plus_sign,,,null,,,,,,,,,,,,,,,,,,,,,,,
null,,learn_phase(without_color)5,1026902,,,,,,,,black_plus_sign,,,null,object_02c.png,object_11b.png,,,,,,,,,,,,,,,,,,,,,
null,,black_cross(without_color)5,1027414,,,,,,,,green,,,null,object_02c.png,object_11b.png,,,,,,,,,,,,,,,,,,,,,
null,,rt_plussign_withcolor5,1027916,,,,,,,,green,,,null,object_02c.png,object_11b.png,,,,,,,,,,,,,,,,,,,,,
1236.6000000238419,,rt_thecrossant_black5,1029407,,,,,,,,black_plus_sign,,,50,,,1,,,,,,,1,,,,,,,,,,,,,
null,,color_black5,1029509,,,,,,,,black_plus_sign,,,null,,,,,,,,,,,,,,,,,,,,,,,
null,,learn_phase(without_color)5,1033011,,,,,,,,black_plus_sign,,,null,object_13c.png,object_02a.png,,,,,,,,,,,,,,,,,,,,,
null,,black_cross(without_color)5,1033758,,,,,,,,green,,,null,object_13c.png,object_02a.png,,,,,,,,,,,,,,,,,,,,,
null,,rt_plussign_withcolor5,1034259,,,,,,,,green,,,null,object_13c.png,object_02a.png,,,,,,,,,,,,,,,,,,,,,
761,,rt_thecrossant_black5,1035515,,,,,,,,black_plus_sign,,,50,,,1,,,,,,,1,,,,,,,,,,,,,
null,,color_black5,1035616,,,,,,,,black_plus_sign,,,null,,,,,,,,,,,,,,,,,,,,,,,
null,,learn_phase(without_color)5,1039118,,,,,,,,black_plus_sign,,,null,object_04b.png,object_06b.png,,,,,,,,,,,,,,,,,,,,,
null,,black_cross(without_color)5,1039880,,,,,,,,green,,,null,object_04b.png,object_06b.png,,,,,,,,,,,,,,,,,,,,,
null,,rt_plussign_withcolor5,1040382,,,,,,,,green,,,null,object_04b.png,object_06b.png,,,,,,,,,,,,,,,,,,,,,
913.5,,rt_thecrossant_black5,1041623,,,,,,,,black_plus_sign,,,50,,,1,,,,,,,1,,,,,,,,,,,,,
null,,color_black5,1041724,,,,,,,,black_plus_sign,,,null,,,,,,,,,,,,,,,,,,,,,,,
null,,learn_phase(without_color)5,1045226,,,,,,,,black_plus_sign,,,null,object_12c.png,object_07c.png,,,,,,,,,,,,,,,,,,,,,
null,,black_cross(without_color)5,1045652,,,,,,,,blue,,,null,object_12c.png,object_07c.png,,,,,,,,,,,,,,,,,,,,,
null,,rt_plussign_withcolor5,1046154,,,,,,,,blue,,,null,object_12c.png,object_07c.png,,,,,,,,,,,,,,,,,,,,,
995,,rt_thecrossant_black5,1047733,,,,,,,,black_plus_sign,,,49,,,1,,,,,,,1,,,,,,,,,,,,,
null,,color_black5,1047834,,,,,,,,black_plus_sign,,,null,,,,,,,,,,,,,,,,,,,,,,,
null,,learn_phase(without_color)5,1051335,,,,,,,,black_plus_sign,,,null,object_01a.png,object_05a.png,,,,,,,,,,,,,,,,,,,,,
null,,black_cross(without_color)5,1052328,,,,,,,,blue,,,null,object_01a.png,object_05a.png,,,,,,,,,,,,,,,,,,,,,
null,,rt_plussign_withcolor5,1052829,,,,,,,,blue,,,null,object_01a.png,object_05a.png,,,,,,,,,,,,,,,,,,,,,
575.2999999523163,,rt_thecrossant_black5,1053839,,,,,,,,black_plus_sign,,,49,,,1,,,,,,,1,,,,,,,,,,,,,
null,,color_black5,1053940,,,,,,,,black_plus_sign,,,null,,,,,,,,,,,,,,,,,,,,,,,
null,,learn_phase(without_color)5,1057443,,,,,,,,black_plus_sign,,,null,object_10c.png,object_14a.png,,,,,,,,,,,,,,,,,,,,,
null,,black_cross(without_color)5,1058008,,,,,,,,green,,,null,object_10c.png,object_14a.png,,,,,,,,,,,,,,,,,,,,,
497.89999997615814,,rt_plussign_withcolor5,1058509,,,,,,,,green,,,50,object_10c.png,object_14a.png,,,,,,,,,,,,,,,,,,,,,
null,,rt_thecrossant_black5,1059947,,,,,,,,black_plus_sign,,,null,,,1,,,,,,,1,,,,,,,,,,,,,
null,,color_black5,1060048,,,,,,,,black_plus_sign,,,null,,,,,,,,,,,,,,,,,,,,,,,
null,,learn_phase(without_color)5,1063550,,,,,,,,black_plus_sign,,,null,object_02b.png,object_07a.png,,,,,,,,,,,,,,,,,,,,,
null,,black_cross(without_color)5,1064644,,,,,,,,green,,,null,object_02b.png,object_07a.png,,,,,,,,,,,,,,,,,,,,,
null,,rt_plussign_withcolor5,1065145,,,,,,,,green,,,null,object_02b.png,object_07a.png,,,,,,,,,,,,,,,,,,,,,
1016.4000000357628,,rt_thecrossant_black5,1066055,,,,,,,,black_plus_sign,,,50,,,1,,,,,,,1,,,,,,,,,,,,,
null,,color_black5,1066156,,,,,,,,black_plus_sign,,,null,,,,,,,,,,,,,,,,,,,,,,,
null,,learn_phase(without_color)5,1069658,,,,,,,,black_plus_sign,,,null,object_09a.png,object_07b.png,,,,,,,,,,,,,,,,,,,,,
null,,black_cross(without_color)5,1070117,,,,,,,,blue,,,null,object_09a.png,object_07b.png,,,,,,,,,,,,,,,,,,,,,
null,,rt_plussign_withcolor5,1070618,,,,,,,,blue,,,null,object_09a.png,object_07b.png,,,,,,,,,,,,,,,,,,,,,
1192.1000000238419,,rt_thecrossant_black5,1072162,,,,,,,,black_plus_sign,,,49,,,1,,,,,,,1,,,,,,,,,,,,,
null,,color_black5,1072264,,,,,,,,black_plus_sign,,,null,,,,,,,,,,,,,,,,,,,,,,,
null,,learn_phase(without_color)5,1075766,,,,,,,,black_plus_sign,,,null,object_11c.png,object_15a.png,,,,,,,,,,,,,,,,,,,,,
null,,black_cross(without_color)5,1076518,,,,,,,,blue,,,null,object_11c.png,object_15a.png,,,,,,,,,,,,,,,,,,,,,
null,,rt_plussign_withcolor5,1077019,,,,,,,,blue,,,null,object_11c.png,object_15a.png,,,,,,,,,,,,,,,,,,,,,
714.7000000476837,,rt_thecrossant_black5,1078272,,,,,,,,black_plus_sign,,,49,,,1,,,,,,,1,,,,,,,,,,,,,
null,,color_black5,1078374,,,,,,,,black_plus_sign,,,null,,,,,,,,,,,,,,,,,,,,,,,
null,,learn_phase(without_color)5,1081875,,,,,,,,black_plus_sign,,,null,object_10b.png,object_09b.png,,,,,,,,,,,,,,,,,,,,,
null,,black_cross(without_color)5,1082582,,,,,,,,blue,,,null,object_10b.png,object_09b.png,,,,,,,,,,,,,,,,,,,,,
491,,rt_plussign_withcolor5,1083083,,,,,,,,blue,,,49,object_10b.png,object_09b.png,,,,,,,,,,,,,,,,,,,,,
null,,rt_thecrossant_black5,1084379,,,,,,,,black_plus_sign,,,null,,,1,,,,,,,1,,,,,,,,,,,,,
null,,color_black5,1084482,,,,,,,,black_plus_sign,,,null,,,,,,,,,,,,,,,,,,,,,,,
null,,learn_phase(without_color)5,1087984,,,,,,,,black_plus_sign,,,null,object_11a.png,object_08c.png,,,,,,,,,,,,,,,,,,,,,
null,,black_cross(without_color)5,1088507,,,,,,,,green,,,null,object_11a.png,object_08c.png,,,,,,,,,,,,,,,,,,,,,
null,,rt_plussign_withcolor5,1089008,,,,,,,,green,,,null,object_11a.png,object_08c.png,,,,,,,,,,,,,,,,,,,,,
974.8000000119209,,rt_thecrossant_black5,1090488,,,,,,,,black_plus_sign,,,50,,,1,,,,,,,1,,,,,,,,,,,,,
null,,color_black5,1090589,,,,,,,,black_plus_sign,,,null,,,,,,,,,,,,,,,,,,,,,,,
null,,learn_phase(without_color)5,1094092,,,,,,,,black_plus_sign,,,null,object_06a.png,object_13b.png,,,,,,,,,,,,,,,,,,,,,
null,,black_cross(without_color)5,1095080,,,,,,,,green,,,null,object_06a.png,object_13b.png,,,,,,,,,,,,,,,,,,,,,
null,,rt_plussign_withcolor5,1095583,,,,,,,,green,,,null,object_06a.png,object_13b.png,,,,,,,,,,,,,,,,,,,,,
744.6000000238419,,rt_thecrossant_black5,1096598,,,,,,,,black_plus_sign,,,50,,,1,,,,,,,1,,,,,,,,,,,,,
null,,color_black5,1096700,,,,,,,,black_plus_sign,,,null,,,,,,,,,,,,,,,,,,,,,,,
null,,thebreak,1096803,,,,,,,,<p></p>,,,null,,,,,,,,,,,,,,,,,,,,,,,
1206.300000011921,,intro_0,1098010,,,,,,,,instruct,,,32,,,,,,,,,,,,,,,,,,,,,,,
3959.100000023842,,directmemory_phase5,1101970,,,,,,,,object_06b.png,,,51,,,1,,object_02b.png,object_02c.png,object_04b.png,object_04b.png,,0.8688524590163934,,1,,,,,,,,,,,
7238.899999976158,,directmemory_phase5,1109210,,,,,,,,object_04a.png,,,51,,,0,,object_15c.png,object_02c.png,object_15b.png,object_15c.png,,0.8548387096774194,,0,,,,,,,,,,,
6182.300000011921,,directmemory_phase5,1115394,,,,,,,,object_05a.png,,,50,,,0,,object_01a.png,object_02b.png,object_06a.png,object_01a.png,,0.8412698412698413,,0,,,,,,,,,,,
4142.700000047684,,directmemory_phase5,1119538,,,,,,,,object_11b.png,,,49,,,1,,object_02c.png,object_11c.png,object_10b.png,object_02c.png,,0.84375,,1,,,,,,,,,,,
2798.5,,directmemory_phase5,1122338,,,,,,,,object_07a.png,,,51,,,1,,object_04b.png,object_15c.png,object_02b.png,object_02b.png,,0.8461538461538461,,1,,,,,,,,,,,
3134.600000023842,,directmemory_phase5,1125474,,,,,,,,object_13b.png,,,50,,,0,,object_06a.png,object_10b.png,object_02b.png,object_06a.png,,0.8333333333333334,,0,,,,,,,,,,,
3838.800000011921,,directmemory_phase5,1129314,,,,,,,,object_09b.png,,,51,,,1,,object_06a.png,object_02c.png,object_10b.png,object_10b.png,,0.835820895522388,,1,,,,,,,,,,,
2902.699999988079,,directmemory_phase5,1132218,,,,,,,,object_07c.png,,,49,,,1,,object_12c.png,object_01a.png,object_06a.png,object_12c.png,,0.8382352941176471,,1,,,,,,,,,,,
2670.5,,directmemory_phase5,1134890,,,,,,,,object_14a.png,,,50,,,1,,object_06c.png,object_10c.png,object_11c.png,object_10c.png,,0.8405797101449275,,1,,,,,,,,,,,
4702.399999976158,,directmemory_phase5,1139594,,,,,,,,object_02a.png,,,50,,,0,,object_13c.png,object_02c.png,object_10b.png,object_13c.png,,0.8285714285714286,,0,,,,,,,,,,,
3270.600000023842,,directmemory_phase5,1142866,,,,,,,,object_03b.png,,,50,,,1,,object_09a.png,object_06c.png,object_15c.png,object_06c.png,,0.8309859154929577,,1,,,,,,,,,,,
4246.599999964237,,directmemory_phase5,1147114,,,,,,,,object_04c.png,,,49,,,1,,object_15b.png,object_12c.png,object_02b.png,object_15b.png,,0.8333333333333334,,1,,,,,,,,,,,
4110.600000023842,,directmemory_phase5,1151226,,,,,,,,object_08c.png,,,49,,,1,,object_11a.png,object_06a.png,object_15b.png,object_11a.png,,0.8356164383561644,,1,,,,,,,,,,,
3822.800000011921,,directmemory_phase5,1155050,,,,,,,,object_15a.png,,,50,,,1,,object_06a.png,object_11c.png,object_09a.png,object_11c.png,,0.8378378378378378,,1,,,,,,,,,,,
3814.5,,directmemory_phase5,1158866,,,,,,,,object_07b.png,,,51,,,0,,object_09a.png,object_11c.png,object_02c.png,object_09a.png,,0.8266666666666667,,0,,,,,,,,,,,
null,,thebreak,1158967,,,,,,,,<p></p>,,,null,,,,,,,,,,,,,,,,,,,,,,,
14761.399999976158,,intro_0,1173730,,,,,,,,instruct,,,32,,,,,,,,,,,,,,,,,,,,,,,
null,,learn_phase(without_color)6,1177232,,,,,,,,black_plus_sign,,,null,object_04b.png,object_06b.png,,,,,,,,,,,,,,,,,,,,,
null,,black_cross(without_color)6,1178116,,,,,,,,green,,,null,object_04b.png,object_06b.png,,,,,,,,,,,,,,,,,,,,,
null,,rt_plussign_withcolor6,1178618,,,,,,,,green,,,null,object_04b.png,object_06b.png,,,,,,,,,,,,,,,,,,,,,
1070,,rt_thecrossant_black6,1179736,,,,,,,,black_plus_sign,,,50,,,1,,,,,,,1,,,,,,,,,,,,,
null,,color_black6,1179838,,,,,,,,black_plus_sign,,,null,,,,,,,,,,,,,,,,,,,,,,,
null,,learn_phase(without_color)6,1183340,,,,,,,,black_plus_sign,,,null,object_15b.png,object_04c.png,,,,,,,,,,,,,,,,,,,,,
null,,black_cross(without_color)6,1184143,,,,,,,,blue,,,null,object_15b.png,object_04c.png,,,,,,,,,,,,,,,,,,,,,
489.80000001192093,,rt_plussign_withcolor6,1184644,,,,,,,,blue,,,49,object_15b.png,object_04c.png,,,,,,,,,,,,,,,,,,,,,
null,,rt_thecrossant_black6,1185844,,,,,,,,black_plus_sign,,,null,,,1,,,,,,,1,,,,,,,,,,,,,
null,,color_black6,1185945,,,,,,,,black_plus_sign,,,null,,,,,,,,,,,,,,,,,,,,,,,
null,,learn_phase(without_color)6,1189446,,,,,,,,black_plus_sign,,,null,object_11c.png,object_15a.png,,,,,,,,,,,,,,,,,,,,,
null,,black_cross(without_color)6,1190419,,,,,,,,green,,,null,object_11c.png,object_15a.png,,,,,,,,,,,,,,,,,,,,,
null,,rt_plussign_withcolor6,1190921,,,,,,,,green,,,null,object_11c.png,object_15a.png,,,,,,,,,,,,,,,,,,,,,
1020.6000000238419,,rt_thecrossant_black6,1191950,,,,,,,,black_plus_sign,,,50,,,1,,,,,,,1,,,,,,,,,,,,,
null,,color_black6,1192052,,,,,,,,black_plus_sign,,,null,,,,,,,,,,,,,,,,,,,,,,,
null,,learn_phase(without_color)6,1195554,,,,,,,,black_plus_sign,,,null,object_10c.png,object_14a.png,,,,,,,,,,,,,,,,,,,,,
null,,black_cross(without_color)6,1196218,,,,,,,,green,,,null,object_10c.png,object_14a.png,,,,,,,,,,,,,,,,,,,,,
null,,rt_plussign_withcolor6,1196719,,,,,,,,green,,,null,object_10c.png,object_14a.png,,,,,,,,,,,,,,,,,,,,,
1313.300000011921,,rt_thecrossant_black6,1198058,,,,,,,,black_plus_sign,,,50,,,1,,,,,,,1,,,,,,,,,,,,,
null,,color_black6,1198160,,,,,,,,black_plus_sign,,,null,,,,,,,,,,,,,,,,,,,,,,,
null,,learn_phase(without_color)6,1201662,,,,,,,,black_plus_sign,,,null,object_01a.png,object_05a.png,,,,,,,,,,,,,,,,,,,,,
null,,black_cross(without_color)6,1202700,,,,,,,,blue,,,null,object_01a.png,object_05a.png,,,,,,,,,,,,,,,,,,,,,
null,,rt_plussign_withcolor6,1203202,,,,,,,,blue,,,null,object_01a.png,object_05a.png,,,,,,,,,,,,,,,,,,,,,
1200.4000000357628,,rt_thecrossant_black6,1204169,,,,,,,,black_plus_sign,,,49,,,1,,,,,,,1,,,,,,,,,,,,,
null,,color_black6,1204271,,,,,,,,black_plus_sign,,,null,,,,,,,,,,,,,,,,,,,,,,,
null,,learn_phase(without_color)6,1207772,,,,,,,,black_plus_sign,,,null,object_06c.png,object_03b.png,,,,,,,,,,,,,,,,,,,,,
null,,black_cross(without_color)6,1208873,,,,,,,,blue,,,null,object_06c.png,object_03b.png,,,,,,,,,,,,,,,,,,,,,
null,,rt_plussign_withcolor6,1209374,,,,,,,,blue,,,null,object_06c.png,object_03b.png,,,,,,,,,,,,,,,,,,,,,
1305.5,,rt_thecrossant_black6,1210278,,,,,,,,black_plus_sign,,,49,,,1,,,,,,,1,,,,,,,,,,,,,
null,,color_black6,1210379,,,,,,,,black_plus_sign,,,null,,,,,,,,,,,,,,,,,,,,,,,
null,,learn_phase(without_color)6,1213881,,,,,,,,black_plus_sign,,,null,object_12c.png,object_07c.png,,,,,,,,,,,,,,,,,,,,,
null,,black_cross(without_color)6,1214638,,,,,,,,blue,,,null,object_12c.png,object_07c.png,,,,,,,,,,,,,,,,,,,,,
null,,rt_plussign_withcolor6,1215139,,,,,,,,blue,,,null,object_12c.png,object_07c.png,,,,,,,,,,,,,,,,,,,,,
1627.9000000357628,,rt_thecrossant_black6,1216385,,,,,,,,black_plus_sign,,,49,,,1,,,,,,,1,,,,,,,,,,,,,
null,,color_black6,1216487,,,,,,,,black_plus_sign,,,null,,,,,,,,,,,,,,,,,,,,,,,
null,,learn_phase(without_color)6,1219989,,,,,,,,black_plus_sign,,,null,object_15c.png,object_04a.png,,,,,,,,,,,,,,,,,,,,,
null,,black_cross(without_color)6,1220422,,,,,,,,green,,,null,object_15c.png,object_04a.png,,,,,,,,,,,,,,,,,,,,,
null,,rt_plussign_withcolor6,1220923,,,,,,,,green,,,null,object_15c.png,object_04a.png,,,,,,,,,,,,,,,,,,,,,
1029.2000000476837,,rt_thecrossant_black6,1222493,,,,,,,,black_plus_sign,,,50,,,1,,,,,,,1,,,,,,,,,,,,,
null,,color_black6,1222594,,,,,,,,black_plus_sign,,,null,,,,,,,,,,,,,,,,,,,,,,,
null,,learn_phase(without_color)6,1226097,,,,,,,,black_plus_sign,,,null,object_13c.png,object_02a.png,,,,,,,,,,,,,,,,,,,,,
null,,black_cross(without_color)6,1226918,,,,,,,,blue,,,null,object_13c.png,object_02a.png,,,,,,,,,,,,,,,,,,,,,
null,,rt_plussign_withcolor6,1227420,,,,,,,,blue,,,null,object_13c.png,object_02a.png,,,,,,,,,,,,,,,,,,,,,
608.5,,rt_thecrossant_black6,1228602,,,,,,,,black_plus_sign,,,49,,,1,,,,,,,1,,,,,,,,,,,,,
null,,color_black6,1228703,,,,,,,,black_plus_sign,,,null,,,,,,,,,,,,,,,,,,,,,,,
null,,learn_phase(without_color)6,1232205,,,,,,,,black_plus_sign,,,null,object_02c.png,object_11b.png,,,,,,,,,,,,,,,,,,,,,
null,,black_cross(without_color)6,1232974,,,,,,,,green,,,null,object_02c.png,object_11b.png,,,,,,,,,,,,,,,,,,,,,
null,,rt_plussign_withcolor6,1233475,,,,,,,,green,,,null,object_02c.png,object_11b.png,,,,,,,,,,,,,,,,,,,,,
1149.4000000357628,,rt_thecrossant_black6,1234710,,,,,,,,black_plus_sign,,,50,,,1,,,,,,,1,,,,,,,,,,,,,
null,,color_black6,1234811,,,,,,,,black_plus_sign,,,null,,,,,,,,,,,,,,,,,,,,,,,
null,,learn_phase(without_color)6,1238313,,,,,,,,black_plus_sign,,,null,object_02b.png,object_07a.png,,,,,,,,,,,,,,,,,,,,,
null,,black_cross(without_color)6,1239223,,,,,,,,blue,,,null,object_02b.png,object_07a.png,,,,,,,,,,,,,,,,,,,,,
null,,rt_plussign_withcolor6,1239725,,,,,,,,blue,,,null,object_02b.png,object_07a.png,,,,,,,,,,,,,,,,,,,,,
950.5,,rt_thecrossant_black6,1240819,,,,,,,,black_plus_sign,,,49,,,1,,,,,,,1,,,,,,,,,,,,,
null,,color_black6,1240924,,,,,,,,black_plus_sign,,,null,,,,,,,,,,,,,,,,,,,,,,,
null,,learn_phase(without_color)6,1244426,,,,,,,,black_plus_sign,,,null,object_11a.png,object_08c.png,,,,,,,,,,,,,,,,,,,,,
null,,black_cross(without_color)6,1245324,,,,,,,,blue,,,null,object_11a.png,object_08c.png,,,,,,,,,,,,,,,,,,,,,
null,,rt_plussign_withcolor6,1245826,,,,,,,,blue,,,null,object_11a.png,object_08c.png,,,,,,,,,,,,,,,,,,,,,
1110.9000000357628,,rt_thecrossant_black6,1246939,,,,,,,,black_plus_sign,,,49,,,1,,,,,,,1,,,,,,,,,,,,,
null,,color_black6,1247042,,,,,,,,black_plus_sign,,,null,,,,,,,,,,,,,,,,,,,,,,,
null,,learn_phase(without_color)6,1250544,,,,,,,,black_plus_sign,,,null,object_06a.png,object_13b.png,,,,,,,,,,,,,,,,,,,,,
null,,black_cross(without_color)6,1251435,,,,,,,,blue,,,null,object_06a.png,object_13b.png,,,,,,,,,,,,,,,,,,,,,
null,,rt_plussign_withcolor6,1251938,,,,,,,,blue,,,null,object_06a.png,object_13b.png,,,,,,,,,,,,,,,,,,,,,
1131,,rt_thecrossant_black6,1253050,,,,,,,,black_plus_sign,,,49,,,1,,,,,,,1,,,,,,,,,,,,,
null,,color_black6,1253152,,,,,,,,black_plus_sign,,,null,,,,,,,,,,,,,,,,,,,,,,,
null,,learn_phase(without_color)6,1256654,,,,,,,,black_plus_sign,,,null,object_09a.png,object_07b.png,,,,,,,,,,,,,,,,,,,,,
null,,black_cross(without_color)6,1257086,,,,,,,,blue,,,null,object_09a.png,object_07b.png,,,,,,,,,,,,,,,,,,,,,
null,,rt_plussign_withcolor6,1257587,,,,,,,,blue,,,null,object_09a.png,object_07b.png,,,,,,,,,,,,,,,,,,,,,
1187.5,,rt_thecrossant_black6,1259158,,,,,,,,black_plus_sign,,,49,,,1,,,,,,,1,,,,,,,,,,,,,
null,,color_black6,1259260,,,,,,,,black_plus_sign,,,null,,,,,,,,,,,,,,,,,,,,,,,
null,,learn_phase(without_color)6,1262762,,,,,,,,black_plus_sign,,,null,object_10b.png,object_09b.png,,,,,,,,,,,,,,,,,,,,,
null,,black_cross(without_color)6,1263635,,,,,,,,green,,,null,object_10b.png,object_09b.png,,,,,,,,,,,,,,,,,,,,,
null,,rt_plussign_withcolor6,1264137,,,,,,,,green,,,null,object_10b.png,object_09b.png,,,,,,,,,,,,,,,,,,,,,
625,,rt_thecrossant_black6,1265268,,,,,,,,black_plus_sign,,,50,,,1,,,,,,,1,,,,,,,,,,,,,
null,,color_black6,1265370,,,,,,,,black_plus_sign,,,null,,,,,,,,,,,,,,,,,,,,,,,
null,,thebreak,1265471,,,,,,,,<p></p>,,,null,,,,,,,,,,,,,,,,,,,,,,,
1416.699999988079,,intro_0,1266889,,,,,,,,instruct,,,32,,,,,,,,,,,,,,,,,,,,,,,
2039.3999999761581,,directmemory_phase6,1268930,,,,,,,,object_15a.png,,,49,,,1,,object_11c.png,object_11a.png,object_10b.png,object_11c.png,,0.8289473684210527,,1,,,,,,,,,,,
6334.199999988079,,directmemory_phase6,1275265,,,,,,,,object_04c.png,,,51,,,1,,object_13c.png,object_01a.png,object_15b.png,object_15b.png,,0.8311688311688312,,1,,,,,,,,,,,
1774.4000000357628,,directmemory_phase6,1277041,,,,,,,,object_07a.png,,,50,,,1,,object_02c.png,object_02b.png,object_01a.png,object_02b.png,,0.8333333333333334,,1,,,,,,,,,,,
1822.300000011921,,directmemory_phase6,1278865,,,,,,,,object_09b.png,,,49,,,1,,object_10b.png,object_12c.png,object_04b.png,object_10b.png,,0.8354430379746836,,1,,,,,,,,,,,
2262.699999988079,,directmemory_phase6,1281129,,,,,,,,object_08c.png,,,50,,,1,,object_06c.png,object_11a.png,object_09a.png,object_11a.png,,0.8375,,1,,,,,,,,,,,
1830.300000011921,,directmemory_phase6,1282961,,,,,,,,object_11b.png,,,49,,,1,,object_02c.png,object_10b.png,object_01a.png,object_02c.png,,0.8395061728395061,,1,,,,,,,,,,,
5326.599999964237,,directmemory_phase6,1288289,,,,,,,,object_05a.png,,,50,,,1,,object_02b.png,object_01a.png,object_11a.png,object_01a.png,,0.8414634146341463,,1,,,,,,,,,,,
6094.699999988079,,directmemory_phase6,1294385,,,,,,,,object_13b.png,,,49,,,0,,object_10b.png,object_06a.png,object_04b.png,object_06a.png,,0.8313253012048193,,0,,,,,,,,,,,
7422.400000035763,,directmemory_phase6,1301809,,,,,,,,object_02a.png,,,49,,,1,,object_13c.png,object_11c.png,object_02c.png,object_13c.png,,0.8333333333333334,,1,,,,,,,,,,,
3294.699999988079,,directmemory_phase6,1305105,,,,,,,,object_07c.png,,,51,,,1,,object_11c.png,object_01a.png,object_12c.png,object_12c.png,,0.8352941176470589,,1,,,,,,,,,,,
2166.699999988079,,directmemory_phase6,1307273,,,,,,,,object_03b.png,,,50,,,1,,object_11c.png,object_06c.png,object_13c.png,object_06c.png,,0.8372093023255814,,1,,,,,,,,,,,
2054.400000035763,,directmemory_phase6,1309329,,,,,,,,object_06b.png,,,49,,,1,,object_04b.png,object_02b.png,object_06c.png,object_04b.png,,0.8390804597701149,,1,,,,,,,,,,,
4550.5,,directmemory_phase6,1313881,,,,,,,,object_07b.png,,,50,,,1,,object_04b.png,object_09a.png,object_02b.png,object_09a.png,,0.8409090909090909,,1,,,,,,,,,,,
7446.800000011921,,directmemory_phase6,1321329,,,,,,,,object_04a.png,,,49,,,1,,object_15c.png,object_02c.png,object_11c.png,object_15c.png,,0.8426966292134831,,1,,,,,,,,,,,
3174.5,,directmemory_phase6,1324505,,,,,,,,object_14a.png,,,49,,,1,,object_10c.png,object_09a.png,object_12c.png,object_10c.png,,0.8444444444444444,,1,,,,,,,,,,,
null,,thebreak,1324607,,,,,,,,<p></p>,,,null,,,,,,,,,,,,,,,,,,,,,,,
4545.300000011921,,intro_0,1329153,,,,,,,,instruct,,,32,,,,,,,,,,,,,,,,,,,,,,,
null,,learn_phase(without_color)7,1332654,,,,,,,,black_plus_sign,,,null,object_06c.png,object_03b.png,,,,,,,,,,,,,,,,,,,,,
null,,black_cross(without_color)7,1333509,,,,,,,,blue,,,null,object_06c.png,object_03b.png,,,,,,,,,,,,,,,,,,,,,
null,,rt_plussign_withcolor7,1334012,,,,,,,,blue,,,null,object_06c.png,object_03b.png,,,,,,,,,,,,,,,,,,,,,
1710.699999988079,,rt_thecrossant_black7,1335159,,,,,,,,black_plus_sign,,,49,,,1,,,,,,,1,,,,,,,,,,,,,
null,,color_black7,1335260,,,,,,,,black_plus_sign,,,null,,,,,,,,,,,,,,,,,,,,,,,
null,,learn_phase(without_color)7,1338762,,,,,,,,black_plus_sign,,,null,object_04b.png,object_06b.png,,,,,,,,,,,,,,,,,,,,,
null,,black_cross(without_color)7,1339289,,,,,,,,green,,,null,object_04b.png,object_06b.png,,,,,,,,,,,,,,,,,,,,,
null,,rt_plussign_withcolor7,1339791,,,,,,,,green,,,null,object_04b.png,object_06b.png,,,,,,,,,,,,,,,,,,,,,
1026.7999999523163,,rt_thecrossant_black7,1341267,,,,,,,,black_plus_sign,,,50,,,1,,,,,,,1,,,,,,,,,,,,,
null,,color_black7,1341369,,,,,,,,black_plus_sign,,,null,,,,,,,,,,,,,,,,,,,,,,,
null,,learn_phase(without_color)7,1344871,,,,,,,,black_plus_sign,,,null,object_15b.png,object_04c.png,,,,,,,,,,,,,,,,,,,,,
null,,black_cross(without_color)7,1345300,,,,,,,,green,,,null,object_15b.png,object_04c.png,,,,,,,,,,,,,,,,,,,,,
null,,rt_plussign_withcolor7,1345802,,,,,,,,green,,,null,object_15b.png,object_04c.png,,,,,,,,,,,,,,,,,,,,,
752.2000000476837,,rt_thecrossant_black7,1347375,,,,,,,,black_plus_sign,,,50,,,1,,,,,,,1,,,,,,,,,,,,,
null,,color_black7,1347477,,,,,,,,black_plus_sign,,,null,,,,,,,,,,,,,,,,,,,,,,,
null,,learn_phase(without_color)7,1350979,,,,,,,,black_plus_sign,,,null,object_11a.png,object_08c.png,,,,,,,,,,,,,,,,,,,,,
null,,black_cross(without_color)7,1351629,,,,,,,,green,,,null,object_11a.png,object_08c.png,,,,,,,,,,,,,,,,,,,,,
null,,rt_plussign_withcolor7,1352132,,,,,,,,green,,,null,object_11a.png,object_08c.png,,,,,,,,,,,,,,,,,,,,,
644,,rt_thecrossant_black7,1353485,,,,,,,,black_plus_sign,,,50,,,1,,,,,,,1,,,,,,,,,,,,,
null,,color_black7,1353586,,,,,,,,black_plus_sign,,,null,,,,,,,,,,,,,,,,,,,,,,,
null,,learn_phase(without_color)7,1357088,,,,,,,,black_plus_sign,,,null,object_13c.png,object_02a.png,,,,,,,,,,,,,,,,,,,,,
null,,black_cross(without_color)7,1357585,,,,,,,,green,,,null,object_13c.png,object_02a.png,,,,,,,,,,,,,,,,,,,,,
null,,rt_plussign_withcolor7,1358087,,,,,,,,green,,,null,object_13c.png,object_02a.png,,,,,,,,,,,,,,,,,,,,,
806.1999999880791,,rt_thecrossant_black7,1359605,,,,,,,,black_plus_sign,,,50,,,1,,,,,,,1,,,,,,,,,,,,,
null,,color_black7,1359708,,,,,,,,black_plus_sign,,,null,,,,,,,,,,,,,,,,,,,,,,,
null,,learn_phase(without_color)7,1363210,,,,,,,,black_plus_sign,,,null,object_02c.png,object_11b.png,,,,,,,,,,,,,,,,,,,,,
null,,black_cross(without_color)7,1363613,,,,,,,,green,,,null,object_02c.png,object_11b.png,,,,,,,,,,,,,,,,,,,,,
498.9000000357628,,rt_plussign_withcolor7,1364115,,,,,,,,green,,,50,object_02c.png,object_11b.png,,,,,,,,,,,,,,,,,,,,,
null,,rt_thecrossant_black7,1365716,,,,,,,,black_plus_sign,,,null,,,1,,,,,,,1,,,,,,,,,,,,,
null,,color_black7,1365817,,,,,,,,black_plus_sign,,,null,,,,,,,,,,,,,,,,,,,,,,,
null,,learn_phase(without_color)7,1369319,,,,,,,,black_plus_sign,,,null,object_11c.png,object_15a.png,,,,,,,,,,,,,,,,,,,,,
null,,black_cross(without_color)7,1370120,,,,,,,,green,,,null,object_11c.png,object_15a.png,,,,,,,,,,,,,,,,,,,,,
null,,rt_plussign_withcolor7,1370621,,,,,,,,green,,,null,object_11c.png,object_15a.png,,,,,,,,,,,,,,,,,,,,,
519.2999999523163,,rt_thecrossant_black7,1371824,,,,,,,,black_plus_sign,,,50,,,1,,,,,,,1,,,,,,,,,,,,,
null,,color_black7,1371926,,,,,,,,black_plus_sign,,,null,,,,,,,,,,,,,,,,,,,,,,,
null,,learn_phase(without_color)7,1375428,,,,,,,,black_plus_sign,,,null,object_01a.png,object_05a.png,,,,,,,,,,,,,,,,,,,,,
null,,black_cross(without_color)7,1375923,,,,,,,,blue,,,null,object_01a.png,object_05a.png,,,,,,,,,,,,,,,,,,,,,
null,,rt_plussign_withcolor7,1376424,,,,,,,,blue,,,null,object_01a.png,object_05a.png,,,,,,,,,,,,,,,,,,,,,
1050.1000000238419,,rt_thecrossant_black7,1377933,,,,,,,,black_plus_sign,,,49,,,1,,,,,,,1,,,,,,,,,,,,,
null,,color_black7,1378034,,,,,,,,black_plus_sign,,,null,,,,,,,,,,,,,,,,,,,,,,,
null,,learn_phase(without_color)7,1381536,,,,,,,,black_plus_sign,,,null,object_12c.png,object_07c.png,,,,,,,,,,,,,,,,,,,,,
null,,black_cross(without_color)7,1382239,,,,,,,,blue,,,null,object_12c.png,object_07c.png,,,,,,,,,,,,,,,,,,,,,
null,,rt_plussign_withcolor7,1382741,,,,,,,,blue,,,null,object_12c.png,object_07c.png,,,,,,,,,,,,,,,,,,,,,
709.1999999880791,,rt_thecrossant_black7,1384042,,,,,,,,black_plus_sign,,,49,,,1,,,,,,,1,,,,,,,,,,,,,
null,,color_black7,1384144,,,,,,,,black_plus_sign,,,null,,,,,,,,,,,,,,,,,,,,,,,
null,,learn_phase(without_color)7,1387646,,,,,,,,black_plus_sign,,,null,object_06a.png,object_13b.png,,,,,,,,,,,,,,,,,,,,,
null,,black_cross(without_color)7,1388092,,,,,,,,blue,,,null,object_06a.png,object_13b.png,,,,,,,,,,,,,,,,,,,,,
null,,rt_plussign_withcolor7,1388593,,,,,,,,blue,,,null,object_06a.png,object_13b.png,,,,,,,,,,,,,,,,,,,,,
951.3999999761581,,rt_thecrossant_black7,1390149,,,,,,,,black_plus_sign,,,50,,,0,,,,,,,0.9,,,,,,,,,,,,,
null,,color_black7,1390251,,,,,,,,black_plus_sign,,,null,,,,,,,,,,,,,,,,,,,,,,,
null,,learn_phase(without_color)7,1393753,,,,,,,,black_plus_sign,,,null,object_15c.png,object_04a.png,,,,,,,,,,,,,,,,,,,,,
null,,black_cross(without_color)7,1394559,,,,,,,,green,,,null,object_15c.png,object_04a.png,,,,,,,,,,,,,,,,,,,,,
null,,rt_plussign_withcolor7,1395061,,,,,,,,green,,,null,object_15c.png,object_04a.png,,,,,,,,,,,,,,,,,,,,,
1292,,rt_thecrossant_black7,1396258,,,,,,,,black_plus_sign,,,50,,,1,,,,,,,0.9090909090909091,,,,,,,,,,,,,
null,,color_black7,1396360,,,,,,,,black_plus_sign,,,null,,,,,,,,,,,,,,,,,,,,,,,
null,,learn_phase(without_color)7,1399863,,,,,,,,black_plus_sign,,,null,object_10c.png,object_14a.png,,,,,,,,,,,,,,,,,,,,,
null,,black_cross(without_color)7,1400867,,,,,,,,green,,,null,object_10c.png,object_14a.png,,,,,,,,,,,,,,,,,,,,,
null,,rt_plussign_withcolor7,1401369,,,,,,,,green,,,null,object_10c.png,object_14a.png,,,,,,,,,,,,,,,,,,,,,
1119.5,,rt_thecrossant_black7,1402368,,,,,,,,black_plus_sign,,,50,,,1,,,,,,,0.9166666666666666,,,,,,,,,,,,,
null,,color_black7,1402469,,,,,,,,black_plus_sign,,,null,,,,,,,,,,,,,,,,,,,,,,,
null,,learn_phase(without_color)7,1405972,,,,,,,,black_plus_sign,,,null,object_09a.png,object_07b.png,,,,,,,,,,,,,,,,,,,,,
null,,black_cross(without_color)7,1406834,,,,,,,,green,,,null,object_09a.png,object_07b.png,,,,,,,,,,,,,,,,,,,,,
null,,rt_plussign_withcolor7,1407335,,,,,,,,green,,,null,object_09a.png,object_07b.png,,,,,,,,,,,,,,,,,,,,,
1271.6000000238419,,rt_thecrossant_black7,1408476,,,,,,,,black_plus_sign,,,50,,,1,,,,,,,0.9230769230769231,,,,,,,,,,,,,
null,,color_black7,1408578,,,,,,,,black_plus_sign,,,null,,,,,,,,,,,,,,,,,,,,,,,
null,,learn_phase(without_color)7,1412080,,,,,,,,black_plus_sign,,,null,object_10b.png,object_09b.png,,,,,,,,,,,,,,,,,,,,,
null,,black_cross(without_color)7,1412696,,,,,,,,blue,,,null,object_10b.png,object_09b.png,,,,,,,,,,,,,,,,,,,,,
null,,rt_plussign_withcolor7,1413198,,,,,,,,blue,,,null,object_10b.png,object_09b.png,,,,,,,,,,,,,,,,,,,,,
1386.800000011921,,rt_thecrossant_black7,1414585,,,,,,,,black_plus_sign,,,49,,,1,,,,,,,0.9285714285714286,,,,,,,,,,,,,
null,,color_black7,1414686,,,,,,,,black_plus_sign,,,null,,,,,,,,,,,,,,,,,,,,,,,
null,,learn_phase(without_color)7,1418188,,,,,,,,black_plus_sign,,,null,object_02b.png,object_07a.png,,,,,,,,,,,,,,,,,,,,,
null,,black_cross(without_color)7,1418821,,,,,,,,green,,,null,object_02b.png,object_07a.png,,,,,,,,,,,,,,,,,,,,,
483,,rt_plussign_withcolor7,1419323,,,,,,,,green,,,50,object_02b.png,object_07a.png,,,,,,,,,,,,,,,,,,,,,
null,,rt_thecrossant_black7,1420694,,,,,,,,black_plus_sign,,,null,,,1,,,,,,,0.9333333333333333,,,,,,,,,,,,,
null,,color_black7,1420795,,,,,,,,black_plus_sign,,,null,,,,,,,,,,,,,,,,,,,,,,,
null,,thebreak,1420897,,,,,,,,<p></p>,,,null,,,,,,,,,,,,,,,,,,,,,,,
6494.400000035763,,intro_0,1427392,,,,,,,,instruct,,,32,,,,,,,,,,,,,,,,,,,,,,,
5815.400000035763,,directmemory_phase7,1433209,,,,,,,,object_02a.png,,,50,,,1,,object_11a.png,object_13c.png,object_12c.png,object_13c.png,,0.8461538461538461,,1,,,,,,,,,,,
2437.899999976158,,directmemory_phase7,1435648,,,,,,,,object_07c.png,,,49,,,1,,object_12c.png,object_15c.png,object_02c.png,object_12c.png,,0.8478260869565217,,1,,,,,,,,,,,
3014.300000011921,,directmemory_phase7,1438664,,,,,,,,object_09b.png,,,51,,,1,,object_06c.png,object_11c.png,object_10b.png,object_10b.png,,0.8494623655913979,,1,,,,,,,,,,,
1750.5,,directmemory_phase7,1440416,,,,,,,,object_06b.png,,,50,,,1,,object_10b.png,object_04b.png,object_01a.png,object_04b.png,,0.851063829787234,,1,,,,,,,,,,,
2526.099999964237,,directmemory_phase7,1442944,,,,,,,,object_11b.png,,,49,,,1,,object_02c.png,object_06a.png,object_06c.png,object_02c.png,,0.8526315789473684,,1,,,,,,,,,,,
3078.800000011921,,directmemory_phase7,1446025,,,,,,,,object_14a.png,,,49,,,1,,object_10c.png,object_06a.png,object_11a.png,object_10c.png,,0.8541666666666666,,1,,,,,,,,,,,
3205.899999976158,,directmemory_phase7,1449232,,,,,,,,object_13b.png,,,49,,,1,,object_06a.png,object_13c.png,object_09a.png,object_06a.png,,0.8556701030927835,,1,,,,,,,,,,,
2054.5,,directmemory_phase7,1451288,,,,,,,,object_08c.png,,,50,,,1,,object_12c.png,object_11a.png,object_15b.png,object_11a.png,,0.8571428571428571,,1,,,,,,,,,,,
3350.2999999523163,,directmemory_phase7,1454640,,,,,,,,object_04c.png,,,51,,,1,,object_02c.png,object_09a.png,object_15b.png,object_15b.png,,0.8585858585858586,,1,,,,,,,,,,,
4878.900000035763,,directmemory_phase7,1459520,,,,,,,,object_04a.png,,,51,,,1,,object_06c.png,object_02b.png,object_15c.png,object_15c.png,,0.86,,1,,,,,,,,,,,
1670.0999999642372,,directmemory_phase7,1461192,,,,,,,,object_15a.png,,,49,,,1,,object_11c.png,object_12c.png,object_02c.png,object_11c.png,,0.8613861386138614,,1,,,,,,,,,,,
1918.5999999642372,,directmemory_phase7,1463112,,,,,,,,object_07a.png,,,50,,,1,,object_04b.png,object_02b.png,object_15b.png,object_02b.png,,0.8627450980392157,,1,,,,,,,,,,,
2822.5,,directmemory_phase7,1465936,,,,,,,,object_07b.png,,,49,,,1,,object_09a.png,object_04b.png,object_11a.png,object_09a.png,,0.8640776699029126,,1,,,,,,,,,,,
2278.5,,directmemory_phase7,1468216,,,,,,,,object_03b.png,,,49,,,1,,object_06c.png,object_10b.png,object_02b.png,object_06c.png,,0.8653846153846154,,1,,,,,,,,,,,
3886.5,,directmemory_phase7,1472104,,,,,,,,object_05a.png,,,50,,,1,,object_11c.png,object_01a.png,object_06c.png,object_01a.png,,0.8666666666666667,,1,,,,,,,,,,,
null,,thebreak,1472207,,,,,,,,<p></p>,,,null,,,,,,,,,,,,,,,,,,,,,,,
3311.800000011921,,intro_0,1475520,,,,,,,,instruct,,,32,,,,,,,,,,,,,,,,,,,,,,,
null,,learn_phase(without_color)8,1479022,,,,,,,,black_plus_sign,,,null,object_13c.png,object_02a.png,,,,,,,,,,,,,,,,,,,,,
null,,black_cross(without_color)8,1479698,,,,,,,,green,,,null,object_13c.png,object_02a.png,,,,,,,,,,,,,,,,,,,,,
null,,rt_plussign_withcolor8,1480200,,,,,,,,green,,,null,object_13c.png,object_02a.png,,,,,,,,,,,,,,,,,,,,,
1052.800000011921,,rt_thecrossant_black8,1481528,,,,,,,,black_plus_sign,,,50,,,1,,,,,,,1,,,,,,,,,,,,,
null,,color_black8,1481630,,,,,,,,black_plus_sign,,,null,,,,,,,,,,,,,,,,,,,,,,,
null,,learn_phase(without_color)8,1485133,,,,,,,,black_plus_sign,,,null,object_11a.png,object_08c.png,,,,,,,,,,,,,,,,,,,,,
null,,black_cross(without_color)8,1485738,,,,,,,,blue,,,null,object_11a.png,object_08c.png,,,,,,,,,,,,,,,,,,,,,
null,,rt_plussign_withcolor8,1486239,,,,,,,,blue,,,null,object_11a.png,object_08c.png,,,,,,,,,,,,,,,,,,,,,
1158.300000011921,,rt_thecrossant_black8,1487638,,,,,,,,black_plus_sign,,,49,,,1,,,,,,,1,,,,,,,,,,,,,
null,,color_black8,1487740,,,,,,,,black_plus_sign,,,null,,,,,,,,,,,,,,,,,,,,,,,
null,,learn_phase(without_color)8,1491242,,,,,,,,black_plus_sign,,,null,object_04b.png,object_06b.png,,,,,,,,,,,,,,,,,,,,,
null,,black_cross(without_color)8,1492106,,,,,,,,green,,,null,object_04b.png,object_06b.png,,,,,,,,,,,,,,,,,,,,,
493.4000000357628,,rt_plussign_withcolor8,1492607,,,,,,,,green,,,50,object_04b.png,object_06b.png,,,,,,,,,,,,,,,,,,,,,
null,,rt_thecrossant_black8,1493747,,,,,,,,black_plus_sign,,,null,,,1,,,,,,,1,,,,,,,,,,,,,
null,,color_black8,1493849,,,,,,,,black_plus_sign,,,null,,,,,,,,,,,,,,,,,,,,,,,
null,,learn_phase(without_color)8,1497351,,,,,,,,black_plus_sign,,,null,object_09a.png,object_07b.png,,,,,,,,,,,,,,,,,,,,,
null,,black_cross(without_color)8,1497956,,,,,,,,green,,,null,object_09a.png,object_07b.png,,,,,,,,,,,,,,,,,,,,,
null,,rt_plussign_withcolor8,1498458,,,,,,,,green,,,null,object_09a.png,object_07b.png,,,,,,,,,,,,,,,,,,,,,
1231.5999999642372,,rt_thecrossant_black8,1499855,,,,,,,,black_plus_sign,,,50,,,1,,,,,,,1,,,,,,,,,,,,,
null,,color_black8,1499956,,,,,,,,black_plus_sign,,,null,,,,,,,,,,,,,,,,,,,,,,,
null,,learn_phase(without_color)8,1503458,,,,,,,,black_plus_sign,,,null,object_02b.png,object_07a.png,,,,,,,,,,,,,,,,,,,,,
null,,black_cross(without_color)8,1504407,,,,,,,,green,,,null,object_02b.png,object_07a.png,,,,,,,,,,,,,,,,,,,,,
null,,rt_plussign_withcolor8,1504908,,,,,,,,green,,,null,object_02b.png,object_07a.png,,,,,,,,,,,,,,,,,,,,,
762.8000000119209,,rt_thecrossant_black8,1505963,,,,,,,,black_plus_sign,,,50,,,1,,,,,,,1,,,,,,,,,,,,,
null,,color_black8,1506064,,,,,,,,black_plus_sign,,,null,,,,,,,,,,,,,,,,,,,,,,,
null,,learn_phase(without_color)8,1509567,,,,,,,,black_plus_sign,,,null,object_10c.png,object_14a.png,,,,,,,,,,,,,,,,,,,,,
null,,black_cross(without_color)8,1510489,,,,,,,,blue,,,null,object_10c.png,object_14a.png,,,,,,,,,,,,,,,,,,,,,
null,,rt_plussign_withcolor8,1510990,,,,,,,,blue,,,null,object_10c.png,object_14a.png,,,,,,,,,,,,,,,,,,,,,
1263.5,,rt_thecrossant_black8,1512071,,,,,,,,black_plus_sign,,,49,,,1,,,,,,,1,,,,,,,,,,,,,
null,,color_black8,1512174,,,,,,,,black_plus_sign,,,null,,,,,,,,,,,,,,,,,,,,,,,
null,,learn_phase(without_color)8,1515677,,,,,,,,black_plus_sign,,,null,object_01a.png,object_05a.png,,,,,,,,,,,,,,,,,,,,,
null,,black_cross(without_color)8,1516713,,,,,,,,green,,,null,object_01a.png,object_05a.png,,,,,,,,,,,,,,,,,,,,,
null,,rt_plussign_withcolor8,1517215,,,,,,,,green,,,null,object_01a.png,object_05a.png,,,,,,,,,,,,,,,,,,,,,
1445.4000000357628,,rt_thecrossant_black8,1518183,,,,,,,,black_plus_sign,,,50,,,1,,,,,,,1,,,,,,,,,,,,,
null,,color_black8,1518285,,,,,,,,black_plus_sign,,,null,,,,,,,,,,,,,,,,,,,,,,,
null,,learn_phase(without_color)8,1521787,,,,,,,,black_plus_sign,,,null,object_12c.png,object_07c.png,,,,,,,,,,,,,,,,,,,,,
null,,black_cross(without_color)8,1522317,,,,,,,,green,,,null,object_12c.png,object_07c.png,,,,,,,,,,,,,,,,,,,,,
497.89999997615814,,rt_plussign_withcolor8,1522820,,,,,,,,green,,,50,object_12c.png,object_07c.png,,,,,,,,,,,,,,,,,,,,,
null,,rt_thecrossant_black8,1524293,,,,,,,,black_plus_sign,,,null,,,1,,,,,,,1,,,,,,,,,,,,,
null,,color_black8,1524395,,,,,,,,black_plus_sign,,,null,,,,,,,,,,,,,,,,,,,,,,,
null,,learn_phase(without_color)8,1527897,,,,,,,,black_plus_sign,,,null,object_06c.png,object_03b.png,,,,,,,,,,,,,,,,,,,,,
null,,black_cross(without_color)8,1528345,,,,,,,,blue,,,null,object_06c.png,object_03b.png,,,,,,,,,,,,,,,,,,,,,
null,,rt_plussign_withcolor8,1528860,,,,,,,,blue,,,null,object_06c.png,object_03b.png,,,,,,,,,,,,,,,,,,,,,
968,,rt_thecrossant_black8,1530414,,,,,,,,black_plus_sign,,,49,,,1,,,,,,,1,,,,,,,,,,,,,
null,,color_black8,1530516,,,,,,,,black_plus_sign,,,null,,,,,,,,,,,,,,,,,,,,,,,
null,,learn_phase(without_color)8,1534019,,,,,,,,black_plus_sign,,,null,object_11c.png,object_15a.png,,,,,,,,,,,,,,,,,,,,,
null,,black_cross(without_color)8,1534933,,,,,,,,green,,,null,object_11c.png,object_15a.png,,,,,,,,,,,,,,,,,,,,,
473.89999997615814,,rt_plussign_withcolor8,1535435,,,,,,,,green,,,50,object_11c.png,object_15a.png,,,,,,,,,,,,,,,,,,,,,
null,,rt_thecrossant_black8,1536524,,,,,,,,black_plus_sign,,,null,,,1,,,,,,,1,,,,,,,,,,,,,
null,,color_black8,1536625,,,,,,,,black_plus_sign,,,null,,,,,,,,,,,,,,,,,,,,,,,
null,,learn_phase(without_color)8,1540128,,,,,,,,black_plus_sign,,,null,object_06a.png,object_13b.png,,,,,,,,,,,,,,,,,,,,,
null,,black_cross(without_color)8,1540832,,,,,,,,green,,,null,object_06a.png,object_13b.png,,,,,,,,,,,,,,,,,,,,,
null,,rt_plussign_withcolor8,1541334,,,,,,,,green,,,null,object_06a.png,object_13b.png,,,,,,,,,,,,,,,,,,,,,
1166,,rt_thecrossant_black8,1542633,,,,,,,,black_plus_sign,,,50,,,1,,,,,,,1,,,,,,,,,,,,,
null,,color_black8,1542734,,,,,,,,black_plus_sign,,,null,,,,,,,,,,,,,,,,,,,,,,,
null,,learn_phase(without_color)8,1546237,,,,,,,,black_plus_sign,,,null,object_15b.png,object_04c.png,,,,,,,,,,,,,,,,,,,,,
null,,black_cross(without_color)8,1546846,,,,,,,,green,,,null,object_15b.png,object_04c.png,,,,,,,,,,,,,,,,,,,,,
null,,rt_plussign_withcolor8,1547348,,,,,,,,green,,,null,object_15b.png,object_04c.png,,,,,,,,,,,,,,,,,,,,,
1030.0999999642372,,rt_thecrossant_black8,1548742,,,,,,,,black_plus_sign,,,50,,,1,,,,,,,1,,,,,,,,,,,,,
null,,color_black8,1548844,,,,,,,,black_plus_sign,,,null,,,,,,,,,,,,,,,,,,,,,,,
null,,learn_phase(without_color)8,1552347,,,,,,,,black_plus_sign,,,null,object_10b.png,object_09b.png,,,,,,,,,,,,,,,,,,,,,
null,,black_cross(without_color)8,1553296,,,,,,,,green,,,null,object_10b.png,object_09b.png,,,,,,,,,,,,,,,,,,,,,
null,,rt_plussign_withcolor8,1553797,,,,,,,,green,,,null,object_10b.png,object_09b.png,,,,,,,,,,,,,,,,,,,,,
829.5,,rt_thecrossant_black8,1554861,,,,,,,,black_plus_sign,,,50,,,1,,,,,,,1,,,,,,,,,,,,,
null,,color_black8,1554963,,,,,,,,black_plus_sign,,,null,,,,,,,,,,,,,,,,,,,,,,,
null,,learn_phase(without_color)8,1558464,,,,,,,,black_plus_sign,,,null,object_15c.png,object_04a.png,,,,,,,,,,,,,,,,,,,,,
null,,black_cross(without_color)8,1558927,,,,,,,,blue,,,null,object_15c.png,object_04a.png,,,,,,,,,,,,,,,,,,,,,
null,,rt_plussign_withcolor8,1559428,,,,,,,,blue,,,null,object_15c.png,object_04a.png,,,,,,,,,,,,,,,,,,,,,
1425.699999988079,,rt_thecrossant_black8,1560970,,,,,,,,black_plus_sign,,,49,,,1,,,,,,,1,,,,,,,,,,,,,
null,,color_black8,1561072,,,,,,,,black_plus_sign,,,null,,,,,,,,,,,,,,,,,,,,,,,
null,,learn_phase(without_color)8,1564574,,,,,,,,black_plus_sign,,,null,object_02c.png,object_11b.png,,,,,,,,,,,,,,,,,,,,,
null,,black_cross(without_color)8,1565177,,,,,,,,blue,,,null,object_02c.png,object_11b.png,,,,,,,,,,,,,,,,,,,,,
null,,rt_plussign_withcolor8,1565678,,,,,,,,blue,,,null,object_02c.png,object_11b.png,,,,,,,,,,,,,,,,,,,,,
673.1000000238419,,rt_thecrossant_black8,1567081,,,,,,,,black_plus_sign,,,49,,,1,,,,,,,1,,,,,,,,,,,,,
null,,color_black8,1567185,,,,,,,,black_plus_sign,,,null,,,,,,,,,,,,,,,,,,,,,,,
null,,thebreak,1567286,,,,,,,,<p></p>,,,null,,,,,,,,,,,,,,,,,,,,,,,
1448,,intro_0,1568735,,,,,,,,instruct,,,32,,,,,,,,,,,,,,,,,,,,,,,
2999.5,,directmemory_phase8,1571736,,,,,,,,object_07b.png,,,49,,,1,,object_09a.png,object_04b.png,object_06a.png,object_09a.png,,0.8679245283018868,,1,,,,,,,,,,,
2542.2999999523163,,directmemory_phase8,1574280,,,,,,,,object_14a.png,,,50,,,1,,object_12c.png,object_10c.png,object_02b.png,object_10c.png,,0.8691588785046729,,1,,,,,,,,,,,
1662.5,,directmemory_phase8,1575944,,,,,,,,object_05a.png,,,49,,,1,,object_01a.png,object_12c.png,object_02b.png,object_01a.png,,0.8703703703703703,,1,,,,,,,,,,,
1934.5,,directmemory_phase8,1577880,,,,,,,,object_07c.png,,,49,,,1,,object_12c.png,object_06c.png,object_02c.png,object_12c.png,,0.8715596330275229,,1,,,,,,,,,,,
2030.5999999642372,,directmemory_phase8,1579912,,,,,,,,object_07a.png,,,49,,,1,,object_02b.png,object_10b.png,object_04b.png,object_02b.png,,0.8727272727272727,,1,,,,,,,,,,,
2542.300000011921,,directmemory_phase8,1582456,,,,,,,,object_04a.png,,,51,,,1,,object_09a.png,object_10b.png,object_15c.png,object_15c.png,,0.8738738738738738,,1,,,,,,,,,,,
2006,,directmemory_phase8,1584464,,,,,,,,object_06b.png,,,50,,,1,,object_06a.png,object_04b.png,object_02c.png,object_04b.png,,0.875,,1,,,,,,,,,,,
1854.199999988079,,directmemory_phase8,1586320,,,,,,,,object_03b.png,,,50,,,1,,object_02b.png,object_06c.png,object_15b.png,object_06c.png,,0.8761061946902655,,1,,,,,,,,,,,
1437.800000011921,,directmemory_phase8,1587760,,,,,,,,object_13b.png,,,49,,,1,,object_06a.png,object_11a.png,object_10b.png,object_06a.png,,0.8771929824561403,,1,,,,,,,,,,,
3390.099999964237,,directmemory_phase8,1591152,,,,,,,,object_11b.png,,,51,,,1,,object_09a.png,object_02b.png,object_02c.png,object_02c.png,,0.8782608695652174,,1,,,,,,,,,,,
1350.5,,directmemory_phase8,1592504,,,,,,,,object_15a.png,,,50,,,1,,object_06a.png,object_11c.png,object_02b.png,object_11c.png,,0.8793103448275862,,1,,,,,,,,,,,
1486.300000011921,,directmemory_phase8,1593992,,,,,,,,object_08c.png,,,50,,,1,,object_02c.png,object_11a.png,object_01a.png,object_11a.png,,0.8803418803418803,,1,,,,,,,,,,,
1934.0999999642372,,directmemory_phase8,1595928,,,,,,,,object_09b.png,,,50,,,1,,object_01a.png,object_10b.png,object_06a.png,object_10b.png,,0.8813559322033898,,1,,,,,,,,,,,
3438.5,,directmemory_phase8,1599368,,,,,,,,object_02a.png,,,50,,,1,,object_11a.png,object_13c.png,object_01a.png,object_13c.png,,0.8823529411764706,,1,,,,,,,,,,,
1886.199999988079,,directmemory_phase8,1601256,,,,,,,,object_04c.png,,,49,,,1,,object_15b.png,object_04b.png,object_15c.png,object_15b.png,,0.8833333333333333,,1,,,,,,,,,,,
null,,thebreak,1601359,,,,,,,,<p></p>,,,null,,,,,,,,,,,,,,,,,,,,,,,
14063.800000011921,,intro_0,1615424,,,,,,,,instruct,,,32,,,,,,,,,,,,,,,,,,,,,,,
25439,,intro_1,1640864,,,,,,,,instruct,,,32,,,,,,,,,,,,,,,,,,,,,,,
4263,,intro_2,1645127,,,,,,,,instruct,,,32,,,,,,,,,,,,,,,,,,,,,,,
,,intro_3,1672951,,,,,,,,instruct,,,,,,,,,,,,,,,,,,,,,,,,,,
5726.899999976158,,intro_4,1678679,,,,,,,,instruct,,,32,,,,,,,,,,,,,,,,,,,,,,,
6703,,inference_phase,1685383,,,,,,,,object_04c.png,,,50,object_08b.png,object_01c.png,1,,,,,object_08a.png,,1,,,object_08a.png,,,,,,,,,,
13390.300000011921,,inference_phase,1698776,,,,,,,,object_08c.png,,,49,object_01b.png,object_01c.png,1,,,,,object_01b.png,,1,,,object_08b.png,,,,,,,,,,
8341.900000035763,,inference_phase,1707119,,,,,,,,object_09b.png,,,49,object_05c.png,object_03c.png,1,,,,,object_05c.png,,1,,,object_08b.png,,,,,,,,,,
7630.199999988079,,inference_phase,1714751,,,,,,,,object_13b.png,,,49,object_05c.png,object_08a.png,0,,,,,object_08b.png,,0.75,,,object_08b.png,,,,,,,,,,
4870.100000023842,,inference_phase,1719623,,,,,,,,object_02a.png,,,51,object_01c.png,object_05b.png,1,,,,,object_05b.png,,0.8,,,object_14b.png,,,,,,,,,,
7790.800000011921,,inference_phase,1727415,,,,,,,,object_04a.png,,,50,object_14c.png,object_13a.png,0,,,,,object_14c.png,,0.6666666666666666,,,object_01b.png,,,,,,,,,,
6126.300000011921,,inference_phase,1733543,,,,,,,,object_06b.png,,,49,object_12b.png,object_05b.png,0,,,,,object_14b.png,,0.5714285714285714,,,object_14b.png,,,,,,,,,,
8838.399999976158,,inference_phase,1742383,,,,,,,,object_11b.png,,,51,object_09c.png,object_05c.png,0,,,,,object_09c.png,,0.5,,,object_12b.png,,,,,,,,,,
