rt,responses,trial_type,time_elapsed,identifier_a,identifier_b,identifier_c,tasktype,browser_type,local_time,UTC_time,stimulus,button_pressed,response,key_press,failed_practice,stimulus_left,stimulus_right,accuracy,practice_cumulative_accuracy,stimulus_down_left,stimulus_down_mid,stimulus_down_right,stimulus_correct,prac_weighted_accuracy,cumulative_accuracy,weighted_accuracy,stimulus_middle,problems,smooth,distraction,strategies,easier,similar,comments,detectfocus,breakfocus,completion_code
21953.5,{worker_id:67bf6326e670ee883ebed99c},id_enter,21958,object_12b.png; object_05b.png; object_07a.png; object_07c.png; object_11b.png; object_09a.png; object_10a.png; object_13c.png; object_01a.png; object_04a.png; object_05c.png; object_06c.png; object_06a.png; object_04b.png; object_02b.png,object_09b.png; object_02c.png; object_09c.png; object_14b.png; object_12a.png; object_08c.png; object_07b.png; object_15c.png; object_13b.png; object_15a.png; object_14c.png; object_08b.png; object_10c.png; object_05a.png; object_15b.png,object_12c.png; object_06b.png; object_01b.png; object_03a.png; object_04c.png; object_01c.png; object_03b.png; object_03c.png; object_02a.png; object_13a.png; object_08a.png; object_10b.png; object_11c.png; object_11a.png; object_14a.png,interleaved,Mozilla/5.0 (Windows NT 10.0; Win64; x64) AppleWebKit/537.36 (KHTML, like Gecko) Chrome/135.0.0.0 Safari/537.36,4/28/2025, 9:34:43 AM,2025-04-28 16:34:43.820,,,,,,,,,,,,,,,,,,,,,,,,,,,
18056.70000000298,,make_fullscreen,40049,,,,,,,,fullscreen,0,,,,,,,,,,,,,,,,,,,,,,,,,
13504,,instruct_1,53559,,,,,,,,instruct,0,Next,,,,,,,,,,,,,,,,,,,,,,,,
13928.5,,instruct_2,67491,,,,,,,,instruct,1,Next,,,,,,,,,,,,,,,,,,,,,,,,
13934.60000000894,,instruct_3,81428,,,,,,,,instruct,1,Next,,,,,,,,,,,,,,,,,,,,,,,,
22371.09999999404,,instruct_4,103802,,,,,,,,instruct,1,Next,,,,,,,,,,,,,,,,,,,,,,,,
11697.29999999702,,instruct_5,115504,,,,,,,,instruct,1,Next,,,,,,,,,,,,,,,,,,,,,,,,
5811.0999999940395,,instruct_6,121319,,,,,,,,instruct,1,Next,,,,,,,,,,,,,,,,,,,,,,,,
78654.30000001192,,instruct_7,199976,,,,,,,,instruct,1,Next,,,,,,,,,,,,,,,,,,,,,,,,
null,,prac_atten_color_black,200295,,,,,,,,black_plus_sign,,,null,,,,,,,,,,,,,,,,,,,,,,,
null,,prac_atten_color,201388,,,,,,,,<p style='position:absolute;top: 50%;right: 50%;transform: translate(50%, -50%);font-size: 125px;color: blue;'>+</p>,,,null,,,,,,,,,,,,,,,,,,,,,,,
null,,prac_atten_color_black,203390,,,,,,,,black_plus_sign,,,null,,,,,,,,,,,,,,,,,,,,,,,
10282.09999999404,,attentioncheck_help,213677,,,,,,,,instruct,,,32,,,,,,,,,,,,,,,,,,,,,,,
null,,prac_atten_color_black,213992,,,,,,,,black_plus_sign,,,null,,,,,,,,,,,,,,,,,,,,,,,
null,,prac_atten_color,214410,,,,,,,,<p style='position:absolute;top: 50%;right: 50%;transform: translate(50%, -50%);font-size: 125px;color: green;'>+</p>,,,null,,,,,,,,,,,,,,,,,,,,,,,
null,,prac_atten_color_black,216412,,,,,,,,black_plus_sign,,,null,,,,,,,,,,,,,,,,,,,,,,,
28878.90000000596,,attentioncheck_help,245294,,,,,,,,instruct,,,32,,,,,,,,,,,,,,,,,,,,,,,
null,,prac_atten_color_black,246283,,,,,,,,black_plus_sign,,,null,,,,,,,,,,,,,,,,,,,,,,,
null,,prac_atten_color,246957,,,,,,,,<p style='position:absolute;top: 50%;right: 50%;transform: translate(50%, -50%);font-size: 125px;color: green;'>+</p>,,,null,,,,,,,,,,,,,,,,,,,,,,,
null,,prac_atten_color_black,248959,,,,,,,,black_plus_sign,,,null,,,,,,,,,,,,,,,,,,,,,,,
8186.20000000298,,attentioncheck_help,257148,,,,,,,,instruct,,,32,,,,,,,,,,,,,,,,,,,,,,,
null,,prac_atten_color_black,257880,,,,,,,,black_plus_sign,,,null,,,,,,,,,,,,,,,,,,,,,,,
null,,prac_atten_color,258419,,,,,,,,<p style='position:absolute;top: 50%;right: 50%;transform: translate(50%, -50%);font-size: 125px;color: blue;'>+</p>,,,null,,,,,,,,,,,,,,,,,,,,,,,
null,,prac_atten_color_black,260421,,,,,,,,black_plus_sign,,,null,,,,,,,,,,,,,,,,,,,,,,,
5796.300000011921,,attentioncheck_help,266221,,,,,,,,instruct,,,32,,,,,,,,,,,,,,,,,,,,,,,
null,,prac_atten_color_black,267087,,,,,,,,black_plus_sign,,,null,,,,,,,,,,,,,,,,,,,,,,,
null,,prac_atten_color,268168,,,,,,,,<p style='position:absolute;top: 50%;right: 50%;transform: translate(50%, -50%);font-size: 125px;color: green;'>+</p>,,,null,,,,,,,,,,,,,,,,,,,,,,,
null,,prac_atten_color_black,270171,,,,,,,,black_plus_sign,,,null,,,,,,,,,,,,,,,,,,,,,,,
11425.199999988079,,attentioncheck_help,281599,,,,,,,,instruct,,,32,,,,,,,,,,,,,,,,,,,,,,,
null,,prac_atten_color_black,281925,,,,,,,,black_plus_sign,,,null,,,,,,,,,,,,,,,,,,,,,,,
null,,prac_atten_color,282338,,,,,,,,<p style='position:absolute;top: 50%;right: 50%;transform: translate(50%, -50%);font-size: 125px;color: green;'>+</p>,,,null,,,,,,,,,,,,,,,,,,,,,,,
642.1000000089407,,prac_atten_color_black,284340,,,,,,,,black_plus_sign,,,50,,,,,,,,,,,,,,,,,,,,,,,
null,,prac_atten_color_black,285345,,,,,,,,black_plus_sign,,,null,,,,,,,,,,,,,,,,,,,,,,,
null,,prac_atten_color,285879,,,,,,,,<p style='position:absolute;top: 50%;right: 50%;transform: translate(50%, -50%);font-size: 125px;color: blue;'>+</p>,,,null,,,,,,,,,,,,,,,,,,,,,,,
321.40000000596046,,prac_atten_color_black,287882,,,,,,,,black_plus_sign,,,49,,,,,,,,,,,,,,,,,,,,,,,
null,,prac_atten_color_black,288760,,,,,,,,black_plus_sign,,,null,,,,,,,,,,,,,,,,,,,,,,,
null,,prac_atten_color,289252,,,,,,,,<p style='position:absolute;top: 50%;right: 50%;transform: translate(50%, -50%);font-size: 125px;color: green;'>+</p>,,,null,,,,,,,,,,,,,,,,,,,,,,,
180.90000000596046,,prac_atten_color_black,291254,,,,,,,,black_plus_sign,,,50,,,,,,,,,,,,,,,,,,,,,,,
null,,prac_atten_color_black,292168,,,,,,,,black_plus_sign,,,null,,,,,,,,,,,,,,,,,,,,,,,
721.1000000089407,,prac_atten_color,293004,,,,,,,,<p style='position:absolute;top: 50%;right: 50%;transform: translate(50%, -50%);font-size: 125px;color: blue;'>+</p>,,,49,,,,,,,,,,,,,,,,,,,,,,,
null,,prac_atten_color_black,295007,,,,,,,,black_plus_sign,,,null,,,,,,,,,,,,,,,,,,,,,,,
null,,prac_atten_color_black,295580,,,,,,,,black_plus_sign,,,null,,,,,,,,,,,,,,,,,,,,,,,
null,,prac_atten_color,296384,,,,,,,,<p style='position:absolute;top: 50%;right: 50%;transform: translate(50%, -50%);font-size: 125px;color: blue;'>+</p>,,,null,,,,,,,,,,,,,,,,,,,,,,,
78.1000000089407,,prac_atten_color_black,298387,,,,,,,,black_plus_sign,,,49,,,,,,,,,,,,,,,,,,,,,,,
27358.70000000298,,attentioncheck_feedback,325750,,,,,,,,cross_check_feedback,0,,,1,,,,,,,,,,,,,,,,,,,,,,
null,,prac_atten_color_black,326370,,,,,,,,black_plus_sign,,,null,,,,,,,,,,,,,,,,,,,,,,,
775,,prac_atten_color,327156,,,,,,,,<p style='position:absolute;top: 50%;right: 50%;transform: translate(50%, -50%);font-size: 125px;color: blue;'>+</p>,,,49,,,,,,,,,,,,,,,,,,,,,,,
null,,prac_atten_color_black,329159,,,,,,,,black_plus_sign,,,null,,,,,,,,,,,,,,,,,,,,,,,
null,,prac_atten_color_black,329779,,,,,,,,black_plus_sign,,,null,,,,,,,,,,,,,,,,,,,,,,,
null,,prac_atten_color,330277,,,,,,,,<p style='position:absolute;top: 50%;right: 50%;transform: translate(50%, -50%);font-size: 125px;color: green;'>+</p>,,,null,,,,,,,,,,,,,,,,,,,,,,,
291.29999999701977,,prac_atten_color_black,332279,,,,,,,,black_plus_sign,,,50,,,,,,,,,,,,,,,,,,,,,,,
null,,prac_atten_color_black,333189,,,,,,,,black_plus_sign,,,null,,,,,,,,,,,,,,,,,,,,,,,
804,,prac_atten_color,334126,,,,,,,,<p style='position:absolute;top: 50%;right: 50%;transform: translate(50%, -50%);font-size: 125px;color: green;'>+</p>,,,50,,,,,,,,,,,,,,,,,,,,,,,
null,,prac_atten_color_black,336129,,,,,,,,black_plus_sign,,,null,,,,,,,,,,,,,,,,,,,,,,,
null,,prac_atten_color_black,336601,,,,,,,,black_plus_sign,,,null,,,,,,,,,,,,,,,,,,,,,,,
695.7999999970198,,prac_atten_color,337426,,,,,,,,<p style='position:absolute;top: 50%;right: 50%;transform: translate(50%, -50%);font-size: 125px;color: blue;'>+</p>,,,49,,,,,,,,,,,,,,,,,,,,,,,
null,,prac_atten_color_black,339428,,,,,,,,black_plus_sign,,,null,,,,,,,,,,,,,,,,,,,,,,,
null,,prac_atten_color_black,340011,,,,,,,,black_plus_sign,,,null,,,,,,,,,,,,,,,,,,,,,,,
722.7999999970198,,prac_atten_color,340975,,,,,,,,<p style='position:absolute;top: 50%;right: 50%;transform: translate(50%, -50%);font-size: 125px;color: green;'>+</p>,,,50,,,,,,,,,,,,,,,,,,,,,,,
null,,prac_atten_color_black,342977,,,,,,,,black_plus_sign,,,null,,,,,,,,,,,,,,,,,,,,,,,
null,,prac_atten_color_black,343418,,,,,,,,black_plus_sign,,,null,,,,,,,,,,,,,,,,,,,,,,,
null,,prac_atten_color,343847,,,,,,,,<p style='position:absolute;top: 50%;right: 50%;transform: translate(50%, -50%);font-size: 125px;color: green;'>+</p>,,,null,,,,,,,,,,,,,,,,,,,,,,,
443.30000001192093,,prac_atten_color_black,345849,,,,,,,,black_plus_sign,,,50,,,,,,,,,,,,,,,,,,,,,,,
null,,prac_atten_color_black,346838,,,,,,,,black_plus_sign,,,null,,,,,,,,,,,,,,,,,,,,,,,
700.7000000029802,,prac_atten_color,347757,,,,,,,,<p style='position:absolute;top: 50%;right: 50%;transform: translate(50%, -50%);font-size: 125px;color: blue;'>+</p>,,,49,,,,,,,,,,,,,,,,,,,,,,,
null,,prac_atten_color_black,349759,,,,,,,,black_plus_sign,,,null,,,,,,,,,,,,,,,,,,,,,,,
null,,prac_atten_color_black,350249,,,,,,,,black_plus_sign,,,null,,,,,,,,,,,,,,,,,,,,,,,
727.3000000119209,,prac_atten_color,351233,,,,,,,,<p style='position:absolute;top: 50%;right: 50%;transform: translate(50%, -50%);font-size: 125px;color: green;'>+</p>,,,50,,,,,,,,,,,,,,,,,,,,,,,
null,,prac_atten_color_black,353235,,,,,,,,black_plus_sign,,,null,,,,,,,,,,,,,,,,,,,,,,,
null,,prac_atten_color_black,353657,,,,,,,,black_plus_sign,,,null,,,,,,,,,,,,,,,,,,,,,,,
null,,prac_atten_color,354076,,,,,,,,<p style='position:absolute;top: 50%;right: 50%;transform: translate(50%, -50%);font-size: 125px;color: blue;'>+</p>,,,null,,,,,,,,,,,,,,,,,,,,,,,
296.5,,prac_atten_color_black,356078,,,,,,,,black_plus_sign,,,49,,,,,,,,,,,,,,,,,,,,,,,
null,,prac_atten_color_black,357065,,,,,,,,black_plus_sign,,,null,,,,,,,,,,,,,,,,,,,,,,,
null,,prac_atten_color,357678,,,,,,,,<p style='position:absolute;top: 50%;right: 50%;transform: translate(50%, -50%);font-size: 125px;color: blue;'>+</p>,,,null,,,,,,,,,,,,,,,,,,,,,,,
159.8999999910593,,prac_atten_color_black,359680,,,,,,,,black_plus_sign,,,49,,,,,,,,,,,,,,,,,,,,,,,
22362.19999998808,,attentioncheck_feedback,382045,,,,,,,,cross_check_feedback,0,,,,,,,,,,,,,,,,,,,,,,,,,
25747.60000000894,,last_instruct,407794,,,,,,,,instruct,,,32,,,,,,,,,,,,,,,,,,,,,,,
null,,prac_learn_phase(without_color),411296,,,,,,,,black_plus_sign,,,null,,object_08b.png,object_10b.png,,,,,,,,,,,,,,,,,,,,
null,,prac_black_cross(without_color),412020,,,,,,,,blue,,,null,,object_08b.png,object_10b.png,,,,,,,,,,,,,,,,,,,,
null,,prac_rt_plussign_withcolor,412523,,,,,,,,blue,,,null,,object_08b.png,object_10b.png,,,,,,,,,,,,,,,,,,,,
1426.7000000029802,,prac_rt_thecrossant_black,413806,,,,,,,,black_plus_sign,,,49,,,,1,1,,,,,,,,,,,,,,,,,,
null,,prac_color_black,413910,,,,,,,,black_plus_sign,,,null,,,,,,,,,,,,,,,,,,,,,,,
null,,prac_learn_phase(without_color),417427,,,,,,,,black_plus_sign,,,null,,object_04b.png,object_05a.png,,,,,,,,,,,,,,,,,,,,
null,,black_cross(without_color)1,418362,,,,,,,,blue,,,null,,object_08b.png,object_10b.png,,,,,,,,,,,,,,,,,,,,
null,,prac_rt_plussign_withcolor,418865,,,,,,,,green,,,null,,object_04b.png,object_05a.png,,,,,,,,,,,,,,,,,,,,
1563.800000011921,,prac_rt_thecrossant_black,419838,,,,,,,,black_plus_sign,,,50,,,,1,1,,,,,,,,,,,,,,,,,,
null,,prac_color_black,419941,,,,,,,,black_plus_sign,,,null,,,,,,,,,,,,,,,,,,,,,,,
null,,prac_learn_phase(without_color),423451,,,,,,,,black_plus_sign,,,null,,object_04a.png,object_15a.png,,,,,,,,,,,,,,,,,,,,
null,,black_cross(without_color)1,424386,,,,,,,,blue,,,null,,object_08b.png,object_10b.png,,,,,,,,,,,,,,,,,,,,
null,,prac_rt_plussign_withcolor,424889,,,,,,,,blue,,,null,,object_04a.png,object_15a.png,,,,,,,,,,,,,,,,,,,,
1533.1000000089407,,prac_rt_thecrossant_black,425797,,,,,,,,black_plus_sign,,,49,,,,1,1,,,,,,,,,,,,,,,,,,
null,,prac_color_black,425901,,,,,,,,black_plus_sign,,,null,,,,,,,,,,,,,,,,,,,,,,,
null,,prac_learn_phase(without_color),429405,,,,,,,,black_plus_sign,,,null,,object_10a.png,object_07b.png,,,,,,,,,,,,,,,,,,,,
null,,black_cross(without_color)1,430339,,,,,,,,blue,,,null,,object_08b.png,object_10b.png,,,,,,,,,,,,,,,,,,,,
null,,prac_rt_plussign_withcolor,430841,,,,,,,,green,,,null,,object_10a.png,object_07b.png,,,,,,,,,,,,,,,,,,,,
1486.2999999970198,,prac_rt_thecrossant_black,432155,,,,,,,,black_plus_sign,,,50,,,,1,1,,,,,,,,,,,,,,,,,,
null,,prac_color_black,432259,,,,,,,,black_plus_sign,,,null,,,,,,,,,,,,,,,,,,,,,,,
9119.800000011921,,instruct_dir_01,441383,,,,,,,,instruct,0,Next,,,,,,,,,,,,,,,,,,,,,,,,
12846.09999999404,,instruct_dir_2,454233,,,,,,,,instruct,1,Next,,,,,,,,,,,,,,,,,,,,,,,,
6815.600000008941,,instruct_dir_3,461051,,,,,,,,instruct,1,Next,,,,,,,,,,,,,,,,,,,,,,,,
9105.5,,instruct_dir_4,470160,,,,,,,,instruct,1,Start,,,,,,,,,,,,,,,,,,,,,,,,
null,,thebreak,470264,,,,,,,,<p></p>,,,null,,,,,,,,,,,,,,,,,,,,,,,
3202.7000000029802,,intro_0,473470,,,,,,,,instruct,,,32,,,,,,,,,,,,,,,,,,,,,,,
5270.5999999940395,,prac_directmemory_phase,478744,,,,,,,,practice/object_02b.png,,,51,,,,1,,practice/object_01a.png,practice/object_04a.png,practice/object_02a.png,practice/object_02a.png,1,1,,,,,,,,,,,,
2641.5,,prac_directmemory_phase,481393,,,,,,,,practice/object_03b.png,,,50,,,,1,,practice/object_01a.png,practice/object_03a.png,practice/object_02a.png,practice/object_03a.png,1,1,,,,,,,,,,,,
2079.6000000089407,,prac_directmemory_phase,483476,,,,,,,,practice/object_01b.png,,,49,,,,1,,practice/object_01a.png,practice/object_03a.png,practice/object_04a.png,practice/object_01a.png,1,1,,,,,,,,,,,,
2958.7999999970198,,prac_directmemory_phase,486438,,,,,,,,practice/object_04b.png,,,51,,,,1,,practice/object_01a.png,practice/object_02a.png,practice/object_04a.png,practice/object_04a.png,1,1,,,,,,,,,,,,
12122.699999988079,,practice_feedback,498563,,,,,,,,practice_feedback,1,,,,,,,,,,,,,,,,,,,,,,,,,
16278.09999999404,,proceed_actualTask,514843,,,,,,,,proceed_actualTask,1,Continue,,,,,,,,,,,,,,,,,,,,,,,,
43907.09999999404,,last_inst,558752,,,,,,,,last_inst,,,32,,,,,,,,,,,,,,,,,,,,,,,
null,,learn_phase(without_color)1,562254,,,,,,,,black_plus_sign,,,null,,object_08b.png,object_10b.png,,,,,,,,,,,,,,,,,,,,
null,,black_cross(without_color)1,563190,,,,,,,,blue,,,null,,object_08b.png,object_10b.png,,,,,,,,,,,,,,,,,,,,
null,,rt_plussign_withcolor1,563692,,,,,,,,blue,,,null,,object_08b.png,object_10b.png,,,,,,,,,,,,,,,,,,,,
1683.5,,rt_thecrossant_black1,564765,,,,,,,,black_plus_sign,,,49,,,,1,,,,,,,1,,,,,,,,,,,,
null,,color_black1,564868,,,,,,,,black_plus_sign,,,null,,,,,,,,,,,,,,,,,,,,,,,
null,,learn_phase(without_color)1,568370,,,,,,,,black_plus_sign,,,null,,object_04b.png,object_05a.png,,,,,,,,,,,,,,,,,,,,
null,,black_cross(without_color)1,569304,,,,,,,,green,,,null,,object_04b.png,object_05a.png,,,,,,,,,,,,,,,,,,,,
null,,rt_plussign_withcolor1,569807,,,,,,,,green,,,null,,object_04b.png,object_05a.png,,,,,,,,,,,,,,,,,,,,
1228.7999999970198,,rt_thecrossant_black1,570880,,,,,,,,black_plus_sign,,,50,,,,1,,,,,,,1,,,,,,,,,,,,
null,,color_black1,570984,,,,,,,,black_plus_sign,,,null,,,,,,,,,,,,,,,,,,,,,,,
null,,learn_phase(without_color)1,574487,,,,,,,,black_plus_sign,,,null,,object_04a.png,object_15a.png,,,,,,,,,,,,,,,,,,,,
null,,black_cross(without_color)1,575082,,,,,,,,blue,,,null,,object_04a.png,object_15a.png,,,,,,,,,,,,,,,,,,,,
null,,rt_plussign_withcolor1,575584,,,,,,,,blue,,,null,,object_04a.png,object_15a.png,,,,,,,,,,,,,,,,,,,,
1269.4000000059605,,rt_thecrossant_black1,576996,,,,,,,,black_plus_sign,,,49,,,,1,,,,,,,1,,,,,,,,,,,,
null,,color_black1,577114,,,,,,,,black_plus_sign,,,null,,,,,,,,,,,,,,,,,,,,,,,
null,,learn_phase(without_color)1,580619,,,,,,,,black_plus_sign,,,null,,object_10a.png,object_07b.png,,,,,,,,,,,,,,,,,,,,
null,,black_cross(without_color)1,581056,,,,,,,,blue,,,null,,object_10a.png,object_07b.png,,,,,,,,,,,,,,,,,,,,
null,,rt_plussign_withcolor1,581559,,,,,,,,blue,,,null,,object_10a.png,object_07b.png,,,,,,,,,,,,,,,,,,,,
1046.2999999970198,,rt_thecrossant_black1,583132,,,,,,,,black_plus_sign,,,49,,,,1,,,,,,,1,,,,,,,,,,,,
null,,color_black1,583235,,,,,,,,black_plus_sign,,,null,,,,,,,,,,,,,,,,,,,,,,,
null,,learn_phase(without_color)1,586738,,,,,,,,black_plus_sign,,,null,,object_09c.png,object_01b.png,,,,,,,,,,,,,,,,,,,,
null,,black_cross(without_color)1,587689,,,,,,,,green,,,null,,object_09c.png,object_01b.png,,,,,,,,,,,,,,,,,,,,
null,,rt_plussign_withcolor1,588192,,,,,,,,green,,,null,,object_09c.png,object_01b.png,,,,,,,,,,,,,,,,,,,,
1092.6000000089407,,rt_thecrossant_black1,589257,,,,,,,,black_plus_sign,,,50,,,,1,,,,,,,1,,,,,,,,,,,,
null,,color_black1,589360,,,,,,,,black_plus_sign,,,null,,,,,,,,,,,,,,,,,,,,,,,
null,,learn_phase(without_color)1,592863,,,,,,,,black_plus_sign,,,null,,object_06c.png,object_08b.png,,,,,,,,,,,,,,,,,,,,
null,,black_cross(without_color)1,593444,,,,,,,,green,,,null,,object_06c.png,object_08b.png,,,,,,,,,,,,,,,,,,,,
null,,rt_plussign_withcolor1,593946,,,,,,,,green,,,null,,object_06c.png,object_08b.png,,,,,,,,,,,,,,,,,,,,
1377.6000000089407,,rt_thecrossant_black1,595383,,,,,,,,black_plus_sign,,,49,,,,0,,,,,,,0.8333333333333334,,,,,,,,,,,,
null,,color_black1,595487,,,,,,,,black_plus_sign,,,null,,,,,,,,,,,,,,,,,,,,,,,
null,,learn_phase(without_color)1,598991,,,,,,,,black_plus_sign,,,null,,object_12b.png,object_09b.png,,,,,,,,,,,,,,,,,,,,
null,,black_cross(without_color)1,599786,,,,,,,,blue,,,null,,object_12b.png,object_09b.png,,,,,,,,,,,,,,,,,,,,
null,,rt_plussign_withcolor1,600289,,,,,,,,blue,,,null,,object_12b.png,object_09b.png,,,,,,,,,,,,,,,,,,,,
1851.1000000089407,,rt_thecrossant_black1,601498,,,,,,,,black_plus_sign,,,49,,,,1,,,,,,,0.8571428571428571,,,,,,,,,,,,
null,,color_black1,601609,,,,,,,,black_plus_sign,,,null,,,,,,,,,,,,,,,,,,,,,,,
null,,learn_phase(without_color)1,605114,,,,,,,,black_plus_sign,,,null,,object_07a.png,object_09c.png,,,,,,,,,,,,,,,,,,,,
null,,black_cross(without_color)1,605624,,,,,,,,blue,,,null,,object_07a.png,object_09c.png,,,,,,,,,,,,,,,,,,,,
null,,rt_plussign_withcolor1,606127,,,,,,,,blue,,,null,,object_07a.png,object_09c.png,,,,,,,,,,,,,,,,,,,,
1504.2999999970198,,rt_thecrossant_black1,607625,,,,,,,,black_plus_sign,,,49,,,,1,,,,,,,0.875,,,,,,,,,,,,
null,,color_black1,607729,,,,,,,,black_plus_sign,,,null,,,,,,,,,,,,,,,,,,,,,,,
null,,learn_phase(without_color)1,611232,,,,,,,,black_plus_sign,,,null,,object_06a.png,object_10c.png,,,,,,,,,,,,,,,,,,,,
null,,black_cross(without_color)1,612310,,,,,,,,green,,,null,,object_06a.png,object_10c.png,,,,,,,,,,,,,,,,,,,,
null,,rt_plussign_withcolor1,612814,,,,,,,,green,,,null,,object_06a.png,object_10c.png,,,,,,,,,,,,,,,,,,,,
1012.5999999940395,,rt_thecrossant_black1,613744,,,,,,,,black_plus_sign,,,50,,,,1,,,,,,,0.8888888888888888,,,,,,,,,,,,
null,,color_black1,613848,,,,,,,,black_plus_sign,,,null,,,,,,,,,,,,,,,,,,,,,,,
null,,learn_phase(without_color)1,617351,,,,,,,,black_plus_sign,,,null,,object_05c.png,object_14c.png,,,,,,,,,,,,,,,,,,,,
null,,black_cross(without_color)1,618384,,,,,,,,blue,,,null,,object_05c.png,object_14c.png,,,,,,,,,,,,,,,,,,,,
null,,rt_plussign_withcolor1,618887,,,,,,,,blue,,,null,,object_05c.png,object_14c.png,,,,,,,,,,,,,,,,,,,,
1460.1000000089407,,rt_thecrossant_black1,619861,,,,,,,,black_plus_sign,,,49,,,,1,,,,,,,0.9,,,,,,,,,,,,
null,,color_black1,619964,,,,,,,,black_plus_sign,,,null,,,,,,,,,,,,,,,,,,,,,,,
null,,learn_phase(without_color)1,623469,,,,,,,,black_plus_sign,,,null,,object_09a.png,object_08c.png,,,,,,,,,,,,,,,,,,,,
null,,black_cross(without_color)1,624075,,,,,,,,blue,,,null,,object_09a.png,object_08c.png,,,,,,,,,,,,,,,,,,,,
null,,rt_plussign_withcolor1,624578,,,,,,,,blue,,,null,,object_09a.png,object_08c.png,,,,,,,,,,,,,,,,,,,,
1323.9000000059605,,rt_thecrossant_black1,625983,,,,,,,,black_plus_sign,,,49,,,,1,,,,,,,0.9090909090909091,,,,,,,,,,,,
null,,color_black1,626087,,,,,,,,black_plus_sign,,,null,,,,,,,,,,,,,,,,,,,,,,,
null,,learn_phase(without_color)1,629590,,,,,,,,black_plus_sign,,,null,,object_15c.png,object_03c.png,,,,,,,,,,,,,,,,,,,,
null,,black_cross(without_color)1,630454,,,,,,,,blue,,,null,,object_15c.png,object_03c.png,,,,,,,,,,,,,,,,,,,,
null,,rt_plussign_withcolor1,630956,,,,,,,,blue,,,null,,object_15c.png,object_03c.png,,,,,,,,,,,,,,,,,,,,
1016.5,,rt_thecrossant_black1,632099,,,,,,,,black_plus_sign,,,49,,,,1,,,,,,,0.9166666666666666,,,,,,,,,,,,
null,,color_black1,632203,,,,,,,,black_plus_sign,,,null,,,,,,,,,,,,,,,,,,,,,,,
null,,learn_phase(without_color)1,635708,,,,,,,,black_plus_sign,,,null,,object_07c.png,object_14b.png,,,,,,,,,,,,,,,,,,,,
null,,black_cross(without_color)1,636359,,,,,,,,blue,,,null,,object_07c.png,object_14b.png,,,,,,,,,,,,,,,,,,,,
null,,rt_plussign_withcolor1,636865,,,,,,,,blue,,,null,,object_07c.png,object_14b.png,,,,,,,,,,,,,,,,,,,,
1427.199999988079,,rt_thecrossant_black1,638227,,,,,,,,black_plus_sign,,,49,,,,1,,,,,,,0.9230769230769231,,,,,,,,,,,,
null,,color_black1,638331,,,,,,,,black_plus_sign,,,null,,,,,,,,,,,,,,,,,,,,,,,
null,,learn_phase(without_color)1,641836,,,,,,,,black_plus_sign,,,null,,object_15b.png,object_14a.png,,,,,,,,,,,,,,,,,,,,
null,,black_cross(without_color)1,642297,,,,,,,,green,,,null,,object_15b.png,object_14a.png,,,,,,,,,,,,,,,,,,,,
null,,rt_plussign_withcolor1,642800,,,,,,,,green,,,null,,object_15b.png,object_14a.png,,,,,,,,,,,,,,,,,,,,
1670.0999999940395,,rt_thecrossant_black1,644348,,,,,,,,black_plus_sign,,,50,,,,1,,,,,,,0.9285714285714286,,,,,,,,,,,,
null,,color_black1,644453,,,,,,,,black_plus_sign,,,null,,,,,,,,,,,,,,,,,,,,,,,
null,,learn_phase(without_color)1,647957,,,,,,,,black_plus_sign,,,null,,object_07b.png,object_03b.png,,,,,,,,,,,,,,,,,,,,
null,,black_cross(without_color)1,648614,,,,,,,,green,,,null,,object_07b.png,object_03b.png,,,,,,,,,,,,,,,,,,,,
null,,rt_plussign_withcolor1,649118,,,,,,,,green,,,null,,object_07b.png,object_03b.png,,,,,,,,,,,,,,,,,,,,
858.0999999940395,,rt_thecrossant_black1,650470,,,,,,,,black_plus_sign,,,50,,,,1,,,,,,,0.9333333333333333,,,,,,,,,,,,
null,,color_black1,650574,,,,,,,,black_plus_sign,,,null,,,,,,,,,,,,,,,,,,,,,,,
null,,learn_phase(without_color)1,654077,,,,,,,,black_plus_sign,,,null,,object_09b.png,object_12c.png,,,,,,,,,,,,,,,,,,,,
null,,black_cross(without_color)1,654963,,,,,,,,green,,,null,,object_09b.png,object_12c.png,,,,,,,,,,,,,,,,,,,,
null,,rt_plussign_withcolor1,655465,,,,,,,,green,,,null,,object_09b.png,object_12c.png,,,,,,,,,,,,,,,,,,,,
1542.5999999940395,,rt_thecrossant_black1,656585,,,,,,,,black_plus_sign,,,50,,,,1,,,,,,,0.9375,,,,,,,,,,,,
null,,color_black1,656688,,,,,,,,black_plus_sign,,,null,,,,,,,,,,,,,,,,,,,,,,,
null,,learn_phase(without_color)1,660192,,,,,,,,black_plus_sign,,,null,,object_13c.png,object_15c.png,,,,,,,,,,,,,,,,,,,,
null,,black_cross(without_color)1,661187,,,,,,,,blue,,,null,,object_13c.png,object_15c.png,,,,,,,,,,,,,,,,,,,,
null,,rt_plussign_withcolor1,661689,,,,,,,,blue,,,null,,object_13c.png,object_15c.png,,,,,,,,,,,,,,,,,,,,
1537.6000000089407,,rt_thecrossant_black1,662702,,,,,,,,black_plus_sign,,,50,,,,0,,,,,,,0.8823529411764706,,,,,,,,,,,,
null,,color_black1,662807,,,,,,,,black_plus_sign,,,null,,,,,,,,,,,,,,,,,,,,,,,
null,,learn_phase(without_color)1,666311,,,,,,,,black_plus_sign,,,null,,object_05a.png,object_11a.png,,,,,,,,,,,,,,,,,,,,
null,,black_cross(without_color)1,667314,,,,,,,,green,,,null,,object_05a.png,object_11a.png,,,,,,,,,,,,,,,,,,,,
null,,rt_plussign_withcolor1,667817,,,,,,,,green,,,null,,object_05a.png,object_11a.png,,,,,,,,,,,,,,,,,,,,
2063.9000000059605,,rt_thecrossant_black1,668820,,,,,,,,black_plus_sign,,,50,,,,1,,,,,,,0.8888888888888888,,,,,,,,,,,,
null,,color_black1,668924,,,,,,,,black_plus_sign,,,null,,,,,,,,,,,,,,,,,,,,,,,
null,,learn_phase(without_color)1,672429,,,,,,,,black_plus_sign,,,null,,object_12a.png,object_04c.png,,,,,,,,,,,,,,,,,,,,
null,,black_cross(without_color)1,673028,,,,,,,,green,,,null,,object_12a.png,object_04c.png,,,,,,,,,,,,,,,,,,,,
null,,rt_plussign_withcolor1,673531,,,,,,,,green,,,null,,object_12a.png,object_04c.png,,,,,,,,,,,,,,,,,,,,
1512.7999999970198,,rt_thecrossant_black1,674938,,,,,,,,black_plus_sign,,,50,,,,1,,,,,,,0.8947368421052632,,,,,,,,,,,,
null,,color_black1,675042,,,,,,,,black_plus_sign,,,null,,,,,,,,,,,,,,,,,,,,,,,
null,,learn_phase(without_color)1,678544,,,,,,,,black_plus_sign,,,null,,object_14c.png,object_08a.png,,,,,,,,,,,,,,,,,,,,
null,,black_cross(without_color)1,679116,,,,,,,,green,,,null,,object_14c.png,object_08a.png,,,,,,,,,,,,,,,,,,,,
null,,rt_plussign_withcolor1,679626,,,,,,,,green,,,null,,object_14c.png,object_08a.png,,,,,,,,,,,,,,,,,,,,
1243.5999999940395,,rt_thecrossant_black1,681061,,,,,,,,black_plus_sign,,,50,,,,1,,,,,,,0.9,,,,,,,,,,,,
null,,color_black1,681166,,,,,,,,black_plus_sign,,,null,,,,,,,,,,,,,,,,,,,,,,,
null,,learn_phase(without_color)1,684671,,,,,,,,black_plus_sign,,,null,,object_14b.png,object_03a.png,,,,,,,,,,,,,,,,,,,,
null,,black_cross(without_color)1,685314,,,,,,,,blue,,,null,,object_14b.png,object_03a.png,,,,,,,,,,,,,,,,,,,,
null,,rt_plussign_withcolor1,685818,,,,,,,,blue,,,null,,object_14b.png,object_03a.png,,,,,,,,,,,,,,,,,,,,
1307.3999999910593,,rt_thecrossant_black1,687204,,,,,,,,black_plus_sign,,,49,,,,1,,,,,,,0.9047619047619048,,,,,,,,,,,,
null,,color_black1,687308,,,,,,,,black_plus_sign,,,null,,,,,,,,,,,,,,,,,,,,,,,
null,,learn_phase(without_color)1,690813,,,,,,,,black_plus_sign,,,null,,object_02b.png,object_15b.png,,,,,,,,,,,,,,,,,,,,
null,,black_cross(without_color)1,691860,,,,,,,,green,,,null,,object_02b.png,object_15b.png,,,,,,,,,,,,,,,,,,,,
null,,rt_plussign_withcolor1,692362,,,,,,,,green,,,null,,object_02b.png,object_15b.png,,,,,,,,,,,,,,,,,,,,
1171.2999999970198,,rt_thecrossant_black1,693323,,,,,,,,black_plus_sign,,,50,,,,1,,,,,,,0.9090909090909091,,,,,,,,,,,,
null,,color_black1,693426,,,,,,,,black_plus_sign,,,null,,,,,,,,,,,,,,,,,,,,,,,
null,,learn_phase(without_color)1,696931,,,,,,,,black_plus_sign,,,null,,object_13b.png,object_02a.png,,,,,,,,,,,,,,,,,,,,
null,,black_cross(without_color)1,698003,,,,,,,,blue,,,null,,object_13b.png,object_02a.png,,,,,,,,,,,,,,,,,,,,
null,,rt_plussign_withcolor1,698505,,,,,,,,blue,,,null,,object_13b.png,object_02a.png,,,,,,,,,,,,,,,,,,,,
1747.5999999940395,,rt_thecrossant_black1,699444,,,,,,,,black_plus_sign,,,49,,,,1,,,,,,,0.9130434782608695,,,,,,,,,,,,
null,,color_black1,699548,,,,,,,,black_plus_sign,,,null,,,,,,,,,,,,,,,,,,,,,,,
null,,learn_phase(without_color)1,703053,,,,,,,,black_plus_sign,,,null,,object_15a.png,object_13a.png,,,,,,,,,,,,,,,,,,,,
null,,black_cross(without_color)1,703681,,,,,,,,blue,,,null,,object_15a.png,object_13a.png,,,,,,,,,,,,,,,,,,,,
null,,rt_plussign_withcolor1,704184,,,,,,,,blue,,,null,,object_15a.png,object_13a.png,,,,,,,,,,,,,,,,,,,,
1565.0999999940395,,rt_thecrossant_black1,705564,,,,,,,,black_plus_sign,,,49,,,,1,,,,,,,0.9166666666666666,,,,,,,,,,,,
null,,color_black1,705668,,,,,,,,black_plus_sign,,,null,,,,,,,,,,,,,,,,,,,,,,,
null,,learn_phase(without_color)1,709172,,,,,,,,black_plus_sign,,,null,,object_01a.png,object_13b.png,,,,,,,,,,,,,,,,,,,,
null,,black_cross(without_color)1,709663,,,,,,,,blue,,,null,,object_01a.png,object_13b.png,,,,,,,,,,,,,,,,,,,,
null,,rt_plussign_withcolor1,710166,,,,,,,,blue,,,null,,object_01a.png,object_13b.png,,,,,,,,,,,,,,,,,,,,
1107.3999999910593,,rt_thecrossant_black1,711683,,,,,,,,black_plus_sign,,,49,,,,1,,,,,,,0.92,,,,,,,,,,,,
null,,color_black1,711787,,,,,,,,black_plus_sign,,,null,,,,,,,,,,,,,,,,,,,,,,,
null,,learn_phase(without_color)1,715292,,,,,,,,black_plus_sign,,,null,,object_11b.png,object_12a.png,,,,,,,,,,,,,,,,,,,,
null,,black_cross(without_color)1,716284,,,,,,,,green,,,null,,object_11b.png,object_12a.png,,,,,,,,,,,,,,,,,,,,
null,,rt_plussign_withcolor1,716787,,,,,,,,green,,,null,,object_11b.png,object_12a.png,,,,,,,,,,,,,,,,,,,,
1219,,rt_thecrossant_black1,717810,,,,,,,,black_plus_sign,,,50,,,,1,,,,,,,0.9230769230769231,,,,,,,,,,,,
null,,color_black1,717914,,,,,,,,black_plus_sign,,,null,,,,,,,,,,,,,,,,,,,,,,,
null,,learn_phase(without_color)1,721417,,,,,,,,black_plus_sign,,,null,,object_10c.png,object_11c.png,,,,,,,,,,,,,,,,,,,,
null,,black_cross(without_color)1,722426,,,,,,,,green,,,null,,object_10c.png,object_11c.png,,,,,,,,,,,,,,,,,,,,
null,,rt_plussign_withcolor1,722929,,,,,,,,green,,,null,,object_10c.png,object_11c.png,,,,,,,,,,,,,,,,,,,,
1512.2999999970198,,rt_thecrossant_black1,723925,,,,,,,,black_plus_sign,,,49,,,,0,,,,,,,0.8888888888888888,,,,,,,,,,,,
null,,color_black1,724028,,,,,,,,black_plus_sign,,,null,,,,,,,,,,,,,,,,,,,,,,,
null,,learn_phase(without_color)1,727546,,,,,,,,black_plus_sign,,,null,,object_08c.png,object_01c.png,,,,,,,,,,,,,,,,,,,,
null,,black_cross(without_color)1,728146,,,,,,,,green,,,null,,object_08c.png,object_01c.png,,,,,,,,,,,,,,,,,,,,
null,,rt_plussign_withcolor1,728649,,,,,,,,green,,,null,,object_08c.png,object_01c.png,,,,,,,,,,,,,,,,,,,,
2066,,rt_thecrossant_black1,730056,,,,,,,,black_plus_sign,,,50,,,,1,,,,,,,0.8928571428571429,,,,,,,,,,,,
null,,color_black1,730161,,,,,,,,black_plus_sign,,,null,,,,,,,,,,,,,,,,,,,,,,,
null,,learn_phase(without_color)1,733665,,,,,,,,black_plus_sign,,,null,,object_05b.png,object_02c.png,,,,,,,,,,,,,,,,,,,,
null,,black_cross(without_color)1,734355,,,,,,,,blue,,,null,,object_05b.png,object_02c.png,,,,,,,,,,,,,,,,,,,,
null,,rt_plussign_withcolor1,734858,,,,,,,,blue,,,null,,object_05b.png,object_02c.png,,,,,,,,,,,,,,,,,,,,
1353.5,,rt_thecrossant_black1,736174,,,,,,,,black_plus_sign,,,49,,,,1,,,,,,,0.896551724137931,,,,,,,,,,,,
null,,color_black1,736279,,,,,,,,black_plus_sign,,,null,,,,,,,,,,,,,,,,,,,,,,,
null,,learn_phase(without_color)1,739783,,,,,,,,black_plus_sign,,,null,,object_02c.png,object_06b.png,,,,,,,,,,,,,,,,,,,,
null,,black_cross(without_color)1,740349,,,,,,,,blue,,,null,,object_02c.png,object_06b.png,,,,,,,,,,,,,,,,,,,,
null,,rt_plussign_withcolor1,740853,,,,,,,,blue,,,null,,object_02c.png,object_06b.png,,,,,,,,,,,,,,,,,,,,
1669.8999999910593,,rt_thecrossant_black1,742293,,,,,,,,black_plus_sign,,,49,,,,1,,,,,,,0.9,,,,,,,,,,,,
null,,color_black1,742396,,,,,,,,black_plus_sign,,,null,,,,,,,,,,,,,,,,,,,,,,,
null,,thebreak,742503,,,,,,,,<p></p>,,,null,,,,,,,,,,,,,,,,,,,,,,,
10036.70000000298,,intro_0,752541,,,,,,,,instruct,,,32,,,,,,,,,,,,,,,,,,,,,,,
6564,,directmemory_phase1,759107,,,,,,,,object_03b.png,,,50,,,,1,,object_15c.png,object_07b.png,object_09c.png,object_07b.png,,1,1,,,,,,,,,,,
10036.29999999702,,directmemory_phase1,769146,,,,,,,,object_15a.png,,,49,,,,0,,object_05b.png,object_04a.png,object_13c.png,object_04a.png,,0.5,0,,,,,,,,,,,
13097.60000000894,,directmemory_phase1,782246,,,,,,,,object_10b.png,,,50,,,,0,,object_12a.png,object_05a.png,object_08b.png,object_08b.png,,0.3333333333333333,0,,,,,,,,,,,
3250.699999988079,,directmemory_phase1,785499,,,,,,,,object_01b.png,,,51,,,,1,,object_02c.png,object_15c.png,object_09c.png,object_09c.png,,0.5,1,,,,,,,,,,,
3413.7000000029802,,directmemory_phase1,788916,,,,,,,,object_14c.png,,,49,,,,0,,object_12b.png,object_05c.png,object_10a.png,object_05c.png,,0.4,0,,,,,,,,,,,
3757.5999999940395,,directmemory_phase1,792678,,,,,,,,object_14b.png,,,51,,,,1,,object_06a.png,object_11b.png,object_07c.png,object_07c.png,,0.5,1,,,,,,,,,,,
13992.5,,directmemory_phase1,806673,,,,,,,,object_15c.png,,,49,,,,1,,object_13c.png,object_07a.png,object_07c.png,object_13c.png,,0.5714285714285714,1,,,,,,,,,,,
4890.4000000059605,,directmemory_phase1,811567,,,,,,,,object_15b.png,,,51,,,,0,,object_02b.png,object_05b.png,object_09a.png,object_02b.png,,0.5,0,,,,,,,,,,,
5090.70000000298,,directmemory_phase1,816662,,,,,,,,object_02a.png,,,49,,,,0,,object_15a.png,object_13b.png,object_08b.png,object_13b.png,,0.4444444444444444,0,,,,,,,,,,,
6256.70000000298,,directmemory_phase1,822924,,,,,,,,object_14a.png,,,49,,,,1,,object_15b.png,object_05a.png,object_14c.png,object_15b.png,,0.5,1,,,,,,,,,,,
9124.699999988079,,directmemory_phase1,832053,,,,,,,,object_12a.png,,,51,,,,1,,object_13c.png,object_05c.png,object_11b.png,object_11b.png,,0.5454545454545454,1,,,,,,,,,,,
3338.2999999970198,,directmemory_phase1,835397,,,,,,,,object_06b.png,,,49,,,,1,,object_02c.png,object_12a.png,object_09c.png,object_02c.png,,0.5833333333333334,1,,,,,,,,,,,
8000.399999991059,,directmemory_phase1,843401,,,,,,,,object_08c.png,,,50,,,,0,,object_09a.png,object_05c.png,object_01a.png,object_09a.png,,0.5384615384615384,0,,,,,,,,,,,
9932,,directmemory_phase1,853338,,,,,,,,object_13a.png,,,49,,,,1,,object_15a.png,object_08c.png,object_14b.png,object_15a.png,,0.5714285714285714,1,,,,,,,,,,,
3735.8999999910593,,directmemory_phase1,857077,,,,,,,,object_13b.png,,,50,,,,1,,object_04a.png,object_01a.png,object_07a.png,object_01a.png,,0.6,1,,,,,,,,,,,
8576.40000000596,,directmemory_phase1,865656,,,,,,,,object_08b.png,,,49,,,,1,,object_06c.png,object_13c.png,object_05c.png,object_06c.png,,0.625,1,,,,,,,,,,,
null,,directmemory_phase1,880660,,,,,,,,object_05a.png,,,null,,,,0,,object_04b.png,object_09a.png,object_11b.png,object_04b.png,,0.5882352941176471,0,,,,,,,,,,,
null,,warning_page,885665,,,,,,,,warning,,,null,,,,,,,,,,,,,,,,,,,,,,,
3719.6000000089407,,directmemory_phase1,889387,,,,,,,,object_07b.png,,,50,,,,1,,object_01a.png,object_10a.png,object_06c.png,object_10a.png,,0.6111111111111112,1,,,,,,,,,,,
4227.5,,directmemory_phase1,893619,,,,,,,,object_03c.png,,,50,,,,0,,object_15a.png,object_05a.png,object_15c.png,object_15c.png,,0.5789473684210527,0,,,,,,,,,,,
5922.79999999702,,directmemory_phase1,899545,,,,,,,,object_11a.png,,,51,,,,0,,object_14c.png,object_05a.png,object_12a.png,object_05a.png,,0.55,0,,,,,,,,,,,
2888.2999999970198,,directmemory_phase1,902437,,,,,,,,object_03a.png,,,49,,,,1,,object_14b.png,object_13b.png,object_09b.png,object_14b.png,,0.5714285714285714,1,,,,,,,,,,,
3272.8999999910593,,directmemory_phase1,905714,,,,,,,,object_11c.png,,,50,,,,1,,object_15c.png,object_10c.png,object_08b.png,object_10c.png,,0.5909090909090909,1,,,,,,,,,,,
6700.600000008941,,directmemory_phase1,912419,,,,,,,,object_08a.png,,,51,,,,1,,object_14b.png,object_07b.png,object_14c.png,object_14c.png,,0.6086956521739131,1,,,,,,,,,,,
6201.5999999940395,,directmemory_phase1,918625,,,,,,,,object_09c.png,,,51,,,,1,,object_05b.png,object_06c.png,object_07a.png,object_07a.png,,0.625,1,,,,,,,,,,,
4819.29999999702,,directmemory_phase1,923447,,,,,,,,object_10c.png,,,51,,,,1,,object_04b.png,object_09a.png,object_06a.png,object_06a.png,,0.64,1,,,,,,,,,,,
2929.2999999970198,,directmemory_phase1,926379,,,,,,,,object_09b.png,,,49,,,,0,,object_05c.png,object_12b.png,object_07a.png,object_12b.png,,0.6153846153846154,0,,,,,,,,,,,
5025.5,,directmemory_phase1,931408,,,,,,,,object_01c.png,,,51,,,,0,,object_08b.png,object_08c.png,object_09b.png,object_08c.png,,0.5925925925925926,0,,,,,,,,,,,
3432.6000000089407,,directmemory_phase1,934844,,,,,,,,object_02c.png,,,50,,,,1,,object_12b.png,object_05b.png,object_07c.png,object_05b.png,,0.6071428571428571,1,,,,,,,,,,,
5085.5,,directmemory_phase1,939934,,,,,,,,object_12c.png,,,50,,,,1,,object_07b.png,object_09b.png,object_15a.png,object_09b.png,,0.6206896551724138,1,,,,,,,,,,,
2785.4000000059605,,directmemory_phase1,942724,,,,,,,,object_04c.png,,,51,,,,1,,object_08c.png,object_09b.png,object_12a.png,object_12a.png,,0.6333333333333333,1,,,,,,,,,,,
null,,thebreak,942830,,,,,,,,<p></p>,,,null,,,,,,,,,,,,,,,,,,,,,,,
17143.79999999702,,intro_0,959976,,,,,,,,instruct,,,32,,,,,,,,,,,,,,,,,,,,,,,
null,,learn_phase(without_color)2,963479,,,,,,,,black_plus_sign,,,null,,object_06c.png,object_08b.png,,,,,,,,,,,,,,,,,,,,
null,,black_cross(without_color)2,963889,,,,,,,,green,,,null,,object_06c.png,object_08b.png,,,,,,,,,,,,,,,,,,,,
null,,rt_plussign_withcolor2,964400,,,,,,,,green,,,null,,object_06c.png,object_08b.png,,,,,,,,,,,,,,,,,,,,
1207.5,,rt_thecrossant_black2,965997,,,,,,,,black_plus_sign,,,50,,,,1,,,,,,,1,,,,,,,,,,,,
null,,color_black2,966113,,,,,,,,black_plus_sign,,,null,,,,,,,,,,,,,,,,,,,,,,,
null,,learn_phase(without_color)2,969617,,,,,,,,black_plus_sign,,,null,,object_09a.png,object_08c.png,,,,,,,,,,,,,,,,,,,,
null,,black_cross(without_color)2,970595,,,,,,,,green,,,null,,object_09a.png,object_08c.png,,,,,,,,,,,,,,,,,,,,
null,,rt_plussign_withcolor2,971099,,,,,,,,green,,,null,,object_09a.png,object_08c.png,,,,,,,,,,,,,,,,,,,,
865.0999999940395,,rt_thecrossant_black2,972130,,,,,,,,black_plus_sign,,,50,,,,1,,,,,,,1,,,,,,,,,,,,
null,,color_black2,972233,,,,,,,,black_plus_sign,,,null,,,,,,,,,,,,,,,,,,,,,,,
null,,learn_phase(without_color)2,975736,,,,,,,,black_plus_sign,,,null,,object_09c.png,object_01b.png,,,,,,,,,,,,,,,,,,,,
null,,black_cross(without_color)2,976731,,,,,,,,green,,,null,,object_09c.png,object_01b.png,,,,,,,,,,,,,,,,,,,,
null,,rt_plussign_withcolor2,977234,,,,,,,,green,,,null,,object_09c.png,object_01b.png,,,,,,,,,,,,,,,,,,,,
1443.300000011921,,rt_thecrossant_black2,978244,,,,,,,,black_plus_sign,,,50,,,,1,,,,,,,1,,,,,,,,,,,,
null,,color_black2,978347,,,,,,,,black_plus_sign,,,null,,,,,,,,,,,,,,,,,,,,,,,
null,,learn_phase(without_color)2,981851,,,,,,,,black_plus_sign,,,null,,object_05b.png,object_02c.png,,,,,,,,,,,,,,,,,,,,
null,,black_cross(without_color)2,982256,,,,,,,,green,,,null,,object_05b.png,object_02c.png,,,,,,,,,,,,,,,,,,,,
null,,rt_plussign_withcolor2,982760,,,,,,,,green,,,null,,object_05b.png,object_02c.png,,,,,,,,,,,,,,,,,,,,
1368.9000000059605,,rt_thecrossant_black2,984361,,,,,,,,black_plus_sign,,,50,,,,1,,,,,,,1,,,,,,,,,,,,
null,,color_black2,984465,,,,,,,,black_plus_sign,,,null,,,,,,,,,,,,,,,,,,,,,,,
null,,learn_phase(without_color)2,987971,,,,,,,,black_plus_sign,,,null,,object_13b.png,object_02a.png,,,,,,,,,,,,,,,,,,,,
null,,black_cross(without_color)2,988880,,,,,,,,blue,,,null,,object_13b.png,object_02a.png,,,,,,,,,,,,,,,,,,,,
null,,rt_plussign_withcolor2,989382,,,,,,,,blue,,,null,,object_13b.png,object_02a.png,,,,,,,,,,,,,,,,,,,,
652.5,,rt_thecrossant_black2,990481,,,,,,,,black_plus_sign,,,49,,,,1,,,,,,,1,,,,,,,,,,,,
null,,color_black2,990584,,,,,,,,black_plus_sign,,,null,,,,,,,,,,,,,,,,,,,,,,,
null,,learn_phase(without_color)2,994089,,,,,,,,black_plus_sign,,,null,,object_07a.png,object_09c.png,,,,,,,,,,,,,,,,,,,,
null,,black_cross(without_color)2,994560,,,,,,,,blue,,,null,,object_07a.png,object_09c.png,,,,,,,,,,,,,,,,,,,,
null,,rt_plussign_withcolor2,995063,,,,,,,,blue,,,null,,object_07a.png,object_09c.png,,,,,,,,,,,,,,,,,,,,
1653.199999988079,,rt_thecrossant_black2,996608,,,,,,,,black_plus_sign,,,49,,,,1,,,,,,,1,,,,,,,,,,,,
null,,color_black2,996711,,,,,,,,black_plus_sign,,,null,,,,,,,,,,,,,,,,,,,,,,,
null,,learn_phase(without_color)2,1000216,,,,,,,,black_plus_sign,,,null,,object_13c.png,object_15c.png,,,,,,,,,,,,,,,,,,,,
null,,black_cross(without_color)2,1001136,,,,,,,,green,,,null,,object_13c.png,object_15c.png,,,,,,,,,,,,,,,,,,,,
null,,rt_plussign_withcolor2,1001640,,,,,,,,green,,,null,,object_13c.png,object_15c.png,,,,,,,,,,,,,,,,,,,,
936.7999999821186,,rt_thecrossant_black2,1002728,,,,,,,,black_plus_sign,,,50,,,,1,,,,,,,1,,,,,,,,,,,,
null,,color_black2,1002831,,,,,,,,black_plus_sign,,,null,,,,,,,,,,,,,,,,,,,,,,,
null,,learn_phase(without_color)2,1006335,,,,,,,,black_plus_sign,,,null,,object_01a.png,object_13b.png,,,,,,,,,,,,,,,,,,,,
null,,black_cross(without_color)2,1007409,,,,,,,,green,,,null,,object_01a.png,object_13b.png,,,,,,,,,,,,,,,,,,,,
null,,rt_plussign_withcolor2,1007913,,,,,,,,green,,,null,,object_01a.png,object_13b.png,,,,,,,,,,,,,,,,,,,,
1528.5999999940395,,rt_thecrossant_black2,1008846,,,,,,,,black_plus_sign,,,50,,,,1,,,,,,,1,,,,,,,,,,,,
null,,color_black2,1008949,,,,,,,,black_plus_sign,,,null,,,,,,,,,,,,,,,,,,,,,,,
null,,learn_phase(without_color)2,1012455,,,,,,,,black_plus_sign,,,null,,object_08b.png,object_10b.png,,,,,,,,,,,,,,,,,,,,
null,,black_cross(without_color)2,1013450,,,,,,,,green,,,null,,object_08b.png,object_10b.png,,,,,,,,,,,,,,,,,,,,
null,,rt_plussign_withcolor2,1013954,,,,,,,,green,,,null,,object_08b.png,object_10b.png,,,,,,,,,,,,,,,,,,,,
1662.9000000059605,,rt_thecrossant_black2,1014968,,,,,,,,black_plus_sign,,,50,,,,1,,,,,,,1,,,,,,,,,,,,
null,,color_black2,1015074,,,,,,,,black_plus_sign,,,null,,,,,,,,,,,,,,,,,,,,,,,
null,,learn_phase(without_color)2,1018578,,,,,,,,black_plus_sign,,,null,,object_14c.png,object_08a.png,,,,,,,,,,,,,,,,,,,,
null,,black_cross(without_color)2,1019206,,,,,,,,green,,,null,,object_14c.png,object_08a.png,,,,,,,,,,,,,,,,,,,,
null,,rt_plussign_withcolor2,1019709,,,,,,,,green,,,null,,object_14c.png,object_08a.png,,,,,,,,,,,,,,,,,,,,
1426.4000000059605,,rt_thecrossant_black2,1021088,,,,,,,,black_plus_sign,,,50,,,,1,,,,,,,1,,,,,,,,,,,,
null,,color_black2,1021192,,,,,,,,black_plus_sign,,,null,,,,,,,,,,,,,,,,,,,,,,,
null,,learn_phase(without_color)2,1024698,,,,,,,,black_plus_sign,,,null,,object_12b.png,object_09b.png,,,,,,,,,,,,,,,,,,,,
null,,black_cross(without_color)2,1025680,,,,,,,,green,,,null,,object_12b.png,object_09b.png,,,,,,,,,,,,,,,,,,,,
null,,rt_plussign_withcolor2,1026184,,,,,,,,green,,,null,,object_12b.png,object_09b.png,,,,,,,,,,,,,,,,,,,,
1115.2000000178814,,rt_thecrossant_black2,1027210,,,,,,,,black_plus_sign,,,50,,,,1,,,,,,,1,,,,,,,,,,,,
null,,color_black2,1027315,,,,,,,,black_plus_sign,,,null,,,,,,,,,,,,,,,,,,,,,,,
null,,learn_phase(without_color)2,1030820,,,,,,,,black_plus_sign,,,null,,object_15b.png,object_14a.png,,,,,,,,,,,,,,,,,,,,
null,,black_cross(without_color)2,1031433,,,,,,,,blue,,,null,,object_15b.png,object_14a.png,,,,,,,,,,,,,,,,,,,,
null,,rt_plussign_withcolor2,1031936,,,,,,,,blue,,,null,,object_15b.png,object_14a.png,,,,,,,,,,,,,,,,,,,,
1377.0999999940395,,rt_thecrossant_black2,1033343,,,,,,,,black_plus_sign,,,49,,,,1,,,,,,,1,,,,,,,,,,,,
null,,color_black2,1033447,,,,,,,,black_plus_sign,,,null,,,,,,,,,,,,,,,,,,,,,,,
null,,learn_phase(without_color)2,1036950,,,,,,,,black_plus_sign,,,null,,object_04b.png,object_05a.png,,,,,,,,,,,,,,,,,,,,
null,,black_cross(without_color)2,1037380,,,,,,,,blue,,,null,,object_04b.png,object_05a.png,,,,,,,,,,,,,,,,,,,,
null,,rt_plussign_withcolor2,1037883,,,,,,,,blue,,,null,,object_04b.png,object_05a.png,,,,,,,,,,,,,,,,,,,,
977.7999999821186,,rt_thecrossant_black2,1039461,,,,,,,,black_plus_sign,,,49,,,,1,,,,,,,1,,,,,,,,,,,,
null,,color_black2,1039564,,,,,,,,black_plus_sign,,,null,,,,,,,,,,,,,,,,,,,,,,,
null,,learn_phase(without_color)2,1043068,,,,,,,,black_plus_sign,,,null,,object_04a.png,object_15a.png,,,,,,,,,,,,,,,,,,,,
null,,black_cross(without_color)2,1043511,,,,,,,,blue,,,null,,object_04a.png,object_15a.png,,,,,,,,,,,,,,,,,,,,
null,,rt_plussign_withcolor2,1044013,,,,,,,,blue,,,null,,object_04a.png,object_15a.png,,,,,,,,,,,,,,,,,,,,
1012.3000000119209,,rt_thecrossant_black2,1045577,,,,,,,,black_plus_sign,,,49,,,,1,,,,,,,1,,,,,,,,,,,,
null,,color_black2,1045693,,,,,,,,black_plus_sign,,,null,,,,,,,,,,,,,,,,,,,,,,,
null,,learn_phase(without_color)2,1049197,,,,,,,,black_plus_sign,,,null,,object_15a.png,object_13a.png,,,,,,,,,,,,,,,,,,,,
null,,black_cross(without_color)2,1050183,,,,,,,,blue,,,null,,object_15a.png,object_13a.png,,,,,,,,,,,,,,,,,,,,
null,,rt_plussign_withcolor2,1050699,,,,,,,,blue,,,null,,object_15a.png,object_13a.png,,,,,,,,,,,,,,,,,,,,
896.1000000238419,,rt_thecrossant_black2,1051721,,,,,,,,black_plus_sign,,,49,,,,1,,,,,,,1,,,,,,,,,,,,
null,,color_black2,1051825,,,,,,,,black_plus_sign,,,null,,,,,,,,,,,,,,,,,,,,,,,
null,,learn_phase(without_color)2,1055328,,,,,,,,black_plus_sign,,,null,,object_08c.png,object_01c.png,,,,,,,,,,,,,,,,,,,,
null,,black_cross(without_color)2,1056110,,,,,,,,green,,,null,,object_08c.png,object_01c.png,,,,,,,,,,,,,,,,,,,,
null,,rt_plussign_withcolor2,1056613,,,,,,,,green,,,null,,object_08c.png,object_01c.png,,,,,,,,,,,,,,,,,,,,
1401.199999988079,,rt_thecrossant_black2,1057838,,,,,,,,black_plus_sign,,,50,,,,1,,,,,,,1,,,,,,,,,,,,
null,,color_black2,1057944,,,,,,,,black_plus_sign,,,null,,,,,,,,,,,,,,,,,,,,,,,
null,,learn_phase(without_color)2,1061450,,,,,,,,black_plus_sign,,,null,,object_09b.png,object_12c.png,,,,,,,,,,,,,,,,,,,,
null,,black_cross(without_color)2,1062441,,,,,,,,green,,,null,,object_09b.png,object_12c.png,,,,,,,,,,,,,,,,,,,,
null,,rt_plussign_withcolor2,1062947,,,,,,,,green,,,null,,object_09b.png,object_12c.png,,,,,,,,,,,,,,,,,,,,
1098.5999999940395,,rt_thecrossant_black2,1063965,,,,,,,,black_plus_sign,,,50,,,,1,,,,,,,1,,,,,,,,,,,,
null,,color_black2,1064069,,,,,,,,black_plus_sign,,,null,,,,,,,,,,,,,,,,,,,,,,,
null,,learn_phase(without_color)2,1067574,,,,,,,,black_plus_sign,,,null,,object_15c.png,object_03c.png,,,,,,,,,,,,,,,,,,,,
null,,black_cross(without_color)2,1068321,,,,,,,,blue,,,null,,object_15c.png,object_03c.png,,,,,,,,,,,,,,,,,,,,
null,,rt_plussign_withcolor2,1068825,,,,,,,,blue,,,null,,object_15c.png,object_03c.png,,,,,,,,,,,,,,,,,,,,
1367.0999999940395,,rt_thecrossant_black2,1070086,,,,,,,,black_plus_sign,,,49,,,,1,,,,,,,1,,,,,,,,,,,,
null,,color_black2,1070190,,,,,,,,black_plus_sign,,,null,,,,,,,,,,,,,,,,,,,,,,,
null,,learn_phase(without_color)2,1073695,,,,,,,,black_plus_sign,,,null,,object_12a.png,object_04c.png,,,,,,,,,,,,,,,,,,,,
null,,black_cross(without_color)2,1074596,,,,,,,,green,,,null,,object_12a.png,object_04c.png,,,,,,,,,,,,,,,,,,,,
null,,rt_plussign_withcolor2,1075099,,,,,,,,green,,,null,,object_12a.png,object_04c.png,,,,,,,,,,,,,,,,,,,,
1017.5999999940395,,rt_thecrossant_black2,1076209,,,,,,,,black_plus_sign,,,50,,,,1,,,,,,,1,,,,,,,,,,,,
null,,color_black2,1076314,,,,,,,,black_plus_sign,,,null,,,,,,,,,,,,,,,,,,,,,,,
null,,learn_phase(without_color)2,1079819,,,,,,,,black_plus_sign,,,null,,object_10c.png,object_11c.png,,,,,,,,,,,,,,,,,,,,
null,,black_cross(without_color)2,1080391,,,,,,,,blue,,,null,,object_10c.png,object_11c.png,,,,,,,,,,,,,,,,,,,,
null,,rt_plussign_withcolor2,1080895,,,,,,,,blue,,,null,,object_10c.png,object_11c.png,,,,,,,,,,,,,,,,,,,,
1417.4000000059605,,rt_thecrossant_black2,1082331,,,,,,,,black_plus_sign,,,49,,,,1,,,,,,,1,,,,,,,,,,,,
null,,color_black2,1082435,,,,,,,,black_plus_sign,,,null,,,,,,,,,,,,,,,,,,,,,,,
null,,learn_phase(without_color)2,1085939,,,,,,,,black_plus_sign,,,null,,object_05a.png,object_11a.png,,,,,,,,,,,,,,,,,,,,
null,,black_cross(without_color)2,1086914,,,,,,,,green,,,null,,object_05a.png,object_11a.png,,,,,,,,,,,,,,,,,,,,
null,,rt_plussign_withcolor2,1087418,,,,,,,,green,,,null,,object_05a.png,object_11a.png,,,,,,,,,,,,,,,,,,,,
868.5999999940395,,rt_thecrossant_black2,1088448,,,,,,,,black_plus_sign,,,50,,,,1,,,,,,,1,,,,,,,,,,,,
null,,color_black2,1088552,,,,,,,,black_plus_sign,,,null,,,,,,,,,,,,,,,,,,,,,,,
null,,learn_phase(without_color)2,1092055,,,,,,,,black_plus_sign,,,null,,object_07c.png,object_14b.png,,,,,,,,,,,,,,,,,,,,
null,,black_cross(without_color)2,1092871,,,,,,,,green,,,null,,object_07c.png,object_14b.png,,,,,,,,,,,,,,,,,,,,
null,,rt_plussign_withcolor2,1093374,,,,,,,,green,,,null,,object_07c.png,object_14b.png,,,,,,,,,,,,,,,,,,,,
1402.8999999761581,,rt_thecrossant_black2,1094564,,,,,,,,black_plus_sign,,,50,,,,1,,,,,,,1,,,,,,,,,,,,
null,,color_black2,1094668,,,,,,,,black_plus_sign,,,null,,,,,,,,,,,,,,,,,,,,,,,
null,,learn_phase(without_color)2,1098174,,,,,,,,black_plus_sign,,,null,,object_14b.png,object_03a.png,,,,,,,,,,,,,,,,,,,,
null,,black_cross(without_color)2,1098919,,,,,,,,green,,,null,,object_14b.png,object_03a.png,,,,,,,,,,,,,,,,,,,,
null,,rt_plussign_withcolor2,1099425,,,,,,,,green,,,null,,object_14b.png,object_03a.png,,,,,,,,,,,,,,,,,,,,
1371.0999999940395,,rt_thecrossant_black2,1100687,,,,,,,,black_plus_sign,,,50,,,,1,,,,,,,1,,,,,,,,,,,,
null,,color_black2,1100790,,,,,,,,black_plus_sign,,,null,,,,,,,,,,,,,,,,,,,,,,,
null,,learn_phase(without_color)2,1104294,,,,,,,,black_plus_sign,,,null,,object_06a.png,object_10c.png,,,,,,,,,,,,,,,,,,,,
null,,black_cross(without_color)2,1104894,,,,,,,,blue,,,null,,object_06a.png,object_10c.png,,,,,,,,,,,,,,,,,,,,
null,,rt_plussign_withcolor2,1105397,,,,,,,,blue,,,null,,object_06a.png,object_10c.png,,,,,,,,,,,,,,,,,,,,
1153.199999988079,,rt_thecrossant_black2,1106804,,,,,,,,black_plus_sign,,,49,,,,1,,,,,,,1,,,,,,,,,,,,
null,,color_black2,1106908,,,,,,,,black_plus_sign,,,null,,,,,,,,,,,,,,,,,,,,,,,
null,,learn_phase(without_color)2,1110411,,,,,,,,black_plus_sign,,,null,,object_07b.png,object_03b.png,,,,,,,,,,,,,,,,,,,,
null,,black_cross(without_color)2,1111188,,,,,,,,blue,,,null,,object_07b.png,object_03b.png,,,,,,,,,,,,,,,,,,,,
null,,rt_plussign_withcolor2,1111690,,,,,,,,blue,,,null,,object_07b.png,object_03b.png,,,,,,,,,,,,,,,,,,,,
1034.9000000059605,,rt_thecrossant_black2,1112920,,,,,,,,black_plus_sign,,,49,,,,1,,,,,,,1,,,,,,,,,,,,
null,,color_black2,1113025,,,,,,,,black_plus_sign,,,null,,,,,,,,,,,,,,,,,,,,,,,
null,,learn_phase(without_color)2,1116529,,,,,,,,black_plus_sign,,,null,,object_10a.png,object_07b.png,,,,,,,,,,,,,,,,,,,,
null,,black_cross(without_color)2,1117359,,,,,,,,green,,,null,,object_10a.png,object_07b.png,,,,,,,,,,,,,,,,,,,,
null,,rt_plussign_withcolor2,1117863,,,,,,,,green,,,null,,object_10a.png,object_07b.png,,,,,,,,,,,,,,,,,,,,
1033.7000000178814,,rt_thecrossant_black2,1119038,,,,,,,,black_plus_sign,,,50,,,,1,,,,,,,1,,,,,,,,,,,,
null,,color_black2,1119142,,,,,,,,black_plus_sign,,,null,,,,,,,,,,,,,,,,,,,,,,,
null,,learn_phase(without_color)2,1122645,,,,,,,,black_plus_sign,,,null,,object_11b.png,object_12a.png,,,,,,,,,,,,,,,,,,,,
null,,black_cross(without_color)2,1123613,,,,,,,,blue,,,null,,object_11b.png,object_12a.png,,,,,,,,,,,,,,,,,,,,
null,,rt_plussign_withcolor2,1124117,,,,,,,,blue,,,null,,object_11b.png,object_12a.png,,,,,,,,,,,,,,,,,,,,
1120.0999999940395,,rt_thecrossant_black2,1125156,,,,,,,,black_plus_sign,,,49,,,,1,,,,,,,1,,,,,,,,,,,,
null,,color_black2,1125260,,,,,,,,black_plus_sign,,,null,,,,,,,,,,,,,,,,,,,,,,,
null,,learn_phase(without_color)2,1128766,,,,,,,,black_plus_sign,,,null,,object_05c.png,object_14c.png,,,,,,,,,,,,,,,,,,,,
null,,black_cross(without_color)2,1129598,,,,,,,,green,,,null,,object_05c.png,object_14c.png,,,,,,,,,,,,,,,,,,,,
null,,rt_plussign_withcolor2,1130101,,,,,,,,green,,,null,,object_05c.png,object_14c.png,,,,,,,,,,,,,,,,,,,,
1604.4000000059605,,rt_thecrossant_black2,1131276,,,,,,,,black_plus_sign,,,50,,,,1,,,,,,,1,,,,,,,,,,,,
null,,color_black2,1131392,,,,,,,,black_plus_sign,,,null,,,,,,,,,,,,,,,,,,,,,,,
null,,learn_phase(without_color)2,1134897,,,,,,,,black_plus_sign,,,null,,object_02c.png,object_06b.png,,,,,,,,,,,,,,,,,,,,
null,,black_cross(without_color)2,1135562,,,,,,,,blue,,,null,,object_02c.png,object_06b.png,,,,,,,,,,,,,,,,,,,,
null,,rt_plussign_withcolor2,1136065,,,,,,,,blue,,,null,,object_02c.png,object_06b.png,,,,,,,,,,,,,,,,,,,,
1521.5,,rt_thecrossant_black2,1137423,,,,,,,,black_plus_sign,,,49,,,,1,,,,,,,1,,,,,,,,,,,,
null,,color_black2,1137528,,,,,,,,black_plus_sign,,,null,,,,,,,,,,,,,,,,,,,,,,,
null,,learn_phase(without_color)2,1141033,,,,,,,,black_plus_sign,,,null,,object_02b.png,object_15b.png,,,,,,,,,,,,,,,,,,,,
null,,black_cross(without_color)2,1141825,,,,,,,,blue,,,null,,object_02b.png,object_15b.png,,,,,,,,,,,,,,,,,,,,
null,,rt_plussign_withcolor2,1142328,,,,,,,,blue,,,null,,object_02b.png,object_15b.png,,,,,,,,,,,,,,,,,,,,
1052,,rt_thecrossant_black2,1143546,,,,,,,,black_plus_sign,,,49,,,,1,,,,,,,1,,,,,,,,,,,,
null,,color_black2,1143650,,,,,,,,black_plus_sign,,,null,,,,,,,,,,,,,,,,,,,,,,,
null,,thebreak,1143755,,,,,,,,<p></p>,,,null,,,,,,,,,,,,,,,,,,,,,,,
29657,,intro_0,1173414,,,,,,,,instruct,,,32,,,,,,,,,,,,,,,,,,,,,,,
8667.5,,directmemory_phase2,1182083,,,,,,,,object_15c.png,,,50,,,,1,,object_07c.png,object_13c.png,object_12b.png,object_13c.png,,0.6451612903225806,1,,,,,,,,,,,
3879.300000011921,,directmemory_phase2,1185967,,,,,,,,object_03c.png,,,49,,,,1,,object_15c.png,object_07b.png,object_14c.png,object_15c.png,,0.65625,1,,,,,,,,,,,
11126.300000011921,,directmemory_phase2,1197099,,,,,,,,object_02c.png,,,49,,,,1,,object_05b.png,object_04a.png,object_05c.png,object_05b.png,,0.6666666666666666,1,,,,,,,,,,,
7096.0999999940395,,directmemory_phase2,1204199,,,,,,,,object_06b.png,,,51,,,,1,,object_14c.png,object_13b.png,object_02c.png,object_02c.png,,0.6764705882352942,1,,,,,,,,,,,
5929.5,,directmemory_phase2,1210132,,,,,,,,object_01c.png,,,51,,,,1,,object_15a.png,object_14c.png,object_08c.png,object_08c.png,,0.6857142857142857,1,,,,,,,,,,,
6164.9000000059605,,directmemory_phase2,1216299,,,,,,,,object_08b.png,,,49,,,,1,,object_06c.png,object_07a.png,object_04a.png,object_06c.png,,0.6944444444444444,1,,,,,,,,,,,
13314,,directmemory_phase2,1229617,,,,,,,,object_12a.png,,,50,,,,1,,object_09a.png,object_11b.png,object_04a.png,object_11b.png,,0.7027027027027027,1,,,,,,,,,,,
4233.0999999940395,,directmemory_phase2,1233854,,,,,,,,object_15a.png,,,50,,,,1,,object_05b.png,object_04a.png,object_04b.png,object_04a.png,,0.7105263157894737,1,,,,,,,,,,,
13966.199999988079,,directmemory_phase2,1247822,,,,,,,,object_15b.png,,,51,,,,1,,object_06a.png,object_05b.png,object_02b.png,object_02b.png,,0.717948717948718,1,,,,,,,,,,,
8581.799999982119,,directmemory_phase2,1256406,,,,,,,,object_09c.png,,,49,,,,1,,object_07a.png,object_04b.png,object_13c.png,object_07a.png,,0.725,1,,,,,,,,,,,
4509,,directmemory_phase2,1260921,,,,,,,,object_14b.png,,,51,,,,1,,object_09a.png,object_10a.png,object_07c.png,object_07c.png,,0.7317073170731707,1,,,,,,,,,,,
3174.5999999940395,,directmemory_phase2,1264098,,,,,,,,object_03b.png,,,51,,,,1,,object_08b.png,object_02c.png,object_07b.png,object_07b.png,,0.7380952380952381,1,,,,,,,,,,,
12140.90000000596,,directmemory_phase2,1276243,,,,,,,,object_13a.png,,,49,,,,1,,object_15a.png,object_12a.png,object_07b.png,object_15a.png,,0.7441860465116279,1,,,,,,,,,,,
7700.399999976158,,directmemory_phase2,1283950,,,,,,,,object_14c.png,,,51,,,,1,,object_10a.png,object_07c.png,object_05c.png,object_05c.png,,0.75,1,,,,,,,,,,,
2738.0999999940395,,directmemory_phase2,1286693,,,,,,,,object_01b.png,,,51,,,,1,,object_09b.png,object_14b.png,object_09c.png,object_09c.png,,0.7555555555555555,1,,,,,,,,,,,
8242.700000017881,,directmemory_phase2,1294941,,,,,,,,object_02a.png,,,50,,,,1,,object_15c.png,object_13b.png,object_10c.png,object_13b.png,,0.7608695652173914,1,,,,,,,,,,,
5769.9000000059605,,directmemory_phase2,1300714,,,,,,,,object_12c.png,,,49,,,,1,,object_09b.png,object_15c.png,object_15a.png,object_09b.png,,0.7659574468085106,1,,,,,,,,,,,
3211.4000000059605,,directmemory_phase2,1303931,,,,,,,,object_10c.png,,,49,,,,1,,object_06a.png,object_07a.png,object_09a.png,object_06a.png,,0.7708333333333334,1,,,,,,,,,,,
3249.0999999940395,,directmemory_phase2,1307184,,,,,,,,object_04c.png,,,50,,,,1,,object_09b.png,object_12a.png,object_10c.png,object_12a.png,,0.7755102040816326,1,,,,,,,,,,,
13806.300000011921,,directmemory_phase2,1320994,,,,,,,,object_09b.png,,,50,,,,1,,object_11b.png,object_12b.png,object_13c.png,object_12b.png,,0.78,1,,,,,,,,,,,
10276.199999988079,,directmemory_phase2,1331274,,,,,,,,object_03a.png,,,51,,,,1,,object_08c.png,object_02c.png,object_14b.png,object_14b.png,,0.7843137254901961,1,,,,,,,,,,,
8281.59999999404,,directmemory_phase2,1339560,,,,,,,,object_10b.png,,,50,,,,1,,object_14b.png,object_08b.png,object_07b.png,object_08b.png,,0.7884615384615384,1,,,,,,,,,,,
8159.5,,directmemory_phase2,1347726,,,,,,,,object_08c.png,,,49,,,,1,,object_09a.png,object_04a.png,object_04b.png,object_09a.png,,0.7924528301886793,1,,,,,,,,,,,
3332.2999999821186,,directmemory_phase2,1351063,,,,,,,,object_08a.png,,,50,,,,1,,object_09b.png,object_14c.png,object_12a.png,object_14c.png,,0.7962962962962963,1,,,,,,,,,,,
1854.4000000059605,,directmemory_phase2,1352924,,,,,,,,object_11c.png,,,49,,,,1,,object_10c.png,object_15c.png,object_07b.png,object_10c.png,,0.8,1,,,,,,,,,,,
null,,directmemory_phase2,1367929,,,,,,,,object_11a.png,,,null,,,,0,,object_12a.png,object_09c.png,object_05a.png,object_05a.png,,0.7857142857142857,0,,,,,,,,,,,
null,,warning_page,1372933,,,,,,,,warning,,,null,,,,,,,,,,,,,,,,,,,,,,,
2715.199999988079,,directmemory_phase2,1375651,,,,,,,,object_13b.png,,,49,,,,1,,object_01a.png,object_05b.png,object_11b.png,object_01a.png,,0.7894736842105263,1,,,,,,,,,,,
3003.100000023842,,directmemory_phase2,1378660,,,,,,,,object_14a.png,,,49,,,,1,,object_15b.png,object_08c.png,object_12a.png,object_15b.png,,0.7931034482758621,1,,,,,,,,,,,
7548,,directmemory_phase2,1386213,,,,,,,,object_05a.png,,,51,,,,1,,object_07c.png,object_10a.png,object_04b.png,object_04b.png,,0.7966101694915254,1,,,,,,,,,,,
4406.199999988079,,directmemory_phase2,1390622,,,,,,,,object_07b.png,,,50,,,,1,,object_01a.png,object_10a.png,object_09a.png,object_10a.png,,0.8,1,,,,,,,,,,,
null,,thebreak,1390726,,,,,,,,<p></p>,,,null,,,,,,,,,,,,,,,,,,,,,,,
13814.90000000596,,intro_0,1404544,,,,,,,,instruct,,,32,,,,,,,,,,,,,,,,,,,,,,,
null,,learn_phase(without_color)3,1408049,,,,,,,,black_plus_sign,,,null,,object_05b.png,object_02c.png,,,,,,,,,,,,,,,,,,,,
null,,black_cross(without_color)3,1408838,,,,,,,,blue,,,null,,object_05b.png,object_02c.png,,,,,,,,,,,,,,,,,,,,
null,,rt_plussign_withcolor3,1409342,,,,,,,,blue,,,null,,object_05b.png,object_02c.png,,,,,,,,,,,,,,,,,,,,
2070.300000011921,,rt_thecrossant_black3,1410559,,,,,,,,black_plus_sign,,,49,,,,1,,,,,,,1,,,,,,,,,,,,
null,,color_black3,1410662,,,,,,,,black_plus_sign,,,null,,,,,,,,,,,,,,,,,,,,,,,
null,,learn_phase(without_color)3,1414167,,,,,,,,black_plus_sign,,,null,,object_05a.png,object_11a.png,,,,,,,,,,,,,,,,,,,,
null,,black_cross(without_color)3,1415152,,,,,,,,green,,,null,,object_05a.png,object_11a.png,,,,,,,,,,,,,,,,,,,,
null,,rt_plussign_withcolor3,1415654,,,,,,,,green,,,null,,object_05a.png,object_11a.png,,,,,,,,,,,,,,,,,,,,
1277.300000011921,,rt_thecrossant_black3,1416676,,,,,,,,black_plus_sign,,,50,,,,1,,,,,,,1,,,,,,,,,,,,
null,,color_black3,1416796,,,,,,,,black_plus_sign,,,null,,,,,,,,,,,,,,,,,,,,,,,
null,,learn_phase(without_color)3,1420303,,,,,,,,black_plus_sign,,,null,,object_15a.png,object_13a.png,,,,,,,,,,,,,,,,,,,,
null,,black_cross(without_color)3,1421329,,,,,,,,blue,,,null,,object_15a.png,object_13a.png,,,,,,,,,,,,,,,,,,,,
null,,rt_plussign_withcolor3,1421832,,,,,,,,blue,,,null,,object_15a.png,object_13a.png,,,,,,,,,,,,,,,,,,,,
1332.300000011921,,rt_thecrossant_black3,1422814,,,,,,,,black_plus_sign,,,49,,,,1,,,,,,,1,,,,,,,,,,,,
null,,color_black3,1422919,,,,,,,,black_plus_sign,,,null,,,,,,,,,,,,,,,,,,,,,,,
null,,learn_phase(without_color)3,1426424,,,,,,,,black_plus_sign,,,null,,object_14b.png,object_03a.png,,,,,,,,,,,,,,,,,,,,
null,,black_cross(without_color)3,1426933,,,,,,,,green,,,null,,object_14b.png,object_03a.png,,,,,,,,,,,,,,,,,,,,
null,,rt_plussign_withcolor3,1427436,,,,,,,,green,,,null,,object_14b.png,object_03a.png,,,,,,,,,,,,,,,,,,,,
1972.9000000059605,,rt_thecrossant_black3,1428932,,,,,,,,black_plus_sign,,,50,,,,1,,,,,,,1,,,,,,,,,,,,
null,,color_black3,1429036,,,,,,,,black_plus_sign,,,null,,,,,,,,,,,,,,,,,,,,,,,
null,,learn_phase(without_color)3,1432541,,,,,,,,black_plus_sign,,,null,,object_02b.png,object_15b.png,,,,,,,,,,,,,,,,,,,,
null,,black_cross(without_color)3,1433388,,,,,,,,green,,,null,,object_02b.png,object_15b.png,,,,,,,,,,,,,,,,,,,,
null,,rt_plussign_withcolor3,1433893,,,,,,,,green,,,null,,object_02b.png,object_15b.png,,,,,,,,,,,,,,,,,,,,
1089.8999999761581,,rt_thecrossant_black3,1435062,,,,,,,,black_plus_sign,,,50,,,,1,,,,,,,1,,,,,,,,,,,,
null,,color_black3,1435165,,,,,,,,black_plus_sign,,,null,,,,,,,,,,,,,,,,,,,,,,,
null,,learn_phase(without_color)3,1438671,,,,,,,,black_plus_sign,,,null,,object_09c.png,object_01b.png,,,,,,,,,,,,,,,,,,,,
null,,black_cross(without_color)3,1439540,,,,,,,,green,,,null,,object_09c.png,object_01b.png,,,,,,,,,,,,,,,,,,,,
null,,rt_plussign_withcolor3,1440045,,,,,,,,green,,,null,,object_09c.png,object_01b.png,,,,,,,,,,,,,,,,,,,,
1463.199999988079,,rt_thecrossant_black3,1441185,,,,,,,,black_plus_sign,,,50,,,,1,,,,,,,1,,,,,,,,,,,,
null,,color_black3,1441290,,,,,,,,black_plus_sign,,,null,,,,,,,,,,,,,,,,,,,,,,,
null,,learn_phase(without_color)3,1444796,,,,,,,,black_plus_sign,,,null,,object_07c.png,object_14b.png,,,,,,,,,,,,,,,,,,,,
null,,black_cross(without_color)3,1445263,,,,,,,,blue,,,null,,object_07c.png,object_14b.png,,,,,,,,,,,,,,,,,,,,
null,,rt_plussign_withcolor3,1445766,,,,,,,,blue,,,null,,object_07c.png,object_14b.png,,,,,,,,,,,,,,,,,,,,
1560.5,,rt_thecrossant_black3,1447308,,,,,,,,black_plus_sign,,,49,,,,1,,,,,,,1,,,,,,,,,,,,
null,,color_black3,1447413,,,,,,,,black_plus_sign,,,null,,,,,,,,,,,,,,,,,,,,,,,
null,,learn_phase(without_color)3,1450918,,,,,,,,black_plus_sign,,,null,,object_06c.png,object_08b.png,,,,,,,,,,,,,,,,,,,,
null,,black_cross(without_color)3,1451473,,,,,,,,green,,,null,,object_06c.png,object_08b.png,,,,,,,,,,,,,,,,,,,,
null,,rt_plussign_withcolor3,1451977,,,,,,,,green,,,null,,object_06c.png,object_08b.png,,,,,,,,,,,,,,,,,,,,
818.9000000059605,,rt_thecrossant_black3,1453429,,,,,,,,black_plus_sign,,,50,,,,1,,,,,,,1,,,,,,,,,,,,
null,,color_black3,1453533,,,,,,,,black_plus_sign,,,null,,,,,,,,,,,,,,,,,,,,,,,
null,,learn_phase(without_color)3,1457037,,,,,,,,black_plus_sign,,,null,,object_15b.png,object_14a.png,,,,,,,,,,,,,,,,,,,,
null,,black_cross(without_color)3,1457548,,,,,,,,blue,,,null,,object_15b.png,object_14a.png,,,,,,,,,,,,,,,,,,,,
null,,rt_plussign_withcolor3,1458052,,,,,,,,blue,,,null,,object_15b.png,object_14a.png,,,,,,,,,,,,,,,,,,,,
1028.4000000059605,,rt_thecrossant_black3,1459549,,,,,,,,black_plus_sign,,,49,,,,1,,,,,,,1,,,,,,,,,,,,
null,,color_black3,1459655,,,,,,,,black_plus_sign,,,null,,,,,,,,,,,,,,,,,,,,,,,
null,,learn_phase(without_color)3,1463162,,,,,,,,black_plus_sign,,,null,,object_07a.png,object_09c.png,,,,,,,,,,,,,,,,,,,,
null,,black_cross(without_color)3,1463797,,,,,,,,blue,,,null,,object_07a.png,object_09c.png,,,,,,,,,,,,,,,,,,,,
null,,rt_plussign_withcolor3,1464301,,,,,,,,blue,,,null,,object_07a.png,object_09c.png,,,,,,,,,,,,,,,,,,,,
1105.7000000178814,,rt_thecrossant_black3,1465687,,,,,,,,black_plus_sign,,,49,,,,1,,,,,,,1,,,,,,,,,,,,
null,,color_black3,1465791,,,,,,,,black_plus_sign,,,null,,,,,,,,,,,,,,,,,,,,,,,
null,,learn_phase(without_color)3,1469296,,,,,,,,black_plus_sign,,,null,,object_02c.png,object_06b.png,,,,,,,,,,,,,,,,,,,,
null,,black_cross(without_color)3,1470017,,,,,,,,blue,,,null,,object_02c.png,object_06b.png,,,,,,,,,,,,,,,,,,,,
null,,rt_plussign_withcolor3,1470520,,,,,,,,blue,,,null,,object_02c.png,object_06b.png,,,,,,,,,,,,,,,,,,,,
922.1000000238419,,rt_thecrossant_black3,1471808,,,,,,,,black_plus_sign,,,49,,,,1,,,,,,,1,,,,,,,,,,,,
null,,color_black3,1471914,,,,,,,,black_plus_sign,,,null,,,,,,,,,,,,,,,,,,,,,,,
null,,learn_phase(without_color)3,1475420,,,,,,,,black_plus_sign,,,null,,object_14c.png,object_08a.png,,,,,,,,,,,,,,,,,,,,
null,,black_cross(without_color)3,1476256,,,,,,,,green,,,null,,object_14c.png,object_08a.png,,,,,,,,,,,,,,,,,,,,
null,,rt_plussign_withcolor3,1476760,,,,,,,,green,,,null,,object_14c.png,object_08a.png,,,,,,,,,,,,,,,,,,,,
1299.7000000178814,,rt_thecrossant_black3,1477931,,,,,,,,black_plus_sign,,,50,,,,1,,,,,,,1,,,,,,,,,,,,
null,,color_black3,1478035,,,,,,,,black_plus_sign,,,null,,,,,,,,,,,,,,,,,,,,,,,
null,,learn_phase(without_color)3,1481539,,,,,,,,black_plus_sign,,,null,,object_10c.png,object_11c.png,,,,,,,,,,,,,,,,,,,,
null,,black_cross(without_color)3,1482309,,,,,,,,blue,,,null,,object_10c.png,object_11c.png,,,,,,,,,,,,,,,,,,,,
null,,rt_plussign_withcolor3,1482812,,,,,,,,blue,,,null,,object_10c.png,object_11c.png,,,,,,,,,,,,,,,,,,,,
1448,,rt_thecrossant_black3,1484053,,,,,,,,black_plus_sign,,,49,,,,1,,,,,,,1,,,,,,,,,,,,
null,,color_black3,1484157,,,,,,,,black_plus_sign,,,null,,,,,,,,,,,,,,,,,,,,,,,
null,,learn_phase(without_color)3,1487660,,,,,,,,black_plus_sign,,,null,,object_09b.png,object_12c.png,,,,,,,,,,,,,,,,,,,,
null,,black_cross(without_color)3,1488376,,,,,,,,blue,,,null,,object_09b.png,object_12c.png,,,,,,,,,,,,,,,,,,,,
null,,rt_plussign_withcolor3,1488879,,,,,,,,blue,,,null,,object_09b.png,object_12c.png,,,,,,,,,,,,,,,,,,,,
1521.0999999940395,,rt_thecrossant_black3,1490171,,,,,,,,black_plus_sign,,,49,,,,1,,,,,,,1,,,,,,,,,,,,
null,,color_black3,1490275,,,,,,,,black_plus_sign,,,null,,,,,,,,,,,,,,,,,,,,,,,
null,,learn_phase(without_color)3,1493779,,,,,,,,black_plus_sign,,,null,,object_09a.png,object_08c.png,,,,,,,,,,,,,,,,,,,,
null,,black_cross(without_color)3,1494865,,,,,,,,blue,,,null,,object_09a.png,object_08c.png,,,,,,,,,,,,,,,,,,,,
null,,rt_plussign_withcolor3,1495368,,,,,,,,blue,,,null,,object_09a.png,object_08c.png,,,,,,,,,,,,,,,,,,,,
1264.0999999940395,,rt_thecrossant_black3,1496289,,,,,,,,black_plus_sign,,,49,,,,1,,,,,,,1,,,,,,,,,,,,
null,,color_black3,1496394,,,,,,,,black_plus_sign,,,null,,,,,,,,,,,,,,,,,,,,,,,
null,,learn_phase(without_color)3,1499900,,,,,,,,black_plus_sign,,,null,,object_06a.png,object_10c.png,,,,,,,,,,,,,,,,,,,,
null,,black_cross(without_color)3,1500556,,,,,,,,green,,,null,,object_06a.png,object_10c.png,,,,,,,,,,,,,,,,,,,,
null,,rt_plussign_withcolor3,1501059,,,,,,,,green,,,null,,object_06a.png,object_10c.png,,,,,,,,,,,,,,,,,,,,
1763.199999988079,,rt_thecrossant_black3,1502416,,,,,,,,black_plus_sign,,,50,,,,1,,,,,,,1,,,,,,,,,,,,
null,,color_black3,1502532,,,,,,,,black_plus_sign,,,null,,,,,,,,,,,,,,,,,,,,,,,
null,,learn_phase(without_color)3,1506036,,,,,,,,black_plus_sign,,,null,,object_07b.png,object_03b.png,,,,,,,,,,,,,,,,,,,,
null,,black_cross(without_color)3,1506655,,,,,,,,green,,,null,,object_07b.png,object_03b.png,,,,,,,,,,,,,,,,,,,,
null,,rt_plussign_withcolor3,1507157,,,,,,,,green,,,null,,object_07b.png,object_03b.png,,,,,,,,,,,,,,,,,,,,
1146.5,,rt_thecrossant_black3,1508544,,,,,,,,black_plus_sign,,,50,,,,1,,,,,,,1,,,,,,,,,,,,
null,,color_black3,1508648,,,,,,,,black_plus_sign,,,null,,,,,,,,,,,,,,,,,,,,,,,
null,,learn_phase(without_color)3,1512152,,,,,,,,black_plus_sign,,,null,,object_13c.png,object_15c.png,,,,,,,,,,,,,,,,,,,,
null,,black_cross(without_color)3,1513240,,,,,,,,blue,,,null,,object_13c.png,object_15c.png,,,,,,,,,,,,,,,,,,,,
null,,rt_plussign_withcolor3,1513743,,,,,,,,blue,,,null,,object_13c.png,object_15c.png,,,,,,,,,,,,,,,,,,,,
883.4000000059605,,rt_thecrossant_black3,1514663,,,,,,,,black_plus_sign,,,49,,,,1,,,,,,,1,,,,,,,,,,,,
null,,color_black3,1514766,,,,,,,,black_plus_sign,,,null,,,,,,,,,,,,,,,,,,,,,,,
null,,learn_phase(without_color)3,1518270,,,,,,,,black_plus_sign,,,null,,object_15c.png,object_03c.png,,,,,,,,,,,,,,,,,,,,
null,,black_cross(without_color)3,1519318,,,,,,,,blue,,,null,,object_15c.png,object_03c.png,,,,,,,,,,,,,,,,,,,,
null,,rt_plussign_withcolor3,1519821,,,,,,,,blue,,,null,,object_15c.png,object_03c.png,,,,,,,,,,,,,,,,,,,,
1562.0999999940395,,rt_thecrossant_black3,1520779,,,,,,,,black_plus_sign,,,49,,,,1,,,,,,,1,,,,,,,,,,,,
null,,color_black3,1520884,,,,,,,,black_plus_sign,,,null,,,,,,,,,,,,,,,,,,,,,,,
null,,learn_phase(without_color)3,1524390,,,,,,,,black_plus_sign,,,null,,object_10a.png,object_07b.png,,,,,,,,,,,,,,,,,,,,
null,,black_cross(without_color)3,1525362,,,,,,,,blue,,,null,,object_10a.png,object_07b.png,,,,,,,,,,,,,,,,,,,,
null,,rt_plussign_withcolor3,1525865,,,,,,,,blue,,,null,,object_10a.png,object_07b.png,,,,,,,,,,,,,,,,,,,,
1603.2999999821186,,rt_thecrossant_black3,1526901,,,,,,,,black_plus_sign,,,49,,,,1,,,,,,,1,,,,,,,,,,,,
null,,color_black3,1527005,,,,,,,,black_plus_sign,,,null,,,,,,,,,,,,,,,,,,,,,,,
null,,learn_phase(without_color)3,1530510,,,,,,,,black_plus_sign,,,null,,object_08b.png,object_10b.png,,,,,,,,,,,,,,,,,,,,
null,,black_cross(without_color)3,1530975,,,,,,,,blue,,,null,,object_08b.png,object_10b.png,,,,,,,,,,,,,,,,,,,,
null,,rt_plussign_withcolor3,1531478,,,,,,,,blue,,,null,,object_08b.png,object_10b.png,,,,,,,,,,,,,,,,,,,,
1371.7000000178814,,rt_thecrossant_black3,1533023,,,,,,,,black_plus_sign,,,49,,,,1,,,,,,,1,,,,,,,,,,,,
null,,color_black3,1533128,,,,,,,,black_plus_sign,,,null,,,,,,,,,,,,,,,,,,,,,,,
null,,learn_phase(without_color)3,1536634,,,,,,,,black_plus_sign,,,null,,object_12b.png,object_09b.png,,,,,,,,,,,,,,,,,,,,
null,,black_cross(without_color)3,1537181,,,,,,,,blue,,,null,,object_12b.png,object_09b.png,,,,,,,,,,,,,,,,,,,,
null,,rt_plussign_withcolor3,1537685,,,,,,,,blue,,,null,,object_12b.png,object_09b.png,,,,,,,,,,,,,,,,,,,,
856.9000000059605,,rt_thecrossant_black3,1539146,,,,,,,,black_plus_sign,,,49,,,,1,,,,,,,1,,,,,,,,,,,,
null,,color_black3,1539251,,,,,,,,black_plus_sign,,,null,,,,,,,,,,,,,,,,,,,,,,,
null,,learn_phase(without_color)3,1542757,,,,,,,,black_plus_sign,,,null,,object_08c.png,object_01c.png,,,,,,,,,,,,,,,,,,,,
null,,black_cross(without_color)3,1543655,,,,,,,,blue,,,null,,object_08c.png,object_01c.png,,,,,,,,,,,,,,,,,,,,
null,,rt_plussign_withcolor3,1544159,,,,,,,,blue,,,null,,object_08c.png,object_01c.png,,,,,,,,,,,,,,,,,,,,
980.2999999821186,,rt_thecrossant_black3,1545269,,,,,,,,black_plus_sign,,,49,,,,1,,,,,,,1,,,,,,,,,,,,
null,,color_black3,1545374,,,,,,,,black_plus_sign,,,null,,,,,,,,,,,,,,,,,,,,,,,
null,,learn_phase(without_color)3,1548878,,,,,,,,black_plus_sign,,,null,,object_11b.png,object_12a.png,,,,,,,,,,,,,,,,,,,,
null,,black_cross(without_color)3,1549683,,,,,,,,blue,,,null,,object_11b.png,object_12a.png,,,,,,,,,,,,,,,,,,,,
null,,rt_plussign_withcolor3,1550187,,,,,,,,blue,,,null,,object_11b.png,object_12a.png,,,,,,,,,,,,,,,,,,,,
1250.5999999940395,,rt_thecrossant_black3,1551391,,,,,,,,black_plus_sign,,,49,,,,1,,,,,,,1,,,,,,,,,,,,
null,,color_black3,1551497,,,,,,,,black_plus_sign,,,null,,,,,,,,,,,,,,,,,,,,,,,
null,,learn_phase(without_color)3,1555003,,,,,,,,black_plus_sign,,,null,,object_05c.png,object_14c.png,,,,,,,,,,,,,,,,,,,,
null,,black_cross(without_color)3,1555509,,,,,,,,green,,,null,,object_05c.png,object_14c.png,,,,,,,,,,,,,,,,,,,,
null,,rt_plussign_withcolor3,1556012,,,,,,,,green,,,null,,object_05c.png,object_14c.png,,,,,,,,,,,,,,,,,,,,
1424.2999999821186,,rt_thecrossant_black3,1557514,,,,,,,,black_plus_sign,,,50,,,,1,,,,,,,1,,,,,,,,,,,,
null,,color_black3,1557619,,,,,,,,black_plus_sign,,,null,,,,,,,,,,,,,,,,,,,,,,,
null,,learn_phase(without_color)3,1561125,,,,,,,,black_plus_sign,,,null,,object_01a.png,object_13b.png,,,,,,,,,,,,,,,,,,,,
null,,black_cross(without_color)3,1562087,,,,,,,,blue,,,null,,object_01a.png,object_13b.png,,,,,,,,,,,,,,,,,,,,
null,,rt_plussign_withcolor3,1562590,,,,,,,,blue,,,null,,object_01a.png,object_13b.png,,,,,,,,,,,,,,,,,,,,
988.6999999880791,,rt_thecrossant_black3,1563637,,,,,,,,black_plus_sign,,,49,,,,1,,,,,,,1,,,,,,,,,,,,
null,,color_black3,1563741,,,,,,,,black_plus_sign,,,null,,,,,,,,,,,,,,,,,,,,,,,
null,,learn_phase(without_color)3,1567245,,,,,,,,black_plus_sign,,,null,,object_12a.png,object_04c.png,,,,,,,,,,,,,,,,,,,,
null,,black_cross(without_color)3,1568093,,,,,,,,green,,,null,,object_12a.png,object_04c.png,,,,,,,,,,,,,,,,,,,,
null,,rt_plussign_withcolor3,1568597,,,,,,,,green,,,null,,object_12a.png,object_04c.png,,,,,,,,,,,,,,,,,,,,
1529,,rt_thecrossant_black3,1569755,,,,,,,,black_plus_sign,,,50,,,,1,,,,,,,1,,,,,,,,,,,,
null,,color_black3,1569860,,,,,,,,black_plus_sign,,,null,,,,,,,,,,,,,,,,,,,,,,,
null,,learn_phase(without_color)3,1573366,,,,,,,,black_plus_sign,,,null,,object_13b.png,object_02a.png,,,,,,,,,,,,,,,,,,,,
null,,black_cross(without_color)3,1574205,,,,,,,,green,,,null,,object_13b.png,object_02a.png,,,,,,,,,,,,,,,,,,,,
null,,rt_plussign_withcolor3,1574709,,,,,,,,green,,,null,,object_13b.png,object_02a.png,,,,,,,,,,,,,,,,,,,,
1399.300000011921,,rt_thecrossant_black3,1575878,,,,,,,,black_plus_sign,,,50,,,,1,,,,,,,1,,,,,,,,,,,,
null,,color_black3,1575982,,,,,,,,black_plus_sign,,,null,,,,,,,,,,,,,,,,,,,,,,,
null,,learn_phase(without_color)3,1579488,,,,,,,,black_plus_sign,,,null,,object_04b.png,object_05a.png,,,,,,,,,,,,,,,,,,,,
null,,black_cross(without_color)3,1580520,,,,,,,,blue,,,null,,object_04b.png,object_05a.png,,,,,,,,,,,,,,,,,,,,
null,,rt_plussign_withcolor3,1581024,,,,,,,,blue,,,null,,object_04b.png,object_05a.png,,,,,,,,,,,,,,,,,,,,
1157,,rt_thecrossant_black3,1582001,,,,,,,,black_plus_sign,,,49,,,,1,,,,,,,1,,,,,,,,,,,,
null,,color_black3,1582104,,,,,,,,black_plus_sign,,,null,,,,,,,,,,,,,,,,,,,,,,,
null,,learn_phase(without_color)3,1585608,,,,,,,,black_plus_sign,,,null,,object_04a.png,object_15a.png,,,,,,,,,,,,,,,,,,,,
null,,black_cross(without_color)3,1586292,,,,,,,,green,,,null,,object_04a.png,object_15a.png,,,,,,,,,,,,,,,,,,,,
null,,rt_plussign_withcolor3,1586796,,,,,,,,green,,,null,,object_04a.png,object_15a.png,,,,,,,,,,,,,,,,,,,,
1352.2000000178814,,rt_thecrossant_black3,1588121,,,,,,,,black_plus_sign,,,50,,,,1,,,,,,,1,,,,,,,,,,,,
null,,color_black3,1588227,,,,,,,,black_plus_sign,,,null,,,,,,,,,,,,,,,,,,,,,,,
null,,thebreak,1588333,,,,,,,,<p></p>,,,null,,,,,,,,,,,,,,,,,,,,,,,
23473.40000000596,,intro_0,1611808,,,,,,,,instruct,,,32,,,,,,,,,,,,,,,,,,,,,,,
7269.5999999940395,,directmemory_phase3,1619080,,,,,,,,object_02c.png,,,49,,,,1,,object_05b.png,object_07c.png,object_04a.png,object_05b.png,,0.8032786885245902,1,,,,,,,,,,,
2342.2999999821186,,directmemory_phase3,1621429,,,,,,,,object_13b.png,,,51,,,,1,,object_04b.png,object_12b.png,object_01a.png,object_01a.png,,0.8064516129032258,1,,,,,,,,,,,
5974.699999988079,,directmemory_phase3,1627409,,,,,,,,object_10b.png,,,49,,,,1,,object_08b.png,object_09b.png,object_15a.png,object_08b.png,,0.8095238095238095,1,,,,,,,,,,,
3444.9000000059605,,directmemory_phase3,1630858,,,,,,,,object_05a.png,,,49,,,,1,,object_04b.png,object_06a.png,object_05c.png,object_04b.png,,0.8125,1,,,,,,,,,,,
3906.5999999940395,,directmemory_phase3,1634769,,,,,,,,object_12c.png,,,51,,,,1,,object_15c.png,object_14c.png,object_09b.png,object_09b.png,,0.8153846153846154,1,,,,,,,,,,,
6612.5999999940395,,directmemory_phase3,1641384,,,,,,,,object_07b.png,,,49,,,,1,,object_10a.png,object_05c.png,object_13c.png,object_10a.png,,0.8181818181818182,1,,,,,,,,,,,
4956.799999982119,,directmemory_phase3,1646347,,,,,,,,object_15a.png,,,51,,,,1,,object_07a.png,object_10a.png,object_04a.png,object_04a.png,,0.8208955223880597,1,,,,,,,,,,,
3088.2000000178814,,directmemory_phase3,1649440,,,,,,,,object_03a.png,,,50,,,,1,,object_05a.png,object_14b.png,object_14c.png,object_14b.png,,0.8235294117647058,1,,,,,,,,,,,
3234.5999999940395,,directmemory_phase3,1652677,,,,,,,,object_04c.png,,,51,,,,1,,object_15c.png,object_15a.png,object_12a.png,object_12a.png,,0.8260869565217391,1,,,,,,,,,,,
4700.299999982119,,directmemory_phase3,1657382,,,,,,,,object_15c.png,,,50,,,,1,,object_04b.png,object_13c.png,object_11b.png,object_13c.png,,0.8285714285714286,1,,,,,,,,,,,
10230.200000017881,,directmemory_phase3,1667615,,,,,,,,object_08b.png,,,50,,,,1,,object_13c.png,object_06c.png,object_07c.png,object_06c.png,,0.8309859154929577,1,,,,,,,,,,,
5101.300000011921,,directmemory_phase3,1672719,,,,,,,,object_14c.png,,,50,,,,1,,object_09a.png,object_05c.png,object_04a.png,object_05c.png,,0.8333333333333334,1,,,,,,,,,,,
4589.4000000059605,,directmemory_phase3,1677312,,,,,,,,object_10c.png,,,49,,,,1,,object_06a.png,object_05b.png,object_07a.png,object_06a.png,,0.8356164383561644,1,,,,,,,,,,,
1343.5,,directmemory_phase3,1678660,,,,,,,,object_11c.png,,,50,,,,1,,object_14c.png,object_10c.png,object_05a.png,object_10c.png,,0.8378378378378378,1,,,,,,,,,,,
4579.0999999940395,,directmemory_phase3,1683242,,,,,,,,object_08c.png,,,50,,,,1,,object_12b.png,object_09a.png,object_04a.png,object_09a.png,,0.84,1,,,,,,,,,,,
6213.5999999940395,,directmemory_phase3,1689458,,,,,,,,object_06b.png,,,50,,,,1,,object_13b.png,object_02c.png,object_10c.png,object_02c.png,,0.8421052631578947,1,,,,,,,,,,,
1976.699999988079,,directmemory_phase3,1691438,,,,,,,,object_01b.png,,,51,,,,1,,object_09b.png,object_14b.png,object_09c.png,object_09c.png,,0.8441558441558441,1,,,,,,,,,,,
13668.899999976158,,directmemory_phase3,1705111,,,,,,,,object_11a.png,,,50,,,,0,,object_05a.png,object_08b.png,object_14b.png,object_05a.png,,0.8333333333333334,0,,,,,,,,,,,
5712.899999976158,,directmemory_phase3,1710829,,,,,,,,object_02a.png,,,51,,,,1,,object_15a.png,object_02c.png,object_13b.png,object_13b.png,,0.8354430379746836,1,,,,,,,,,,,
2892.5,,directmemory_phase3,1713723,,,,,,,,object_01c.png,,,51,,,,1,,object_05a.png,object_09b.png,object_08c.png,object_08c.png,,0.8375,1,,,,,,,,,,,
5350.5999999940395,,directmemory_phase3,1719078,,,,,,,,object_08a.png,,,50,,,,1,,object_15c.png,object_14c.png,object_09b.png,object_14c.png,,0.8395061728395061,1,,,,,,,,,,,
3802,,directmemory_phase3,1722887,,,,,,,,object_03c.png,,,50,,,,1,,object_12a.png,object_15c.png,object_02c.png,object_15c.png,,0.8414634146341463,1,,,,,,,,,,,
8374.5,,directmemory_phase3,1731268,,,,,,,,object_14b.png,,,49,,,,1,,object_07c.png,object_10a.png,object_12b.png,object_07c.png,,0.8433734939759037,1,,,,,,,,,,,
3210.699999988079,,directmemory_phase3,1734485,,,,,,,,object_12a.png,,,50,,,,1,,object_07a.png,object_11b.png,object_05c.png,object_11b.png,,0.8452380952380952,1,,,,,,,,,,,
6478.899999976158,,directmemory_phase3,1740968,,,,,,,,object_09b.png,,,50,,,,1,,object_07a.png,object_12b.png,object_05c.png,object_12b.png,,0.8470588235294118,1,,,,,,,,,,,
8543.199999988079,,directmemory_phase3,1749515,,,,,,,,object_13a.png,,,51,,,,1,,object_13b.png,object_07b.png,object_15a.png,object_15a.png,,0.8488372093023255,1,,,,,,,,,,,
5538,,directmemory_phase3,1755059,,,,,,,,object_15b.png,,,49,,,,1,,object_02b.png,object_10a.png,object_06c.png,object_02b.png,,0.8505747126436781,1,,,,,,,,,,,
1773.5999999940395,,directmemory_phase3,1756838,,,,,,,,object_03b.png,,,50,,,,1,,object_08c.png,object_07b.png,object_13b.png,object_07b.png,,0.8522727272727273,1,,,,,,,,,,,
3939.4000000059605,,directmemory_phase3,1760782,,,,,,,,object_09c.png,,,51,,,,1,,object_13c.png,object_06c.png,object_07a.png,object_07a.png,,0.8539325842696629,1,,,,,,,,,,,
3262.699999988079,,directmemory_phase3,1764051,,,,,,,,object_14a.png,,,49,,,,1,,object_15b.png,object_15c.png,object_15a.png,object_15b.png,,0.8555555555555555,1,,,,,,,,,,,
null,,thebreak,1764156,,,,,,,,<p></p>,,,null,,,,,,,,,,,,,,,,,,,,,,,
39493.5,,intro_0,1803653,,,,,,,,instruct,,,32,,,,,,,,,,,,,,,,,,,,,,,
null,,learn_phase(without_color)4,1807168,,,,,,,,black_plus_sign,,,null,,object_09b.png,object_12c.png,,,,,,,,,,,,,,,,,,,,
null,,black_cross(without_color)4,1807636,,,,,,,,blue,,,null,,object_09b.png,object_12c.png,,,,,,,,,,,,,,,,,,,,
null,,rt_plussign_withcolor4,1808140,,,,,,,,blue,,,null,,object_09b.png,object_12c.png,,,,,,,,,,,,,,,,,,,,
842.5999999940395,,rt_thecrossant_black4,1809681,,,,,,,,black_plus_sign,,,49,,,,1,,,,,,,1,,,,,,,,,,,,
null,,color_black4,1809784,,,,,,,,black_plus_sign,,,null,,,,,,,,,,,,,,,,,,,,,,,
null,,learn_phase(without_color)4,1813290,,,,,,,,black_plus_sign,,,null,,object_14c.png,object_08a.png,,,,,,,,,,,,,,,,,,,,
null,,black_cross(without_color)4,1814144,,,,,,,,blue,,,null,,object_14c.png,object_08a.png,,,,,,,,,,,,,,,,,,,,
null,,rt_plussign_withcolor4,1814648,,,,,,,,blue,,,null,,object_14c.png,object_08a.png,,,,,,,,,,,,,,,,,,,,
743.9000000059605,,rt_thecrossant_black4,1815803,,,,,,,,black_plus_sign,,,49,,,,1,,,,,,,1,,,,,,,,,,,,
null,,color_black4,1815908,,,,,,,,black_plus_sign,,,null,,,,,,,,,,,,,,,,,,,,,,,
null,,learn_phase(without_color)4,1819412,,,,,,,,black_plus_sign,,,null,,object_15b.png,object_14a.png,,,,,,,,,,,,,,,,,,,,
null,,black_cross(without_color)4,1820169,,,,,,,,green,,,null,,object_15b.png,object_14a.png,,,,,,,,,,,,,,,,,,,,
null,,rt_plussign_withcolor4,1820683,,,,,,,,green,,,null,,object_15b.png,object_14a.png,,,,,,,,,,,,,,,,,,,,
1268.0999999940395,,rt_thecrossant_black4,1821935,,,,,,,,black_plus_sign,,,50,,,,1,,,,,,,1,,,,,,,,,,,,
null,,color_black4,1822038,,,,,,,,black_plus_sign,,,null,,,,,,,,,,,,,,,,,,,,,,,
null,,learn_phase(without_color)4,1825544,,,,,,,,black_plus_sign,,,null,,object_05a.png,object_11a.png,,,,,,,,,,,,,,,,,,,,
null,,black_cross(without_color)4,1826352,,,,,,,,green,,,null,,object_05a.png,object_11a.png,,,,,,,,,,,,,,,,,,,,
null,,rt_plussign_withcolor4,1826856,,,,,,,,green,,,null,,object_05a.png,object_11a.png,,,,,,,,,,,,,,,,,,,,
1084.9000000059605,,rt_thecrossant_black4,1828072,,,,,,,,black_plus_sign,,,50,,,,1,,,,,,,1,,,,,,,,,,,,
null,,color_black4,1828178,,,,,,,,black_plus_sign,,,null,,,,,,,,,,,,,,,,,,,,,,,
null,,learn_phase(without_color)4,1831684,,,,,,,,black_plus_sign,,,null,,object_08c.png,object_01c.png,,,,,,,,,,,,,,,,,,,,
null,,black_cross(without_color)4,1832687,,,,,,,,blue,,,null,,object_08c.png,object_01c.png,,,,,,,,,,,,,,,,,,,,
null,,rt_plussign_withcolor4,1833192,,,,,,,,blue,,,null,,object_08c.png,object_01c.png,,,,,,,,,,,,,,,,,,,,
1127.7000000178814,,rt_thecrossant_black4,1834200,,,,,,,,black_plus_sign,,,49,,,,1,,,,,,,1,,,,,,,,,,,,
null,,color_black4,1834305,,,,,,,,black_plus_sign,,,null,,,,,,,,,,,,,,,,,,,,,,,
null,,learn_phase(without_color)4,1837811,,,,,,,,black_plus_sign,,,null,,object_10a.png,object_07b.png,,,,,,,,,,,,,,,,,,,,
null,,black_cross(without_color)4,1838742,,,,,,,,green,,,null,,object_10a.png,object_07b.png,,,,,,,,,,,,,,,,,,,,
null,,rt_plussign_withcolor4,1839246,,,,,,,,green,,,null,,object_10a.png,object_07b.png,,,,,,,,,,,,,,,,,,,,
1477.300000011921,,rt_thecrossant_black4,1840324,,,,,,,,black_plus_sign,,,50,,,,1,,,,,,,1,,,,,,,,,,,,
null,,color_black4,1840431,,,,,,,,black_plus_sign,,,null,,,,,,,,,,,,,,,,,,,,,,,
null,,learn_phase(without_color)4,1843935,,,,,,,,black_plus_sign,,,null,,object_11b.png,object_12a.png,,,,,,,,,,,,,,,,,,,,
null,,black_cross(without_color)4,1844977,,,,,,,,blue,,,null,,object_11b.png,object_12a.png,,,,,,,,,,,,,,,,,,,,
null,,rt_plussign_withcolor4,1845480,,,,,,,,blue,,,null,,object_11b.png,object_12a.png,,,,,,,,,,,,,,,,,,,,
1427.300000011921,,rt_thecrossant_black4,1846445,,,,,,,,black_plus_sign,,,49,,,,1,,,,,,,1,,,,,,,,,,,,
null,,color_black4,1846550,,,,,,,,black_plus_sign,,,null,,,,,,,,,,,,,,,,,,,,,,,
null,,learn_phase(without_color)4,1850055,,,,,,,,black_plus_sign,,,null,,object_04a.png,object_15a.png,,,,,,,,,,,,,,,,,,,,
null,,black_cross(without_color)4,1850460,,,,,,,,blue,,,null,,object_04a.png,object_15a.png,,,,,,,,,,,,,,,,,,,,
null,,rt_plussign_withcolor4,1850964,,,,,,,,blue,,,null,,object_04a.png,object_15a.png,,,,,,,,,,,,,,,,,,,,
1739.0999999940395,,rt_thecrossant_black4,1852567,,,,,,,,black_plus_sign,,,49,,,,1,,,,,,,1,,,,,,,,,,,,
null,,color_black4,1852675,,,,,,,,black_plus_sign,,,null,,,,,,,,,,,,,,,,,,,,,,,
null,,learn_phase(without_color)4,1856179,,,,,,,,black_plus_sign,,,null,,object_04b.png,object_05a.png,,,,,,,,,,,,,,,,,,,,
null,,black_cross(without_color)4,1857143,,,,,,,,blue,,,null,,object_04b.png,object_05a.png,,,,,,,,,,,,,,,,,,,,
null,,rt_plussign_withcolor4,1857645,,,,,,,,blue,,,null,,object_04b.png,object_05a.png,,,,,,,,,,,,,,,,,,,,
816.1999999880791,,rt_thecrossant_black4,1858700,,,,,,,,black_plus_sign,,,49,,,,1,,,,,,,1,,,,,,,,,,,,
null,,color_black4,1858804,,,,,,,,black_plus_sign,,,null,,,,,,,,,,,,,,,,,,,,,,,
null,,learn_phase(without_color)4,1862309,,,,,,,,black_plus_sign,,,null,,object_13b.png,object_02a.png,,,,,,,,,,,,,,,,,,,,
null,,black_cross(without_color)4,1863127,,,,,,,,green,,,null,,object_13b.png,object_02a.png,,,,,,,,,,,,,,,,,,,,
null,,rt_plussign_withcolor4,1863640,,,,,,,,green,,,null,,object_13b.png,object_02a.png,,,,,,,,,,,,,,,,,,,,
1272.699999988079,,rt_thecrossant_black4,1864836,,,,,,,,black_plus_sign,,,50,,,,1,,,,,,,1,,,,,,,,,,,,
null,,color_black4,1864940,,,,,,,,black_plus_sign,,,null,,,,,,,,,,,,,,,,,,,,,,,
null,,learn_phase(without_color)4,1868444,,,,,,,,black_plus_sign,,,null,,object_14b.png,object_03a.png,,,,,,,,,,,,,,,,,,,,
null,,black_cross(without_color)4,1869271,,,,,,,,green,,,null,,object_14b.png,object_03a.png,,,,,,,,,,,,,,,,,,,,
null,,rt_plussign_withcolor4,1869774,,,,,,,,green,,,null,,object_14b.png,object_03a.png,,,,,,,,,,,,,,,,,,,,
1149.300000011921,,rt_thecrossant_black4,1870958,,,,,,,,black_plus_sign,,,50,,,,1,,,,,,,1,,,,,,,,,,,,
null,,color_black4,1871063,,,,,,,,black_plus_sign,,,null,,,,,,,,,,,,,,,,,,,,,,,
null,,learn_phase(without_color)4,1874575,,,,,,,,black_plus_sign,,,null,,object_05c.png,object_14c.png,,,,,,,,,,,,,,,,,,,,
null,,black_cross(without_color)4,1875315,,,,,,,,green,,,null,,object_05c.png,object_14c.png,,,,,,,,,,,,,,,,,,,,
null,,rt_plussign_withcolor4,1875819,,,,,,,,green,,,null,,object_05c.png,object_14c.png,,,,,,,,,,,,,,,,,,,,
1228.9000000059605,,rt_thecrossant_black4,1877088,,,,,,,,black_plus_sign,,,50,,,,1,,,,,,,1,,,,,,,,,,,,
null,,color_black4,1877192,,,,,,,,black_plus_sign,,,null,,,,,,,,,,,,,,,,,,,,,,,
null,,learn_phase(without_color)4,1880698,,,,,,,,black_plus_sign,,,null,,object_01a.png,object_13b.png,,,,,,,,,,,,,,,,,,,,
null,,black_cross(without_color)4,1881446,,,,,,,,blue,,,null,,object_01a.png,object_13b.png,,,,,,,,,,,,,,,,,,,,
null,,rt_plussign_withcolor4,1881949,,,,,,,,blue,,,null,,object_01a.png,object_13b.png,,,,,,,,,,,,,,,,,,,,
1448,,rt_thecrossant_black4,1883211,,,,,,,,black_plus_sign,,,49,,,,1,,,,,,,1,,,,,,,,,,,,
null,,color_black4,1883316,,,,,,,,black_plus_sign,,,null,,,,,,,,,,,,,,,,,,,,,,,
null,,learn_phase(without_color)4,1886823,,,,,,,,black_plus_sign,,,null,,object_07c.png,object_14b.png,,,,,,,,,,,,,,,,,,,,
null,,black_cross(without_color)4,1887846,,,,,,,,green,,,null,,object_07c.png,object_14b.png,,,,,,,,,,,,,,,,,,,,
null,,rt_plussign_withcolor4,1888350,,,,,,,,green,,,null,,object_07c.png,object_14b.png,,,,,,,,,,,,,,,,,,,,
1048.800000011921,,rt_thecrossant_black4,1889335,,,,,,,,black_plus_sign,,,50,,,,1,,,,,,,1,,,,,,,,,,,,
null,,color_black4,1889439,,,,,,,,black_plus_sign,,,null,,,,,,,,,,,,,,,,,,,,,,,
null,,learn_phase(without_color)4,1892946,,,,,,,,black_plus_sign,,,null,,object_09c.png,object_01b.png,,,,,,,,,,,,,,,,,,,,
null,,black_cross(without_color)4,1893884,,,,,,,,green,,,null,,object_09c.png,object_01b.png,,,,,,,,,,,,,,,,,,,,
null,,rt_plussign_withcolor4,1894388,,,,,,,,green,,,null,,object_09c.png,object_01b.png,,,,,,,,,,,,,,,,,,,,
1429.5999999940395,,rt_thecrossant_black4,1895458,,,,,,,,black_plus_sign,,,50,,,,1,,,,,,,1,,,,,,,,,,,,
null,,color_black4,1895562,,,,,,,,black_plus_sign,,,null,,,,,,,,,,,,,,,,,,,,,,,
null,,learn_phase(without_color)4,1899066,,,,,,,,black_plus_sign,,,null,,object_02b.png,object_15b.png,,,,,,,,,,,,,,,,,,,,
null,,black_cross(without_color)4,1899734,,,,,,,,green,,,null,,object_02b.png,object_15b.png,,,,,,,,,,,,,,,,,,,,
null,,rt_plussign_withcolor4,1900238,,,,,,,,green,,,null,,object_02b.png,object_15b.png,,,,,,,,,,,,,,,,,,,,
1451.5999999940395,,rt_thecrossant_black4,1901579,,,,,,,,black_plus_sign,,,50,,,,1,,,,,,,1,,,,,,,,,,,,
null,,color_black4,1901683,,,,,,,,black_plus_sign,,,null,,,,,,,,,,,,,,,,,,,,,,,
null,,learn_phase(without_color)4,1905190,,,,,,,,black_plus_sign,,,null,,object_12a.png,object_04c.png,,,,,,,,,,,,,,,,,,,,
null,,black_cross(without_color)4,1906238,,,,,,,,blue,,,null,,object_12a.png,object_04c.png,,,,,,,,,,,,,,,,,,,,
null,,rt_plussign_withcolor4,1906741,,,,,,,,blue,,,null,,object_12a.png,object_04c.png,,,,,,,,,,,,,,,,,,,,
1327.800000011921,,rt_thecrossant_black4,1907701,,,,,,,,black_plus_sign,,,49,,,,1,,,,,,,1,,,,,,,,,,,,
null,,color_black4,1907804,,,,,,,,black_plus_sign,,,null,,,,,,,,,,,,,,,,,,,,,,,
null,,learn_phase(without_color)4,1911309,,,,,,,,black_plus_sign,,,null,,object_06a.png,object_10c.png,,,,,,,,,,,,,,,,,,,,
null,,black_cross(without_color)4,1912113,,,,,,,,green,,,null,,object_06a.png,object_10c.png,,,,,,,,,,,,,,,,,,,,
null,,rt_plussign_withcolor4,1912617,,,,,,,,green,,,null,,object_06a.png,object_10c.png,,,,,,,,,,,,,,,,,,,,
1505.5,,rt_thecrossant_black4,1913821,,,,,,,,black_plus_sign,,,50,,,,1,,,,,,,1,,,,,,,,,,,,
null,,color_black4,1913925,,,,,,,,black_plus_sign,,,null,,,,,,,,,,,,,,,,,,,,,,,
null,,learn_phase(without_color)4,1917430,,,,,,,,black_plus_sign,,,null,,object_07a.png,object_09c.png,,,,,,,,,,,,,,,,,,,,
null,,black_cross(without_color)4,1918456,,,,,,,,blue,,,null,,object_07a.png,object_09c.png,,,,,,,,,,,,,,,,,,,,
null,,rt_plussign_withcolor4,1918959,,,,,,,,blue,,,null,,object_07a.png,object_09c.png,,,,,,,,,,,,,,,,,,,,
1106.5,,rt_thecrossant_black4,1919947,,,,,,,,black_plus_sign,,,49,,,,1,,,,,,,1,,,,,,,,,,,,
null,,color_black4,1920058,,,,,,,,black_plus_sign,,,null,,,,,,,,,,,,,,,,,,,,,,,
null,,learn_phase(without_color)4,1923564,,,,,,,,black_plus_sign,,,null,,object_08b.png,object_10b.png,,,,,,,,,,,,,,,,,,,,
null,,black_cross(without_color)4,1924060,,,,,,,,blue,,,null,,object_08b.png,object_10b.png,,,,,,,,,,,,,,,,,,,,
null,,rt_plussign_withcolor4,1924564,,,,,,,,blue,,,null,,object_08b.png,object_10b.png,,,,,,,,,,,,,,,,,,,,
1443.5999999940395,,rt_thecrossant_black4,1926078,,,,,,,,black_plus_sign,,,49,,,,1,,,,,,,1,,,,,,,,,,,,
null,,color_black4,1926183,,,,,,,,black_plus_sign,,,null,,,,,,,,,,,,,,,,,,,,,,,
null,,learn_phase(without_color)4,1929688,,,,,,,,black_plus_sign,,,null,,object_13c.png,object_15c.png,,,,,,,,,,,,,,,,,,,,
null,,black_cross(without_color)4,1930350,,,,,,,,blue,,,null,,object_13c.png,object_15c.png,,,,,,,,,,,,,,,,,,,,
null,,rt_plussign_withcolor4,1930854,,,,,,,,blue,,,null,,object_13c.png,object_15c.png,,,,,,,,,,,,,,,,,,,,
1168.2000000178814,,rt_thecrossant_black4,1932200,,,,,,,,black_plus_sign,,,49,,,,1,,,,,,,1,,,,,,,,,,,,
null,,color_black4,1932305,,,,,,,,black_plus_sign,,,null,,,,,,,,,,,,,,,,,,,,,,,
null,,learn_phase(without_color)4,1935810,,,,,,,,black_plus_sign,,,null,,object_10c.png,object_11c.png,,,,,,,,,,,,,,,,,,,,
null,,black_cross(without_color)4,1936671,,,,,,,,green,,,null,,object_10c.png,object_11c.png,,,,,,,,,,,,,,,,,,,,
null,,rt_plussign_withcolor4,1937175,,,,,,,,green,,,null,,object_10c.png,object_11c.png,,,,,,,,,,,,,,,,,,,,
1047.4000000059605,,rt_thecrossant_black4,1938322,,,,,,,,black_plus_sign,,,50,,,,1,,,,,,,1,,,,,,,,,,,,
null,,color_black4,1938426,,,,,,,,black_plus_sign,,,null,,,,,,,,,,,,,,,,,,,,,,,
null,,learn_phase(without_color)4,1941931,,,,,,,,black_plus_sign,,,null,,object_12b.png,object_09b.png,,,,,,,,,,,,,,,,,,,,
null,,black_cross(without_color)4,1942452,,,,,,,,blue,,,null,,object_12b.png,object_09b.png,,,,,,,,,,,,,,,,,,,,
null,,rt_plussign_withcolor4,1942956,,,,,,,,blue,,,null,,object_12b.png,object_09b.png,,,,,,,,,,,,,,,,,,,,
1400.699999988079,,rt_thecrossant_black4,1944446,,,,,,,,black_plus_sign,,,49,,,,1,,,,,,,1,,,,,,,,,,,,
null,,color_black4,1944550,,,,,,,,black_plus_sign,,,null,,,,,,,,,,,,,,,,,,,,,,,
null,,learn_phase(without_color)4,1948054,,,,,,,,black_plus_sign,,,null,,object_02c.png,object_06b.png,,,,,,,,,,,,,,,,,,,,
null,,black_cross(without_color)4,1949156,,,,,,,,green,,,null,,object_02c.png,object_06b.png,,,,,,,,,,,,,,,,,,,,
null,,rt_plussign_withcolor4,1949660,,,,,,,,green,,,null,,object_02c.png,object_06b.png,,,,,,,,,,,,,,,,,,,,
814.3000000119209,,rt_thecrossant_black4,1950567,,,,,,,,black_plus_sign,,,50,,,,1,,,,,,,1,,,,,,,,,,,,
null,,color_black4,1950673,,,,,,,,black_plus_sign,,,null,,,,,,,,,,,,,,,,,,,,,,,
null,,learn_phase(without_color)4,1954178,,,,,,,,black_plus_sign,,,null,,object_07b.png,object_03b.png,,,,,,,,,,,,,,,,,,,,
null,,black_cross(without_color)4,1954736,,,,,,,,green,,,null,,object_07b.png,object_03b.png,,,,,,,,,,,,,,,,,,,,
null,,rt_plussign_withcolor4,1955243,,,,,,,,green,,,null,,object_07b.png,object_03b.png,,,,,,,,,,,,,,,,,,,,
1809.6000000238419,,rt_thecrossant_black4,1956695,,,,,,,,black_plus_sign,,,50,,,,1,,,,,,,1,,,,,,,,,,,,
null,,color_black4,1956801,,,,,,,,black_plus_sign,,,null,,,,,,,,,,,,,,,,,,,,,,,
null,,learn_phase(without_color)4,1960320,,,,,,,,black_plus_sign,,,null,,object_15a.png,object_13a.png,,,,,,,,,,,,,,,,,,,,
null,,black_cross(without_color)4,1961012,,,,,,,,green,,,null,,object_15a.png,object_13a.png,,,,,,,,,,,,,,,,,,,,
null,,rt_plussign_withcolor4,1961515,,,,,,,,green,,,null,,object_15a.png,object_13a.png,,,,,,,,,,,,,,,,,,,,
1106.800000011921,,rt_thecrossant_black4,1962832,,,,,,,,black_plus_sign,,,50,,,,1,,,,,,,1,,,,,,,,,,,,
null,,color_black4,1962950,,,,,,,,black_plus_sign,,,null,,,,,,,,,,,,,,,,,,,,,,,
null,,learn_phase(without_color)4,1966457,,,,,,,,black_plus_sign,,,null,,object_05b.png,object_02c.png,,,,,,,,,,,,,,,,,,,,
null,,black_cross(without_color)4,1967030,,,,,,,,green,,,null,,object_05b.png,object_02c.png,,,,,,,,,,,,,,,,,,,,
null,,rt_plussign_withcolor4,1967533,,,,,,,,green,,,null,,object_05b.png,object_02c.png,,,,,,,,,,,,,,,,,,,,
1239.7000000178814,,rt_thecrossant_black4,1968970,,,,,,,,black_plus_sign,,,50,,,,1,,,,,,,1,,,,,,,,,,,,
null,,color_black4,1969074,,,,,,,,black_plus_sign,,,null,,,,,,,,,,,,,,,,,,,,,,,
null,,learn_phase(without_color)4,1972578,,,,,,,,black_plus_sign,,,null,,object_06c.png,object_08b.png,,,,,,,,,,,,,,,,,,,,
null,,black_cross(without_color)4,1973322,,,,,,,,green,,,null,,object_06c.png,object_08b.png,,,,,,,,,,,,,,,,,,,,
null,,rt_plussign_withcolor4,1973824,,,,,,,,green,,,null,,object_06c.png,object_08b.png,,,,,,,,,,,,,,,,,,,,
1083.699999988079,,rt_thecrossant_black4,1975088,,,,,,,,black_plus_sign,,,50,,,,1,,,,,,,1,,,,,,,,,,,,
null,,color_black4,1975192,,,,,,,,black_plus_sign,,,null,,,,,,,,,,,,,,,,,,,,,,,
null,,learn_phase(without_color)4,1978696,,,,,,,,black_plus_sign,,,null,,object_15c.png,object_03c.png,,,,,,,,,,,,,,,,,,,,
null,,black_cross(without_color)4,1979387,,,,,,,,green,,,null,,object_15c.png,object_03c.png,,,,,,,,,,,,,,,,,,,,
null,,rt_plussign_withcolor4,1979895,,,,,,,,green,,,null,,object_15c.png,object_03c.png,,,,,,,,,,,,,,,,,,,,
1284,,rt_thecrossant_black4,1981221,,,,,,,,black_plus_sign,,,50,,,,1,,,,,,,1,,,,,,,,,,,,
null,,color_black4,1981327,,,,,,,,black_plus_sign,,,null,,,,,,,,,,,,,,,,,,,,,,,
null,,learn_phase(without_color)4,1984833,,,,,,,,black_plus_sign,,,null,,object_09a.png,object_08c.png,,,,,,,,,,,,,,,,,,,,
null,,black_cross(without_color)4,1985768,,,,,,,,green,,,null,,object_09a.png,object_08c.png,,,,,,,,,,,,,,,,,,,,
null,,rt_plussign_withcolor4,1986271,,,,,,,,green,,,null,,object_09a.png,object_08c.png,,,,,,,,,,,,,,,,,,,,
1073.5999999940395,,rt_thecrossant_black4,1987344,,,,,,,,black_plus_sign,,,50,,,,1,,,,,,,1,,,,,,,,,,,,
null,,color_black4,1987450,,,,,,,,black_plus_sign,,,null,,,,,,,,,,,,,,,,,,,,,,,
null,,thebreak,1987557,,,,,,,,<p></p>,,,null,,,,,,,,,,,,,,,,,,,,,,,
54153.40000000596,,intro_0,2041715,,,,,,,,instruct,,,32,,,,,,,,,,,,,,,,,,,,,,,
5920.4000000059605,,directmemory_phase4,2047640,,,,,,,,object_15a.png,,,49,,,,1,,object_04a.png,object_04b.png,object_09a.png,object_04a.png,,0.8571428571428571,1,,,,,,,,,,,
4976.300000011921,,directmemory_phase4,2052623,,,,,,,,object_15b.png,,,50,,,,1,,object_05b.png,object_02b.png,object_04b.png,object_02b.png,,0.8586956521739131,1,,,,,,,,,,,
1471,,directmemory_phase4,2054098,,,,,,,,object_01b.png,,,50,,,,1,,object_02c.png,object_09c.png,object_10c.png,object_09c.png,,0.8602150537634409,1,,,,,,,,,,,
1411.800000011921,,directmemory_phase4,2055514,,,,,,,,object_03b.png,,,50,,,,1,,object_14c.png,object_07b.png,object_09b.png,object_07b.png,,0.8617021276595744,1,,,,,,,,,,,
5825,,directmemory_phase4,2061345,,,,,,,,object_03c.png,,,49,,,,1,,object_15c.png,object_10c.png,object_02c.png,object_15c.png,,0.8631578947368421,1,,,,,,,,,,,
3266.600000023842,,directmemory_phase4,2064618,,,,,,,,object_07b.png,,,50,,,,1,,object_12b.png,object_10a.png,object_05b.png,object_10a.png,,0.8645833333333334,1,,,,,,,,,,,
1581.4000000059605,,directmemory_phase4,2066206,,,,,,,,object_13b.png,,,50,,,,1,,object_05c.png,object_01a.png,object_10a.png,object_01a.png,,0.865979381443299,1,,,,,,,,,,,
3297.5,,directmemory_phase4,2069507,,,,,,,,object_13a.png,,,50,,,,1,,object_07b.png,object_15a.png,object_08c.png,object_15a.png,,0.8673469387755102,1,,,,,,,,,,,
5325.0999999940395,,directmemory_phase4,2074839,,,,,,,,object_05a.png,,,51,,,,1,,object_05b.png,object_11b.png,object_04b.png,object_04b.png,,0.8686868686868687,1,,,,,,,,,,,
6149.5,,directmemory_phase4,2080994,,,,,,,,object_11c.png,,,50,,,,1,,object_02c.png,object_10c.png,object_15c.png,object_10c.png,,0.87,1,,,,,,,,,,,
3272.5999999940395,,directmemory_phase4,2084273,,,,,,,,object_15c.png,,,49,,,,1,,object_13c.png,object_04a.png,object_07c.png,object_13c.png,,0.8712871287128713,1,,,,,,,,,,,
5450.5999999940395,,directmemory_phase4,2089730,,,,,,,,object_09c.png,,,51,,,,1,,object_09a.png,object_06a.png,object_07a.png,object_07a.png,,0.8725490196078431,1,,,,,,,,,,,
5379.899999976158,,directmemory_phase4,2095115,,,,,,,,object_12c.png,,,49,,,,1,,object_09b.png,object_02c.png,object_12a.png,object_09b.png,,0.8737864077669902,1,,,,,,,,,,,
2987.2000000178814,,directmemory_phase4,2098111,,,,,,,,object_12a.png,,,50,,,,1,,object_05c.png,object_11b.png,object_04a.png,object_11b.png,,0.875,1,,,,,,,,,,,
5771.799999982119,,directmemory_phase4,2103888,,,,,,,,object_08a.png,,,49,,,,1,,object_14c.png,object_08b.png,object_13b.png,object_14c.png,,0.8761904761904762,1,,,,,,,,,,,
3641.699999988079,,directmemory_phase4,2107534,,,,,,,,object_03a.png,,,50,,,,1,,object_02c.png,object_14b.png,object_08c.png,object_14b.png,,0.8773584905660378,1,,,,,,,,,,,
5079.5,,directmemory_phase4,2112617,,,,,,,,object_08c.png,,,50,,,,1,,object_07a.png,object_09a.png,object_05b.png,object_09a.png,,0.8785046728971962,1,,,,,,,,,,,
8346.199999988079,,directmemory_phase4,2120968,,,,,,,,object_01c.png,,,51,,,,1,,object_02c.png,object_15c.png,object_08c.png,object_08c.png,,0.8796296296296297,1,,,,,,,,,,,
3244.5,,directmemory_phase4,2124219,,,,,,,,object_02a.png,,,51,,,,1,,object_15c.png,object_05a.png,object_13b.png,object_13b.png,,0.8807339449541285,1,,,,,,,,,,,
7372.700000017881,,directmemory_phase4,2131598,,,,,,,,object_10b.png,,,49,,,,1,,object_08b.png,object_09b.png,object_12a.png,object_08b.png,,0.8818181818181818,1,,,,,,,,,,,
3466.300000011921,,directmemory_phase4,2135074,,,,,,,,object_04c.png,,,50,,,,1,,object_02c.png,object_12a.png,object_05a.png,object_12a.png,,0.8828828828828829,1,,,,,,,,,,,
2916,,directmemory_phase4,2137995,,,,,,,,object_10c.png,,,50,,,,1,,object_11b.png,object_06a.png,object_04b.png,object_06a.png,,0.8839285714285714,1,,,,,,,,,,,
3114,,directmemory_phase4,2141116,,,,,,,,object_02c.png,,,49,,,,1,,object_05b.png,object_13c.png,object_06a.png,object_05b.png,,0.8849557522123894,1,,,,,,,,,,,
11230.90000000596,,directmemory_phase4,2152354,,,,,,,,object_11a.png,,,50,,,,1,,object_15a.png,object_05a.png,object_09b.png,object_05a.png,,0.8859649122807017,1,,,,,,,,,,,
5023,,directmemory_phase4,2157381,,,,,,,,object_14b.png,,,50,,,,1,,object_09a.png,object_07c.png,object_06a.png,object_07c.png,,0.8869565217391304,1,,,,,,,,,,,
2220.9000000059605,,directmemory_phase4,2159608,,,,,,,,object_08b.png,,,49,,,,1,,object_06c.png,object_05b.png,object_04a.png,object_06c.png,,0.8879310344827587,1,,,,,,,,,,,
4706,,directmemory_phase4,2164320,,,,,,,,object_14c.png,,,51,,,,1,,object_04b.png,object_10a.png,object_05c.png,object_05c.png,,0.8888888888888888,1,,,,,,,,,,,
5244.200000017881,,directmemory_phase4,2169569,,,,,,,,object_09b.png,,,49,,,,1,,object_12b.png,object_11b.png,object_09a.png,object_12b.png,,0.8898305084745762,1,,,,,,,,,,,
9565.399999976158,,directmemory_phase4,2179141,,,,,,,,object_14a.png,,,50,,,,1,,object_08b.png,object_15b.png,object_08c.png,object_15b.png,,0.8907563025210085,1,,,,,,,,,,,
4750.299999982119,,directmemory_phase4,2183897,,,,,,,,object_06b.png,,,50,,,,1,,object_07b.png,object_02c.png,object_10c.png,object_02c.png,,0.8916666666666667,1,,,,,,,,,,,
null,,thebreak,2184002,,,,,,,,<p></p>,,,null,,,,,,,,,,,,,,,,,,,,,,,
5867.100000023842,,intro_0,2189871,,,,,,,,instruct,,,32,,,,,,,,,,,,,,,,,,,,,,,
10515.90000000596,,intro_1,2200389,,,,,,,,instruct,,,32,,,,,,,,,,,,,,,,,,,,,,,
208718.80000001192,,intro_2,2409109,,,,,,,,instruct,,,32,,,,,,,,,,,,,,,,,,,,,,,
,,intro_3,2440902,,,,,,,,instruct,,,,,,,,,,,,,,,,,,,,,,,,,,
4800.4000000059605,,intro_4,2445707,,,,,,,,instruct,,,32,,,,,,,,,,,,,,,,,,,,,,,
null,,thebreak,2445809,,,,,,,,<p></p>,,,null,,,,,,,,,,,,,,,,,,,,,,,
2522.300000011921,,intro_0,2448333,,,,,,,,instruct,,,32,,,,,,,,,,,,,,,,,,,,,,,
23256.40000000596,,intro_1,2471592,,,,,,,,instruct,,,32,,,,,,,,,,,,,,,,,,,,,,,
1284.7000000178814,,intro_2,2472880,,,,,,,,instruct,,,32,,,,,,,,,,,,,,,,,,,,,,,
,,intro_3,2489146,,,,,,,,instruct,,,,,,,,,,,,,,,,,,,,,,,,,,
16785.5,,intro_4,2505935,,,,,,,,instruct,,,32,,,,,,,,,,,,,,,,,,,,,,,
8427.40000000596,,inference_phase,2514366,,,,,,,,object_01b.png,,,49,,object_13c.png,object_07a.png,0,,,,,object_07a.png,,0,,object_06a.png,,,,,,,,,,
8039.4000000059605,,inference_phase,2522415,,,,,,,,object_01c.png,,,51,,object_04a.png,object_04b.png,0,,,,,object_09a.png,,0,,object_09a.png,,,,,,,,,,
7617.9000000059605,,inference_phase,2530040,,,,,,,,object_11a.png,,,51,,object_11b.png,object_04b.png,1,,,,,object_04b.png,,0.3333333333333333,,object_07a.png,,,,,,,,,,
4830.600000023842,,inference_phase,2534875,,,,,,,,object_06b.png,,,51,,object_04b.png,object_05b.png,1,,,,,object_05b.png,,0.5,,object_06c.png,,,,,,,,,,
10270.300000011921,,inference_phase,2545152,,,,,,,,object_02a.png,,,49,,object_04a.png,object_11b.png,0,,,,,object_01a.png,,0.4,,object_01a.png,,,,,,,,,,
