rt,responses,trial_type,time_elapsed,identifier_a,identifier_b,identifier_c,tasktype,browser_type,local_time,UTC_time,stimulus,button_pressed,response,key_press,stimulus_left,stimulus_right,accuracy,practice_cumulative_accuracy,stimulus_down_left,stimulus_down_mid,stimulus_down_right,stimulus_correct,prac_weighted_accuracy,cumulative_accuracy,failed_practice,weighted_accuracy,stimulus_middle,problems,smooth,distraction,strategies,easier,similar,comments,detectfocus,breakfocus,completion_code
8028.799999982119,{worker_id:67d0a4ccb5587fff790273a7},id_enter,8035,object_10a.png; object_02c.png; object_10b.png; object_10c.png; object_12c.png; object_14c.png; object_07b.png; object_07a.png; object_11b.png; object_01a.png; object_03b.png; object_01b.png; object_13a.png; object_02a.png; object_03a.png,object_11c.png; object_15a.png; object_06c.png; object_04b.png; object_09c.png; object_11a.png; object_06a.png; object_13c.png; object_15c.png; object_05a.png; object_12a.png; object_01c.png; object_02b.png; object_05b.png; object_13b.png,object_08c.png; object_03c.png; object_15b.png; object_06b.png; object_12b.png; object_05c.png; object_09b.png; object_04a.png; object_07c.png; object_14a.png; object_04c.png; object_14b.png; object_09a.png; object_08b.png; object_08a.png,interleaved,Mozilla/5.0 (Windows NT 10.0; Win64; x64) AppleWebKit/537.36 (KHTML, like Gecko) Chrome/134.0.0.0 Safari/537.36,4/28/2025, 11:45:48 AM,2025-04-28 16:45:48.943,,,,,,,,,,,,,,,,,,,,,,,,,,,
31555.20000001788,,make_fullscreen,39596,,,,,,,,fullscreen,0,,,,,,,,,,,,,,,,,,,,,,,,,
10948.800000011921,,instruct_1,50547,,,,,,,,instruct,0,Next,,,,,,,,,,,,,,,,,,,,,,,,
51190.59999999404,,instruct_2,101739,,,,,,,,instruct,1,Next,,,,,,,,,,,,,,,,,,,,,,,,
18030.69999998808,,instruct_3,119771,,,,,,,,instruct,1,Next,,,,,,,,,,,,,,,,,,,,,,,,
52582.09999999404,,instruct_4,172354,,,,,,,,instruct,1,Next,,,,,,,,,,,,,,,,,,,,,,,,
33759,,instruct_5,206115,,,,,,,,instruct,1,Next,,,,,,,,,,,,,,,,,,,,,,,,
6509.9000000059605,,instruct_6,212627,,,,,,,,instruct,1,Next,,,,,,,,,,,,,,,,,,,,,,,,
53165.80000001192,,instruct_7,265795,,,,,,,,instruct,1,Next,,,,,,,,,,,,,,,,,,,,,,,,
null,,prac_atten_color_black,266379,,,,,,,,black_plus_sign,,,null,,,,,,,,,,,,,,,,,,,,,,,
null,,prac_atten_color,267222,,,,,,,,<p style='position:absolute;top: 50%;right: 50%;transform: translate(50%, -50%);font-size: 125px;color: blue;'>+</p>,,,null,,,,,,,,,,,,,,,,,,,,,,,
250.09999999403954,,prac_atten_color_black,269227,,,,,,,,black_plus_sign,,,49,,,,,,,,,,,,,,,,,,,,,,,
null,,prac_atten_color_black,269815,,,,,,,,black_plus_sign,,,null,,,,,,,,,,,,,,,,,,,,,,,
null,,prac_atten_color,270296,,,,,,,,<p style='position:absolute;top: 50%;right: 50%;transform: translate(50%, -50%);font-size: 125px;color: green;'>+</p>,,,null,,,,,,,,,,,,,,,,,,,,,,,
490.5,,prac_atten_color_black,272306,,,,,,,,black_plus_sign,,,50,,,,,,,,,,,,,,,,,,,,,,,
null,,prac_atten_color_black,273250,,,,,,,,black_plus_sign,,,null,,,,,,,,,,,,,,,,,,,,,,,
null,,prac_atten_color,273719,,,,,,,,<p style='position:absolute;top: 50%;right: 50%;transform: translate(50%, -50%);font-size: 125px;color: green;'>+</p>,,,null,,,,,,,,,,,,,,,,,,,,,,,
467.69999998807907,,prac_atten_color_black,275730,,,,,,,,black_plus_sign,,,50,,,,,,,,,,,,,,,,,,,,,,,
null,,prac_atten_color_black,276692,,,,,,,,black_plus_sign,,,null,,,,,,,,,,,,,,,,,,,,,,,
537.8000000119209,,prac_atten_color,277664,,,,,,,,<p style='position:absolute;top: 50%;right: 50%;transform: translate(50%, -50%);font-size: 125px;color: blue;'>+</p>,,,49,,,,,,,,,,,,,,,,,,,,,,,
null,,prac_atten_color_black,279679,,,,,,,,black_plus_sign,,,null,,,,,,,,,,,,,,,,,,,,,,,
null,,prac_atten_color_black,280122,,,,,,,,black_plus_sign,,,null,,,,,,,,,,,,,,,,,,,,,,,
633,,prac_atten_color,280988,,,,,,,,<p style='position:absolute;top: 50%;right: 50%;transform: translate(50%, -50%);font-size: 125px;color: green;'>+</p>,,,50,,,,,,,,,,,,,,,,,,,,,,,
null,,prac_atten_color_black,283003,,,,,,,,black_plus_sign,,,null,,,,,,,,,,,,,,,,,,,,,,,
null,,prac_atten_color_black,283550,,,,,,,,black_plus_sign,,,null,,,,,,,,,,,,,,,,,,,,,,,
319.7999999821186,,prac_atten_color,284594,,,,,,,,<p style='position:absolute;top: 50%;right: 50%;transform: translate(50%, -50%);font-size: 125px;color: green;'>+</p>,,,49,,,,,,,,,,,,,,,,,,,,,,,
null,,prac_atten_color_black,286605,,,,,,,,black_plus_sign,,,null,,,,,,,,,,,,,,,,,,,,,,,
8720.699999988079,,attentioncheck_help,295331,,,,,,,,instruct,,,32,,,,,,,,,,,,,,,,,,,,,,,
null,,prac_atten_color_black,295710,,,,,,,,black_plus_sign,,,null,,,,,,,,,,,,,,,,,,,,,,,
null,,prac_atten_color,296529,,,,,,,,<p style='position:absolute;top: 50%;right: 50%;transform: translate(50%, -50%);font-size: 125px;color: blue;'>+</p>,,,null,,,,,,,,,,,,,,,,,,,,,,,
710.5999999940395,,prac_atten_color_black,298545,,,,,,,,black_plus_sign,,,49,,,,,,,,,,,,,,,,,,,,,,,
null,,prac_atten_color_black,299157,,,,,,,,black_plus_sign,,,null,,,,,,,,,,,,,,,,,,,,,,,
755.8000000119209,,prac_atten_color,300181,,,,,,,,<p style='position:absolute;top: 50%;right: 50%;transform: translate(50%, -50%);font-size: 125px;color: green;'>+</p>,,,50,,,,,,,,,,,,,,,,,,,,,,,
null,,prac_atten_color_black,302195,,,,,,,,black_plus_sign,,,null,,,,,,,,,,,,,,,,,,,,,,,
null,,prac_atten_color_black,302592,,,,,,,,black_plus_sign,,,null,,,,,,,,,,,,,,,,,,,,,,,
885.2999999821186,,prac_atten_color,303527,,,,,,,,<p style='position:absolute;top: 50%;right: 50%;transform: translate(50%, -50%);font-size: 125px;color: blue;'>+</p>,,,49,,,,,,,,,,,,,,,,,,,,,,,
null,,prac_atten_color_black,305542,,,,,,,,black_plus_sign,,,null,,,,,,,,,,,,,,,,,,,,,,,
null,,prac_atten_color_black,306041,,,,,,,,black_plus_sign,,,null,,,,,,,,,,,,,,,,,,,,,,,
null,,prac_atten_color,306602,,,,,,,,<p style='position:absolute;top: 50%;right: 50%;transform: translate(50%, -50%);font-size: 125px;color: blue;'>+</p>,,,null,,,,,,,,,,,,,,,,,,,,,,,
338.5,,prac_atten_color_black,308607,,,,,,,,black_plus_sign,,,49,,,,,,,,,,,,,,,,,,,,,,,
12889.40000000596,,attentioncheck_feedback,321499,,,,,,,,cross_check_feedback,0,,,,,,,,,,,,,,,,,,,,,,,,,
25825.69999998808,,last_instruct,347326,,,,,,,,instruct,,,32,,,,,,,,,,,,,,,,,,,,,,,
null,,prac_learn_phase(without_color),350836,,,,,,,,black_plus_sign,,,null,object_03b.png,object_12a.png,,,,,,,,,,,,,,,,,,,,,
null,,prac_black_cross(without_color),351825,,,,,,,,blue,,,null,object_03b.png,object_12a.png,,,,,,,,,,,,,,,,,,,,,
null,,prac_rt_plussign_withcolor,352328,,,,,,,,blue,,,null,object_03b.png,object_12a.png,,,,,,,,,,,,,,,,,,,,,
1717.9000000059605,,prac_rt_thecrossant_black,353364,,,,,,,,black_plus_sign,,,49,,,1,1,,,,,,,,,,,,,,,,,,,
null,,prac_color_black,353474,,,,,,,,black_plus_sign,,,null,,,,,,,,,,,,,,,,,,,,,,,
null,,prac_learn_phase(without_color),356990,,,,,,,,black_plus_sign,,,null,object_12c.png,object_09c.png,,,,,,,,,,,,,,,,,,,,,
null,,black_cross(without_color)1,357772,,,,,,,,green,,,null,object_03b.png,object_12a.png,,,,,,,,,,,,,,,,,,,,,
null,,prac_rt_plussign_withcolor,358286,,,,,,,,blue,,,null,object_12c.png,object_09c.png,,,,,,,,,,,,,,,,,,,,,
1356.2000000178814,,prac_rt_thecrossant_black,359782,,,,,,,,black_plus_sign,,,49,,,1,1,,,,,,,,,,,,,,,,,,,
null,,prac_color_black,359901,,,,,,,,black_plus_sign,,,null,,,,,,,,,,,,,,,,,,,,,,,
null,,prac_learn_phase(without_color),363415,,,,,,,,black_plus_sign,,,null,object_05b.png,object_08b.png,,,,,,,,,,,,,,,,,,,,,
null,,black_cross(without_color)1,364204,,,,,,,,green,,,null,object_03b.png,object_12a.png,,,,,,,,,,,,,,,,,,,,,
null,,prac_rt_plussign_withcolor,364710,,,,,,,,blue,,,null,object_05b.png,object_08b.png,,,,,,,,,,,,,,,,,,,,,
950.6000000238419,,prac_rt_thecrossant_black,365783,,,,,,,,black_plus_sign,,,49,,,1,1,,,,,,,,,,,,,,,,,,,
null,,prac_color_black,365900,,,,,,,,black_plus_sign,,,null,,,,,,,,,,,,,,,,,,,,,,,
null,,prac_learn_phase(without_color),369406,,,,,,,,black_plus_sign,,,null,object_11b.png,object_15c.png,,,,,,,,,,,,,,,,,,,,,
null,,black_cross(without_color)1,370189,,,,,,,,green,,,null,object_03b.png,object_12a.png,,,,,,,,,,,,,,,,,,,,,
null,,prac_rt_plussign_withcolor,370699,,,,,,,,green,,,null,object_11b.png,object_15c.png,,,,,,,,,,,,,,,,,,,,,
1380.800000011921,,prac_rt_thecrossant_black,372115,,,,,,,,black_plus_sign,,,50,,,1,1,,,,,,,,,,,,,,,,,,,
null,,prac_color_black,372225,,,,,,,,black_plus_sign,,,null,,,,,,,,,,,,,,,,,,,,,,,
9536.09999999404,,instruct_dir_01,381764,,,,,,,,instruct,0,Next,,,,,,,,,,,,,,,,,,,,,,,,
12893.5,,instruct_dir_2,394659,,,,,,,,instruct,1,Next,,,,,,,,,,,,,,,,,,,,,,,,
10758.09999999404,,instruct_dir_3,405419,,,,,,,,instruct,1,Next,,,,,,,,,,,,,,,,,,,,,,,,
23487,,instruct_dir_4,428907,,,,,,,,instruct,1,Start,,,,,,,,,,,,,,,,,,,,,,,,
null,,thebreak,429016,,,,,,,,<p></p>,,,null,,,,,,,,,,,,,,,,,,,,,,,
2909.600000023842,,intro_0,431929,,,,,,,,instruct,,,32,,,,,,,,,,,,,,,,,,,,,,,
null,,prac_directmemory_phase,446945,,,,,,,,practice/object_02b.png,,,null,,,0,,practice/object_01a.png,practice/object_02a.png,practice/object_03a.png,practice/object_02a.png,0,0,,,,,,,,,,,,,
null,,warning_page,451953,,,,,,,,warning,,,null,,,,,,,,,,,,,,,,,,,,,,,
3971.100000023842,,prac_directmemory_phase,455926,,,,,,,,practice/object_03b.png,,,49,,,0,,practice/object_04a.png,practice/object_03a.png,practice/object_01a.png,practice/object_03a.png,0,0,,,,,,,,,,,,,
3551.2999999821186,,prac_directmemory_phase,459482,,,,,,,,practice/object_04b.png,,,49,,,1,,practice/object_04a.png,practice/object_01a.png,practice/object_03a.png,practice/object_04a.png,1,0.3333333333333333,,,,,,,,,,,,,
3197.2000000178814,,prac_directmemory_phase,462684,,,,,,,,practice/object_01b.png,,,51,,,0,,practice/object_01a.png,practice/object_03a.png,practice/object_02a.png,practice/object_01a.png,0,0.25,,,,,,,,,,,,,
27363.80000001192,,practice_feedback_force_restart,490052,,,,,,,,practice_feedback,0,,,,,,,,,,,,,1,,,,,,,,,,,,
3561.899999976158,,last_instruct,493616,,,,,,,,instruct,,,32,,,,,,,,,,,,,,,,,,,,,,,
null,,prac_learn_phase(without_color),497125,,,,,,,,black_plus_sign,,,null,object_03b.png,object_12a.png,,,,,,,,,,,,,,,,,,,,,
null,,prac_black_cross(without_color),497981,,,,,,,,blue,,,null,object_03b.png,object_12a.png,,,,,,,,,,,,,,,,,,,,,
null,,prac_rt_plussign_withcolor,498498,,,,,,,,blue,,,null,object_03b.png,object_12a.png,,,,,,,,,,,,,,,,,,,,,
1313,,prac_rt_thecrossant_black,499670,,,,,,,,black_plus_sign,,,49,,,1,1,,,,,,,,,,,,,,,,,,,
null,,prac_color_black,499776,,,,,,,,black_plus_sign,,,null,,,,,,,,,,,,,,,,,,,,,,,
null,,prac_learn_phase(without_color),503293,,,,,,,,black_plus_sign,,,null,object_12c.png,object_09c.png,,,,,,,,,,,,,,,,,,,,,
null,,black_cross(without_color)1,504077,,,,,,,,green,,,null,object_03b.png,object_12a.png,,,,,,,,,,,,,,,,,,,,,
null,,prac_rt_plussign_withcolor,504582,,,,,,,,blue,,,null,object_12c.png,object_09c.png,,,,,,,,,,,,,,,,,,,,,
1695.7999999821186,,prac_rt_thecrossant_black,505725,,,,,,,,black_plus_sign,,,49,,,1,1,,,,,,,,,,,,,,,,,,,
null,,prac_color_black,505832,,,,,,,,black_plus_sign,,,null,,,,,,,,,,,,,,,,,,,,,,,
null,,prac_learn_phase(without_color),509344,,,,,,,,black_plus_sign,,,null,object_05b.png,object_08b.png,,,,,,,,,,,,,,,,,,,,,
null,,black_cross(without_color)1,510134,,,,,,,,green,,,null,object_03b.png,object_12a.png,,,,,,,,,,,,,,,,,,,,,
null,,prac_rt_plussign_withcolor,510643,,,,,,,,blue,,,null,object_05b.png,object_08b.png,,,,,,,,,,,,,,,,,,,,,
1908.5,,prac_rt_thecrossant_black,512069,,,,,,,,black_plus_sign,,,49,,,1,1,,,,,,,,,,,,,,,,,,,
null,,prac_color_black,512173,,,,,,,,black_plus_sign,,,null,,,,,,,,,,,,,,,,,,,,,,,
null,,prac_learn_phase(without_color),515682,,,,,,,,black_plus_sign,,,null,object_11b.png,object_15c.png,,,,,,,,,,,,,,,,,,,,,
null,,black_cross(without_color)1,516472,,,,,,,,green,,,null,object_03b.png,object_12a.png,,,,,,,,,,,,,,,,,,,,,
null,,prac_rt_plussign_withcolor,516977,,,,,,,,green,,,null,object_11b.png,object_15c.png,,,,,,,,,,,,,,,,,,,,,
1615.199999988079,,prac_rt_thecrossant_black,517995,,,,,,,,black_plus_sign,,,50,,,1,1,,,,,,,,,,,,,,,,,,,
null,,prac_color_black,518104,,,,,,,,black_plus_sign,,,null,,,,,,,,,,,,,,,,,,,,,,,
9614.59999999404,,instruct_dir_01,527723,,,,,,,,instruct,0,Next,,,,,,,,,,,,,,,,,,,,,,,,
8046.4000000059605,,instruct_dir_2,535771,,,,,,,,instruct,1,Next,,,,,,,,,,,,,,,,,,,,,,,,
2174.4000000059605,,instruct_dir_3,537946,,,,,,,,instruct,1,Next,,,,,,,,,,,,,,,,,,,,,,,,
1799.199999988079,,instruct_dir_4,539747,,,,,,,,instruct,1,Start,,,,,,,,,,,,,,,,,,,,,,,,
null,,thebreak,539863,,,,,,,,<p></p>,,,null,,,,,,,,,,,,,,,,,,,,,,,
3549.5,,intro_0,543415,,,,,,,,instruct,,,32,,,,,,,,,,,,,,,,,,,,,,,
2507.4000000059605,,prac_directmemory_phase,545925,,,,,,,,practice/object_02b.png,,,50,,,1,,practice/object_01a.png,practice/object_02a.png,practice/object_03a.png,practice/object_02a.png,1,1,,,,,,,,,,,,,
5014.100000023842,,prac_directmemory_phase,550943,,,,,,,,practice/object_03b.png,,,50,,,1,,practice/object_04a.png,practice/object_03a.png,practice/object_01a.png,practice/object_03a.png,1,1,,,,,,,,,,,,,
4501.200000017881,,prac_directmemory_phase,555449,,,,,,,,practice/object_04b.png,,,49,,,1,,practice/object_04a.png,practice/object_01a.png,practice/object_03a.png,practice/object_04a.png,1,1,,,,,,,,,,,,,
2533.7000000178814,,prac_directmemory_phase,557988,,,,,,,,practice/object_01b.png,,,49,,,1,,practice/object_01a.png,practice/object_03a.png,practice/object_02a.png,practice/object_01a.png,1,1,,,,,,,,,,,,,
9916.899999976158,,practice_feedback,567908,,,,,,,,practice_feedback,1,,,,,,,,,,,,,,,,,,,,,,,,,
18518.59999999404,,proceed_actualTask,586428,,,,,,,,proceed_actualTask,1,Continue,,,,,,,,,,,,,,,,,,,,,,,,
27229.600000023842,,last_inst,613659,,,,,,,,last_inst,,,32,,,,,,,,,,,,,,,,,,,,,,,
null,,learn_phase(without_color)1,617171,,,,,,,,black_plus_sign,,,null,object_03b.png,object_12a.png,,,,,,,,,,,,,,,,,,,,,
null,,black_cross(without_color)1,617957,,,,,,,,green,,,null,object_03b.png,object_12a.png,,,,,,,,,,,,,,,,,,,,,
null,,rt_plussign_withcolor1,618472,,,,,,,,green,,,null,object_03b.png,object_12a.png,,,,,,,,,,,,,,,,,,,,,
1796.5999999940395,,rt_thecrossant_black1,619703,,,,,,,,black_plus_sign,,,50,,,1,,,,,,,1,,,,,,,,,,,,,
null,,color_black1,619811,,,,,,,,black_plus_sign,,,null,,,,,,,,,,,,,,,,,,,,,,,
null,,learn_phase(without_color)1,623328,,,,,,,,black_plus_sign,,,null,object_12c.png,object_09c.png,,,,,,,,,,,,,,,,,,,,,
null,,black_cross(without_color)1,624118,,,,,,,,blue,,,null,object_12c.png,object_09c.png,,,,,,,,,,,,,,,,,,,,,
null,,rt_plussign_withcolor1,624628,,,,,,,,blue,,,null,object_12c.png,object_09c.png,,,,,,,,,,,,,,,,,,,,,
null,,rt_thecrossant_black1,625860,,,,,,,,black_plus_sign,,,null,,,,,,,,,,1,,,,,,,,,,,,,
null,,color_black1,625981,,,,,,,,black_plus_sign,,,null,,,,,,,,,,,,,,,,,,,,,,,
null,,learn_phase(without_color)1,629494,,,,,,,,black_plus_sign,,,null,object_05b.png,object_08b.png,,,,,,,,,,,,,,,,,,,,,
null,,black_cross(without_color)1,630310,,,,,,,,green,,,null,object_05b.png,object_08b.png,,,,,,,,,,,,,,,,,,,,,
null,,rt_plussign_withcolor1,630824,,,,,,,,green,,,null,object_05b.png,object_08b.png,,,,,,,,,,,,,,,,,,,,,
1525.4000000059605,,rt_thecrossant_black1,632026,,,,,,,,black_plus_sign,,,50,,,1,,,,,,,1,,,,,,,,,,,,,
null,,color_black1,632140,,,,,,,,black_plus_sign,,,null,,,,,,,,,,,,,,,,,,,,,,,
null,,learn_phase(without_color)1,635649,,,,,,,,black_plus_sign,,,null,object_11b.png,object_15c.png,,,,,,,,,,,,,,,,,,,,,
null,,black_cross(without_color)1,636484,,,,,,,,green,,,null,object_11b.png,object_15c.png,,,,,,,,,,,,,,,,,,,,,
null,,rt_plussign_withcolor1,637000,,,,,,,,green,,,null,object_11b.png,object_15c.png,,,,,,,,,,,,,,,,,,,,,
1724.8999999761581,,rt_thecrossant_black1,638181,,,,,,,,black_plus_sign,,,50,,,1,,,,,,,1,,,,,,,,,,,,,
null,,color_black1,638293,,,,,,,,black_plus_sign,,,null,,,,,,,,,,,,,,,,,,,,,,,
null,,learn_phase(without_color)1,641799,,,,,,,,black_plus_sign,,,null,object_10a.png,object_11c.png,,,,,,,,,,,,,,,,,,,,,
null,,black_cross(without_color)1,642857,,,,,,,,green,,,null,object_10a.png,object_11c.png,,,,,,,,,,,,,,,,,,,,,
null,,rt_plussign_withcolor1,643364,,,,,,,,green,,,null,object_10a.png,object_11c.png,,,,,,,,,,,,,,,,,,,,,
null,,rt_thecrossant_black1,644323,,,,,,,,black_plus_sign,,,null,,,,,,,,,,1,,,,,,,,,,,,,
null,,color_black1,644429,,,,,,,,black_plus_sign,,,null,,,,,,,,,,,,,,,,,,,,,,,
null,,learn_phase(without_color)1,647936,,,,,,,,black_plus_sign,,,null,object_11c.png,object_08c.png,,,,,,,,,,,,,,,,,,,,,
null,,black_cross(without_color)1,648764,,,,,,,,blue,,,null,object_11c.png,object_08c.png,,,,,,,,,,,,,,,,,,,,,
null,,rt_plussign_withcolor1,649277,,,,,,,,blue,,,null,object_11c.png,object_08c.png,,,,,,,,,,,,,,,,,,,,,
1934.5999999940395,,rt_thecrossant_black1,650474,,,,,,,,black_plus_sign,,,49,,,1,,,,,,,1,,,,,,,,,,,,,
null,,color_black1,650592,,,,,,,,black_plus_sign,,,null,,,,,,,,,,,,,,,,,,,,,,,
null,,learn_phase(without_color)1,654096,,,,,,,,black_plus_sign,,,null,object_02c.png,object_15a.png,,,,,,,,,,,,,,,,,,,,,
null,,black_cross(without_color)1,654829,,,,,,,,green,,,null,object_02c.png,object_15a.png,,,,,,,,,,,,,,,,,,,,,
null,,rt_plussign_withcolor1,655339,,,,,,,,green,,,null,object_02c.png,object_15a.png,,,,,,,,,,,,,,,,,,,,,
1801.0999999940395,,rt_thecrossant_black1,656634,,,,,,,,black_plus_sign,,,50,,,1,,,,,,,1,,,,,,,,,,,,,
null,,color_black1,656751,,,,,,,,black_plus_sign,,,null,,,,,,,,,,,,,,,,,,,,,,,
null,,learn_phase(without_color)1,660267,,,,,,,,black_plus_sign,,,null,object_03a.png,object_13b.png,,,,,,,,,,,,,,,,,,,,,
null,,black_cross(without_color)1,661270,,,,,,,,green,,,null,object_03a.png,object_13b.png,,,,,,,,,,,,,,,,,,,,,
null,,rt_plussign_withcolor1,661782,,,,,,,,green,,,null,object_03a.png,object_13b.png,,,,,,,,,,,,,,,,,,,,,
1446,,rt_thecrossant_black1,662810,,,,,,,,black_plus_sign,,,50,,,1,,,,,,,1,,,,,,,,,,,,,
null,,color_black1,662914,,,,,,,,black_plus_sign,,,null,,,,,,,,,,,,,,,,,,,,,,,
null,,learn_phase(without_color)1,666426,,,,,,,,black_plus_sign,,,null,object_06a.png,object_09b.png,,,,,,,,,,,,,,,,,,,,,
null,,black_cross(without_color)1,667260,,,,,,,,green,,,null,object_06a.png,object_09b.png,,,,,,,,,,,,,,,,,,,,,
null,,rt_plussign_withcolor1,667774,,,,,,,,green,,,null,object_06a.png,object_09b.png,,,,,,,,,,,,,,,,,,,,,
2142.5999999940395,,rt_thecrossant_black1,668958,,,,,,,,black_plus_sign,,,50,,,1,,,,,,,1,,,,,,,,,,,,,
null,,color_black1,669066,,,,,,,,black_plus_sign,,,null,,,,,,,,,,,,,,,,,,,,,,,
null,,learn_phase(without_color)1,672579,,,,,,,,black_plus_sign,,,null,object_10b.png,object_06c.png,,,,,,,,,,,,,,,,,,,,,
null,,black_cross(without_color)1,673482,,,,,,,,green,,,null,object_10b.png,object_06c.png,,,,,,,,,,,,,,,,,,,,,
null,,rt_plussign_withcolor1,673986,,,,,,,,green,,,null,object_10b.png,object_06c.png,,,,,,,,,,,,,,,,,,,,,
1260.800000011921,,rt_thecrossant_black1,675118,,,,,,,,black_plus_sign,,,50,,,1,,,,,,,1,,,,,,,,,,,,,
null,,color_black1,675234,,,,,,,,black_plus_sign,,,null,,,,,,,,,,,,,,,,,,,,,,,
null,,learn_phase(without_color)1,678739,,,,,,,,black_plus_sign,,,null,object_02b.png,object_09a.png,,,,,,,,,,,,,,,,,,,,,
null,,black_cross(without_color)1,679546,,,,,,,,green,,,null,object_02b.png,object_09a.png,,,,,,,,,,,,,,,,,,,,,
null,,rt_plussign_withcolor1,680065,,,,,,,,green,,,null,object_02b.png,object_09a.png,,,,,,,,,,,,,,,,,,,,,
2009.699999988079,,rt_thecrossant_black1,681279,,,,,,,,black_plus_sign,,,50,,,1,,,,,,,1,,,,,,,,,,,,,
null,,color_black1,681384,,,,,,,,black_plus_sign,,,null,,,,,,,,,,,,,,,,,,,,,,,
null,,learn_phase(without_color)1,684903,,,,,,,,black_plus_sign,,,null,object_10c.png,object_04b.png,,,,,,,,,,,,,,,,,,,,,
null,,black_cross(without_color)1,685759,,,,,,,,blue,,,null,object_10c.png,object_04b.png,,,,,,,,,,,,,,,,,,,,,
null,,rt_plussign_withcolor1,686267,,,,,,,,blue,,,null,object_10c.png,object_04b.png,,,,,,,,,,,,,,,,,,,,,
1465.2999999821186,,rt_thecrossant_black1,687442,,,,,,,,black_plus_sign,,,49,,,1,,,,,,,1,,,,,,,,,,,,,
null,,color_black1,687549,,,,,,,,black_plus_sign,,,null,,,,,,,,,,,,,,,,,,,,,,,
null,,learn_phase(without_color)1,691054,,,,,,,,black_plus_sign,,,null,object_13b.png,object_08a.png,,,,,,,,,,,,,,,,,,,,,
null,,black_cross(without_color)1,692127,,,,,,,,blue,,,null,object_13b.png,object_08a.png,,,,,,,,,,,,,,,,,,,,,
null,,rt_plussign_withcolor1,692630,,,,,,,,blue,,,null,object_13b.png,object_08a.png,,,,,,,,,,,,,,,,,,,,,
1293.699999988079,,rt_thecrossant_black1,693568,,,,,,,,black_plus_sign,,,49,,,1,,,,,,,1,,,,,,,,,,,,,
null,,color_black1,693673,,,,,,,,black_plus_sign,,,null,,,,,,,,,,,,,,,,,,,,,,,
null,,learn_phase(without_color)1,697190,,,,,,,,black_plus_sign,,,null,object_13c.png,object_04a.png,,,,,,,,,,,,,,,,,,,,,
null,,black_cross(without_color)1,698216,,,,,,,,blue,,,null,object_13c.png,object_04a.png,,,,,,,,,,,,,,,,,,,,,
null,,rt_plussign_withcolor1,698721,,,,,,,,blue,,,null,object_13c.png,object_04a.png,,,,,,,,,,,,,,,,,,,,,
2093.0999999940395,,rt_thecrossant_black1,699722,,,,,,,,black_plus_sign,,,49,,,1,,,,,,,1,,,,,,,,,,,,,
null,,color_black1,699829,,,,,,,,black_plus_sign,,,null,,,,,,,,,,,,,,,,,,,,,,,
null,,learn_phase(without_color)1,703341,,,,,,,,black_plus_sign,,,null,object_15c.png,object_07c.png,,,,,,,,,,,,,,,,,,,,,
null,,black_cross(without_color)1,704112,,,,,,,,green,,,null,object_15c.png,object_07c.png,,,,,,,,,,,,,,,,,,,,,
null,,rt_plussign_withcolor1,704625,,,,,,,,green,,,null,object_15c.png,object_07c.png,,,,,,,,,,,,,,,,,,,,,
2036.199999988079,,rt_thecrossant_black1,705873,,,,,,,,black_plus_sign,,,50,,,1,,,,,,,1,,,,,,,,,,,,,
null,,color_black1,705977,,,,,,,,black_plus_sign,,,null,,,,,,,,,,,,,,,,,,,,,,,
null,,learn_phase(without_color)1,709492,,,,,,,,black_plus_sign,,,null,object_15a.png,object_03c.png,,,,,,,,,,,,,,,,,,,,,
null,,black_cross(without_color)1,710029,,,,,,,,green,,,null,object_15a.png,object_03c.png,,,,,,,,,,,,,,,,,,,,,
null,,rt_plussign_withcolor1,710540,,,,,,,,green,,,null,object_15a.png,object_03c.png,,,,,,,,,,,,,,,,,,,,,
1530,,rt_thecrossant_black1,712014,,,,,,,,black_plus_sign,,,50,,,1,,,,,,,1,,,,,,,,,,,,,
null,,color_black1,712120,,,,,,,,black_plus_sign,,,null,,,,,,,,,,,,,,,,,,,,,,,
null,,learn_phase(without_color)1,715625,,,,,,,,black_plus_sign,,,null,object_11a.png,object_05c.png,,,,,,,,,,,,,,,,,,,,,
null,,black_cross(without_color)1,716441,,,,,,,,green,,,null,object_11a.png,object_05c.png,,,,,,,,,,,,,,,,,,,,,
null,,rt_plussign_withcolor1,716949,,,,,,,,green,,,null,object_11a.png,object_05c.png,,,,,,,,,,,,,,,,,,,,,
1554.199999988079,,rt_thecrossant_black1,718162,,,,,,,,black_plus_sign,,,50,,,1,,,,,,,1,,,,,,,,,,,,,
null,,color_black1,718274,,,,,,,,black_plus_sign,,,null,,,,,,,,,,,,,,,,,,,,,,,
null,,learn_phase(without_color)1,721784,,,,,,,,black_plus_sign,,,null,object_07a.png,object_13c.png,,,,,,,,,,,,,,,,,,,,,
null,,black_cross(without_color)1,722807,,,,,,,,green,,,null,object_07a.png,object_13c.png,,,,,,,,,,,,,,,,,,,,,
null,,rt_plussign_withcolor1,723324,,,,,,,,green,,,null,object_07a.png,object_13c.png,,,,,,,,,,,,,,,,,,,,,
1216.1000000238419,,rt_thecrossant_black1,724327,,,,,,,,black_plus_sign,,,50,,,1,,,,,,,1,,,,,,,,,,,,,
null,,color_black1,724438,,,,,,,,black_plus_sign,,,null,,,,,,,,,,,,,,,,,,,,,,,
null,,learn_phase(without_color)1,727943,,,,,,,,black_plus_sign,,,null,object_07b.png,object_06a.png,,,,,,,,,,,,,,,,,,,,,
null,,black_cross(without_color)1,728959,,,,,,,,blue,,,null,object_07b.png,object_06a.png,,,,,,,,,,,,,,,,,,,,,
null,,rt_plussign_withcolor1,729462,,,,,,,,blue,,,null,object_07b.png,object_06a.png,,,,,,,,,,,,,,,,,,,,,
1870,,rt_thecrossant_black1,730478,,,,,,,,black_plus_sign,,,49,,,1,,,,,,,1,,,,,,,,,,,,,
null,,color_black1,730583,,,,,,,,black_plus_sign,,,null,,,,,,,,,,,,,,,,,,,,,,,
null,,learn_phase(without_color)1,734092,,,,,,,,black_plus_sign,,,null,object_06c.png,object_15b.png,,,,,,,,,,,,,,,,,,,,,
null,,black_cross(without_color)1,734891,,,,,,,,blue,,,null,object_06c.png,object_15b.png,,,,,,,,,,,,,,,,,,,,,
null,,rt_plussign_withcolor1,735403,,,,,,,,blue,,,null,object_06c.png,object_15b.png,,,,,,,,,,,,,,,,,,,,,
1996.9000000059605,,rt_thecrossant_black1,736629,,,,,,,,black_plus_sign,,,49,,,1,,,,,,,1,,,,,,,,,,,,,
null,,color_black1,736742,,,,,,,,black_plus_sign,,,null,,,,,,,,,,,,,,,,,,,,,,,
null,,learn_phase(without_color)1,740258,,,,,,,,black_plus_sign,,,null,object_05a.png,object_14a.png,,,,,,,,,,,,,,,,,,,,,
null,,black_cross(without_color)1,741204,,,,,,,,blue,,,null,object_05a.png,object_14a.png,,,,,,,,,,,,,,,,,,,,,
null,,rt_plussign_withcolor1,741716,,,,,,,,blue,,,null,object_05a.png,object_14a.png,,,,,,,,,,,,,,,,,,,,,
1337.699999988079,,rt_thecrossant_black1,742791,,,,,,,,black_plus_sign,,,49,,,1,,,,,,,1,,,,,,,,,,,,,
null,,color_black1,742898,,,,,,,,black_plus_sign,,,null,,,,,,,,,,,,,,,,,,,,,,,
null,,learn_phase(without_color)1,746409,,,,,,,,black_plus_sign,,,null,object_12a.png,object_04c.png,,,,,,,,,,,,,,,,,,,,,
null,,black_cross(without_color)1,747017,,,,,,,,green,,,null,object_12a.png,object_04c.png,,,,,,,,,,,,,,,,,,,,,
null,,rt_plussign_withcolor1,747532,,,,,,,,green,,,null,object_12a.png,object_04c.png,,,,,,,,,,,,,,,,,,,,,
1652.4000000059605,,rt_thecrossant_black1,748948,,,,,,,,black_plus_sign,,,50,,,1,,,,,,,1,,,,,,,,,,,,,
null,,color_black1,749051,,,,,,,,black_plus_sign,,,null,,,,,,,,,,,,,,,,,,,,,,,
null,,learn_phase(without_color)1,752564,,,,,,,,black_plus_sign,,,null,object_01b.png,object_01c.png,,,,,,,,,,,,,,,,,,,,,
null,,black_cross(without_color)1,753642,,,,,,,,blue,,,null,object_01b.png,object_01c.png,,,,,,,,,,,,,,,,,,,,,
null,,rt_plussign_withcolor1,754155,,,,,,,,blue,,,null,object_01b.png,object_01c.png,,,,,,,,,,,,,,,,,,,,,
849.0999999940395,,rt_thecrossant_black1,755096,,,,,,,,black_plus_sign,,,49,,,1,,,,,,,1,,,,,,,,,,,,,
null,,color_black1,755206,,,,,,,,black_plus_sign,,,null,,,,,,,,,,,,,,,,,,,,,,,
null,,learn_phase(without_color)1,758721,,,,,,,,black_plus_sign,,,null,object_09c.png,object_12b.png,,,,,,,,,,,,,,,,,,,,,
null,,black_cross(without_color)1,759800,,,,,,,,blue,,,null,object_09c.png,object_12b.png,,,,,,,,,,,,,,,,,,,,,
null,,rt_plussign_withcolor1,760313,,,,,,,,blue,,,null,object_09c.png,object_12b.png,,,,,,,,,,,,,,,,,,,,,
1322,,rt_thecrossant_black1,761249,,,,,,,,black_plus_sign,,,49,,,1,,,,,,,1,,,,,,,,,,,,,
null,,color_black1,761356,,,,,,,,black_plus_sign,,,null,,,,,,,,,,,,,,,,,,,,,,,
null,,learn_phase(without_color)1,764861,,,,,,,,black_plus_sign,,,null,object_14c.png,object_11a.png,,,,,,,,,,,,,,,,,,,,,
null,,black_cross(without_color)1,765673,,,,,,,,blue,,,null,object_14c.png,object_11a.png,,,,,,,,,,,,,,,,,,,,,
null,,rt_plussign_withcolor1,766185,,,,,,,,blue,,,null,object_14c.png,object_11a.png,,,,,,,,,,,,,,,,,,,,,
2021.0999999940395,,rt_thecrossant_black1,767384,,,,,,,,black_plus_sign,,,49,,,1,,,,,,,1,,,,,,,,,,,,,
null,,color_black1,767489,,,,,,,,black_plus_sign,,,null,,,,,,,,,,,,,,,,,,,,,,,
null,,learn_phase(without_color)1,770996,,,,,,,,black_plus_sign,,,null,object_01c.png,object_14b.png,,,,,,,,,,,,,,,,,,,,,
null,,black_cross(without_color)1,771520,,,,,,,,blue,,,null,object_01c.png,object_14b.png,,,,,,,,,,,,,,,,,,,,,
null,,rt_plussign_withcolor1,772029,,,,,,,,blue,,,null,object_01c.png,object_14b.png,,,,,,,,,,,,,,,,,,,,,
1628.2000000178814,,rt_thecrossant_black1,773523,,,,,,,,black_plus_sign,,,49,,,1,,,,,,,1,,,,,,,,,,,,,
null,,color_black1,773628,,,,,,,,black_plus_sign,,,null,,,,,,,,,,,,,,,,,,,,,,,
null,,learn_phase(without_color)1,777141,,,,,,,,black_plus_sign,,,null,object_13a.png,object_02b.png,,,,,,,,,,,,,,,,,,,,,
null,,black_cross(without_color)1,777606,,,,,,,,blue,,,null,object_13a.png,object_02b.png,,,,,,,,,,,,,,,,,,,,,
null,,rt_plussign_withcolor1,778108,,,,,,,,blue,,,null,object_13a.png,object_02b.png,,,,,,,,,,,,,,,,,,,,,
1483.5999999940395,,rt_thecrossant_black1,779657,,,,,,,,black_plus_sign,,,49,,,1,,,,,,,1,,,,,,,,,,,,,
null,,color_black1,779774,,,,,,,,black_plus_sign,,,null,,,,,,,,,,,,,,,,,,,,,,,
null,,learn_phase(without_color)1,783281,,,,,,,,black_plus_sign,,,null,object_02a.png,object_05b.png,,,,,,,,,,,,,,,,,,,,,
null,,black_cross(without_color)1,783813,,,,,,,,blue,,,null,object_02a.png,object_05b.png,,,,,,,,,,,,,,,,,,,,,
null,,rt_plussign_withcolor1,784323,,,,,,,,blue,,,null,object_02a.png,object_05b.png,,,,,,,,,,,,,,,,,,,,,
1102.199999988079,,rt_thecrossant_black1,785814,,,,,,,,black_plus_sign,,,49,,,1,,,,,,,1,,,,,,,,,,,,,
null,,color_black1,785933,,,,,,,,black_plus_sign,,,null,,,,,,,,,,,,,,,,,,,,,,,
null,,learn_phase(without_color)1,789453,,,,,,,,black_plus_sign,,,null,object_01a.png,object_05a.png,,,,,,,,,,,,,,,,,,,,,
null,,black_cross(without_color)1,790456,,,,,,,,green,,,null,object_01a.png,object_05a.png,,,,,,,,,,,,,,,,,,,,,
null,,rt_plussign_withcolor1,790963,,,,,,,,green,,,null,object_01a.png,object_05a.png,,,,,,,,,,,,,,,,,,,,,
934.5,,rt_thecrossant_black1,791985,,,,,,,,black_plus_sign,,,50,,,1,,,,,,,1,,,,,,,,,,,,,
null,,color_black1,792093,,,,,,,,black_plus_sign,,,null,,,,,,,,,,,,,,,,,,,,,,,
null,,learn_phase(without_color)1,795603,,,,,,,,black_plus_sign,,,null,object_04b.png,object_06b.png,,,,,,,,,,,,,,,,,,,,,
null,,black_cross(without_color)1,796389,,,,,,,,blue,,,null,object_04b.png,object_06b.png,,,,,,,,,,,,,,,,,,,,,
null,,rt_plussign_withcolor1,796895,,,,,,,,blue,,,null,object_04b.png,object_06b.png,,,,,,,,,,,,,,,,,,,,,
1604.3999999761581,,rt_thecrossant_black1,798138,,,,,,,,black_plus_sign,,,49,,,1,,,,,,,1,,,,,,,,,,,,,
null,,color_black1,798256,,,,,,,,black_plus_sign,,,null,,,,,,,,,,,,,,,,,,,,,,,
null,,thebreak,798374,,,,,,,,<p></p>,,,null,,,,,,,,,,,,,,,,,,,,,,,
24869.5,,intro_0,823246,,,,,,,,instruct,,,32,,,,,,,,,,,,,,,,,,,,,,,
5686.200000017881,,directmemory_phase1,828936,,,,,,,,object_02b.png,,,50,,,0,,object_13a.png,object_14c.png,object_10a.png,object_13a.png,,0,,0,,,,,,,,,,,
5959.199999988079,,directmemory_phase1,834901,,,,,,,,object_05b.png,,,51,,,1,,object_07a.png,object_12c.png,object_02a.png,object_02a.png,,0.5,,1,,,,,,,,,,,
3076.899999976158,,directmemory_phase1,837984,,,,,,,,object_11a.png,,,50,,,1,,object_07a.png,object_14c.png,object_10b.png,object_14c.png,,0.6666666666666666,,1,,,,,,,,,,,
2810.600000023842,,directmemory_phase1,840799,,,,,,,,object_12b.png,,,49,,,1,,object_09c.png,object_04b.png,object_15c.png,object_09c.png,,0.75,,1,,,,,,,,,,,
6499.5,,directmemory_phase1,847303,,,,,,,,object_09b.png,,,50,,,0,,object_06a.png,object_05a.png,object_01c.png,object_06a.png,,0.6,,0,,,,,,,,,,,
3019.7999999821186,,directmemory_phase1,850327,,,,,,,,object_14a.png,,,49,,,1,,object_05a.png,object_09c.png,object_12a.png,object_05a.png,,0.6666666666666666,,1,,,,,,,,,,,
5552.5999999940395,,directmemory_phase1,855885,,,,,,,,object_08a.png,,,50,,,1,,object_11c.png,object_13b.png,object_15c.png,object_13b.png,,0.7142857142857143,,1,,,,,,,,,,,
6893.399999976158,,directmemory_phase1,862785,,,,,,,,object_13c.png,,,51,,,0,,object_07a.png,object_14c.png,object_02c.png,object_07a.png,,0.625,,0,,,,,,,,,,,
3528.699999988079,,directmemory_phase1,866318,,,,,,,,object_07c.png,,,51,,,1,,object_01c.png,object_05b.png,object_15c.png,object_15c.png,,0.6666666666666666,,1,,,,,,,,,,,
5299.800000011921,,directmemory_phase1,871622,,,,,,,,object_05a.png,,,51,,,1,,object_10b.png,object_14c.png,object_01a.png,object_01a.png,,0.7,,1,,,,,,,,,,,
5082.299999982119,,directmemory_phase1,876709,,,,,,,,object_05c.png,,,51,,,1,,object_06c.png,object_09c.png,object_11a.png,object_11a.png,,0.7272727272727273,,1,,,,,,,,,,,
6283.299999982119,,directmemory_phase1,882996,,,,,,,,object_15a.png,,,49,,,1,,object_02c.png,object_07b.png,object_12c.png,object_02c.png,,0.75,,1,,,,,,,,,,,
2635.9000000059605,,directmemory_phase1,885638,,,,,,,,object_04a.png,,,50,,,1,,object_01c.png,object_13c.png,object_11a.png,object_13c.png,,0.7692307692307693,,1,,,,,,,,,,,
2290.600000023842,,directmemory_phase1,887934,,,,,,,,object_09a.png,,,49,,,1,,object_02b.png,object_06a.png,object_09c.png,object_02b.png,,0.7857142857142857,,1,,,,,,,,,,,
6584.800000011921,,directmemory_phase1,894525,,,,,,,,object_08b.png,,,51,,,1,,object_02b.png,object_04b.png,object_05b.png,object_05b.png,,0.8,,1,,,,,,,,,,,
6397.700000017881,,directmemory_phase1,900927,,,,,,,,object_06a.png,,,50,,,1,,object_01b.png,object_07b.png,object_02a.png,object_07b.png,,0.8125,,1,,,,,,,,,,,
3257.2000000178814,,directmemory_phase1,904189,,,,,,,,object_04c.png,,,51,,,1,,object_11c.png,object_05a.png,object_12a.png,object_12a.png,,0.8235294117647058,,1,,,,,,,,,,,
8692.699999988079,,directmemory_phase1,912887,,,,,,,,object_15c.png,,,50,,,0,,object_13a.png,object_02c.png,object_11b.png,object_11b.png,,0.7777777777777778,,0,,,,,,,,,,,
2700.699999988079,,directmemory_phase1,915592,,,,,,,,object_13b.png,,,50,,,1,,object_02c.png,object_03a.png,object_12c.png,object_03a.png,,0.7894736842105263,,1,,,,,,,,,,,
3572.0999999940395,,directmemory_phase1,919169,,,,,,,,object_04b.png,,,51,,,1,,object_10b.png,object_02c.png,object_10c.png,object_10c.png,,0.8,,1,,,,,,,,,,,
8302.299999982119,,directmemory_phase1,927475,,,,,,,,object_08c.png,,,49,,,0,,object_11a.png,object_06c.png,object_11c.png,object_11c.png,,0.7619047619047619,,0,,,,,,,,,,,
3642.0999999940395,,directmemory_phase1,931122,,,,,,,,object_11c.png,,,50,,,1,,object_07a.png,object_10a.png,object_03b.png,object_10a.png,,0.7727272727272727,,1,,,,,,,,,,,
9505.09999999404,,directmemory_phase1,940631,,,,,,,,object_06b.png,,,50,,,0,,object_06a.png,object_09c.png,object_04b.png,object_04b.png,,0.7391304347826086,,0,,,,,,,,,,,
3207.5999999940395,,directmemory_phase1,943843,,,,,,,,object_09c.png,,,50,,,1,,object_07b.png,object_12c.png,object_07a.png,object_12c.png,,0.75,,1,,,,,,,,,,,
9193.800000011921,,directmemory_phase1,953042,,,,,,,,object_12a.png,,,50,,,1,,object_10a.png,object_03b.png,object_12c.png,object_03b.png,,0.76,,1,,,,,,,,,,,
4106.0999999940395,,directmemory_phase1,957154,,,,,,,,object_15b.png,,,50,,,1,,object_02b.png,object_06c.png,object_06a.png,object_06c.png,,0.7692307692307693,,1,,,,,,,,,,,
5504.9000000059605,,directmemory_phase1,962664,,,,,,,,object_06c.png,,,50,,,1,,object_03b.png,object_10b.png,object_13a.png,object_10b.png,,0.7777777777777778,,1,,,,,,,,,,,
9926.299999982119,,directmemory_phase1,972595,,,,,,,,object_14b.png,,,50,,,1,,object_12a.png,object_01c.png,object_04b.png,object_01c.png,,0.7857142857142857,,1,,,,,,,,,,,
5844.699999988079,,directmemory_phase1,978444,,,,,,,,object_01c.png,,,51,,,1,,object_07b.png,object_07a.png,object_01b.png,object_01b.png,,0.7931034482758621,,1,,,,,,,,,,,
2699.7000000178814,,directmemory_phase1,981150,,,,,,,,object_03c.png,,,51,,,1,,object_02b.png,object_13c.png,object_15a.png,object_15a.png,,0.8,,1,,,,,,,,,,,
null,,thebreak,981258,,,,,,,,<p></p>,,,null,,,,,,,,,,,,,,,,,,,,,,,
2096.0999999940395,,intro_0,983357,,,,,,,,instruct,,,32,,,,,,,,,,,,,,,,,,,,,,,
null,,learn_phase(without_color)2,986874,,,,,,,,black_plus_sign,,,null,object_02b.png,object_09a.png,,,,,,,,,,,,,,,,,,,,,
null,,black_cross(without_color)2,987950,,,,,,,,blue,,,null,object_02b.png,object_09a.png,,,,,,,,,,,,,,,,,,,,,
null,,rt_plussign_withcolor2,988460,,,,,,,,blue,,,null,object_02b.png,object_09a.png,,,,,,,,,,,,,,,,,,,,,
1917.199999988079,,rt_thecrossant_black2,989406,,,,,,,,black_plus_sign,,,49,,,1,,,,,,,1,,,,,,,,,,,,,
null,,color_black2,989518,,,,,,,,black_plus_sign,,,null,,,,,,,,,,,,,,,,,,,,,,,
null,,learn_phase(without_color)2,993024,,,,,,,,black_plus_sign,,,null,object_15a.png,object_03c.png,,,,,,,,,,,,,,,,,,,,,
null,,black_cross(without_color)2,993810,,,,,,,,blue,,,null,object_15a.png,object_03c.png,,,,,,,,,,,,,,,,,,,,,
null,,rt_plussign_withcolor2,994325,,,,,,,,blue,,,null,object_15a.png,object_03c.png,,,,,,,,,,,,,,,,,,,,,
null,,rt_thecrossant_black2,995558,,,,,,,,black_plus_sign,,,null,,,,,,,,,,1,,,,,,,,,,,,,
null,,color_black2,995668,,,,,,,,black_plus_sign,,,null,,,,,,,,,,,,,,,,,,,,,,,
null,,learn_phase(without_color)2,999172,,,,,,,,black_plus_sign,,,null,object_01c.png,object_14b.png,,,,,,,,,,,,,,,,,,,,,
null,,black_cross(without_color)2,999979,,,,,,,,blue,,,null,object_01c.png,object_14b.png,,,,,,,,,,,,,,,,,,,,,
null,,rt_plussign_withcolor2,1000503,,,,,,,,blue,,,null,object_01c.png,object_14b.png,,,,,,,,,,,,,,,,,,,,,
1963.0999999940395,,rt_thecrossant_black2,1001708,,,,,,,,black_plus_sign,,,49,,,1,,,,,,,1,,,,,,,,,,,,,
null,,color_black2,1001814,,,,,,,,black_plus_sign,,,null,,,,,,,,,,,,,,,,,,,,,,,
null,,learn_phase(without_color)2,1005328,,,,,,,,black_plus_sign,,,null,object_04b.png,object_06b.png,,,,,,,,,,,,,,,,,,,,,
null,,black_cross(without_color)2,1006293,,,,,,,,green,,,null,object_04b.png,object_06b.png,,,,,,,,,,,,,,,,,,,,,
null,,rt_plussign_withcolor2,1006819,,,,,,,,green,,,null,object_04b.png,object_06b.png,,,,,,,,,,,,,,,,,,,,,
1431.199999988079,,rt_thecrossant_black2,1007878,,,,,,,,black_plus_sign,,,50,,,1,,,,,,,1,,,,,,,,,,,,,
null,,color_black2,1007985,,,,,,,,black_plus_sign,,,null,,,,,,,,,,,,,,,,,,,,,,,
null,,learn_phase(without_color)2,1011493,,,,,,,,black_plus_sign,,,null,object_10b.png,object_06c.png,,,,,,,,,,,,,,,,,,,,,
null,,black_cross(without_color)2,1011955,,,,,,,,blue,,,null,object_10b.png,object_06c.png,,,,,,,,,,,,,,,,,,,,,
null,,rt_plussign_withcolor2,1012466,,,,,,,,blue,,,null,object_10b.png,object_06c.png,,,,,,,,,,,,,,,,,,,,,
1964.199999988079,,rt_thecrossant_black2,1014031,,,,,,,,black_plus_sign,,,49,,,1,,,,,,,1,,,,,,,,,,,,,
null,,color_black2,1014147,,,,,,,,black_plus_sign,,,null,,,,,,,,,,,,,,,,,,,,,,,
null,,learn_phase(without_color)2,1017653,,,,,,,,black_plus_sign,,,null,object_07a.png,object_13c.png,,,,,,,,,,,,,,,,,,,,,
null,,black_cross(without_color)2,1018111,,,,,,,,blue,,,null,object_07a.png,object_13c.png,,,,,,,,,,,,,,,,,,,,,
null,,rt_plussign_withcolor2,1018627,,,,,,,,blue,,,null,object_07a.png,object_13c.png,,,,,,,,,,,,,,,,,,,,,
1173.8999999761581,,rt_thecrossant_black2,1020194,,,,,,,,black_plus_sign,,,49,,,1,,,,,,,1,,,,,,,,,,,,,
null,,color_black2,1020298,,,,,,,,black_plus_sign,,,null,,,,,,,,,,,,,,,,,,,,,,,
null,,learn_phase(without_color)2,1023804,,,,,,,,black_plus_sign,,,null,object_11b.png,object_15c.png,,,,,,,,,,,,,,,,,,,,,
null,,black_cross(without_color)2,1024518,,,,,,,,blue,,,null,object_11b.png,object_15c.png,,,,,,,,,,,,,,,,,,,,,
null,,rt_plussign_withcolor2,1025029,,,,,,,,blue,,,null,object_11b.png,object_15c.png,,,,,,,,,,,,,,,,,,,,,
1021.8999999761581,,rt_thecrossant_black2,1026334,,,,,,,,black_plus_sign,,,49,,,1,,,,,,,1,,,,,,,,,,,,,
null,,color_black2,1026439,,,,,,,,black_plus_sign,,,null,,,,,,,,,,,,,,,,,,,,,,,
null,,learn_phase(without_color)2,1029949,,,,,,,,black_plus_sign,,,null,object_13a.png,object_02b.png,,,,,,,,,,,,,,,,,,,,,
null,,black_cross(without_color)2,1030777,,,,,,,,green,,,null,object_13a.png,object_02b.png,,,,,,,,,,,,,,,,,,,,,
null,,rt_plussign_withcolor2,1031282,,,,,,,,green,,,null,object_13a.png,object_02b.png,,,,,,,,,,,,,,,,,,,,,
1398.5999999940395,,rt_thecrossant_black2,1032479,,,,,,,,black_plus_sign,,,50,,,1,,,,,,,1,,,,,,,,,,,,,
null,,color_black2,1032590,,,,,,,,black_plus_sign,,,null,,,,,,,,,,,,,,,,,,,,,,,
null,,learn_phase(without_color)2,1036101,,,,,,,,black_plus_sign,,,null,object_02a.png,object_05b.png,,,,,,,,,,,,,,,,,,,,,
null,,black_cross(without_color)2,1036770,,,,,,,,blue,,,null,object_02a.png,object_05b.png,,,,,,,,,,,,,,,,,,,,,
null,,rt_plussign_withcolor2,1037280,,,,,,,,blue,,,null,object_02a.png,object_05b.png,,,,,,,,,,,,,,,,,,,,,
1565.5999999940395,,rt_thecrossant_black2,1038642,,,,,,,,black_plus_sign,,,49,,,1,,,,,,,1,,,,,,,,,,,,,
null,,color_black2,1038757,,,,,,,,black_plus_sign,,,null,,,,,,,,,,,,,,,,,,,,,,,
null,,learn_phase(without_color)2,1042265,,,,,,,,black_plus_sign,,,null,object_01b.png,object_01c.png,,,,,,,,,,,,,,,,,,,,,
null,,black_cross(without_color)2,1043319,,,,,,,,green,,,null,object_01b.png,object_01c.png,,,,,,,,,,,,,,,,,,,,,
null,,rt_plussign_withcolor2,1043835,,,,,,,,green,,,null,object_01b.png,object_01c.png,,,,,,,,,,,,,,,,,,,,,
1308.8999999761581,,rt_thecrossant_black2,1044787,,,,,,,,black_plus_sign,,,50,,,1,,,,,,,1,,,,,,,,,,,,,
null,,color_black2,1044895,,,,,,,,black_plus_sign,,,null,,,,,,,,,,,,,,,,,,,,,,,
null,,learn_phase(without_color)2,1048409,,,,,,,,black_plus_sign,,,null,object_09c.png,object_12b.png,,,,,,,,,,,,,,,,,,,,,
null,,black_cross(without_color)2,1049447,,,,,,,,blue,,,null,object_09c.png,object_12b.png,,,,,,,,,,,,,,,,,,,,,
null,,rt_plussign_withcolor2,1049963,,,,,,,,blue,,,null,object_09c.png,object_12b.png,,,,,,,,,,,,,,,,,,,,,
1994.5,,rt_thecrossant_black2,1050943,,,,,,,,black_plus_sign,,,49,,,1,,,,,,,1,,,,,,,,,,,,,
null,,color_black2,1051055,,,,,,,,black_plus_sign,,,null,,,,,,,,,,,,,,,,,,,,,,,
null,,learn_phase(without_color)2,1054565,,,,,,,,black_plus_sign,,,null,object_12a.png,object_04c.png,,,,,,,,,,,,,,,,,,,,,
null,,black_cross(without_color)2,1055024,,,,,,,,blue,,,null,object_12a.png,object_04c.png,,,,,,,,,,,,,,,,,,,,,
null,,rt_plussign_withcolor2,1055534,,,,,,,,blue,,,null,object_12a.png,object_04c.png,,,,,,,,,,,,,,,,,,,,,
1897.300000011921,,rt_thecrossant_black2,1057092,,,,,,,,black_plus_sign,,,49,,,1,,,,,,,1,,,,,,,,,,,,,
null,,color_black2,1057201,,,,,,,,black_plus_sign,,,null,,,,,,,,,,,,,,,,,,,,,,,
null,,learn_phase(without_color)2,1060714,,,,,,,,black_plus_sign,,,null,object_05b.png,object_08b.png,,,,,,,,,,,,,,,,,,,,,
null,,black_cross(without_color)2,1061806,,,,,,,,green,,,null,object_05b.png,object_08b.png,,,,,,,,,,,,,,,,,,,,,
null,,rt_plussign_withcolor2,1062324,,,,,,,,green,,,null,object_05b.png,object_08b.png,,,,,,,,,,,,,,,,,,,,,
1066.2999999821186,,rt_thecrossant_black2,1063245,,,,,,,,black_plus_sign,,,50,,,1,,,,,,,1,,,,,,,,,,,,,
null,,color_black2,1063357,,,,,,,,black_plus_sign,,,null,,,,,,,,,,,,,,,,,,,,,,,
null,,learn_phase(without_color)2,1066874,,,,,,,,black_plus_sign,,,null,object_03a.png,object_13b.png,,,,,,,,,,,,,,,,,,,,,
null,,black_cross(without_color)2,1067967,,,,,,,,blue,,,null,object_03a.png,object_13b.png,,,,,,,,,,,,,,,,,,,,,
null,,rt_plussign_withcolor2,1068481,,,,,,,,blue,,,null,object_03a.png,object_13b.png,,,,,,,,,,,,,,,,,,,,,
1738.300000011921,,rt_thecrossant_black2,1069408,,,,,,,,black_plus_sign,,,49,,,1,,,,,,,1,,,,,,,,,,,,,
null,,color_black2,1069518,,,,,,,,black_plus_sign,,,null,,,,,,,,,,,,,,,,,,,,,,,
null,,learn_phase(without_color)2,1073031,,,,,,,,black_plus_sign,,,null,object_03b.png,object_12a.png,,,,,,,,,,,,,,,,,,,,,
null,,black_cross(without_color)2,1074083,,,,,,,,green,,,null,object_03b.png,object_12a.png,,,,,,,,,,,,,,,,,,,,,
null,,rt_plussign_withcolor2,1074598,,,,,,,,green,,,null,object_03b.png,object_12a.png,,,,,,,,,,,,,,,,,,,,,
1863.199999988079,,rt_thecrossant_black2,1075567,,,,,,,,black_plus_sign,,,50,,,1,,,,,,,1,,,,,,,,,,,,,
null,,color_black2,1075683,,,,,,,,black_plus_sign,,,null,,,,,,,,,,,,,,,,,,,,,,,
null,,learn_phase(without_color)2,1079196,,,,,,,,black_plus_sign,,,null,object_13c.png,object_04a.png,,,,,,,,,,,,,,,,,,,,,
null,,black_cross(without_color)2,1080110,,,,,,,,blue,,,null,object_13c.png,object_04a.png,,,,,,,,,,,,,,,,,,,,,
null,,rt_plussign_withcolor2,1080616,,,,,,,,blue,,,null,object_13c.png,object_04a.png,,,,,,,,,,,,,,,,,,,,,
1613.5,,rt_thecrossant_black2,1081719,,,,,,,,black_plus_sign,,,49,,,1,,,,,,,1,,,,,,,,,,,,,
null,,color_black2,1081828,,,,,,,,black_plus_sign,,,null,,,,,,,,,,,,,,,,,,,,,,,
null,,learn_phase(without_color)2,1085340,,,,,,,,black_plus_sign,,,null,object_02c.png,object_15a.png,,,,,,,,,,,,,,,,,,,,,
null,,black_cross(without_color)2,1086251,,,,,,,,blue,,,null,object_02c.png,object_15a.png,,,,,,,,,,,,,,,,,,,,,
null,,rt_plussign_withcolor2,1086755,,,,,,,,blue,,,null,object_02c.png,object_15a.png,,,,,,,,,,,,,,,,,,,,,
1681.0999999940395,,rt_thecrossant_black2,1087859,,,,,,,,black_plus_sign,,,49,,,1,,,,,,,1,,,,,,,,,,,,,
null,,color_black2,1087976,,,,,,,,black_plus_sign,,,null,,,,,,,,,,,,,,,,,,,,,,,
null,,learn_phase(without_color)2,1091485,,,,,,,,black_plus_sign,,,null,object_10c.png,object_04b.png,,,,,,,,,,,,,,,,,,,,,
null,,black_cross(without_color)2,1092555,,,,,,,,green,,,null,object_10c.png,object_04b.png,,,,,,,,,,,,,,,,,,,,,
null,,rt_plussign_withcolor2,1093068,,,,,,,,green,,,null,object_10c.png,object_04b.png,,,,,,,,,,,,,,,,,,,,,
1520.4000000059605,,rt_thecrossant_black2,1094006,,,,,,,,black_plus_sign,,,50,,,1,,,,,,,1,,,,,,,,,,,,,
null,,color_black2,1094115,,,,,,,,black_plus_sign,,,null,,,,,,,,,,,,,,,,,,,,,,,
null,,learn_phase(without_color)2,1097630,,,,,,,,black_plus_sign,,,null,object_11c.png,object_08c.png,,,,,,,,,,,,,,,,,,,,,
null,,black_cross(without_color)2,1098689,,,,,,,,green,,,null,object_11c.png,object_08c.png,,,,,,,,,,,,,,,,,,,,,
null,,rt_plussign_withcolor2,1099196,,,,,,,,green,,,null,object_11c.png,object_08c.png,,,,,,,,,,,,,,,,,,,,,
1882,,rt_thecrossant_black2,1100160,,,,,,,,black_plus_sign,,,50,,,1,,,,,,,1,,,,,,,,,,,,,
null,,color_black2,1100274,,,,,,,,black_plus_sign,,,null,,,,,,,,,,,,,,,,,,,,,,,
null,,learn_phase(without_color)2,1103790,,,,,,,,black_plus_sign,,,null,object_10a.png,object_11c.png,,,,,,,,,,,,,,,,,,,,,
null,,black_cross(without_color)2,1104321,,,,,,,,green,,,null,object_10a.png,object_11c.png,,,,,,,,,,,,,,,,,,,,,
null,,rt_plussign_withcolor2,1104830,,,,,,,,green,,,null,object_10a.png,object_11c.png,,,,,,,,,,,,,,,,,,,,,
1967.3999999761581,,rt_thecrossant_black2,1106329,,,,,,,,black_plus_sign,,,50,,,1,,,,,,,1,,,,,,,,,,,,,
null,,color_black2,1106437,,,,,,,,black_plus_sign,,,null,,,,,,,,,,,,,,,,,,,,,,,
null,,learn_phase(without_color)2,1109955,,,,,,,,black_plus_sign,,,null,object_06a.png,object_09b.png,,,,,,,,,,,,,,,,,,,,,
null,,black_cross(without_color)2,1110591,,,,,,,,blue,,,null,object_06a.png,object_09b.png,,,,,,,,,,,,,,,,,,,,,
null,,rt_plussign_withcolor2,1111100,,,,,,,,blue,,,null,object_06a.png,object_09b.png,,,,,,,,,,,,,,,,,,,,,
1247.7999999821186,,rt_thecrossant_black2,1112486,,,,,,,,black_plus_sign,,,49,,,1,,,,,,,1,,,,,,,,,,,,,
null,,color_black2,1112592,,,,,,,,black_plus_sign,,,null,,,,,,,,,,,,,,,,,,,,,,,
null,,learn_phase(without_color)2,1116104,,,,,,,,black_plus_sign,,,null,object_05a.png,object_14a.png,,,,,,,,,,,,,,,,,,,,,
null,,black_cross(without_color)2,1117134,,,,,,,,blue,,,null,object_05a.png,object_14a.png,,,,,,,,,,,,,,,,,,,,,
null,,rt_plussign_withcolor2,1117639,,,,,,,,blue,,,null,object_05a.png,object_14a.png,,,,,,,,,,,,,,,,,,,,,
1378.5,,rt_thecrossant_black2,1118628,,,,,,,,black_plus_sign,,,49,,,1,,,,,,,1,,,,,,,,,,,,,
null,,color_black2,1118736,,,,,,,,black_plus_sign,,,null,,,,,,,,,,,,,,,,,,,,,,,
null,,learn_phase(without_color)2,1122256,,,,,,,,black_plus_sign,,,null,object_13b.png,object_08a.png,,,,,,,,,,,,,,,,,,,,,
null,,black_cross(without_color)2,1122789,,,,,,,,blue,,,null,object_13b.png,object_08a.png,,,,,,,,,,,,,,,,,,,,,
null,,rt_plussign_withcolor2,1123313,,,,,,,,blue,,,null,object_13b.png,object_08a.png,,,,,,,,,,,,,,,,,,,,,
1793.4000000059605,,rt_thecrossant_black2,1124814,,,,,,,,black_plus_sign,,,50,,,0,,,,,,,0.9545454545454546,,,,,,,,,,,,,
null,,color_black2,1124930,,,,,,,,black_plus_sign,,,null,,,,,,,,,,,,,,,,,,,,,,,
null,,learn_phase(without_color)2,1128444,,,,,,,,black_plus_sign,,,null,object_06c.png,object_15b.png,,,,,,,,,,,,,,,,,,,,,
null,,black_cross(without_color)2,1129425,,,,,,,,green,,,null,object_06c.png,object_15b.png,,,,,,,,,,,,,,,,,,,,,
null,,rt_plussign_withcolor2,1129942,,,,,,,,green,,,null,object_06c.png,object_15b.png,,,,,,,,,,,,,,,,,,,,,
1147.699999988079,,rt_thecrossant_black2,1130971,,,,,,,,black_plus_sign,,,50,,,1,,,,,,,0.9565217391304348,,,,,,,,,,,,,
null,,color_black2,1131084,,,,,,,,black_plus_sign,,,null,,,,,,,,,,,,,,,,,,,,,,,
null,,learn_phase(without_color)2,1134594,,,,,,,,black_plus_sign,,,null,object_15c.png,object_07c.png,,,,,,,,,,,,,,,,,,,,,
null,,black_cross(without_color)2,1135513,,,,,,,,green,,,null,object_15c.png,object_07c.png,,,,,,,,,,,,,,,,,,,,,
null,,rt_plussign_withcolor2,1136020,,,,,,,,green,,,null,object_15c.png,object_07c.png,,,,,,,,,,,,,,,,,,,,,
1511.0999999940395,,rt_thecrossant_black2,1137126,,,,,,,,black_plus_sign,,,50,,,1,,,,,,,0.9583333333333334,,,,,,,,,,,,,
null,,color_black2,1137243,,,,,,,,black_plus_sign,,,null,,,,,,,,,,,,,,,,,,,,,,,
null,,learn_phase(without_color)2,1140756,,,,,,,,black_plus_sign,,,null,object_14c.png,object_11a.png,,,,,,,,,,,,,,,,,,,,,
null,,black_cross(without_color)2,1141723,,,,,,,,green,,,null,object_14c.png,object_11a.png,,,,,,,,,,,,,,,,,,,,,
null,,rt_plussign_withcolor2,1142236,,,,,,,,green,,,null,object_14c.png,object_11a.png,,,,,,,,,,,,,,,,,,,,,
1283.3999999761581,,rt_thecrossant_black2,1143287,,,,,,,,black_plus_sign,,,50,,,1,,,,,,,0.96,,,,,,,,,,,,,
null,,color_black2,1143396,,,,,,,,black_plus_sign,,,null,,,,,,,,,,,,,,,,,,,,,,,
null,,learn_phase(without_color)2,1146914,,,,,,,,black_plus_sign,,,null,object_07b.png,object_06a.png,,,,,,,,,,,,,,,,,,,,,
null,,black_cross(without_color)2,1147676,,,,,,,,blue,,,null,object_07b.png,object_06a.png,,,,,,,,,,,,,,,,,,,,,
null,,rt_plussign_withcolor2,1148181,,,,,,,,blue,,,null,object_07b.png,object_06a.png,,,,,,,,,,,,,,,,,,,,,
1543.5,,rt_thecrossant_black2,1149439,,,,,,,,black_plus_sign,,,49,,,1,,,,,,,0.9615384615384616,,,,,,,,,,,,,
null,,color_black2,1149555,,,,,,,,black_plus_sign,,,null,,,,,,,,,,,,,,,,,,,,,,,
null,,learn_phase(without_color)2,1153063,,,,,,,,black_plus_sign,,,null,object_11a.png,object_05c.png,,,,,,,,,,,,,,,,,,,,,
null,,black_cross(without_color)2,1153504,,,,,,,,blue,,,null,object_11a.png,object_05c.png,,,,,,,,,,,,,,,,,,,,,
null,,rt_plussign_withcolor2,1154012,,,,,,,,blue,,,null,object_11a.png,object_05c.png,,,,,,,,,,,,,,,,,,,,,
1352.9000000059605,,rt_thecrossant_black2,1155594,,,,,,,,black_plus_sign,,,49,,,1,,,,,,,0.9629629629629629,,,,,,,,,,,,,
null,,color_black2,1155711,,,,,,,,black_plus_sign,,,null,,,,,,,,,,,,,,,,,,,,,,,
null,,learn_phase(without_color)2,1159219,,,,,,,,black_plus_sign,,,null,object_12c.png,object_09c.png,,,,,,,,,,,,,,,,,,,,,
null,,black_cross(without_color)2,1159961,,,,,,,,green,,,null,object_12c.png,object_09c.png,,,,,,,,,,,,,,,,,,,,,
null,,rt_plussign_withcolor2,1160478,,,,,,,,green,,,null,object_12c.png,object_09c.png,,,,,,,,,,,,,,,,,,,,,
840.0999999940395,,rt_thecrossant_black2,1161770,,,,,,,,black_plus_sign,,,50,,,1,,,,,,,0.9642857142857143,,,,,,,,,,,,,
null,,color_black2,1161887,,,,,,,,black_plus_sign,,,null,,,,,,,,,,,,,,,,,,,,,,,
null,,learn_phase(without_color)2,1165393,,,,,,,,black_plus_sign,,,null,object_01a.png,object_05a.png,,,,,,,,,,,,,,,,,,,,,
null,,black_cross(without_color)2,1165967,,,,,,,,blue,,,null,object_01a.png,object_05a.png,,,,,,,,,,,,,,,,,,,,,
null,,rt_plussign_withcolor2,1166477,,,,,,,,blue,,,null,object_01a.png,object_05a.png,,,,,,,,,,,,,,,,,,,,,
1319.300000011921,,rt_thecrossant_black2,1167931,,,,,,,,black_plus_sign,,,49,,,1,,,,,,,0.9655172413793104,,,,,,,,,,,,,
null,,color_black2,1168046,,,,,,,,black_plus_sign,,,null,,,,,,,,,,,,,,,,,,,,,,,
null,,thebreak,1168157,,,,,,,,<p></p>,,,null,,,,,,,,,,,,,,,,,,,,,,,
34278.20000001788,,intro_0,1202438,,,,,,,,instruct,,,32,,,,,,,,,,,,,,,,,,,,,,,
3191.5,,directmemory_phase2,1205633,,,,,,,,object_08a.png,,,51,,,1,,object_11c.png,object_15c.png,object_13b.png,object_13b.png,,0.8064516129032258,,1,,,,,,,,,,,
5870.699999988079,,directmemory_phase2,1211508,,,,,,,,object_06b.png,,,50,,,1,,object_11a.png,object_04b.png,object_13c.png,object_04b.png,,0.8125,,1,,,,,,,,,,,
8160.800000011921,,directmemory_phase2,1219674,,,,,,,,object_14b.png,,,49,,,0,,object_11a.png,object_01c.png,object_09c.png,object_01c.png,,0.7878787878787878,,0,,,,,,,,,,,
2339.7999999821186,,directmemory_phase2,1222018,,,,,,,,object_04c.png,,,50,,,1,,object_06c.png,object_12a.png,object_05b.png,object_12a.png,,0.7941176470588235,,1,,,,,,,,,,,
2919.600000023842,,directmemory_phase2,1224942,,,,,,,,object_12b.png,,,49,,,1,,object_09c.png,object_05a.png,object_15c.png,object_09c.png,,0.8,,1,,,,,,,,,,,
5673.199999988079,,directmemory_phase2,1230622,,,,,,,,object_02b.png,,,51,,,1,,object_10a.png,object_03b.png,object_13a.png,object_13a.png,,0.8055555555555556,,1,,,,,,,,,,,
6948.700000017881,,directmemory_phase2,1237577,,,,,,,,object_15b.png,,,50,,,1,,object_13c.png,object_06c.png,object_05a.png,object_06c.png,,0.8108108108108109,,1,,,,,,,,,,,
10238.200000017881,,directmemory_phase2,1247820,,,,,,,,object_08c.png,,,50,,,0,,object_05b.png,object_13c.png,object_11c.png,object_11c.png,,0.7894736842105263,,0,,,,,,,,,,,
3563.0999999940395,,directmemory_phase2,1251389,,,,,,,,object_09c.png,,,51,,,1,,object_03b.png,object_07a.png,object_12c.png,object_12c.png,,0.7948717948717948,,1,,,,,,,,,,,
10059.899999976158,,directmemory_phase2,1261454,,,,,,,,object_05b.png,,,51,,,1,,object_07a.png,object_02c.png,object_02a.png,object_02a.png,,0.8,,1,,,,,,,,,,,
2437.199999988079,,directmemory_phase2,1263896,,,,,,,,object_03c.png,,,51,,,1,,object_11a.png,object_09c.png,object_15a.png,object_15a.png,,0.8048780487804879,,1,,,,,,,,,,,
12640.90000000596,,directmemory_phase2,1276542,,,,,,,,object_12a.png,,,51,,,1,,object_14c.png,object_02c.png,object_03b.png,object_03b.png,,0.8095238095238095,,1,,,,,,,,,,,
4253.5999999940395,,directmemory_phase2,1280801,,,,,,,,object_01c.png,,,50,,,1,,object_07b.png,object_01b.png,object_01a.png,object_01b.png,,0.813953488372093,,1,,,,,,,,,,,
6902.0999999940395,,directmemory_phase2,1287708,,,,,,,,object_09a.png,,,49,,,1,,object_02b.png,object_04b.png,object_01c.png,object_02b.png,,0.8181818181818182,,1,,,,,,,,,,,
7725,,directmemory_phase2,1295438,,,,,,,,object_15a.png,,,49,,,1,,object_02c.png,object_03b.png,object_13a.png,object_02c.png,,0.8222222222222222,,1,,,,,,,,,,,
2427.7999999821186,,directmemory_phase2,1297871,,,,,,,,object_06a.png,,,51,,,1,,object_12c.png,object_10c.png,object_07b.png,object_07b.png,,0.8260869565217391,,1,,,,,,,,,,,
3539,,directmemory_phase2,1301414,,,,,,,,object_04a.png,,,50,,,1,,object_04b.png,object_13c.png,object_11a.png,object_13c.png,,0.8297872340425532,,1,,,,,,,,,,,
2510.300000011921,,directmemory_phase2,1303929,,,,,,,,object_11c.png,,,50,,,1,,object_13a.png,object_10a.png,object_10b.png,object_10a.png,,0.8333333333333334,,1,,,,,,,,,,,
5188,,directmemory_phase2,1309122,,,,,,,,object_05a.png,,,50,,,1,,object_12c.png,object_01a.png,object_02a.png,object_01a.png,,0.8367346938775511,,1,,,,,,,,,,,
2814.699999988079,,directmemory_phase2,1311942,,,,,,,,object_14a.png,,,50,,,1,,object_06c.png,object_05a.png,object_13c.png,object_05a.png,,0.84,,1,,,,,,,,,,,
4611.199999988079,,directmemory_phase2,1316558,,,,,,,,object_04b.png,,,49,,,1,,object_10c.png,object_10a.png,object_07b.png,object_10c.png,,0.8431372549019608,,1,,,,,,,,,,,
4757.600000023842,,directmemory_phase2,1321322,,,,,,,,object_11a.png,,,51,,,1,,object_01a.png,object_12c.png,object_14c.png,object_14c.png,,0.8461538461538461,,1,,,,,,,,,,,
6204.200000017881,,directmemory_phase2,1327532,,,,,,,,object_13b.png,,,50,,,1,,object_02c.png,object_03a.png,object_12c.png,object_03a.png,,0.8490566037735849,,1,,,,,,,,,,,
7044.9000000059605,,directmemory_phase2,1334583,,,,,,,,object_07c.png,,,51,,,1,,object_11a.png,object_05b.png,object_15c.png,object_15c.png,,0.8518518518518519,,1,,,,,,,,,,,
1860.0999999940395,,directmemory_phase2,1336448,,,,,,,,object_09b.png,,,50,,,1,,object_13c.png,object_06a.png,object_15a.png,object_06a.png,,0.8545454545454545,,1,,,,,,,,,,,
4044.9000000059605,,directmemory_phase2,1340497,,,,,,,,object_05c.png,,,49,,,0,,object_09c.png,object_12a.png,object_11a.png,object_11a.png,,0.8392857142857143,,0,,,,,,,,,,,
6498.5999999940395,,directmemory_phase2,1347001,,,,,,,,object_15c.png,,,51,,,1,,object_14c.png,object_02c.png,object_11b.png,object_11b.png,,0.8421052631578947,,1,,,,,,,,,,,
8578.5,,directmemory_phase2,1355584,,,,,,,,object_13c.png,,,51,,,1,,object_10c.png,object_03b.png,object_07a.png,object_07a.png,,0.8448275862068966,,1,,,,,,,,,,,
4585.800000011921,,directmemory_phase2,1360175,,,,,,,,object_08b.png,,,51,,,1,,object_06a.png,object_04b.png,object_05b.png,object_05b.png,,0.847457627118644,,1,,,,,,,,,,,
6047.5,,directmemory_phase2,1366228,,,,,,,,object_06c.png,,,51,,,1,,object_01b.png,object_01a.png,object_10b.png,object_10b.png,,0.85,,1,,,,,,,,,,,
null,,thebreak,1366342,,,,,,,,<p></p>,,,null,,,,,,,,,,,,,,,,,,,,,,,
22931.29999998212,,intro_0,1389276,,,,,,,,instruct,,,32,,,,,,,,,,,,,,,,,,,,,,,
null,,learn_phase(without_color)3,1392791,,,,,,,,black_plus_sign,,,null,object_07a.png,object_13c.png,,,,,,,,,,,,,,,,,,,,,
null,,black_cross(without_color)3,1393418,,,,,,,,blue,,,null,object_07a.png,object_13c.png,,,,,,,,,,,,,,,,,,,,,
null,,rt_plussign_withcolor3,1393924,,,,,,,,blue,,,null,object_07a.png,object_13c.png,,,,,,,,,,,,,,,,,,,,,
1176.4000000059605,,rt_thecrossant_black3,1395316,,,,,,,,black_plus_sign,,,49,,,1,,,,,,,1,,,,,,,,,,,,,
null,,color_black3,1395431,,,,,,,,black_plus_sign,,,null,,,,,,,,,,,,,,,,,,,,,,,
null,,learn_phase(without_color)3,1398935,,,,,,,,black_plus_sign,,,null,object_05b.png,object_08b.png,,,,,,,,,,,,,,,,,,,,,
null,,black_cross(without_color)3,1399399,,,,,,,,green,,,null,object_05b.png,object_08b.png,,,,,,,,,,,,,,,,,,,,,
null,,rt_plussign_withcolor3,1399902,,,,,,,,green,,,null,object_05b.png,object_08b.png,,,,,,,,,,,,,,,,,,,,,
1213.800000011921,,rt_thecrossant_black3,1401455,,,,,,,,black_plus_sign,,,50,,,1,,,,,,,1,,,,,,,,,,,,,
null,,color_black3,1401566,,,,,,,,black_plus_sign,,,null,,,,,,,,,,,,,,,,,,,,,,,
null,,learn_phase(without_color)3,1405078,,,,,,,,black_plus_sign,,,null,object_13c.png,object_04a.png,,,,,,,,,,,,,,,,,,,,,
null,,black_cross(without_color)3,1406165,,,,,,,,green,,,null,object_13c.png,object_04a.png,,,,,,,,,,,,,,,,,,,,,
null,,rt_plussign_withcolor3,1406679,,,,,,,,green,,,null,object_13c.png,object_04a.png,,,,,,,,,,,,,,,,,,,,,
1068.5,,rt_thecrossant_black3,1407612,,,,,,,,black_plus_sign,,,50,,,1,,,,,,,1,,,,,,,,,,,,,
null,,color_black3,1407720,,,,,,,,black_plus_sign,,,null,,,,,,,,,,,,,,,,,,,,,,,
null,,learn_phase(without_color)3,1411233,,,,,,,,black_plus_sign,,,null,object_13a.png,object_02b.png,,,,,,,,,,,,,,,,,,,,,
null,,black_cross(without_color)3,1412282,,,,,,,,green,,,null,object_13a.png,object_02b.png,,,,,,,,,,,,,,,,,,,,,
null,,rt_plussign_withcolor3,1412801,,,,,,,,green,,,null,object_13a.png,object_02b.png,,,,,,,,,,,,,,,,,,,,,
1734.800000011921,,rt_thecrossant_black3,1413765,,,,,,,,black_plus_sign,,,50,,,1,,,,,,,1,,,,,,,,,,,,,
null,,color_black3,1413876,,,,,,,,black_plus_sign,,,null,,,,,,,,,,,,,,,,,,,,,,,
null,,learn_phase(without_color)3,1417392,,,,,,,,black_plus_sign,,,null,object_11b.png,object_15c.png,,,,,,,,,,,,,,,,,,,,,
null,,black_cross(without_color)3,1418473,,,,,,,,green,,,null,object_11b.png,object_15c.png,,,,,,,,,,,,,,,,,,,,,
null,,rt_plussign_withcolor3,1418982,,,,,,,,green,,,null,object_11b.png,object_15c.png,,,,,,,,,,,,,,,,,,,,,
1447.800000011921,,rt_thecrossant_black3,1419925,,,,,,,,black_plus_sign,,,50,,,1,,,,,,,1,,,,,,,,,,,,,
null,,color_black3,1420032,,,,,,,,black_plus_sign,,,null,,,,,,,,,,,,,,,,,,,,,,,
null,,learn_phase(without_color)3,1423546,,,,,,,,black_plus_sign,,,null,object_10b.png,object_06c.png,,,,,,,,,,,,,,,,,,,,,
null,,black_cross(without_color)3,1424329,,,,,,,,green,,,null,object_10b.png,object_06c.png,,,,,,,,,,,,,,,,,,,,,
null,,rt_plussign_withcolor3,1424835,,,,,,,,green,,,null,object_10b.png,object_06c.png,,,,,,,,,,,,,,,,,,,,,
1695.800000011921,,rt_thecrossant_black3,1426083,,,,,,,,black_plus_sign,,,50,,,1,,,,,,,1,,,,,,,,,,,,,
null,,color_black3,1426210,,,,,,,,black_plus_sign,,,null,,,,,,,,,,,,,,,,,,,,,,,
null,,learn_phase(without_color)3,1429718,,,,,,,,black_plus_sign,,,null,object_07b.png,object_06a.png,,,,,,,,,,,,,,,,,,,,,
null,,black_cross(without_color)3,1430357,,,,,,,,green,,,null,object_07b.png,object_06a.png,,,,,,,,,,,,,,,,,,,,,
null,,rt_plussign_withcolor3,1430872,,,,,,,,green,,,null,object_07b.png,object_06a.png,,,,,,,,,,,,,,,,,,,,,
null,,rt_thecrossant_black3,1432268,,,,,,,,black_plus_sign,,,null,,,,,,,,,,1,,,,,,,,,,,,,
null,,color_black3,1432381,,,,,,,,black_plus_sign,,,null,,,,,,,,,,,,,,,,,,,,,,,
null,,learn_phase(without_color)3,1435893,,,,,,,,black_plus_sign,,,null,object_12c.png,object_09c.png,,,,,,,,,,,,,,,,,,,,,
null,,black_cross(without_color)3,1436710,,,,,,,,green,,,null,object_12c.png,object_09c.png,,,,,,,,,,,,,,,,,,,,,
null,,rt_plussign_withcolor3,1437223,,,,,,,,green,,,null,object_12c.png,object_09c.png,,,,,,,,,,,,,,,,,,,,,
1242.800000011921,,rt_thecrossant_black3,1438429,,,,,,,,black_plus_sign,,,50,,,1,,,,,,,1,,,,,,,,,,,,,
null,,color_black3,1438549,,,,,,,,black_plus_sign,,,null,,,,,,,,,,,,,,,,,,,,,,,
null,,learn_phase(without_color)3,1442056,,,,,,,,black_plus_sign,,,null,object_03a.png,object_13b.png,,,,,,,,,,,,,,,,,,,,,
null,,black_cross(without_color)3,1442745,,,,,,,,green,,,null,object_03a.png,object_13b.png,,,,,,,,,,,,,,,,,,,,,
null,,rt_plussign_withcolor3,1443260,,,,,,,,green,,,null,object_03a.png,object_13b.png,,,,,,,,,,,,,,,,,,,,,
1599.5999999940395,,rt_thecrossant_black3,1444604,,,,,,,,black_plus_sign,,,50,,,1,,,,,,,1,,,,,,,,,,,,,
null,,color_black3,1444707,,,,,,,,black_plus_sign,,,null,,,,,,,,,,,,,,,,,,,,,,,
null,,learn_phase(without_color)3,1448219,,,,,,,,black_plus_sign,,,null,object_01b.png,object_01c.png,,,,,,,,,,,,,,,,,,,,,
null,,black_cross(without_color)3,1448896,,,,,,,,green,,,null,object_01b.png,object_01c.png,,,,,,,,,,,,,,,,,,,,,
null,,rt_plussign_withcolor3,1449406,,,,,,,,green,,,null,object_01b.png,object_01c.png,,,,,,,,,,,,,,,,,,,,,
1209.5,,rt_thecrossant_black3,1450751,,,,,,,,black_plus_sign,,,50,,,1,,,,,,,1,,,,,,,,,,,,,
null,,color_black3,1450864,,,,,,,,black_plus_sign,,,null,,,,,,,,,,,,,,,,,,,,,,,
null,,learn_phase(without_color)3,1454384,,,,,,,,black_plus_sign,,,null,object_14c.png,object_11a.png,,,,,,,,,,,,,,,,,,,,,
null,,black_cross(without_color)3,1455227,,,,,,,,green,,,null,object_14c.png,object_11a.png,,,,,,,,,,,,,,,,,,,,,
null,,rt_plussign_withcolor3,1455735,,,,,,,,green,,,null,object_14c.png,object_11a.png,,,,,,,,,,,,,,,,,,,,,
1112.9000000059605,,rt_thecrossant_black3,1456923,,,,,,,,black_plus_sign,,,50,,,1,,,,,,,1,,,,,,,,,,,,,
null,,color_black3,1457028,,,,,,,,black_plus_sign,,,null,,,,,,,,,,,,,,,,,,,,,,,
null,,learn_phase(without_color)3,1460545,,,,,,,,black_plus_sign,,,null,object_06a.png,object_09b.png,,,,,,,,,,,,,,,,,,,,,
null,,black_cross(without_color)3,1461226,,,,,,,,blue,,,null,object_06a.png,object_09b.png,,,,,,,,,,,,,,,,,,,,,
null,,rt_plussign_withcolor3,1461736,,,,,,,,blue,,,null,object_06a.png,object_09b.png,,,,,,,,,,,,,,,,,,,,,
1379.9000000059605,,rt_thecrossant_black3,1463077,,,,,,,,black_plus_sign,,,49,,,1,,,,,,,1,,,,,,,,,,,,,
null,,color_black3,1463192,,,,,,,,black_plus_sign,,,null,,,,,,,,,,,,,,,,,,,,,,,
null,,learn_phase(without_color)3,1466702,,,,,,,,black_plus_sign,,,null,object_02b.png,object_09a.png,,,,,,,,,,,,,,,,,,,,,
null,,black_cross(without_color)3,1467735,,,,,,,,blue,,,null,object_02b.png,object_09a.png,,,,,,,,,,,,,,,,,,,,,
null,,rt_plussign_withcolor3,1468255,,,,,,,,blue,,,null,object_02b.png,object_09a.png,,,,,,,,,,,,,,,,,,,,,
1143.3999999761581,,rt_thecrossant_black3,1469236,,,,,,,,black_plus_sign,,,49,,,1,,,,,,,1,,,,,,,,,,,,,
null,,color_black3,1469352,,,,,,,,black_plus_sign,,,null,,,,,,,,,,,,,,,,,,,,,,,
null,,learn_phase(without_color)3,1472858,,,,,,,,black_plus_sign,,,null,object_06c.png,object_15b.png,,,,,,,,,,,,,,,,,,,,,
null,,black_cross(without_color)3,1473784,,,,,,,,blue,,,null,object_06c.png,object_15b.png,,,,,,,,,,,,,,,,,,,,,
null,,rt_plussign_withcolor3,1474291,,,,,,,,blue,,,null,object_06c.png,object_15b.png,,,,,,,,,,,,,,,,,,,,,
1496.5,,rt_thecrossant_black3,1475397,,,,,,,,black_plus_sign,,,49,,,1,,,,,,,1,,,,,,,,,,,,,
null,,color_black3,1475502,,,,,,,,black_plus_sign,,,null,,,,,,,,,,,,,,,,,,,,,,,
null,,learn_phase(without_color)3,1479012,,,,,,,,black_plus_sign,,,null,object_15a.png,object_03c.png,,,,,,,,,,,,,,,,,,,,,
null,,black_cross(without_color)3,1479575,,,,,,,,blue,,,null,object_15a.png,object_03c.png,,,,,,,,,,,,,,,,,,,,,
null,,rt_plussign_withcolor3,1480086,,,,,,,,blue,,,null,object_15a.png,object_03c.png,,,,,,,,,,,,,,,,,,,,,
1465.300000011921,,rt_thecrossant_black3,1481542,,,,,,,,black_plus_sign,,,49,,,1,,,,,,,1,,,,,,,,,,,,,
null,,color_black3,1481656,,,,,,,,black_plus_sign,,,null,,,,,,,,,,,,,,,,,,,,,,,
null,,learn_phase(without_color)3,1485173,,,,,,,,black_plus_sign,,,null,object_10c.png,object_04b.png,,,,,,,,,,,,,,,,,,,,,
null,,black_cross(without_color)3,1485601,,,,,,,,green,,,null,object_10c.png,object_04b.png,,,,,,,,,,,,,,,,,,,,,
null,,rt_plussign_withcolor3,1486112,,,,,,,,green,,,null,object_10c.png,object_04b.png,,,,,,,,,,,,,,,,,,,,,
1265.4000000059605,,rt_thecrossant_black3,1487713,,,,,,,,black_plus_sign,,,50,,,1,,,,,,,1,,,,,,,,,,,,,
null,,color_black3,1487824,,,,,,,,black_plus_sign,,,null,,,,,,,,,,,,,,,,,,,,,,,
null,,learn_phase(without_color)3,1491336,,,,,,,,black_plus_sign,,,null,object_11a.png,object_05c.png,,,,,,,,,,,,,,,,,,,,,
null,,black_cross(without_color)3,1492143,,,,,,,,blue,,,null,object_11a.png,object_05c.png,,,,,,,,,,,,,,,,,,,,,
null,,rt_plussign_withcolor3,1492659,,,,,,,,blue,,,null,object_11a.png,object_05c.png,,,,,,,,,,,,,,,,,,,,,
766.4000000059605,,rt_thecrossant_black3,1493879,,,,,,,,black_plus_sign,,,49,,,1,,,,,,,1,,,,,,,,,,,,,
null,,color_black3,1493995,,,,,,,,black_plus_sign,,,null,,,,,,,,,,,,,,,,,,,,,,,
null,,learn_phase(without_color)3,1497511,,,,,,,,black_plus_sign,,,null,object_09c.png,object_12b.png,,,,,,,,,,,,,,,,,,,,,
null,,black_cross(without_color)3,1498329,,,,,,,,blue,,,null,object_09c.png,object_12b.png,,,,,,,,,,,,,,,,,,,,,
null,,rt_plussign_withcolor3,1498844,,,,,,,,blue,,,null,object_09c.png,object_12b.png,,,,,,,,,,,,,,,,,,,,,
1190.699999988079,,rt_thecrossant_black3,1500059,,,,,,,,black_plus_sign,,,49,,,1,,,,,,,1,,,,,,,,,,,,,
null,,color_black3,1500167,,,,,,,,black_plus_sign,,,null,,,,,,,,,,,,,,,,,,,,,,,
null,,learn_phase(without_color)3,1503673,,,,,,,,black_plus_sign,,,null,object_01c.png,object_14b.png,,,,,,,,,,,,,,,,,,,,,
null,,black_cross(without_color)3,1504292,,,,,,,,green,,,null,object_01c.png,object_14b.png,,,,,,,,,,,,,,,,,,,,,
null,,rt_plussign_withcolor3,1504798,,,,,,,,green,,,null,object_01c.png,object_14b.png,,,,,,,,,,,,,,,,,,,,,
1470.199999988079,,rt_thecrossant_black3,1506215,,,,,,,,black_plus_sign,,,50,,,1,,,,,,,1,,,,,,,,,,,,,
null,,color_black3,1506328,,,,,,,,black_plus_sign,,,null,,,,,,,,,,,,,,,,,,,,,,,
null,,learn_phase(without_color)3,1509834,,,,,,,,black_plus_sign,,,null,object_13b.png,object_08a.png,,,,,,,,,,,,,,,,,,,,,
null,,black_cross(without_color)3,1510758,,,,,,,,green,,,null,object_13b.png,object_08a.png,,,,,,,,,,,,,,,,,,,,,
null,,rt_plussign_withcolor3,1511265,,,,,,,,green,,,null,object_13b.png,object_08a.png,,,,,,,,,,,,,,,,,,,,,
1444.5999999940395,,rt_thecrossant_black3,1512360,,,,,,,,black_plus_sign,,,50,,,1,,,,,,,1,,,,,,,,,,,,,
null,,color_black3,1512471,,,,,,,,black_plus_sign,,,null,,,,,,,,,,,,,,,,,,,,,,,
null,,learn_phase(without_color)3,1515977,,,,,,,,black_plus_sign,,,null,object_04b.png,object_06b.png,,,,,,,,,,,,,,,,,,,,,
null,,black_cross(without_color)3,1516892,,,,,,,,blue,,,null,object_04b.png,object_06b.png,,,,,,,,,,,,,,,,,,,,,
null,,rt_plussign_withcolor3,1517409,,,,,,,,blue,,,null,object_04b.png,object_06b.png,,,,,,,,,,,,,,,,,,,,,
null,,rt_thecrossant_black3,1518515,,,,,,,,black_plus_sign,,,null,,,,,,,,,,1,,,,,,,,,,,,,
null,,color_black3,1518625,,,,,,,,black_plus_sign,,,null,,,,,,,,,,,,,,,,,,,,,,,
null,,learn_phase(without_color)3,1522143,,,,,,,,black_plus_sign,,,null,object_01a.png,object_05a.png,,,,,,,,,,,,,,,,,,,,,
null,,black_cross(without_color)3,1522893,,,,,,,,blue,,,null,object_01a.png,object_05a.png,,,,,,,,,,,,,,,,,,,,,
null,,rt_plussign_withcolor3,1523396,,,,,,,,blue,,,null,object_01a.png,object_05a.png,,,,,,,,,,,,,,,,,,,,,
1519.0999999940395,,rt_thecrossant_black3,1524666,,,,,,,,black_plus_sign,,,49,,,1,,,,,,,1,,,,,,,,,,,,,
null,,color_black3,1524779,,,,,,,,black_plus_sign,,,null,,,,,,,,,,,,,,,,,,,,,,,
null,,learn_phase(without_color)3,1528297,,,,,,,,black_plus_sign,,,null,object_02a.png,object_05b.png,,,,,,,,,,,,,,,,,,,,,
null,,black_cross(without_color)3,1529028,,,,,,,,green,,,null,object_02a.png,object_05b.png,,,,,,,,,,,,,,,,,,,,,
null,,rt_plussign_withcolor3,1529538,,,,,,,,green,,,null,object_02a.png,object_05b.png,,,,,,,,,,,,,,,,,,,,,
1305.5999999940395,,rt_thecrossant_black3,1530826,,,,,,,,black_plus_sign,,,50,,,1,,,,,,,1,,,,,,,,,,,,,
null,,color_black3,1530946,,,,,,,,black_plus_sign,,,null,,,,,,,,,,,,,,,,,,,,,,,
null,,learn_phase(without_color)3,1534461,,,,,,,,black_plus_sign,,,null,object_15c.png,object_07c.png,,,,,,,,,,,,,,,,,,,,,
null,,black_cross(without_color)3,1535405,,,,,,,,green,,,null,object_15c.png,object_07c.png,,,,,,,,,,,,,,,,,,,,,
null,,rt_plussign_withcolor3,1535919,,,,,,,,green,,,null,object_15c.png,object_07c.png,,,,,,,,,,,,,,,,,,,,,
null,,rt_thecrossant_black3,1537002,,,,,,,,black_plus_sign,,,null,,,,,,,,,,1,,,,,,,,,,,,,
null,,color_black3,1537107,,,,,,,,black_plus_sign,,,null,,,,,,,,,,,,,,,,,,,,,,,
null,,learn_phase(without_color)3,1540621,,,,,,,,black_plus_sign,,,null,object_10a.png,object_11c.png,,,,,,,,,,,,,,,,,,,,,
null,,black_cross(without_color)3,1541631,,,,,,,,green,,,null,object_10a.png,object_11c.png,,,,,,,,,,,,,,,,,,,,,
null,,rt_plussign_withcolor3,1542145,,,,,,,,green,,,null,object_10a.png,object_11c.png,,,,,,,,,,,,,,,,,,,,,
1820.4000000059605,,rt_thecrossant_black3,1543157,,,,,,,,black_plus_sign,,,50,,,1,,,,,,,1,,,,,,,,,,,,,
null,,color_black3,1543270,,,,,,,,black_plus_sign,,,null,,,,,,,,,,,,,,,,,,,,,,,
null,,learn_phase(without_color)3,1546788,,,,,,,,black_plus_sign,,,null,object_12a.png,object_04c.png,,,,,,,,,,,,,,,,,,,,,
null,,black_cross(without_color)3,1547537,,,,,,,,green,,,null,object_12a.png,object_04c.png,,,,,,,,,,,,,,,,,,,,,
null,,rt_plussign_withcolor3,1548043,,,,,,,,green,,,null,object_12a.png,object_04c.png,,,,,,,,,,,,,,,,,,,,,
1497,,rt_thecrossant_black3,1549313,,,,,,,,black_plus_sign,,,50,,,1,,,,,,,1,,,,,,,,,,,,,
null,,color_black3,1549423,,,,,,,,black_plus_sign,,,null,,,,,,,,,,,,,,,,,,,,,,,
null,,learn_phase(without_color)3,1552939,,,,,,,,black_plus_sign,,,null,object_03b.png,object_12a.png,,,,,,,,,,,,,,,,,,,,,
null,,black_cross(without_color)3,1553362,,,,,,,,blue,,,null,object_03b.png,object_12a.png,,,,,,,,,,,,,,,,,,,,,
null,,rt_plussign_withcolor3,1553879,,,,,,,,blue,,,null,object_03b.png,object_12a.png,,,,,,,,,,,,,,,,,,,,,
1605.5999999940395,,rt_thecrossant_black3,1555492,,,,,,,,black_plus_sign,,,49,,,1,,,,,,,1,,,,,,,,,,,,,
null,,color_black3,1555605,,,,,,,,black_plus_sign,,,null,,,,,,,,,,,,,,,,,,,,,,,
null,,learn_phase(without_color)3,1559122,,,,,,,,black_plus_sign,,,null,object_05a.png,object_14a.png,,,,,,,,,,,,,,,,,,,,,
null,,black_cross(without_color)3,1560127,,,,,,,,green,,,null,object_05a.png,object_14a.png,,,,,,,,,,,,,,,,,,,,,
null,,rt_plussign_withcolor3,1560646,,,,,,,,green,,,null,object_05a.png,object_14a.png,,,,,,,,,,,,,,,,,,,,,
1062.5,,rt_thecrossant_black3,1561673,,,,,,,,black_plus_sign,,,49,,,0,,,,,,,0.96,,,,,,,,,,,,,
null,,color_black3,1561780,,,,,,,,black_plus_sign,,,null,,,,,,,,,,,,,,,,,,,,,,,
null,,learn_phase(without_color)3,1565293,,,,,,,,black_plus_sign,,,null,object_02c.png,object_15a.png,,,,,,,,,,,,,,,,,,,,,
null,,black_cross(without_color)3,1565706,,,,,,,,blue,,,null,object_02c.png,object_15a.png,,,,,,,,,,,,,,,,,,,,,
null,,rt_plussign_withcolor3,1566221,,,,,,,,blue,,,null,object_02c.png,object_15a.png,,,,,,,,,,,,,,,,,,,,,
1682.699999988079,,rt_thecrossant_black3,1567823,,,,,,,,black_plus_sign,,,49,,,1,,,,,,,0.9615384615384616,,,,,,,,,,,,,
null,,color_black3,1567929,,,,,,,,black_plus_sign,,,null,,,,,,,,,,,,,,,,,,,,,,,
null,,learn_phase(without_color)3,1571443,,,,,,,,black_plus_sign,,,null,object_11c.png,object_08c.png,,,,,,,,,,,,,,,,,,,,,
null,,black_cross(without_color)3,1571924,,,,,,,,green,,,null,object_11c.png,object_08c.png,,,,,,,,,,,,,,,,,,,,,
null,,rt_plussign_withcolor3,1572435,,,,,,,,green,,,null,object_11c.png,object_08c.png,,,,,,,,,,,,,,,,,,,,,
1510.699999988079,,rt_thecrossant_black3,1573986,,,,,,,,black_plus_sign,,,50,,,1,,,,,,,0.9629629629629629,,,,,,,,,,,,,
null,,color_black3,1574107,,,,,,,,black_plus_sign,,,null,,,,,,,,,,,,,,,,,,,,,,,
null,,thebreak,1574216,,,,,,,,<p></p>,,,null,,,,,,,,,,,,,,,,,,,,,,,
51598.80000001192,,intro_0,1625818,,,,,,,,instruct,,,32,,,,,,,,,,,,,,,,,,,,,,,
7021.200000017881,,directmemory_phase3,1632842,,,,,,,,object_06a.png,,,51,,,1,,object_10b.png,object_12c.png,object_07b.png,object_07b.png,,0.8524590163934426,,1,,,,,,,,,,,
4934.699999988079,,directmemory_phase3,1637782,,,,,,,,object_04c.png,,,49,,,0,,object_06c.png,object_12a.png,object_05b.png,object_12a.png,,0.8387096774193549,,0,,,,,,,,,,,
8785,,directmemory_phase3,1646575,,,,,,,,object_08c.png,,,51,,,1,,object_09c.png,object_05b.png,object_11c.png,object_11c.png,,0.8412698412698413,,1,,,,,,,,,,,
2754.2999999821186,,directmemory_phase3,1649335,,,,,,,,object_12a.png,,,50,,,1,,object_14c.png,object_03b.png,object_02a.png,object_03b.png,,0.84375,,1,,,,,,,,,,,
2474.7000000178814,,directmemory_phase3,1651816,,,,,,,,object_14a.png,,,51,,,1,,object_01c.png,object_15a.png,object_05a.png,object_05a.png,,0.8461538461538461,,1,,,,,,,,,,,
2125.100000023842,,directmemory_phase3,1653947,,,,,,,,object_15a.png,,,49,,,1,,object_02c.png,object_10c.png,object_07a.png,object_02c.png,,0.8484848484848485,,1,,,,,,,,,,,
8651,,directmemory_phase3,1662605,,,,,,,,object_01c.png,,,49,,,1,,object_01b.png,object_10b.png,object_02a.png,object_01b.png,,0.8507462686567164,,1,,,,,,,,,,,
2449.2000000178814,,directmemory_phase3,1665060,,,,,,,,object_09a.png,,,49,,,1,,object_02b.png,object_12a.png,object_06a.png,object_02b.png,,0.8529411764705882,,1,,,,,,,,,,,
7412.299999982119,,directmemory_phase3,1672478,,,,,,,,object_11c.png,,,50,,,1,,object_02a.png,object_10a.png,object_07b.png,object_10a.png,,0.855072463768116,,1,,,,,,,,,,,
2200.5,,directmemory_phase3,1674684,,,,,,,,object_07c.png,,,49,,,1,,object_15c.png,object_02b.png,object_06a.png,object_15c.png,,0.8571428571428571,,1,,,,,,,,,,,
4269.799999982119,,directmemory_phase3,1678959,,,,,,,,object_15c.png,,,50,,,0,,object_11b.png,object_01a.png,object_03b.png,object_11b.png,,0.8450704225352113,,0,,,,,,,,,,,
6058.299999982119,,directmemory_phase3,1685023,,,,,,,,object_04a.png,,,50,,,1,,object_02b.png,object_13c.png,object_12a.png,object_13c.png,,0.8472222222222222,,1,,,,,,,,,,,
2611.5,,directmemory_phase3,1687639,,,,,,,,object_13b.png,,,51,,,0,,object_01b.png,object_03a.png,object_07b.png,object_03a.png,,0.8356164383561644,,0,,,,,,,,,,,
6456.9000000059605,,directmemory_phase3,1694101,,,,,,,,object_05b.png,,,50,,,0,,object_02a.png,object_02c.png,object_14c.png,object_02a.png,,0.8243243243243243,,0,,,,,,,,,,,
5693,,directmemory_phase3,1699798,,,,,,,,object_13c.png,,,50,,,1,,object_02a.png,object_07a.png,object_11b.png,object_07a.png,,0.8266666666666667,,1,,,,,,,,,,,
6266.799999982119,,directmemory_phase3,1706071,,,,,,,,object_14b.png,,,51,,,1,,object_11c.png,object_09c.png,object_01c.png,object_01c.png,,0.8289473684210527,,1,,,,,,,,,,,
2118.0999999940395,,directmemory_phase3,1708195,,,,,,,,object_03c.png,,,51,,,1,,object_05b.png,object_11c.png,object_15a.png,object_15a.png,,0.8311688311688312,,1,,,,,,,,,,,
2514.5,,directmemory_phase3,1710716,,,,,,,,object_08a.png,,,49,,,1,,object_13b.png,object_15a.png,object_05b.png,object_13b.png,,0.8333333333333334,,1,,,,,,,,,,,
2079,,directmemory_phase3,1712799,,,,,,,,object_09c.png,,,50,,,1,,object_02c.png,object_12c.png,object_10c.png,object_12c.png,,0.8354430379746836,,1,,,,,,,,,,,
1859.5999999940395,,directmemory_phase3,1714666,,,,,,,,object_09b.png,,,51,,,1,,object_11c.png,object_09c.png,object_06a.png,object_06a.png,,0.8375,,1,,,,,,,,,,,
3621.5999999940395,,directmemory_phase3,1718294,,,,,,,,object_05c.png,,,51,,,1,,object_05b.png,object_06a.png,object_11a.png,object_11a.png,,0.8395061728395061,,1,,,,,,,,,,,
3775,,directmemory_phase3,1722075,,,,,,,,object_05a.png,,,50,,,1,,object_02c.png,object_01a.png,object_10a.png,object_01a.png,,0.8414634146341463,,1,,,,,,,,,,,
3535.0999999940395,,directmemory_phase3,1725615,,,,,,,,object_15b.png,,,51,,,1,,object_13c.png,object_06a.png,object_06c.png,object_06c.png,,0.8433734939759037,,1,,,,,,,,,,,
2937.9000000059605,,directmemory_phase3,1728559,,,,,,,,object_11a.png,,,50,,,0,,object_14c.png,object_12c.png,object_10b.png,object_14c.png,,0.8333333333333334,,0,,,,,,,,,,,
6881.199999988079,,directmemory_phase3,1735447,,,,,,,,object_08b.png,,,49,,,1,,object_05b.png,object_12a.png,object_05a.png,object_05b.png,,0.8352941176470589,,1,,,,,,,,,,,
2332.4000000059605,,directmemory_phase3,1737784,,,,,,,,object_02b.png,,,50,,,1,,object_10a.png,object_13a.png,object_01a.png,object_13a.png,,0.8372093023255814,,1,,,,,,,,,,,
4779.9000000059605,,directmemory_phase3,1742570,,,,,,,,object_04b.png,,,51,,,1,,object_13a.png,object_01a.png,object_10c.png,object_10c.png,,0.8390804597701149,,1,,,,,,,,,,,
1449.5999999940395,,directmemory_phase3,1744024,,,,,,,,object_06c.png,,,50,,,0,,object_10b.png,object_13a.png,object_11b.png,object_10b.png,,0.8295454545454546,,0,,,,,,,,,,,
2460,,directmemory_phase3,1746489,,,,,,,,object_06b.png,,,50,,,1,,object_06a.png,object_04b.png,object_12a.png,object_04b.png,,0.8314606741573034,,1,,,,,,,,,,,
2033.0999999940395,,directmemory_phase3,1748528,,,,,,,,object_12b.png,,,50,,,1,,object_11c.png,object_09c.png,object_01c.png,object_09c.png,,0.8333333333333334,,1,,,,,,,,,,,
null,,thebreak,1748641,,,,,,,,<p></p>,,,null,,,,,,,,,,,,,,,,,,,,,,,
3064.5,,intro_0,1751708,,,,,,,,instruct,,,32,,,,,,,,,,,,,,,,,,,,,,,
null,,learn_phase(without_color)4,1755223,,,,,,,,black_plus_sign,,,null,object_10c.png,object_04b.png,,,,,,,,,,,,,,,,,,,,,
null,,black_cross(without_color)4,1755855,,,,,,,,blue,,,null,object_10c.png,object_04b.png,,,,,,,,,,,,,,,,,,,,,
null,,rt_plussign_withcolor4,1756360,,,,,,,,blue,,,null,object_10c.png,object_04b.png,,,,,,,,,,,,,,,,,,,,,
1207,,rt_thecrossant_black4,1757758,,,,,,,,black_plus_sign,,,49,,,1,,,,,,,1,,,,,,,,,,,,,
null,,color_black4,1757864,,,,,,,,black_plus_sign,,,null,,,,,,,,,,,,,,,,,,,,,,,
null,,learn_phase(without_color)4,1761377,,,,,,,,black_plus_sign,,,null,object_05b.png,object_08b.png,,,,,,,,,,,,,,,,,,,,,
null,,black_cross(without_color)4,1762209,,,,,,,,green,,,null,object_05b.png,object_08b.png,,,,,,,,,,,,,,,,,,,,,
null,,rt_plussign_withcolor4,1762723,,,,,,,,green,,,null,object_05b.png,object_08b.png,,,,,,,,,,,,,,,,,,,,,
913.5,,rt_thecrossant_black4,1763922,,,,,,,,black_plus_sign,,,50,,,1,,,,,,,1,,,,,,,,,,,,,
null,,color_black4,1764032,,,,,,,,black_plus_sign,,,null,,,,,,,,,,,,,,,,,,,,,,,
null,,learn_phase(without_color)4,1767552,,,,,,,,black_plus_sign,,,null,object_15c.png,object_07c.png,,,,,,,,,,,,,,,,,,,,,
null,,black_cross(without_color)4,1768367,,,,,,,,green,,,null,object_15c.png,object_07c.png,,,,,,,,,,,,,,,,,,,,,
null,,rt_plussign_withcolor4,1768876,,,,,,,,green,,,null,object_15c.png,object_07c.png,,,,,,,,,,,,,,,,,,,,,
1176.0999999940395,,rt_thecrossant_black4,1770076,,,,,,,,black_plus_sign,,,50,,,1,,,,,,,1,,,,,,,,,,,,,
null,,color_black4,1770184,,,,,,,,black_plus_sign,,,null,,,,,,,,,,,,,,,,,,,,,,,
null,,learn_phase(without_color)4,1773691,,,,,,,,black_plus_sign,,,null,object_06a.png,object_09b.png,,,,,,,,,,,,,,,,,,,,,
null,,black_cross(without_color)4,1774643,,,,,,,,green,,,null,object_06a.png,object_09b.png,,,,,,,,,,,,,,,,,,,,,
null,,rt_plussign_withcolor4,1775156,,,,,,,,green,,,null,object_06a.png,object_09b.png,,,,,,,,,,,,,,,,,,,,,
1883.4000000059605,,rt_thecrossant_black4,1776233,,,,,,,,black_plus_sign,,,50,,,1,,,,,,,1,,,,,,,,,,,,,
null,,color_black4,1776344,,,,,,,,black_plus_sign,,,null,,,,,,,,,,,,,,,,,,,,,,,
null,,learn_phase(without_color)4,1779856,,,,,,,,black_plus_sign,,,null,object_07a.png,object_13c.png,,,,,,,,,,,,,,,,,,,,,
null,,black_cross(without_color)4,1780941,,,,,,,,green,,,null,object_07a.png,object_13c.png,,,,,,,,,,,,,,,,,,,,,
null,,rt_plussign_withcolor4,1781450,,,,,,,,green,,,null,object_07a.png,object_13c.png,,,,,,,,,,,,,,,,,,,,,
1495.5999999940395,,rt_thecrossant_black4,1782399,,,,,,,,black_plus_sign,,,50,,,1,,,,,,,1,,,,,,,,,,,,,
null,,color_black4,1782505,,,,,,,,black_plus_sign,,,null,,,,,,,,,,,,,,,,,,,,,,,
null,,learn_phase(without_color)4,1786013,,,,,,,,black_plus_sign,,,null,object_15a.png,object_03c.png,,,,,,,,,,,,,,,,,,,,,
null,,black_cross(without_color)4,1786584,,,,,,,,blue,,,null,object_15a.png,object_03c.png,,,,,,,,,,,,,,,,,,,,,
null,,rt_plussign_withcolor4,1787095,,,,,,,,blue,,,null,object_15a.png,object_03c.png,,,,,,,,,,,,,,,,,,,,,
1558.699999988079,,rt_thecrossant_black4,1788536,,,,,,,,black_plus_sign,,,49,,,1,,,,,,,1,,,,,,,,,,,,,
null,,color_black4,1788643,,,,,,,,black_plus_sign,,,null,,,,,,,,,,,,,,,,,,,,,,,
null,,learn_phase(without_color)4,1792147,,,,,,,,black_plus_sign,,,null,object_02a.png,object_05b.png,,,,,,,,,,,,,,,,,,,,,
null,,black_cross(without_color)4,1793169,,,,,,,,blue,,,null,object_02a.png,object_05b.png,,,,,,,,,,,,,,,,,,,,,
null,,rt_plussign_withcolor4,1793687,,,,,,,,blue,,,null,object_02a.png,object_05b.png,,,,,,,,,,,,,,,,,,,,,
1008.4000000059605,,rt_thecrossant_black4,1794686,,,,,,,,black_plus_sign,,,49,,,1,,,,,,,1,,,,,,,,,,,,,
null,,color_black4,1794792,,,,,,,,black_plus_sign,,,null,,,,,,,,,,,,,,,,,,,,,,,
null,,learn_phase(without_color)4,1798307,,,,,,,,black_plus_sign,,,null,object_13c.png,object_04a.png,,,,,,,,,,,,,,,,,,,,,
null,,black_cross(without_color)4,1798892,,,,,,,,green,,,null,object_13c.png,object_04a.png,,,,,,,,,,,,,,,,,,,,,
null,,rt_plussign_withcolor4,1799409,,,,,,,,green,,,null,object_13c.png,object_04a.png,,,,,,,,,,,,,,,,,,,,,
1479.5999999940395,,rt_thecrossant_black4,1800844,,,,,,,,black_plus_sign,,,49,,,0,,,,,,,0.875,,,,,,,,,,,,,
null,,color_black4,1800949,,,,,,,,black_plus_sign,,,null,,,,,,,,,,,,,,,,,,,,,,,
null,,learn_phase(without_color)4,1804455,,,,,,,,black_plus_sign,,,null,object_13a.png,object_02b.png,,,,,,,,,,,,,,,,,,,,,
null,,black_cross(without_color)4,1804970,,,,,,,,green,,,null,object_13a.png,object_02b.png,,,,,,,,,,,,,,,,,,,,,
null,,rt_plussign_withcolor4,1805482,,,,,,,,green,,,null,object_13a.png,object_02b.png,,,,,,,,,,,,,,,,,,,,,
969.3000000119209,,rt_thecrossant_black4,1807000,,,,,,,,black_plus_sign,,,50,,,1,,,,,,,0.8888888888888888,,,,,,,,,,,,,
null,,color_black4,1807108,,,,,,,,black_plus_sign,,,null,,,,,,,,,,,,,,,,,,,,,,,
null,,learn_phase(without_color)4,1810615,,,,,,,,black_plus_sign,,,null,object_11c.png,object_08c.png,,,,,,,,,,,,,,,,,,,,,
null,,black_cross(without_color)4,1811236,,,,,,,,green,,,null,object_11c.png,object_08c.png,,,,,,,,,,,,,,,,,,,,,
null,,rt_plussign_withcolor4,1811756,,,,,,,,green,,,null,object_11c.png,object_08c.png,,,,,,,,,,,,,,,,,,,,,
852,,rt_thecrossant_black4,1813154,,,,,,,,black_plus_sign,,,50,,,1,,,,,,,0.9,,,,,,,,,,,,,
null,,color_black4,1813266,,,,,,,,black_plus_sign,,,null,,,,,,,,,,,,,,,,,,,,,,,
null,,learn_phase(without_color)4,1816783,,,,,,,,black_plus_sign,,,null,object_03b.png,object_12a.png,,,,,,,,,,,,,,,,,,,,,
null,,black_cross(without_color)4,1817849,,,,,,,,blue,,,null,object_03b.png,object_12a.png,,,,,,,,,,,,,,,,,,,,,
null,,rt_plussign_withcolor4,1818365,,,,,,,,blue,,,null,object_03b.png,object_12a.png,,,,,,,,,,,,,,,,,,,,,
1612.7000000178814,,rt_thecrossant_black4,1819331,,,,,,,,black_plus_sign,,,49,,,1,,,,,,,0.9090909090909091,,,,,,,,,,,,,
null,,color_black4,1819448,,,,,,,,black_plus_sign,,,null,,,,,,,,,,,,,,,,,,,,,,,
null,,learn_phase(without_color)4,1822961,,,,,,,,black_plus_sign,,,null,object_04b.png,object_06b.png,,,,,,,,,,,,,,,,,,,,,
null,,black_cross(without_color)4,1823844,,,,,,,,blue,,,null,object_04b.png,object_06b.png,,,,,,,,,,,,,,,,,,,,,
null,,rt_plussign_withcolor4,1824356,,,,,,,,blue,,,null,object_04b.png,object_06b.png,,,,,,,,,,,,,,,,,,,,,
1647.300000011921,,rt_thecrossant_black4,1825502,,,,,,,,black_plus_sign,,,49,,,1,,,,,,,0.9166666666666666,,,,,,,,,,,,,
null,,color_black4,1825608,,,,,,,,black_plus_sign,,,null,,,,,,,,,,,,,,,,,,,,,,,
null,,learn_phase(without_color)4,1829113,,,,,,,,black_plus_sign,,,null,object_02b.png,object_09a.png,,,,,,,,,,,,,,,,,,,,,
null,,black_cross(without_color)4,1830106,,,,,,,,blue,,,null,object_02b.png,object_09a.png,,,,,,,,,,,,,,,,,,,,,
null,,rt_plussign_withcolor4,1830612,,,,,,,,blue,,,null,object_02b.png,object_09a.png,,,,,,,,,,,,,,,,,,,,,
1837.9000000059605,,rt_thecrossant_black4,1831652,,,,,,,,black_plus_sign,,,49,,,1,,,,,,,0.9230769230769231,,,,,,,,,,,,,
null,,color_black4,1831766,,,,,,,,black_plus_sign,,,null,,,,,,,,,,,,,,,,,,,,,,,
null,,learn_phase(without_color)4,1835284,,,,,,,,black_plus_sign,,,null,object_02c.png,object_15a.png,,,,,,,,,,,,,,,,,,,,,
null,,black_cross(without_color)4,1836355,,,,,,,,green,,,null,object_02c.png,object_15a.png,,,,,,,,,,,,,,,,,,,,,
null,,rt_plussign_withcolor4,1836865,,,,,,,,green,,,null,object_02c.png,object_15a.png,,,,,,,,,,,,,,,,,,,,,
1985.5999999940395,,rt_thecrossant_black4,1837825,,,,,,,,black_plus_sign,,,50,,,1,,,,,,,0.9285714285714286,,,,,,,,,,,,,
null,,color_black4,1837931,,,,,,,,black_plus_sign,,,null,,,,,,,,,,,,,,,,,,,,,,,
null,,learn_phase(without_color)4,1841438,,,,,,,,black_plus_sign,,,null,object_03a.png,object_13b.png,,,,,,,,,,,,,,,,,,,,,
null,,black_cross(without_color)4,1842361,,,,,,,,green,,,null,object_03a.png,object_13b.png,,,,,,,,,,,,,,,,,,,,,
null,,rt_plussign_withcolor4,1842877,,,,,,,,green,,,null,object_03a.png,object_13b.png,,,,,,,,,,,,,,,,,,,,,
1738,,rt_thecrossant_black4,1843975,,,,,,,,black_plus_sign,,,50,,,1,,,,,,,0.9333333333333333,,,,,,,,,,,,,
null,,color_black4,1844082,,,,,,,,black_plus_sign,,,null,,,,,,,,,,,,,,,,,,,,,,,
null,,learn_phase(without_color)4,1847595,,,,,,,,black_plus_sign,,,null,object_12a.png,object_04c.png,,,,,,,,,,,,,,,,,,,,,
null,,black_cross(without_color)4,1848321,,,,,,,,green,,,null,object_12a.png,object_04c.png,,,,,,,,,,,,,,,,,,,,,
null,,rt_plussign_withcolor4,1848830,,,,,,,,green,,,null,object_12a.png,object_04c.png,,,,,,,,,,,,,,,,,,,,,
1804.699999988079,,rt_thecrossant_black4,1850136,,,,,,,,black_plus_sign,,,50,,,1,,,,,,,0.9375,,,,,,,,,,,,,
null,,color_black4,1850253,,,,,,,,black_plus_sign,,,null,,,,,,,,,,,,,,,,,,,,,,,
null,,learn_phase(without_color)4,1853763,,,,,,,,black_plus_sign,,,null,object_07b.png,object_06a.png,,,,,,,,,,,,,,,,,,,,,
null,,black_cross(without_color)4,1854498,,,,,,,,blue,,,null,object_07b.png,object_06a.png,,,,,,,,,,,,,,,,,,,,,
null,,rt_plussign_withcolor4,1855011,,,,,,,,blue,,,null,object_07b.png,object_06a.png,,,,,,,,,,,,,,,,,,,,,
1301.6000000238419,,rt_thecrossant_black4,1856312,,,,,,,,black_plus_sign,,,50,,,0,,,,,,,0.8823529411764706,,,,,,,,,,,,,
null,,warning_page,1861326,,,,,,,,warning,,,null,,,,,,,,,,,,,,,,,,,,,,,
null,,color_black4,1861439,,,,,,,,black_plus_sign,,,null,,,,,,,,,,,,,,,,,,,,,,,
null,,learn_phase(without_color)4,1864956,,,,,,,,black_plus_sign,,,null,object_13b.png,object_08a.png,,,,,,,,,,,,,,,,,,,,,
null,,black_cross(without_color)4,1865991,,,,,,,,green,,,null,object_13b.png,object_08a.png,,,,,,,,,,,,,,,,,,,,,
null,,rt_plussign_withcolor4,1866505,,,,,,,,green,,,null,object_13b.png,object_08a.png,,,,,,,,,,,,,,,,,,,,,
1430,,rt_thecrossant_black4,1867488,,,,,,,,black_plus_sign,,,50,,,1,,,,,,,0.8888888888888888,,,,,,,,,,,,,
null,,color_black4,1867593,,,,,,,,black_plus_sign,,,null,,,,,,,,,,,,,,,,,,,,,,,
null,,learn_phase(without_color)4,1871100,,,,,,,,black_plus_sign,,,null,object_05a.png,object_14a.png,,,,,,,,,,,,,,,,,,,,,
null,,black_cross(without_color)4,1871853,,,,,,,,blue,,,null,object_05a.png,object_14a.png,,,,,,,,,,,,,,,,,,,,,
null,,rt_plussign_withcolor4,1872361,,,,,,,,blue,,,null,object_05a.png,object_14a.png,,,,,,,,,,,,,,,,,,,,,
1649,,rt_thecrossant_black4,1873628,,,,,,,,black_plus_sign,,,49,,,1,,,,,,,0.8947368421052632,,,,,,,,,,,,,
null,,color_black4,1873739,,,,,,,,black_plus_sign,,,null,,,,,,,,,,,,,,,,,,,,,,,
null,,learn_phase(without_color)4,1877252,,,,,,,,black_plus_sign,,,null,object_10b.png,object_06c.png,,,,,,,,,,,,,,,,,,,,,
null,,black_cross(without_color)4,1878157,,,,,,,,blue,,,null,object_10b.png,object_06c.png,,,,,,,,,,,,,,,,,,,,,
null,,rt_plussign_withcolor4,1878673,,,,,,,,blue,,,null,object_10b.png,object_06c.png,,,,,,,,,,,,,,,,,,,,,
1527.7999999821186,,rt_thecrossant_black4,1879791,,,,,,,,black_plus_sign,,,49,,,1,,,,,,,0.9,,,,,,,,,,,,,
null,,color_black4,1879901,,,,,,,,black_plus_sign,,,null,,,,,,,,,,,,,,,,,,,,,,,
null,,learn_phase(without_color)4,1883409,,,,,,,,black_plus_sign,,,null,object_10a.png,object_11c.png,,,,,,,,,,,,,,,,,,,,,
null,,black_cross(without_color)4,1884222,,,,,,,,green,,,null,object_10a.png,object_11c.png,,,,,,,,,,,,,,,,,,,,,
null,,rt_plussign_withcolor4,1884728,,,,,,,,green,,,null,object_10a.png,object_11c.png,,,,,,,,,,,,,,,,,,,,,
1569.3999999761581,,rt_thecrossant_black4,1885942,,,,,,,,black_plus_sign,,,50,,,1,,,,,,,0.9047619047619048,,,,,,,,,,,,,
null,,color_black4,1886049,,,,,,,,black_plus_sign,,,null,,,,,,,,,,,,,,,,,,,,,,,
null,,learn_phase(without_color)4,1889556,,,,,,,,black_plus_sign,,,null,object_11b.png,object_15c.png,,,,,,,,,,,,,,,,,,,,,
null,,black_cross(without_color)4,1889985,,,,,,,,green,,,null,object_11b.png,object_15c.png,,,,,,,,,,,,,,,,,,,,,
null,,rt_plussign_withcolor4,1890491,,,,,,,,green,,,null,object_11b.png,object_15c.png,,,,,,,,,,,,,,,,,,,,,
1404.5,,rt_thecrossant_black4,1892081,,,,,,,,black_plus_sign,,,50,,,1,,,,,,,0.9090909090909091,,,,,,,,,,,,,
null,,color_black4,1892190,,,,,,,,black_plus_sign,,,null,,,,,,,,,,,,,,,,,,,,,,,
null,,learn_phase(without_color)4,1895704,,,,,,,,black_plus_sign,,,null,object_09c.png,object_12b.png,,,,,,,,,,,,,,,,,,,,,
null,,black_cross(without_color)4,1896123,,,,,,,,blue,,,null,object_09c.png,object_12b.png,,,,,,,,,,,,,,,,,,,,,
null,,rt_plussign_withcolor4,1896628,,,,,,,,blue,,,null,object_09c.png,object_12b.png,,,,,,,,,,,,,,,,,,,,,
888.1999999880791,,rt_thecrossant_black4,1898230,,,,,,,,black_plus_sign,,,49,,,1,,,,,,,0.9130434782608695,,,,,,,,,,,,,
null,,color_black4,1898343,,,,,,,,black_plus_sign,,,null,,,,,,,,,,,,,,,,,,,,,,,
null,,learn_phase(without_color)4,1901856,,,,,,,,black_plus_sign,,,null,object_11a.png,object_05c.png,,,,,,,,,,,,,,,,,,,,,
null,,black_cross(without_color)4,1902574,,,,,,,,green,,,null,object_11a.png,object_05c.png,,,,,,,,,,,,,,,,,,,,,
null,,rt_plussign_withcolor4,1903087,,,,,,,,green,,,null,object_11a.png,object_05c.png,,,,,,,,,,,,,,,,,,,,,
1045.2999999821186,,rt_thecrossant_black4,1904387,,,,,,,,black_plus_sign,,,50,,,1,,,,,,,0.9166666666666666,,,,,,,,,,,,,
null,,color_black4,1904493,,,,,,,,black_plus_sign,,,null,,,,,,,,,,,,,,,,,,,,,,,
null,,learn_phase(without_color)4,1908007,,,,,,,,black_plus_sign,,,null,object_01c.png,object_14b.png,,,,,,,,,,,,,,,,,,,,,
null,,black_cross(without_color)4,1908517,,,,,,,,green,,,null,object_01c.png,object_14b.png,,,,,,,,,,,,,,,,,,,,,
null,,rt_plussign_withcolor4,1909023,,,,,,,,green,,,null,object_01c.png,object_14b.png,,,,,,,,,,,,,,,,,,,,,
1331.5999999940395,,rt_thecrossant_black4,1910532,,,,,,,,black_plus_sign,,,50,,,1,,,,,,,0.92,,,,,,,,,,,,,
null,,color_black4,1910636,,,,,,,,black_plus_sign,,,null,,,,,,,,,,,,,,,,,,,,,,,
null,,learn_phase(without_color)4,1914145,,,,,,,,black_plus_sign,,,null,object_01a.png,object_05a.png,,,,,,,,,,,,,,,,,,,,,
null,,black_cross(without_color)4,1915026,,,,,,,,blue,,,null,object_01a.png,object_05a.png,,,,,,,,,,,,,,,,,,,,,
null,,rt_plussign_withcolor4,1915543,,,,,,,,blue,,,null,object_01a.png,object_05a.png,,,,,,,,,,,,,,,,,,,,,
847,,rt_thecrossant_black4,1916687,,,,,,,,black_plus_sign,,,49,,,1,,,,,,,0.9230769230769231,,,,,,,,,,,,,
null,,color_black4,1916798,,,,,,,,black_plus_sign,,,null,,,,,,,,,,,,,,,,,,,,,,,
null,,learn_phase(without_color)4,1920305,,,,,,,,black_plus_sign,,,null,object_01b.png,object_01c.png,,,,,,,,,,,,,,,,,,,,,
null,,black_cross(without_color)4,1920938,,,,,,,,blue,,,null,object_01b.png,object_01c.png,,,,,,,,,,,,,,,,,,,,,
null,,rt_plussign_withcolor4,1921446,,,,,,,,blue,,,null,object_01b.png,object_01c.png,,,,,,,,,,,,,,,,,,,,,
1232.0999999940395,,rt_thecrossant_black4,1922828,,,,,,,,black_plus_sign,,,49,,,1,,,,,,,0.9259259259259259,,,,,,,,,,,,,
null,,color_black4,1922935,,,,,,,,black_plus_sign,,,null,,,,,,,,,,,,,,,,,,,,,,,
null,,learn_phase(without_color)4,1926447,,,,,,,,black_plus_sign,,,null,object_14c.png,object_11a.png,,,,,,,,,,,,,,,,,,,,,
null,,black_cross(without_color)4,1927329,,,,,,,,blue,,,null,object_14c.png,object_11a.png,,,,,,,,,,,,,,,,,,,,,
null,,rt_plussign_withcolor4,1927843,,,,,,,,blue,,,null,object_14c.png,object_11a.png,,,,,,,,,,,,,,,,,,,,,
1027.5,,rt_thecrossant_black4,1928990,,,,,,,,black_plus_sign,,,49,,,1,,,,,,,0.9285714285714286,,,,,,,,,,,,,
null,,color_black4,1929106,,,,,,,,black_plus_sign,,,null,,,,,,,,,,,,,,,,,,,,,,,
null,,learn_phase(without_color)4,1932617,,,,,,,,black_plus_sign,,,null,object_12c.png,object_09c.png,,,,,,,,,,,,,,,,,,,,,
null,,black_cross(without_color)4,1933389,,,,,,,,green,,,null,object_12c.png,object_09c.png,,,,,,,,,,,,,,,,,,,,,
null,,rt_plussign_withcolor4,1933892,,,,,,,,green,,,null,object_12c.png,object_09c.png,,,,,,,,,,,,,,,,,,,,,
1510.1000000238419,,rt_thecrossant_black4,1935153,,,,,,,,black_plus_sign,,,50,,,1,,,,,,,0.9310344827586207,,,,,,,,,,,,,
null,,color_black4,1935273,,,,,,,,black_plus_sign,,,null,,,,,,,,,,,,,,,,,,,,,,,
null,,learn_phase(without_color)4,1938788,,,,,,,,black_plus_sign,,,null,object_06c.png,object_15b.png,,,,,,,,,,,,,,,,,,,,,
null,,black_cross(without_color)4,1939690,,,,,,,,green,,,null,object_06c.png,object_15b.png,,,,,,,,,,,,,,,,,,,,,
null,,rt_plussign_withcolor4,1940204,,,,,,,,green,,,null,object_06c.png,object_15b.png,,,,,,,,,,,,,,,,,,,,,
1282,,rt_thecrossant_black4,1941316,,,,,,,,black_plus_sign,,,50,,,1,,,,,,,0.9333333333333333,,,,,,,,,,,,,
null,,color_black4,1941434,,,,,,,,black_plus_sign,,,null,,,,,,,,,,,,,,,,,,,,,,,
null,,thebreak,1941553,,,,,,,,<p></p>,,,null,,,,,,,,,,,,,,,,,,,,,,,
23000.5,,intro_0,1964557,,,,,,,,instruct,,,32,,,,,,,,,,,,,,,,,,,,,,,
2895.5,,directmemory_phase4,1967457,,,,,,,,object_11a.png,,,50,,,1,,object_10c.png,object_14c.png,object_12c.png,object_14c.png,,0.8351648351648352,,1,,,,,,,,,,,
7286.700000017881,,directmemory_phase4,1974750,,,,,,,,object_06c.png,,,50,,,0,,object_02c.png,object_14c.png,object_10b.png,object_10b.png,,0.8260869565217391,,0,,,,,,,,,,,
4658.5,,directmemory_phase4,1979415,,,,,,,,object_06b.png,,,49,,,1,,object_04b.png,object_11a.png,object_12a.png,object_04b.png,,0.8279569892473119,,1,,,,,,,,,,,
2720.4000000059605,,directmemory_phase4,1982138,,,,,,,,object_15b.png,,,49,,,1,,object_06c.png,object_05b.png,object_11a.png,object_06c.png,,0.8297872340425532,,1,,,,,,,,,,,
1999.300000011921,,directmemory_phase4,1984141,,,,,,,,object_15a.png,,,49,,,1,,object_02c.png,object_10a.png,object_14c.png,object_02c.png,,0.8315789473684211,,1,,,,,,,,,,,
9342.800000011921,,directmemory_phase4,1993491,,,,,,,,object_13b.png,,,49,,,1,,object_03a.png,object_07b.png,object_02c.png,object_03a.png,,0.8333333333333334,,1,,,,,,,,,,,
5022.199999988079,,directmemory_phase4,1998518,,,,,,,,object_05a.png,,,50,,,1,,object_10a.png,object_01a.png,object_10b.png,object_01a.png,,0.8350515463917526,,1,,,,,,,,,,,
1990.2000000178814,,directmemory_phase4,2000515,,,,,,,,object_07c.png,,,49,,,1,,object_15c.png,object_01c.png,object_11a.png,object_15c.png,,0.8367346938775511,,1,,,,,,,,,,,
1788.0999999940395,,directmemory_phase4,2002309,,,,,,,,object_06a.png,,,50,,,1,,object_01b.png,object_07b.png,object_01a.png,object_07b.png,,0.8383838383838383,,1,,,,,,,,,,,
4084.4000000059605,,directmemory_phase4,2006400,,,,,,,,object_11c.png,,,51,,,1,,object_07b.png,object_03b.png,object_10a.png,object_10a.png,,0.84,,1,,,,,,,,,,,
6842.700000017881,,directmemory_phase4,2013248,,,,,,,,object_15c.png,,,50,,,1,,object_02c.png,object_11b.png,object_14c.png,object_11b.png,,0.8415841584158416,,1,,,,,,,,,,,
7569.9000000059605,,directmemory_phase4,2020825,,,,,,,,object_14b.png,,,50,,,0,,object_01c.png,object_11a.png,object_09c.png,object_01c.png,,0.8333333333333334,,0,,,,,,,,,,,
3653.7000000178814,,directmemory_phase4,2024486,,,,,,,,object_14a.png,,,50,,,1,,object_11c.png,object_05a.png,object_13c.png,object_05a.png,,0.8349514563106796,,1,,,,,,,,,,,
6579.799999982119,,directmemory_phase4,2031073,,,,,,,,object_01c.png,,,51,,,1,,object_11b.png,object_07b.png,object_01b.png,object_01b.png,,0.8365384615384616,,1,,,,,,,,,,,
3063.100000023842,,directmemory_phase4,2034142,,,,,,,,object_04c.png,,,50,,,1,,object_06a.png,object_12a.png,object_05b.png,object_12a.png,,0.8380952380952381,,1,,,,,,,,,,,
9008.59999999404,,directmemory_phase4,2043157,,,,,,,,object_05b.png,,,50,,,1,,object_07b.png,object_02a.png,object_12c.png,object_02a.png,,0.839622641509434,,1,,,,,,,,,,,
10478.90000000596,,directmemory_phase4,2053641,,,,,,,,object_05c.png,,,50,,,0,,object_11a.png,object_01c.png,object_11c.png,object_11a.png,,0.8317757009345794,,0,,,,,,,,,,,
3412.9000000059605,,directmemory_phase4,2057060,,,,,,,,object_09a.png,,,50,,,1,,object_11a.png,object_02b.png,object_15c.png,object_02b.png,,0.8333333333333334,,1,,,,,,,,,,,
3881,,directmemory_phase4,2060947,,,,,,,,object_02b.png,,,50,,,1,,object_07a.png,object_13a.png,object_10a.png,object_13a.png,,0.8348623853211009,,1,,,,,,,,,,,
3315.100000023842,,directmemory_phase4,2064269,,,,,,,,object_12b.png,,,50,,,1,,object_12a.png,object_09c.png,object_13c.png,object_09c.png,,0.8363636363636363,,1,,,,,,,,,,,
11009.5,,directmemory_phase4,2075285,,,,,,,,object_12a.png,,,51,,,1,,object_11b.png,object_01a.png,object_03b.png,object_03b.png,,0.8378378378378378,,1,,,,,,,,,,,
4866.5,,directmemory_phase4,2080157,,,,,,,,object_03c.png,,,50,,,1,,object_09c.png,object_15a.png,object_12a.png,object_15a.png,,0.8392857142857143,,1,,,,,,,,,,,
4646,,directmemory_phase4,2084808,,,,,,,,object_04b.png,,,51,,,1,,object_02c.png,object_14c.png,object_10c.png,object_10c.png,,0.8407079646017699,,1,,,,,,,,,,,
4113.199999988079,,directmemory_phase4,2088928,,,,,,,,object_08c.png,,,51,,,1,,object_04b.png,object_05b.png,object_11c.png,object_11c.png,,0.8421052631578947,,1,,,,,,,,,,,
2031.5,,directmemory_phase4,2090966,,,,,,,,object_09b.png,,,51,,,1,,object_11c.png,object_05b.png,object_06a.png,object_06a.png,,0.8434782608695652,,1,,,,,,,,,,,
3800.7000000178814,,directmemory_phase4,2094772,,,,,,,,object_08a.png,,,51,,,1,,object_13c.png,object_05a.png,object_13b.png,object_13b.png,,0.8448275862068966,,1,,,,,,,,,,,
3428.300000011921,,directmemory_phase4,2098208,,,,,,,,object_08b.png,,,49,,,1,,object_05b.png,object_11c.png,object_11a.png,object_05b.png,,0.8461538461538461,,1,,,,,,,,,,,
1980.0999999940395,,directmemory_phase4,2100194,,,,,,,,object_09c.png,,,51,,,1,,object_07a.png,object_01b.png,object_12c.png,object_12c.png,,0.847457627118644,,1,,,,,,,,,,,
2286.4000000059605,,directmemory_phase4,2102487,,,,,,,,object_04a.png,,,51,,,1,,object_06a.png,object_15c.png,object_13c.png,object_13c.png,,0.8487394957983193,,1,,,,,,,,,,,
5848.299999982119,,directmemory_phase4,2108340,,,,,,,,object_13c.png,,,49,,,1,,object_07a.png,object_11b.png,object_07b.png,object_07a.png,,0.85,,1,,,,,,,,,,,
null,,thebreak,2108448,,,,,,,,<p></p>,,,null,,,,,,,,,,,,,,,,,,,,,,,
7968.199999988079,,intro_0,2116419,,,,,,,,instruct,,,32,,,,,,,,,,,,,,,,,,,,,,,
31191.19999998808,,intro_1,2147614,,,,,,,,instruct,,,32,,,,,,,,,,,,,,,,,,,,,,,
19980.20000001788,,intro_2,2167597,,,,,,,,instruct,,,32,,,,,,,,,,,,,,,,,,,,,,,
,,intro_3,2213776,,,,,,,,instruct,,,,,,,,,,,,,,,,,,,,,,,,,,
8374.699999988079,,intro_4,2222153,,,,,,,,instruct,,,32,,,,,,,,,,,,,,,,,,,,,,,
10878,,inference_phase,2233035,,,,,,,,object_12b.png,,,51,object_10c.png,object_02c.png,0,,,,,object_12c.png,,0,,,object_12c.png,,,,,,,,,,
10288.90000000596,,inference_phase,2243333,,,,,,,,object_04c.png,,,51,object_03b.png,object_01a.png,0,,,,,object_03b.png,,0,,,object_02c.png,,,,,,,,,,
4092.7999999821186,,inference_phase,2247431,,,,,,,,object_09b.png,,,51,object_11b.png,object_07b.png,1,,,,,object_07b.png,,0.3333333333333333,,,object_01a.png,,,,,,,,,,
9867.09999999404,,inference_phase,2257305,,,,,,,,object_09a.png,,,50,object_14c.png,object_07b.png,1,,,,,object_13a.png,,0.5,,,object_13a.png,,,,,,,,,,
14224.800000011921,,inference_phase,2271535,,,,,,,,object_04a.png,,,51,object_14c.png,object_01a.png,0,,,,,object_07a.png,,0.4,,,object_07a.png,,,,,,,,,,
10355.399999976158,,inference_phase,2281895,,,,,,,,object_08b.png,,,50,object_01b.png,object_12c.png,1,,,,,object_02a.png,,0.5,,,object_02a.png,,,,,,,,,,
8223.59999999404,,inference_phase,2290123,,,,,,,,object_08a.png,,,49,object_03a.png,object_11b.png,1,,,,,object_03a.png,,0.5714285714285714,,,object_02a.png,,,,,,,,,,
9178.300000011921,,inference_phase,2299307,,,,,,,,object_08c.png,,,49,object_10a.png,object_07b.png,1,,,,,object_10a.png,,0.625,,,object_10c.png,,,,,,,,,,
5673,,inference_phase,2304987,,,,,,,,object_05c.png,,,50,object_02a.png,object_13a.png,1,,,,,object_14c.png,,0.6666666666666666,,,object_14c.png,,,,,,,,,,
5216.799999982119,,inference_phase,2310209,,,,,,,,object_15b.png,,,51,object_12c.png,object_10b.png,1,,,,,object_10b.png,,0.7,,,object_01a.png,,,,,,,,,,
5158,,inference_phase,2315376,,,,,,,,object_14a.png,,,49,object_01a.png,object_10c.png,1,,,,,object_01a.png,,0.7272727272727273,,,object_10a.png,,,,,,,,,,
