rt,responses,trial_type,time_elapsed,identifier_a,identifier_b,identifier_c,tasktype,browser_type,local_time,UTC_time,stimulus,button_pressed,response,key_press,stimulus_left,stimulus_right,accuracy,practice_cumulative_accuracy,stimulus_down_left,stimulus_down_mid,stimulus_down_right,stimulus_correct,prac_weighted_accuracy,cumulative_accuracy
14172,{worker_id:6668a638ee51b4f1656862e8},id_enter,14175,object_15c.png; object_07b.png; object_02a.png; object_13c.png; object_11a.png; object_07c.png; object_13a.png; object_04a.png; object_04b.png; object_03c.png; object_05c.png; object_05a.png; object_05b.png; object_09c.png; object_08b.png,object_14c.png; object_15a.png; object_15b.png; object_02b.png; object_13b.png; object_14b.png; object_12a.png; object_01a.png; object_12c.png; object_11c.png; object_10a.png; object_09b.png; object_10b.png; object_09a.png; object_06c.png,object_03a.png; object_06b.png; object_01c.png; object_01b.png; object_12b.png; object_04c.png; object_14a.png; object_02c.png; object_03b.png; object_11b.png; object_06a.png; object_08a.png; object_10c.png; object_07a.png; object_08c.png,interleaved,Mozilla/5.0 (Macintosh; Intel Mac OS X 10_15_7) AppleWebKit/605.1.15 (KHTML, like Gecko) Version/17.6 Safari/605.1.15,5/9/2025, 12:24:08 AM,2025-05-09 04:24:08.175,,,,,,,,,,,,,,
16993,,make_fullscreen,31184,,,,,,,,fullscreen,0,,,,,,,,,,,,
8191,,instruct_1,39383,,,,,,,,instruct,0,Next,,,,,,,,,,,
11064,,instruct_2,50450,,,,,,,,instruct,1,Next,,,,,,,,,,,
16382.000000000007,,instruct_3,66833,,,,,,,,instruct,1,Next,,,,,,,,,,,
26331,,instruct_4,93166,,,,,,,,instruct,1,Next,,,,,,,,,,,
17097,,instruct_5,110265,,,,,,,,instruct,1,Next,,,,,,,,,,,
4566,,instruct_6,114832,,,,,,,,instruct,1,Next,,,,,,,,,,,
45699.000000000015,,instruct_7,160532,,,,,,,,instruct,1,Next,,,,,,,,,,,
null,,prac_atten_color_black,161528,,,,,,,,black_plus_sign,,,null,,,,,,,,,,
null,,prac_atten_color,161947,,,,,,,,<p style='position:absolute;top: 50%;right: 50%;transform: translate(50%, -50%);font-size: 125px;color: blue;'>+</p>,,,null,,,,,,,,,,
783,,prac_atten_color_black,163950,,,,,,,,black_plus_sign,,,49,,,,,,,,,,
null,,prac_atten_color_black,164950,,,,,,,,black_plus_sign,,,null,,,,,,,,,,
976,,prac_atten_color,165964,,,,,,,,<p style='position:absolute;top: 50%;right: 50%;transform: translate(50%, -50%);font-size: 125px;color: green;'>+</p>,,,50,,,,,,,,,,
null,,prac_atten_color_black,167967,,,,,,,,black_plus_sign,,,null,,,,,,,,,,
null,,prac_atten_color_black,168370,,,,,,,,black_plus_sign,,,null,,,,,,,,,,
722.0000000000291,,prac_atten_color,169210,,,,,,,,<p style='position:absolute;top: 50%;right: 50%;transform: translate(50%, -50%);font-size: 125px;color: green;'>+</p>,,,50,,,,,,,,,,
null,,prac_atten_color_black,171213,,,,,,,,black_plus_sign,,,null,,,,,,,,,,
null,,prac_atten_color_black,171790,,,,,,,,black_plus_sign,,,null,,,,,,,,,,
553.0000000000291,,prac_atten_color,172751,,,,,,,,<p style='position:absolute;top: 50%;right: 50%;transform: translate(50%, -50%);font-size: 125px;color: blue;'>+</p>,,,49,,,,,,,,,,
null,,prac_atten_color_black,174754,,,,,,,,black_plus_sign,,,null,,,,,,,,,,
null,,prac_atten_color_black,175211,,,,,,,,black_plus_sign,,,null,,,,,,,,,,
677,,prac_atten_color,176100,,,,,,,,<p style='position:absolute;top: 50%;right: 50%;transform: translate(50%, -50%);font-size: 125px;color: green;'>+</p>,,,50,,,,,,,,,,
null,,prac_atten_color_black,178103,,,,,,,,black_plus_sign,,,null,,,,,,,,,,
null,,prac_atten_color_black,178628,,,,,,,,black_plus_sign,,,null,,,,,,,,,,
565,,prac_atten_color,179372,,,,,,,,<p style='position:absolute;top: 50%;right: 50%;transform: translate(50%, -50%);font-size: 125px;color: green;'>+</p>,,,50,,,,,,,,,,
null,,prac_atten_color_black,181375,,,,,,,,black_plus_sign,,,null,,,,,,,,,,
null,,prac_atten_color_black,182049,,,,,,,,black_plus_sign,,,null,,,,,,,,,,
null,,prac_atten_color,182502,,,,,,,,<p style='position:absolute;top: 50%;right: 50%;transform: translate(50%, -50%);font-size: 125px;color: blue;'>+</p>,,,null,,,,,,,,,,
242.9999999999709,,prac_atten_color_black,184506,,,,,,,,black_plus_sign,,,49,,,,,,,,,,
null,,prac_atten_color_black,185470,,,,,,,,black_plus_sign,,,null,,,,,,,,,,
795.0000000000291,,prac_atten_color,186294,,,,,,,,<p style='position:absolute;top: 50%;right: 50%;transform: translate(50%, -50%);font-size: 125px;color: green;'>+</p>,,,50,,,,,,,,,,
null,,prac_atten_color_black,188298,,,,,,,,black_plus_sign,,,null,,,,,,,,,,
null,,prac_atten_color_black,188891,,,,,,,,black_plus_sign,,,null,,,,,,,,,,
null,,prac_atten_color,189322,,,,,,,,<p style='position:absolute;top: 50%;right: 50%;transform: translate(50%, -50%);font-size: 125px;color: blue;'>+</p>,,,null,,,,,,,,,,
270,,prac_atten_color_black,191326,,,,,,,,black_plus_sign,,,49,,,,,,,,,,
null,,prac_atten_color_black,192313,,,,,,,,black_plus_sign,,,null,,,,,,,,,,
null,,prac_atten_color,192928,,,,,,,,<p style='position:absolute;top: 50%;right: 50%;transform: translate(50%, -50%);font-size: 125px;color: blue;'>+</p>,,,null,,,,,,,,,,
98,,prac_atten_color_black,194932,,,,,,,,black_plus_sign,,,49,,,,,,,,,,
9177,,attentioncheck_feedback,204116,,,,,,,,cross_check_feedback,0,,,,,,,,,,,,
24845,,last_instruct,228961,,,,,,,,instruct,,,32,,,,,,,,,,
null,,prac_learn_phase(without_color),232466,,,,,,,,black_plus_sign,,,null,object_10b.png,object_05b.png,,,,,,,,
null,,prac_black_cross(without_color),233024,,,,,,,,green,,,null,object_10b.png,object_05b.png,,,,,,,,
null,,prac_rt_plussign_withcolor,233527,,,,,,,,green,,,null,object_10b.png,object_05b.png,,,,,,,,
1544,,prac_rt_thecrossant_black,234988,,,,,,,,black_plus_sign,,,50,,,1,1,,,,,,
null,,prac_color_black,235095,,,,,,,,black_plus_sign,,,null,,,,,,,,,,
null,,prac_learn_phase(without_color),238606,,,,,,,,black_plus_sign,,,null,object_10a.png,object_06a.png,,,,,,,,
null,,black_cross(without_color)1,239443,,,,,,,,green,,,null,object_10b.png,object_05b.png,,,,,,,,
null,,prac_rt_plussign_withcolor,239946,,,,,,,,blue,,,null,object_10a.png,object_06a.png,,,,,,,,
999,,prac_rt_thecrossant_black,240882,,,,,,,,black_plus_sign,,,49,,,1,1,,,,,,
null,,prac_color_black,240990,,,,,,,,black_plus_sign,,,null,,,,,,,,,,
null,,prac_learn_phase(without_color),244499,,,,,,,,black_plus_sign,,,null,object_15b.png,object_01c.png,,,,,,,,
null,,black_cross(without_color)1,245335,,,,,,,,green,,,null,object_10b.png,object_05b.png,,,,,,,,
null,,prac_rt_plussign_withcolor,245838,,,,,,,,blue,,,null,object_15b.png,object_01c.png,,,,,,,,
1814,,prac_rt_thecrossant_black,246903,,,,,,,,black_plus_sign,,,49,,,1,1,,,,,,
null,,prac_color_black,247011,,,,,,,,black_plus_sign,,,null,,,,,,,,,,
null,,prac_learn_phase(without_color),250521,,,,,,,,black_plus_sign,,,null,object_10b.png,object_10c.png,,,,,,,,
null,,black_cross(without_color)1,251357,,,,,,,,green,,,null,object_10b.png,object_05b.png,,,,,,,,
null,,prac_rt_plussign_withcolor,251860,,,,,,,,green,,,null,object_10b.png,object_10c.png,,,,,,,,
1873,,prac_rt_thecrossant_black,252804,,,,,,,,black_plus_sign,,,50,,,1,1,,,,,,
null,,prac_color_black,252912,,,,,,,,black_plus_sign,,,null,,,,,,,,,,
14229,,instruct_dir_01,267149,,,,,,,,instruct,0,Next,,,,,,,,,,,
6114,,instruct_dir_2,273265,,,,,,,,instruct,1,Next,,,,,,,,,,,
8114,,instruct_dir_3,281381,,,,,,,,instruct,1,Next,,,,,,,,,,,
7029.000000000058,,instruct_dir_4,288415,,,,,,,,instruct,1,Start,,,,,,,,,,,
null,,thebreak,288517,,,,,,,,<p></p>,,,null,,,,,,,,,,
2416,,intro_0,290936,,,,,,,,instruct,,,32,,,,,,,,,,
5547,,prac_directmemory_phase,296487,,,,,,,,practice/object_02a.png,,,49,,,1,,practice/object_02b.png,practice/object_01b.png,practice/object_01a.png,practice/object_02b.png,1,1
5660,,prac_directmemory_phase,302155,,,,,,,,practice/object_03a.png,,,50,,,1,,practice/object_01a.png,practice/object_03b.png,practice/object_02b.png,practice/object_03b.png,1,1
6864.999999999942,,prac_directmemory_phase,309028,,,,,,,,practice/object_01a.png,,,49,,,1,,practice/object_01b.png,practice/object_02b.png,practice/object_03a.png,practice/object_01b.png,1,1
2997,,prac_directmemory_phase,312034,,,,,,,,practice/object_04a.png,,,51,,,1,,practice/object_03b.png,practice/object_01a.png,practice/object_04b.png,practice/object_04b.png,1,1
10026,,practice_feedback,322067,,,,,,,,practice_feedback,1,,,,,,,,,,,,
12313,,proceed_actualTask,334381,,,,,,,,proceed_actualTask,0,End Early,,,,,,,,,,,
