rt,responses,trial_type,time_elapsed,identifier_a,identifier_b,identifier_c,tasktype,browser_type,local_time,UTC_time,stimulus,button_pressed,response,key_press,stimulus_left,stimulus_right,accuracy,practice_cumulative_accuracy,stimulus_down_left,stimulus_down_mid,stimulus_down_right,stimulus_correct,prac_weighted_accuracy,cumulative_accuracy,failed_practice,weighted_accuracy,stimulus_middle,problems,smooth,distraction,strategies,easier,similar,comments
13549.5,{worker_id:67e2b86a96de1816df85cefe},id_enter,13554,object_13b.png; object_08b.png; object_10c.png; object_03a.png; object_12c.png; object_08a.png; object_07c.png; object_06a.png; object_09c.png; object_03c.png; object_14a.png; object_01a.png; object_04b.png; object_12a.png; object_07b.png,object_06c.png; object_10b.png; object_04c.png; object_04a.png; object_14b.png; object_08c.png; object_15b.png; object_15a.png; object_03b.png; object_14c.png; object_09a.png; object_11a.png; object_01b.png; object_06b.png; object_09b.png,object_02b.png; object_10a.png; object_01c.png; object_11c.png; object_12b.png; object_05a.png; object_02a.png; object_13c.png; object_05b.png; object_02c.png; object_07a.png; object_05c.png; object_11b.png; object_15c.png; object_13a.png,blocked,Mozilla/5.0 (Windows NT 10.0; Win64; x64) AppleWebKit/537.36 (KHTML, like Gecko) Chrome/136.0.0.0 Safari/537.36,5/8/2025, 1:24:51 PM,2025-05-09 00:24:52.026,,,,,,,,,,,,,,,,,,,,,,,,
23771.899999976158,,make_fullscreen,37362,,,,,,,,fullscreen,0,,,,,,,,,,,,,,,,,,,,,,
8525.600000023842,,instruct_1,45891,,,,,,,,instruct,0,Next,,,,,,,,,,,,,,,,,,,,,
18031.099999904633,,instruct_2,63925,,,,,,,,instruct,1,Next,,,,,,,,,,,,,,,,,,,,,
3063.5,,instruct_3,66991,,,,,,,,instruct,1,Next,,,,,,,,,,,,,,,,,,,,,
35759.199999928474,,instruct_4,102752,,,,,,,,instruct,1,Next,,,,,,,,,,,,,,,,,,,,,
14703.599999904633,,instruct_5,117458,,,,,,,,instruct,1,Next,,,,,,,,,,,,,,,,,,,,,
16727.100000023842,,instruct_6,134187,,,,,,,,instruct,1,Next,,,,,,,,,,,,,,,,,,,,,
36816.700000047684,,instruct_7,171006,,,,,,,,instruct,1,Next,,,,,,,,,,,,,,,,,,,,,
null,,prac_atten_color_black,171998,,,,,,,,black_plus_sign,,,null,,,,,,,,,,,,,,,,,,,,
null,,prac_atten_color,172416,,,,,,,,<p style='position:absolute;top: 50%;right: 50%;transform: translate(50%, -50%);font-size: 125px;color: blue;'>+</p>,,,null,,,,,,,,,,,,,,,,,,,,
1344.2999999523163,,prac_atten_color_black,174426,,,,,,,,black_plus_sign,,,49,,,,,,,,,,,,,,,,,,,,
null,,prac_atten_color_black,175419,,,,,,,,black_plus_sign,,,null,,,,,,,,,,,,,,,,,,,,
null,,prac_atten_color,176267,,,,,,,,<p style='position:absolute;top: 50%;right: 50%;transform: translate(50%, -50%);font-size: 125px;color: green;'>+</p>,,,null,,,,,,,,,,,,,,,,,,,,
317.2999999523163,,prac_atten_color_black,178270,,,,,,,,black_plus_sign,,,50,,,,,,,,,,,,,,,,,,,,
null,,prac_atten_color_black,178830,,,,,,,,black_plus_sign,,,null,,,,,,,,,,,,,,,,,,,,
null,,prac_atten_color,179538,,,,,,,,<p style='position:absolute;top: 50%;right: 50%;transform: translate(50%, -50%);font-size: 125px;color: green;'>+</p>,,,null,,,,,,,,,,,,,,,,,,,,
75.60000002384186,,prac_atten_color_black,181545,,,,,,,,black_plus_sign,,,50,,,,,,,,,,,,,,,,,,,,
null,,prac_atten_color_black,182248,,,,,,,,black_plus_sign,,,null,,,,,,,,,,,,,,,,,,,,
null,,prac_atten_color,182857,,,,,,,,<p style='position:absolute;top: 50%;right: 50%;transform: translate(50%, -50%);font-size: 125px;color: blue;'>+</p>,,,null,,,,,,,,,,,,,,,,,,,,
218.89999997615814,,prac_atten_color_black,184866,,,,,,,,black_plus_sign,,,49,,,,,,,,,,,,,,,,,,,,
null,,prac_atten_color_black,185680,,,,,,,,black_plus_sign,,,null,,,,,,,,,,,,,,,,,,,,
null,,prac_atten_color,186430,,,,,,,,<p style='position:absolute;top: 50%;right: 50%;transform: translate(50%, -50%);font-size: 125px;color: green;'>+</p>,,,null,,,,,,,,,,,,,,,,,,,,
114.39999997615814,,prac_atten_color_black,188432,,,,,,,,black_plus_sign,,,50,,,,,,,,,,,,,,,,,,,,
null,,prac_atten_color_black,189098,,,,,,,,black_plus_sign,,,null,,,,,,,,,,,,,,,,,,,,
487.7999999523163,,prac_atten_color,189729,,,,,,,,<p style='position:absolute;top: 50%;right: 50%;transform: translate(50%, -50%);font-size: 125px;color: green;'>+</p>,,,50,,,,,,,,,,,,,,,,,,,,
null,,prac_atten_color_black,191738,,,,,,,,black_plus_sign,,,null,,,,,,,,,,,,,,,,,,,,
null,,prac_atten_color_black,192520,,,,,,,,black_plus_sign,,,null,,,,,,,,,,,,,,,,,,,,
944.3000000715256,,prac_atten_color,193626,,,,,,,,<p style='position:absolute;top: 50%;right: 50%;transform: translate(50%, -50%);font-size: 125px;color: blue;'>+</p>,,,49,,,,,,,,,,,,,,,,,,,,
null,,prac_atten_color_black,195633,,,,,,,,black_plus_sign,,,null,,,,,,,,,,,,,,,,,,,,
null,,prac_atten_color_black,195942,,,,,,,,black_plus_sign,,,null,,,,,,,,,,,,,,,,,,,,
1041.6000000238419,,prac_atten_color,197021,,,,,,,,<p style='position:absolute;top: 50%;right: 50%;transform: translate(50%, -50%);font-size: 125px;color: green;'>+</p>,,,50,,,,,,,,,,,,,,,,,,,,
null,,prac_atten_color_black,199024,,,,,,,,black_plus_sign,,,null,,,,,,,,,,,,,,,,,,,,
null,,prac_atten_color_black,199361,,,,,,,,black_plus_sign,,,null,,,,,,,,,,,,,,,,,,,,
null,,prac_atten_color,199936,,,,,,,,<p style='position:absolute;top: 50%;right: 50%;transform: translate(50%, -50%);font-size: 125px;color: blue;'>+</p>,,,null,,,,,,,,,,,,,,,,,,,,
457.7999999523163,,prac_atten_color_black,201951,,,,,,,,black_plus_sign,,,49,,,,,,,,,,,,,,,,,,,,
null,,prac_atten_color_black,202784,,,,,,,,black_plus_sign,,,null,,,,,,,,,,,,,,,,,,,,
902.8999999761581,,prac_atten_color,203827,,,,,,,,<p style='position:absolute;top: 50%;right: 50%;transform: translate(50%, -50%);font-size: 125px;color: blue;'>+</p>,,,49,,,,,,,,,,,,,,,,,,,,
null,,prac_atten_color_black,205833,,,,,,,,black_plus_sign,,,null,,,,,,,,,,,,,,,,,,,,
11550.899999976158,,attentioncheck_feedback,217387,,,,,,,,cross_check_feedback,0,,,,,,,,,,,,,,,,,,,,,,
12309.099999904633,,last_instruct,229697,,,,,,,,instruct,,,32,,,,,,,,,,,,,,,,,,,,
null,,prac_learn_phase(without_color),233201,,,,,,,,black_plus_sign,,,null,object_06c.png,object_13b.png,,,,,,,,,,,,,,,,,,
null,,prac_black_cross(without_color),234192,,,,,,,,green,,,null,object_06c.png,object_13b.png,,,,,,,,,,,,,,,,,,
null,,prac_rt_plussign_withcolor,234699,,,,,,,,green,,,null,object_06c.png,object_13b.png,,,,,,,,,,,,,,,,,,
1440.7000000476837,,prac_rt_thecrossant_black,235727,,,,,,,,black_plus_sign,,,50,,,1,1,,,,,,,,,,,,,,,,
null,,prac_color_black,235834,,,,,,,,black_plus_sign,,,null,,,,,,,,,,,,,,,,,,,,
null,,prac_learn_phase(without_color),239338,,,,,,,,black_plus_sign,,,null,object_14a.png,object_09a.png,,,,,,,,,,,,,,,,,,
null,,black_cross(without_color)1,240316,,,,,,,,blue,,,null,object_06c.png,object_13b.png,,,,,,,,,,,,,,,,,,
null,,prac_rt_plussign_withcolor,240819,,,,,,,,green,,,null,object_14a.png,object_09a.png,,,,,,,,,,,,,,,,,,
1140.1000000238419,,prac_rt_thecrossant_black,242402,,,,,,,,black_plus_sign,,,50,,,1,1,,,,,,,,,,,,,,,,
null,,prac_color_black,242512,,,,,,,,black_plus_sign,,,null,,,,,,,,,,,,,,,,,,,,
null,,prac_learn_phase(without_color),246028,,,,,,,,black_plus_sign,,,null,object_15a.png,object_06a.png,,,,,,,,,,,,,,,,,,
null,,black_cross(without_color)1,247005,,,,,,,,blue,,,null,object_06c.png,object_13b.png,,,,,,,,,,,,,,,,,,
null,,prac_rt_plussign_withcolor,247507,,,,,,,,blue,,,null,object_15a.png,object_06a.png,,,,,,,,,,,,,,,,,,
1058.7000000476837,,prac_rt_thecrossant_black,248558,,,,,,,,black_plus_sign,,,49,,,1,1,,,,,,,,,,,,,,,,
null,,prac_color_black,248667,,,,,,,,black_plus_sign,,,null,,,,,,,,,,,,,,,,,,,,
null,,prac_learn_phase(without_color),252171,,,,,,,,black_plus_sign,,,null,object_03b.png,object_09c.png,,,,,,,,,,,,,,,,,,
null,,black_cross(without_color)1,253144,,,,,,,,blue,,,null,object_06c.png,object_13b.png,,,,,,,,,,,,,,,,,,
null,,prac_rt_plussign_withcolor,253647,,,,,,,,blue,,,null,object_03b.png,object_09c.png,,,,,,,,,,,,,,,,,,
1439.1999999284744,,prac_rt_thecrossant_black,255193,,,,,,,,black_plus_sign,,,49,,,1,1,,,,,,,,,,,,,,,,
null,,prac_color_black,255301,,,,,,,,black_plus_sign,,,null,,,,,,,,,,,,,,,,,,,,
15760.799999952316,,instruct_dir_01,271063,,,,,,,,instruct,0,Next,,,,,,,,,,,,,,,,,,,,,
21188.100000023842,,instruct_dir_2,292252,,,,,,,,instruct,1,Next,,,,,,,,,,,,,,,,,,,,,
10755.700000047684,,instruct_dir_3,303011,,,,,,,,instruct,1,Next,,,,,,,,,,,,,,,,,,,,,
130300.79999995232,,instruct_dir_4,433314,,,,,,,,instruct,1,Start,,,,,,,,,,,,,,,,,,,,,
null,,thebreak,433420,,,,,,,,<p></p>,,,null,,,,,,,,,,,,,,,,,,,,
15114.600000023842,,intro_0,448537,,,,,,,,instruct,,,32,,,,,,,,,,,,,,,,,,,,
8426.700000047684,,prac_directmemory_phase,456966,,,,,,,,practice/object_01a.png,,,50,,,1,,practice/object_03a.png,practice/object_01b.png,practice/object_03b.png,practice/object_01b.png,1,1,,,,,,,,,,
null,,prac_directmemory_phase,471970,,,,,,,,practice/object_04a.png,,,null,,,0,,practice/object_01b.png,practice/object_02a.png,practice/object_04b.png,practice/object_04b.png,0,0.5,,,,,,,,,,
null,,warning_page,476977,,,,,,,,warning,,,null,,,,,,,,,,,,,,,,,,,,
7498.5,,prac_directmemory_phase,484478,,,,,,,,practice/object_02a.png,,,51,,,0,,practice/object_02b.png,practice/object_03b.png,practice/object_01a.png,practice/object_02b.png,0,0.3333333333333333,,,,,,,,,,
10232.100000023842,,prac_directmemory_phase,494713,,,,,,,,practice/object_03a.png,,,49,,,1,,practice/object_03b.png,practice/object_04b.png,practice/object_01a.png,practice/object_03b.png,1,0.5,,,,,,,,,,
23272.900000095367,,practice_feedback_force_restart,517993,,,,,,,,practice_feedback,0,,,,,,,,,,,,,1,,,,,,,,,
32500.800000071526,,last_instruct,550495,,,,,,,,instruct,,,32,,,,,,,,,,,,,,,,,,,,
null,,prac_learn_phase(without_color),554007,,,,,,,,black_plus_sign,,,null,object_06c.png,object_13b.png,,,,,,,,,,,,,,,,,,
null,,prac_black_cross(without_color),554555,,,,,,,,green,,,null,object_06c.png,object_13b.png,,,,,,,,,,,,,,,,,,
null,,prac_rt_plussign_withcolor,555068,,,,,,,,green,,,null,object_06c.png,object_13b.png,,,,,,,,,,,,,,,,,,
1420.1999999284744,,prac_rt_thecrossant_black,556545,,,,,,,,black_plus_sign,,,50,,,1,1,,,,,,,,,,,,,,,,
null,,prac_color_black,556655,,,,,,,,black_plus_sign,,,null,,,,,,,,,,,,,,,,,,,,
null,,prac_learn_phase(without_color),560166,,,,,,,,black_plus_sign,,,null,object_14a.png,object_09a.png,,,,,,,,,,,,,,,,,,
null,,black_cross(without_color)1,561143,,,,,,,,blue,,,null,object_06c.png,object_13b.png,,,,,,,,,,,,,,,,,,
null,,prac_rt_plussign_withcolor,561646,,,,,,,,green,,,null,object_14a.png,object_09a.png,,,,,,,,,,,,,,,,,,
996.1999999284744,,prac_rt_thecrossant_black,562921,,,,,,,,black_plus_sign,,,50,,,1,1,,,,,,,,,,,,,,,,
null,,prac_color_black,563027,,,,,,,,black_plus_sign,,,null,,,,,,,,,,,,,,,,,,,,
null,,prac_learn_phase(without_color),566541,,,,,,,,black_plus_sign,,,null,object_15a.png,object_06a.png,,,,,,,,,,,,,,,,,,
null,,black_cross(without_color)1,567527,,,,,,,,blue,,,null,object_06c.png,object_13b.png,,,,,,,,,,,,,,,,,,
null,,prac_rt_plussign_withcolor,568037,,,,,,,,blue,,,null,object_15a.png,object_06a.png,,,,,,,,,,,,,,,,,,
1303.5,,prac_rt_thecrossant_black,568960,,,,,,,,black_plus_sign,,,49,,,1,1,,,,,,,,,,,,,,,,
null,,prac_color_black,569068,,,,,,,,black_plus_sign,,,null,,,,,,,,,,,,,,,,,,,,
null,,prac_learn_phase(without_color),572580,,,,,,,,black_plus_sign,,,null,object_03b.png,object_09c.png,,,,,,,,,,,,,,,,,,
null,,black_cross(without_color)1,573558,,,,,,,,blue,,,null,object_06c.png,object_13b.png,,,,,,,,,,,,,,,,,,
null,,prac_rt_plussign_withcolor,574063,,,,,,,,blue,,,null,object_03b.png,object_09c.png,,,,,,,,,,,,,,,,,,
1604.7000000476837,,prac_rt_thecrossant_black,575076,,,,,,,,black_plus_sign,,,49,,,1,1,,,,,,,,,,,,,,,,
null,,prac_color_black,575184,,,,,,,,black_plus_sign,,,null,,,,,,,,,,,,,,,,,,,,
9811.5,,instruct_dir_01,584998,,,,,,,,instruct,0,Next,,,,,,,,,,,,,,,,,,,,,
4378.899999976158,,instruct_dir_2,589379,,,,,,,,instruct,1,Next,,,,,,,,,,,,,,,,,,,,,
4699.700000047684,,instruct_dir_3,594081,,,,,,,,instruct,1,Next,,,,,,,,,,,,,,,,,,,,,
3622.399999976158,,instruct_dir_4,597706,,,,,,,,instruct,1,Start,,,,,,,,,,,,,,,,,,,,,
null,,thebreak,597824,,,,,,,,<p></p>,,,null,,,,,,,,,,,,,,,,,,,,
3457,,intro_0,601282,,,,,,,,instruct,,,32,,,,,,,,,,,,,,,,,,,,
4220,,prac_directmemory_phase,605503,,,,,,,,practice/object_01a.png,,,51,,,0,,practice/object_03a.png,practice/object_01b.png,practice/object_03b.png,practice/object_01b.png,0,0,,,,,,,,,,
3209.5,,prac_directmemory_phase,608716,,,,,,,,practice/object_04a.png,,,51,,,1,,practice/object_01b.png,practice/object_02a.png,practice/object_04b.png,practice/object_04b.png,1,0.5,,,,,,,,,,
3876.100000023842,,prac_directmemory_phase,612594,,,,,,,,practice/object_02a.png,,,49,,,1,,practice/object_02b.png,practice/object_03b.png,practice/object_01a.png,practice/object_02b.png,1,0.6666666666666666,,,,,,,,,,
3412.399999976158,,prac_directmemory_phase,616010,,,,,,,,practice/object_03a.png,,,49,,,1,,practice/object_03b.png,practice/object_04b.png,practice/object_01a.png,practice/object_03b.png,1,0.75,,,,,,,,,,
11223,,practice_feedback,627236,,,,,,,,practice_feedback,1,,,,,,,,,,,,,,,,,,,,,,
9520.899999976158,,proceed_actualTask,636759,,,,,,,,proceed_actualTask,1,Continue,,,,,,,,,,,,,,,,,,,,,
37385.800000071526,,last_inst,674147,,,,,,,,last_inst,,,32,,,,,,,,,,,,,,,,,,,,
null,,learn_phase(without_color)1,677656,,,,,,,,black_plus_sign,,,null,object_06c.png,object_13b.png,,,,,,,,,,,,,,,,,,
null,,black_cross(without_color)1,678634,,,,,,,,blue,,,null,object_06c.png,object_13b.png,,,,,,,,,,,,,,,,,,
null,,rt_plussign_withcolor1,679137,,,,,,,,blue,,,null,object_06c.png,object_13b.png,,,,,,,,,,,,,,,,,,
1590.9000000953674,,rt_thecrossant_black1,680178,,,,,,,,black_plus_sign,,,49,,,1,,,,,,,1,,,,,,,,,,
null,,color_black1,680285,,,,,,,,black_plus_sign,,,null,,,,,,,,,,,,,,,,,,,,
null,,learn_phase(without_color)1,683792,,,,,,,,black_plus_sign,,,null,object_14a.png,object_09a.png,,,,,,,,,,,,,,,,,,
null,,black_cross(without_color)1,684670,,,,,,,,blue,,,null,object_14a.png,object_09a.png,,,,,,,,,,,,,,,,,,
null,,rt_plussign_withcolor1,685180,,,,,,,,blue,,,null,object_14a.png,object_09a.png,,,,,,,,,,,,,,,,,,
1231.2000000476837,,rt_thecrossant_black1,686313,,,,,,,,black_plus_sign,,,49,,,1,,,,,,,1,,,,,,,,,,
null,,color_black1,686423,,,,,,,,black_plus_sign,,,null,,,,,,,,,,,,,,,,,,,,
null,,learn_phase(without_color)1,689929,,,,,,,,black_plus_sign,,,null,object_15a.png,object_06a.png,,,,,,,,,,,,,,,,,,
null,,black_cross(without_color)1,690399,,,,,,,,green,,,null,object_15a.png,object_06a.png,,,,,,,,,,,,,,,,,,
null,,rt_plussign_withcolor1,690908,,,,,,,,green,,,null,object_15a.png,object_06a.png,,,,,,,,,,,,,,,,,,
1262.3999999761581,,rt_thecrossant_black1,692450,,,,,,,,black_plus_sign,,,50,,,1,,,,,,,1,,,,,,,,,,
null,,color_black1,692560,,,,,,,,black_plus_sign,,,null,,,,,,,,,,,,,,,,,,,,
null,,learn_phase(without_color)1,696065,,,,,,,,black_plus_sign,,,null,object_03b.png,object_09c.png,,,,,,,,,,,,,,,,,,
null,,black_cross(without_color)1,696622,,,,,,,,blue,,,null,object_03b.png,object_09c.png,,,,,,,,,,,,,,,,,,
null,,rt_plussign_withcolor1,697129,,,,,,,,blue,,,null,object_03b.png,object_09c.png,,,,,,,,,,,,,,,,,,
1276.8999999761581,,rt_thecrossant_black1,698579,,,,,,,,black_plus_sign,,,49,,,1,,,,,,,1,,,,,,,,,,
null,,color_black1,698687,,,,,,,,black_plus_sign,,,null,,,,,,,,,,,,,,,,,,,,
null,,learn_phase(without_color)1,702201,,,,,,,,black_plus_sign,,,null,object_03a.png,object_04a.png,,,,,,,,,,,,,,,,,,
null,,black_cross(without_color)1,702762,,,,,,,,green,,,null,object_03a.png,object_04a.png,,,,,,,,,,,,,,,,,,
null,,rt_plussign_withcolor1,703278,,,,,,,,green,,,null,object_03a.png,object_04a.png,,,,,,,,,,,,,,,,,,
938.7999999523163,,rt_thecrossant_black1,704725,,,,,,,,black_plus_sign,,,50,,,1,,,,,,,1,,,,,,,,,,
null,,color_black1,704834,,,,,,,,black_plus_sign,,,null,,,,,,,,,,,,,,,,,,,,
null,,learn_phase(without_color)1,708352,,,,,,,,black_plus_sign,,,null,object_01a.png,object_11a.png,,,,,,,,,,,,,,,,,,
null,,black_cross(without_color)1,709313,,,,,,,,blue,,,null,object_01a.png,object_11a.png,,,,,,,,,,,,,,,,,,
null,,rt_plussign_withcolor1,709818,,,,,,,,blue,,,null,object_01a.png,object_11a.png,,,,,,,,,,,,,,,,,,
1192.8000000715256,,rt_thecrossant_black1,710870,,,,,,,,black_plus_sign,,,49,,,1,,,,,,,1,,,,,,,,,,
null,,color_black1,710978,,,,,,,,black_plus_sign,,,null,,,,,,,,,,,,,,,,,,,,
null,,learn_phase(without_color)1,714483,,,,,,,,black_plus_sign,,,null,object_14c.png,object_03c.png,,,,,,,,,,,,,,,,,,
null,,black_cross(without_color)1,715035,,,,,,,,blue,,,null,object_14c.png,object_03c.png,,,,,,,,,,,,,,,,,,
null,,rt_plussign_withcolor1,715548,,,,,,,,blue,,,null,object_14c.png,object_03c.png,,,,,,,,,,,,,,,,,,
1256.6000000238419,,rt_thecrossant_black1,717016,,,,,,,,black_plus_sign,,,49,,,1,,,,,,,1,,,,,,,,,,
null,,color_black1,717125,,,,,,,,black_plus_sign,,,null,,,,,,,,,,,,,,,,,,,,
null,,learn_phase(without_color)1,720637,,,,,,,,black_plus_sign,,,null,object_01b.png,object_04b.png,,,,,,,,,,,,,,,,,,
null,,black_cross(without_color)1,721569,,,,,,,,green,,,null,object_01b.png,object_04b.png,,,,,,,,,,,,,,,,,,
null,,rt_plussign_withcolor1,722073,,,,,,,,green,,,null,object_01b.png,object_04b.png,,,,,,,,,,,,,,,,,,
933.4000000953674,,rt_thecrossant_black1,723152,,,,,,,,black_plus_sign,,,50,,,1,,,,,,,1,,,,,,,,,,
null,,color_black1,723262,,,,,,,,black_plus_sign,,,null,,,,,,,,,,,,,,,,,,,,
null,,learn_phase(without_color)1,726772,,,,,,,,black_plus_sign,,,null,object_12a.png,object_06b.png,,,,,,,,,,,,,,,,,,
null,,black_cross(without_color)1,727473,,,,,,,,blue,,,null,object_12a.png,object_06b.png,,,,,,,,,,,,,,,,,,
null,,rt_plussign_withcolor1,727990,,,,,,,,blue,,,null,object_12a.png,object_06b.png,,,,,,,,,,,,,,,,,,
1358.1000000238419,,rt_thecrossant_black1,729296,,,,,,,,black_plus_sign,,,49,,,1,,,,,,,1,,,,,,,,,,
null,,color_black1,729405,,,,,,,,black_plus_sign,,,null,,,,,,,,,,,,,,,,,,,,
null,,learn_phase(without_color)1,732925,,,,,,,,black_plus_sign,,,null,object_12c.png,object_14b.png,,,,,,,,,,,,,,,,,,
null,,black_cross(without_color)1,733899,,,,,,,,blue,,,null,object_12c.png,object_14b.png,,,,,,,,,,,,,,,,,,
null,,rt_plussign_withcolor1,734413,,,,,,,,blue,,,null,object_12c.png,object_14b.png,,,,,,,,,,,,,,,,,,
1045.2999999523163,,rt_thecrossant_black1,735456,,,,,,,,black_plus_sign,,,49,,,1,,,,,,,1,,,,,,,,,,
null,,color_black1,735566,,,,,,,,black_plus_sign,,,null,,,,,,,,,,,,,,,,,,,,
null,,learn_phase(without_color)1,739073,,,,,,,,black_plus_sign,,,null,object_10c.png,object_04c.png,,,,,,,,,,,,,,,,,,
null,,black_cross(without_color)1,739697,,,,,,,,green,,,null,object_10c.png,object_04c.png,,,,,,,,,,,,,,,,,,
null,,rt_plussign_withcolor1,740201,,,,,,,,green,,,null,object_10c.png,object_04c.png,,,,,,,,,,,,,,,,,,
1436.8999999761581,,rt_thecrossant_black1,741596,,,,,,,,black_plus_sign,,,50,,,1,,,,,,,1,,,,,,,,,,
null,,color_black1,741704,,,,,,,,black_plus_sign,,,null,,,,,,,,,,,,,,,,,,,,
null,,learn_phase(without_color)1,745212,,,,,,,,black_plus_sign,,,null,object_08c.png,object_08a.png,,,,,,,,,,,,,,,,,,
null,,black_cross(without_color)1,746093,,,,,,,,green,,,null,object_08c.png,object_08a.png,,,,,,,,,,,,,,,,,,
null,,rt_plussign_withcolor1,746600,,,,,,,,green,,,null,object_08c.png,object_08a.png,,,,,,,,,,,,,,,,,,
952.7999999523163,,rt_thecrossant_black1,747727,,,,,,,,black_plus_sign,,,50,,,1,,,,,,,1,,,,,,,,,,
null,,color_black1,747835,,,,,,,,black_plus_sign,,,null,,,,,,,,,,,,,,,,,,,,
null,,learn_phase(without_color)1,751340,,,,,,,,black_plus_sign,,,null,object_15b.png,object_07c.png,,,,,,,,,,,,,,,,,,
null,,black_cross(without_color)1,751848,,,,,,,,blue,,,null,object_15b.png,object_07c.png,,,,,,,,,,,,,,,,,,
null,,rt_plussign_withcolor1,752352,,,,,,,,blue,,,null,object_15b.png,object_07c.png,,,,,,,,,,,,,,,,,,
1478.6000000238419,,rt_thecrossant_black1,753869,,,,,,,,black_plus_sign,,,49,,,1,,,,,,,1,,,,,,,,,,
null,,color_black1,753977,,,,,,,,black_plus_sign,,,null,,,,,,,,,,,,,,,,,,,,
null,,learn_phase(without_color)1,757483,,,,,,,,black_plus_sign,,,null,object_09b.png,object_07b.png,,,,,,,,,,,,,,,,,,
null,,black_cross(without_color)1,758485,,,,,,,,blue,,,null,object_09b.png,object_07b.png,,,,,,,,,,,,,,,,,,
null,,rt_plussign_withcolor1,758989,,,,,,,,blue,,,null,object_09b.png,object_07b.png,,,,,,,,,,,,,,,,,,
992.6999999284744,,rt_thecrossant_black1,760013,,,,,,,,black_plus_sign,,,49,,,1,,,,,,,1,,,,,,,,,,
null,,color_black1,760120,,,,,,,,black_plus_sign,,,null,,,,,,,,,,,,,,,,,,,,
null,,learn_phase(without_color)1,763631,,,,,,,,black_plus_sign,,,null,object_10b.png,object_08b.png,,,,,,,,,,,,,,,,,,
null,,black_cross(without_color)1,764121,,,,,,,,blue,,,null,object_10b.png,object_08b.png,,,,,,,,,,,,,,,,,,
null,,rt_plussign_withcolor1,764624,,,,,,,,blue,,,null,object_10b.png,object_08b.png,,,,,,,,,,,,,,,,,,
1472.3000000715256,,rt_thecrossant_black1,766148,,,,,,,,black_plus_sign,,,49,,,1,,,,,,,1,,,,,,,,,,
null,,color_black1,766257,,,,,,,,black_plus_sign,,,null,,,,,,,,,,,,,,,,,,,,
null,,thebreak,766365,,,,,,,,<p></p>,,,null,,,,,,,,,,,,,,,,,,,,
31252.900000095367,,intro_0,797620,,,,,,,,instruct,,,32,,,,,,,,,,,,,,,,,,,,
5530.5,,directmemory_phase1,803152,,,,,,,,object_09c.png,,,49,,,0,,object_04c.png,object_12c.png,object_03b.png,object_03b.png,,0,,0,,,,,,,,
13780.200000047684,,directmemory_phase1,816940,,,,,,,,object_12a.png,,,49,,,1,,object_06b.png,object_14b.png,object_06a.png,object_06b.png,,0.5,,1,,,,,,,,
3516.399999976158,,directmemory_phase1,820460,,,,,,,,object_07c.png,,,50,,,1,,object_01a.png,object_15b.png,object_06c.png,object_15b.png,,0.6666666666666666,,1,,,,,,,,
2650.5,,directmemory_phase1,823114,,,,,,,,object_10c.png,,,51,,,1,,object_04a.png,object_14a.png,object_04c.png,object_04c.png,,0.75,,1,,,,,,,,
3317.3000000715256,,directmemory_phase1,826434,,,,,,,,object_01a.png,,,49,,,1,,object_11a.png,object_06b.png,object_12a.png,object_11a.png,,0.8,,1,,,,,,,,
3177.899999976158,,directmemory_phase1,829615,,,,,,,,object_04b.png,,,51,,,1,,object_15a.png,object_12c.png,object_01b.png,object_01b.png,,0.8333333333333334,,1,,,,,,,,
2098.8000000715256,,directmemory_phase1,831717,,,,,,,,object_08b.png,,,49,,,1,,object_10b.png,object_06b.png,object_10c.png,object_10b.png,,0.8571428571428571,,1,,,,,,,,
6011.700000047684,,directmemory_phase1,837732,,,,,,,,object_07b.png,,,50,,,1,,object_08a.png,object_09b.png,object_15b.png,object_09b.png,,0.875,,1,,,,,,,,
3539.899999976158,,directmemory_phase1,841274,,,,,,,,object_12c.png,,,50,,,1,,object_08b.png,object_14b.png,object_06b.png,object_14b.png,,0.8888888888888888,,1,,,,,,,,
9542,,directmemory_phase1,850820,,,,,,,,object_13b.png,,,50,,,1,,object_04b.png,object_06c.png,object_08c.png,object_06c.png,,0.9,,1,,,,,,,,
3949,,directmemory_phase1,854772,,,,,,,,object_03c.png,,,49,,,0,,object_09c.png,object_14c.png,object_01b.png,object_14c.png,,0.8181818181818182,,0,,,,,,,,
5236.899999976158,,directmemory_phase1,860012,,,,,,,,object_08a.png,,,51,,,1,,object_04c.png,object_14a.png,object_08c.png,object_08c.png,,0.8333333333333334,,1,,,,,,,,
4358.700000047684,,directmemory_phase1,864373,,,,,,,,object_06a.png,,,51,,,1,,object_06b.png,object_09c.png,object_15a.png,object_15a.png,,0.8461538461538461,,1,,,,,,,,
3358.600000023842,,directmemory_phase1,867738,,,,,,,,object_14a.png,,,51,,,1,,object_01b.png,object_12a.png,object_09a.png,object_09a.png,,0.8571428571428571,,1,,,,,,,,
2442.8000000715256,,directmemory_phase1,870184,,,,,,,,object_03a.png,,,49,,,1,,object_04a.png,object_06b.png,object_06a.png,object_04a.png,,0.8666666666666667,,1,,,,,,,,
null,,thebreak,870286,,,,,,,,<p></p>,,,null,,,,,,,,,,,,,,,,,,,,
10501.200000047684,,intro_0,880789,,,,,,,,instruct,,,32,,,,,,,,,,,,,,,,,,,,
null,,learn_phase(without_color)2,884298,,,,,,,,black_plus_sign,,,null,object_10c.png,object_04c.png,,,,,,,,,,,,,,,,,,
null,,black_cross(without_color)2,885222,,,,,,,,blue,,,null,object_10c.png,object_04c.png,,,,,,,,,,,,,,,,,,
null,,rt_plussign_withcolor2,885724,,,,,,,,blue,,,null,object_10c.png,object_04c.png,,,,,,,,,,,,,,,,,,
1484.5,,rt_thecrossant_black2,886806,,,,,,,,black_plus_sign,,,49,,,1,,,,,,,1,,,,,,,,,,
null,,color_black2,886912,,,,,,,,black_plus_sign,,,null,,,,,,,,,,,,,,,,,,,,
null,,learn_phase(without_color)2,890419,,,,,,,,black_plus_sign,,,null,object_01a.png,object_11a.png,,,,,,,,,,,,,,,,,,
null,,black_cross(without_color)2,891495,,,,,,,,green,,,null,object_01a.png,object_11a.png,,,,,,,,,,,,,,,,,,
null,,rt_plussign_withcolor2,892003,,,,,,,,green,,,null,object_01a.png,object_11a.png,,,,,,,,,,,,,,,,,,
1291.5,,rt_thecrossant_black2,892952,,,,,,,,black_plus_sign,,,50,,,1,,,,,,,1,,,,,,,,,,
null,,color_black2,893060,,,,,,,,black_plus_sign,,,null,,,,,,,,,,,,,,,,,,,,
null,,learn_phase(without_color)2,896571,,,,,,,,black_plus_sign,,,null,object_08a.png,object_08c.png,,,,,,,,,,,,,,,,,,
null,,black_cross(without_color)2,897531,,,,,,,,blue,,,null,object_08a.png,object_08c.png,,,,,,,,,,,,,,,,,,
null,,rt_plussign_withcolor2,898038,,,,,,,,blue,,,null,object_08a.png,object_08c.png,,,,,,,,,,,,,,,,,,
1582.3999999761581,,rt_thecrossant_black2,899096,,,,,,,,black_plus_sign,,,49,,,1,,,,,,,1,,,,,,,,,,
null,,color_black2,899206,,,,,,,,black_plus_sign,,,null,,,,,,,,,,,,,,,,,,,,
null,,learn_phase(without_color)2,902709,,,,,,,,black_plus_sign,,,null,object_04a.png,object_03a.png,,,,,,,,,,,,,,,,,,
null,,black_cross(without_color)2,903715,,,,,,,,blue,,,null,object_04a.png,object_03a.png,,,,,,,,,,,,,,,,,,
null,,rt_plussign_withcolor2,904223,,,,,,,,blue,,,null,object_04a.png,object_03a.png,,,,,,,,,,,,,,,,,,
1319.5,,rt_thecrossant_black2,905226,,,,,,,,black_plus_sign,,,49,,,1,,,,,,,1,,,,,,,,,,
null,,color_black2,905335,,,,,,,,black_plus_sign,,,null,,,,,,,,,,,,,,,,,,,,
null,,learn_phase(without_color)2,908844,,,,,,,,black_plus_sign,,,null,object_14a.png,object_09a.png,,,,,,,,,,,,,,,,,,
null,,black_cross(without_color)2,909473,,,,,,,,green,,,null,object_14a.png,object_09a.png,,,,,,,,,,,,,,,,,,
null,,rt_plussign_withcolor2,909983,,,,,,,,green,,,null,object_14a.png,object_09a.png,,,,,,,,,,,,,,,,,,
1462.9000000953674,,rt_thecrossant_black2,911362,,,,,,,,black_plus_sign,,,50,,,1,,,,,,,1,,,,,,,,,,
null,,color_black2,911471,,,,,,,,black_plus_sign,,,null,,,,,,,,,,,,,,,,,,,,
null,,learn_phase(without_color)2,914981,,,,,,,,black_plus_sign,,,null,object_09b.png,object_07b.png,,,,,,,,,,,,,,,,,,
null,,black_cross(without_color)2,915673,,,,,,,,blue,,,null,object_09b.png,object_07b.png,,,,,,,,,,,,,,,,,,
null,,rt_plussign_withcolor2,916179,,,,,,,,blue,,,null,object_09b.png,object_07b.png,,,,,,,,,,,,,,,,,,
1145.6999999284744,,rt_thecrossant_black2,917499,,,,,,,,black_plus_sign,,,49,,,1,,,,,,,1,,,,,,,,,,
null,,color_black2,917608,,,,,,,,black_plus_sign,,,null,,,,,,,,,,,,,,,,,,,,
null,,learn_phase(without_color)2,921124,,,,,,,,black_plus_sign,,,null,object_09c.png,object_03b.png,,,,,,,,,,,,,,,,,,
null,,black_cross(without_color)2,921760,,,,,,,,green,,,null,object_09c.png,object_03b.png,,,,,,,,,,,,,,,,,,
null,,rt_plussign_withcolor2,922269,,,,,,,,green,,,null,object_09c.png,object_03b.png,,,,,,,,,,,,,,,,,,
1066.8999999761581,,rt_thecrossant_black2,923645,,,,,,,,black_plus_sign,,,50,,,1,,,,,,,1,,,,,,,,,,
null,,color_black2,923753,,,,,,,,black_plus_sign,,,null,,,,,,,,,,,,,,,,,,,,
null,,learn_phase(without_color)2,927270,,,,,,,,black_plus_sign,,,null,object_10b.png,object_08b.png,,,,,,,,,,,,,,,,,,
null,,black_cross(without_color)2,928283,,,,,,,,blue,,,null,object_10b.png,object_08b.png,,,,,,,,,,,,,,,,,,
null,,rt_plussign_withcolor2,928791,,,,,,,,blue,,,null,object_10b.png,object_08b.png,,,,,,,,,,,,,,,,,,
1079.3999999761581,,rt_thecrossant_black2,929799,,,,,,,,black_plus_sign,,,49,,,1,,,,,,,1,,,,,,,,,,
null,,color_black2,929908,,,,,,,,black_plus_sign,,,null,,,,,,,,,,,,,,,,,,,,
null,,learn_phase(without_color)2,933415,,,,,,,,black_plus_sign,,,null,object_12a.png,object_06b.png,,,,,,,,,,,,,,,,,,
null,,black_cross(without_color)2,934122,,,,,,,,blue,,,null,object_12a.png,object_06b.png,,,,,,,,,,,,,,,,,,
null,,rt_plussign_withcolor2,934627,,,,,,,,blue,,,null,object_12a.png,object_06b.png,,,,,,,,,,,,,,,,,,
1575.7999999523163,,rt_thecrossant_black2,935941,,,,,,,,black_plus_sign,,,49,,,1,,,,,,,1,,,,,,,,,,
null,,color_black2,936051,,,,,,,,black_plus_sign,,,null,,,,,,,,,,,,,,,,,,,,
null,,learn_phase(without_color)2,939555,,,,,,,,black_plus_sign,,,null,object_01b.png,object_04b.png,,,,,,,,,,,,,,,,,,
null,,black_cross(without_color)2,940429,,,,,,,,green,,,null,object_01b.png,object_04b.png,,,,,,,,,,,,,,,,,,
null,,rt_plussign_withcolor2,940941,,,,,,,,green,,,null,object_01b.png,object_04b.png,,,,,,,,,,,,,,,,,,
1079,,rt_thecrossant_black2,942091,,,,,,,,black_plus_sign,,,50,,,1,,,,,,,1,,,,,,,,,,
null,,color_black2,942210,,,,,,,,black_plus_sign,,,null,,,,,,,,,,,,,,,,,,,,
null,,learn_phase(without_color)2,945723,,,,,,,,black_plus_sign,,,null,object_07c.png,object_15b.png,,,,,,,,,,,,,,,,,,
null,,black_cross(without_color)2,946823,,,,,,,,green,,,null,object_07c.png,object_15b.png,,,,,,,,,,,,,,,,,,
null,,rt_plussign_withcolor2,947327,,,,,,,,green,,,null,object_07c.png,object_15b.png,,,,,,,,,,,,,,,,,,
1255.3000000715256,,rt_thecrossant_black2,948244,,,,,,,,black_plus_sign,,,50,,,1,,,,,,,1,,,,,,,,,,
null,,color_black2,948353,,,,,,,,black_plus_sign,,,null,,,,,,,,,,,,,,,,,,,,
null,,learn_phase(without_color)2,951864,,,,,,,,black_plus_sign,,,null,object_12c.png,object_14b.png,,,,,,,,,,,,,,,,,,
null,,black_cross(without_color)2,952958,,,,,,,,blue,,,null,object_12c.png,object_14b.png,,,,,,,,,,,,,,,,,,
null,,rt_plussign_withcolor2,953463,,,,,,,,blue,,,null,object_12c.png,object_14b.png,,,,,,,,,,,,,,,,,,
1596.6999999284744,,rt_thecrossant_black2,954396,,,,,,,,black_plus_sign,,,49,,,1,,,,,,,1,,,,,,,,,,
null,,color_black2,954506,,,,,,,,black_plus_sign,,,null,,,,,,,,,,,,,,,,,,,,
null,,learn_phase(without_color)2,958018,,,,,,,,black_plus_sign,,,null,object_14c.png,object_03c.png,,,,,,,,,,,,,,,,,,
null,,black_cross(without_color)2,959050,,,,,,,,blue,,,null,object_14c.png,object_03c.png,,,,,,,,,,,,,,,,,,
null,,rt_plussign_withcolor2,959553,,,,,,,,blue,,,null,object_14c.png,object_03c.png,,,,,,,,,,,,,,,,,,
1628.2000000476837,,rt_thecrossant_black2,960531,,,,,,,,black_plus_sign,,,49,,,1,,,,,,,1,,,,,,,,,,
null,,color_black2,960640,,,,,,,,black_plus_sign,,,null,,,,,,,,,,,,,,,,,,,,
null,,learn_phase(without_color)2,964152,,,,,,,,black_plus_sign,,,null,object_06c.png,object_13b.png,,,,,,,,,,,,,,,,,,
null,,black_cross(without_color)2,964756,,,,,,,,green,,,null,object_06c.png,object_13b.png,,,,,,,,,,,,,,,,,,
null,,rt_plussign_withcolor2,965264,,,,,,,,green,,,null,object_06c.png,object_13b.png,,,,,,,,,,,,,,,,,,
1432.3999999761581,,rt_thecrossant_black2,966669,,,,,,,,black_plus_sign,,,50,,,1,,,,,,,1,,,,,,,,,,
null,,color_black2,966778,,,,,,,,black_plus_sign,,,null,,,,,,,,,,,,,,,,,,,,
null,,learn_phase(without_color)2,970282,,,,,,,,black_plus_sign,,,null,object_06a.png,object_15a.png,,,,,,,,,,,,,,,,,,
null,,black_cross(without_color)2,971374,,,,,,,,blue,,,null,object_06a.png,object_15a.png,,,,,,,,,,,,,,,,,,
null,,rt_plussign_withcolor2,971881,,,,,,,,blue,,,null,object_06a.png,object_15a.png,,,,,,,,,,,,,,,,,,
1112.7999999523163,,rt_thecrossant_black2,972824,,,,,,,,black_plus_sign,,,49,,,1,,,,,,,1,,,,,,,,,,
null,,color_black2,972930,,,,,,,,black_plus_sign,,,null,,,,,,,,,,,,,,,,,,,,
null,,thebreak,973048,,,,,,,,<p></p>,,,null,,,,,,,,,,,,,,,,,,,,
13103.600000023842,,intro_0,986153,,,,,,,,instruct,,,32,,,,,,,,,,,,,,,,,,,,
4229.600000023842,,directmemory_phase2,990385,,,,,,,,object_04b.png,,,51,,,1,,object_04a.png,object_09c.png,object_01b.png,object_01b.png,,0.875,,1,,,,,,,,
2509.2000000476837,,directmemory_phase2,992901,,,,,,,,object_07c.png,,,50,,,1,,object_03a.png,object_15b.png,object_11a.png,object_15b.png,,0.8823529411764706,,1,,,,,,,,
6443.600000023842,,directmemory_phase2,999348,,,,,,,,object_09c.png,,,50,,,1,,object_10c.png,object_03b.png,object_11a.png,object_03b.png,,0.8888888888888888,,1,,,,,,,,
9457.300000071526,,directmemory_phase2,1008808,,,,,,,,object_03a.png,,,49,,,1,,object_04a.png,object_08c.png,object_08b.png,object_04a.png,,0.8947368421052632,,1,,,,,,,,
3865.2999999523163,,directmemory_phase2,1012676,,,,,,,,object_08a.png,,,51,,,1,,object_03b.png,object_14a.png,object_08c.png,object_08c.png,,0.9,,1,,,,,,,,
2718,,directmemory_phase2,1015397,,,,,,,,object_14a.png,,,49,,,1,,object_09a.png,object_03b.png,object_03a.png,object_09a.png,,0.9047619047619048,,1,,,,,,,,
2779.600000023842,,directmemory_phase2,1018180,,,,,,,,object_08b.png,,,51,,,1,,object_14c.png,object_06a.png,object_10b.png,object_10b.png,,0.9090909090909091,,1,,,,,,,,
3323.6999999284744,,directmemory_phase2,1021507,,,,,,,,object_13b.png,,,49,,,1,,object_06c.png,object_11a.png,object_07c.png,object_06c.png,,0.9130434782608695,,1,,,,,,,,
7201,,directmemory_phase2,1028711,,,,,,,,object_12a.png,,,50,,,1,,object_14a.png,object_06b.png,object_11a.png,object_06b.png,,0.9166666666666666,,1,,,,,,,,
2522.8000000715256,,directmemory_phase2,1031237,,,,,,,,object_06a.png,,,49,,,1,,object_15a.png,object_08c.png,object_07c.png,object_15a.png,,0.92,,1,,,,,,,,
6090.100000023842,,directmemory_phase2,1037330,,,,,,,,object_10c.png,,,50,,,1,,object_09c.png,object_04c.png,object_10b.png,object_04c.png,,0.9230769230769231,,1,,,,,,,,
2411.5999999046326,,directmemory_phase2,1039745,,,,,,,,object_03c.png,,,50,,,1,,object_07c.png,object_14c.png,object_09a.png,object_14c.png,,0.9259259259259259,,1,,,,,,,,
3548.5,,directmemory_phase2,1043296,,,,,,,,object_12c.png,,,50,,,1,,object_03a.png,object_14b.png,object_15a.png,object_14b.png,,0.9285714285714286,,1,,,,,,,,
4662,,directmemory_phase2,1047962,,,,,,,,object_01a.png,,,50,,,1,,object_07c.png,object_11a.png,object_04c.png,object_11a.png,,0.9310344827586207,,1,,,,,,,,
3031.5,,directmemory_phase2,1050997,,,,,,,,object_07b.png,,,49,,,1,,object_09b.png,object_04a.png,object_08a.png,object_09b.png,,0.9333333333333333,,1,,,,,,,,
null,,thebreak,1051105,,,,,,,,<p></p>,,,null,,,,,,,,,,,,,,,,,,,,
37317.799999952316,,intro_0,1088425,,,,,,,,instruct,,,32,,,,,,,,,,,,,,,,,,,,
null,,learn_phase(without_color)3,1091938,,,,,,,,black_plus_sign,,,null,object_07b.png,object_09b.png,,,,,,,,,,,,,,,,,,
null,,black_cross(without_color)3,1092857,,,,,,,,green,,,null,object_07b.png,object_09b.png,,,,,,,,,,,,,,,,,,
null,,rt_plussign_withcolor3,1093371,,,,,,,,green,,,null,object_07b.png,object_09b.png,,,,,,,,,,,,,,,,,,
1376.6999999284744,,rt_thecrossant_black3,1094465,,,,,,,,black_plus_sign,,,50,,,1,,,,,,,1,,,,,,,,,,
null,,color_black3,1094572,,,,,,,,black_plus_sign,,,null,,,,,,,,,,,,,,,,,,,,
null,,learn_phase(without_color)3,1098078,,,,,,,,black_plus_sign,,,null,object_15b.png,object_07c.png,,,,,,,,,,,,,,,,,,
null,,black_cross(without_color)3,1099078,,,,,,,,blue,,,null,object_15b.png,object_07c.png,,,,,,,,,,,,,,,,,,
null,,rt_plussign_withcolor3,1099588,,,,,,,,blue,,,null,object_15b.png,object_07c.png,,,,,,,,,,,,,,,,,,
1261.1999999284744,,rt_thecrossant_black3,1100617,,,,,,,,black_plus_sign,,,49,,,1,,,,,,,1,,,,,,,,,,
null,,color_black3,1100735,,,,,,,,black_plus_sign,,,null,,,,,,,,,,,,,,,,,,,,
null,,learn_phase(without_color)3,1104248,,,,,,,,black_plus_sign,,,null,object_06b.png,object_12a.png,,,,,,,,,,,,,,,,,,
null,,black_cross(without_color)3,1104861,,,,,,,,green,,,null,object_06b.png,object_12a.png,,,,,,,,,,,,,,,,,,
null,,rt_plussign_withcolor3,1105377,,,,,,,,green,,,null,object_06b.png,object_12a.png,,,,,,,,,,,,,,,,,,
1459.6000000238419,,rt_thecrossant_black3,1106782,,,,,,,,black_plus_sign,,,50,,,1,,,,,,,1,,,,,,,,,,
null,,color_black3,1106891,,,,,,,,black_plus_sign,,,null,,,,,,,,,,,,,,,,,,,,
null,,learn_phase(without_color)3,1110408,,,,,,,,black_plus_sign,,,null,object_04c.png,object_10c.png,,,,,,,,,,,,,,,,,,
null,,black_cross(without_color)3,1111082,,,,,,,,blue,,,null,object_04c.png,object_10c.png,,,,,,,,,,,,,,,,,,
null,,rt_plussign_withcolor3,1111586,,,,,,,,blue,,,null,object_04c.png,object_10c.png,,,,,,,,,,,,,,,,,,
994.3999999761581,,rt_thecrossant_black3,1112932,,,,,,,,black_plus_sign,,,49,,,1,,,,,,,1,,,,,,,,,,
null,,color_black3,1113048,,,,,,,,black_plus_sign,,,null,,,,,,,,,,,,,,,,,,,,
null,,learn_phase(without_color)3,1116561,,,,,,,,black_plus_sign,,,null,object_06c.png,object_13b.png,,,,,,,,,,,,,,,,,,
null,,black_cross(without_color)3,1117176,,,,,,,,green,,,null,object_06c.png,object_13b.png,,,,,,,,,,,,,,,,,,
null,,rt_plussign_withcolor3,1117685,,,,,,,,green,,,null,object_06c.png,object_13b.png,,,,,,,,,,,,,,,,,,
1001,,rt_thecrossant_black3,1119090,,,,,,,,black_plus_sign,,,50,,,1,,,,,,,1,,,,,,,,,,
null,,color_black3,1119198,,,,,,,,black_plus_sign,,,null,,,,,,,,,,,,,,,,,,,,
null,,learn_phase(without_color)3,1122709,,,,,,,,black_plus_sign,,,null,object_08c.png,object_08a.png,,,,,,,,,,,,,,,,,,
null,,black_cross(without_color)3,1123146,,,,,,,,blue,,,null,object_08c.png,object_08a.png,,,,,,,,,,,,,,,,,,
null,,rt_plussign_withcolor3,1123651,,,,,,,,blue,,,null,object_08c.png,object_08a.png,,,,,,,,,,,,,,,,,,
1169.2000000476837,,rt_thecrossant_black3,1125240,,,,,,,,black_plus_sign,,,49,,,1,,,,,,,1,,,,,,,,,,
null,,color_black3,1125349,,,,,,,,black_plus_sign,,,null,,,,,,,,,,,,,,,,,,,,
null,,learn_phase(without_color)3,1128865,,,,,,,,black_plus_sign,,,null,object_01b.png,object_04b.png,,,,,,,,,,,,,,,,,,
null,,black_cross(without_color)3,1129470,,,,,,,,blue,,,null,object_01b.png,object_04b.png,,,,,,,,,,,,,,,,,,
null,,rt_plussign_withcolor3,1129982,,,,,,,,blue,,,null,object_01b.png,object_04b.png,,,,,,,,,,,,,,,,,,
887.8999999761581,,rt_thecrossant_black3,1131406,,,,,,,,black_plus_sign,,,49,,,1,,,,,,,1,,,,,,,,,,
null,,color_black3,1131515,,,,,,,,black_plus_sign,,,null,,,,,,,,,,,,,,,,,,,,
null,,learn_phase(without_color)3,1135022,,,,,,,,black_plus_sign,,,null,object_14c.png,object_03c.png,,,,,,,,,,,,,,,,,,
null,,black_cross(without_color)3,1135628,,,,,,,,blue,,,null,object_14c.png,object_03c.png,,,,,,,,,,,,,,,,,,
null,,rt_plussign_withcolor3,1136139,,,,,,,,blue,,,null,object_14c.png,object_03c.png,,,,,,,,,,,,,,,,,,
1012.8999999761581,,rt_thecrossant_black3,1137544,,,,,,,,black_plus_sign,,,49,,,1,,,,,,,1,,,,,,,,,,
null,,color_black3,1137653,,,,,,,,black_plus_sign,,,null,,,,,,,,,,,,,,,,,,,,
null,,learn_phase(without_color)3,1141161,,,,,,,,black_plus_sign,,,null,object_11a.png,object_01a.png,,,,,,,,,,,,,,,,,,
null,,black_cross(without_color)3,1142167,,,,,,,,blue,,,null,object_11a.png,object_01a.png,,,,,,,,,,,,,,,,,,
null,,rt_plussign_withcolor3,1142669,,,,,,,,blue,,,null,object_11a.png,object_01a.png,,,,,,,,,,,,,,,,,,
1003.7000000476837,,rt_thecrossant_black3,1143679,,,,,,,,black_plus_sign,,,49,,,1,,,,,,,1,,,,,,,,,,
null,,color_black3,1143787,,,,,,,,black_plus_sign,,,null,,,,,,,,,,,,,,,,,,,,
null,,learn_phase(without_color)3,1147304,,,,,,,,black_plus_sign,,,null,object_14b.png,object_12c.png,,,,,,,,,,,,,,,,,,
null,,black_cross(without_color)3,1148388,,,,,,,,blue,,,null,object_14b.png,object_12c.png,,,,,,,,,,,,,,,,,,
null,,rt_plussign_withcolor3,1148893,,,,,,,,blue,,,null,object_14b.png,object_12c.png,,,,,,,,,,,,,,,,,,
1359.2000000476837,,rt_thecrossant_black3,1149829,,,,,,,,black_plus_sign,,,49,,,1,,,,,,,1,,,,,,,,,,
null,,color_black3,1149938,,,,,,,,black_plus_sign,,,null,,,,,,,,,,,,,,,,,,,,
null,,learn_phase(without_color)3,1153443,,,,,,,,black_plus_sign,,,null,object_03b.png,object_09c.png,,,,,,,,,,,,,,,,,,
null,,black_cross(without_color)3,1154091,,,,,,,,blue,,,null,object_03b.png,object_09c.png,,,,,,,,,,,,,,,,,,
null,,rt_plussign_withcolor3,1154607,,,,,,,,blue,,,null,object_03b.png,object_09c.png,,,,,,,,,,,,,,,,,,
1503.1999999284744,,rt_thecrossant_black3,1155987,,,,,,,,black_plus_sign,,,49,,,1,,,,,,,1,,,,,,,,,,
null,,color_black3,1156098,,,,,,,,black_plus_sign,,,null,,,,,,,,,,,,,,,,,,,,
null,,learn_phase(without_color)3,1159611,,,,,,,,black_plus_sign,,,null,object_03a.png,object_04a.png,,,,,,,,,,,,,,,,,,
null,,black_cross(without_color)3,1160389,,,,,,,,green,,,null,object_03a.png,object_04a.png,,,,,,,,,,,,,,,,,,
null,,rt_plussign_withcolor3,1160896,,,,,,,,green,,,null,object_03a.png,object_04a.png,,,,,,,,,,,,,,,,,,
1179.7000000476837,,rt_thecrossant_black3,1162134,,,,,,,,black_plus_sign,,,50,,,1,,,,,,,1,,,,,,,,,,
null,,color_black3,1162243,,,,,,,,black_plus_sign,,,null,,,,,,,,,,,,,,,,,,,,
null,,learn_phase(without_color)3,1165756,,,,,,,,black_plus_sign,,,null,object_15a.png,object_06a.png,,,,,,,,,,,,,,,,,,
null,,black_cross(without_color)3,1166720,,,,,,,,blue,,,null,object_15a.png,object_06a.png,,,,,,,,,,,,,,,,,,
null,,rt_plussign_withcolor3,1167228,,,,,,,,blue,,,null,object_15a.png,object_06a.png,,,,,,,,,,,,,,,,,,
1256.2000000476837,,rt_thecrossant_black3,1168278,,,,,,,,black_plus_sign,,,49,,,1,,,,,,,1,,,,,,,,,,
null,,color_black3,1168389,,,,,,,,black_plus_sign,,,null,,,,,,,,,,,,,,,,,,,,
null,,learn_phase(without_color)3,1171898,,,,,,,,black_plus_sign,,,null,object_08b.png,object_10b.png,,,,,,,,,,,,,,,,,,
null,,black_cross(without_color)3,1172874,,,,,,,,blue,,,null,object_08b.png,object_10b.png,,,,,,,,,,,,,,,,,,
null,,rt_plussign_withcolor3,1173376,,,,,,,,blue,,,null,object_08b.png,object_10b.png,,,,,,,,,,,,,,,,,,
1417.3999999761581,,rt_thecrossant_black3,1174410,,,,,,,,black_plus_sign,,,49,,,1,,,,,,,1,,,,,,,,,,
null,,color_black3,1174519,,,,,,,,black_plus_sign,,,null,,,,,,,,,,,,,,,,,,,,
null,,learn_phase(without_color)3,1178027,,,,,,,,black_plus_sign,,,null,object_14a.png,object_09a.png,,,,,,,,,,,,,,,,,,
null,,black_cross(without_color)3,1178814,,,,,,,,blue,,,null,object_14a.png,object_09a.png,,,,,,,,,,,,,,,,,,
null,,rt_plussign_withcolor3,1179326,,,,,,,,blue,,,null,object_14a.png,object_09a.png,,,,,,,,,,,,,,,,,,
1438.1000000238419,,rt_thecrossant_black3,1180554,,,,,,,,black_plus_sign,,,49,,,1,,,,,,,1,,,,,,,,,,
null,,color_black3,1180663,,,,,,,,black_plus_sign,,,null,,,,,,,,,,,,,,,,,,,,
null,,thebreak,1180772,,,,,,,,<p></p>,,,null,,,,,,,,,,,,,,,,,,,,
13026,,intro_0,1193800,,,,,,,,instruct,,,32,,,,,,,,,,,,,,,,,,,,
3689.100000023842,,directmemory_phase3,1197491,,,,,,,,object_08a.png,,,51,,,1,,object_14b.png,object_12a.png,object_08c.png,object_08c.png,,0.9354838709677419,,1,,,,,,,,
2398.5,,directmemory_phase3,1199893,,,,,,,,object_14a.png,,,51,,,1,,object_01b.png,object_01a.png,object_09a.png,object_09a.png,,0.9375,,1,,,,,,,,
2545.7000000476837,,directmemory_phase3,1202442,,,,,,,,object_08b.png,,,50,,,1,,object_04b.png,object_10b.png,object_04c.png,object_10b.png,,0.9393939393939394,,1,,,,,,,,
2582,,directmemory_phase3,1205027,,,,,,,,object_01a.png,,,50,,,1,,object_12a.png,object_11a.png,object_06b.png,object_11a.png,,0.9411764705882353,,1,,,,,,,,
3495.899999976158,,directmemory_phase3,1208527,,,,,,,,object_10c.png,,,49,,,1,,object_04c.png,object_06c.png,object_03a.png,object_04c.png,,0.9428571428571428,,1,,,,,,,,
8227,,directmemory_phase3,1216757,,,,,,,,object_07c.png,,,51,,,1,,object_04a.png,object_08a.png,object_15b.png,object_15b.png,,0.9444444444444444,,1,,,,,,,,
2293.399999976158,,directmemory_phase3,1219053,,,,,,,,object_03c.png,,,50,,,1,,object_08a.png,object_14c.png,object_11a.png,object_14c.png,,0.9459459459459459,,1,,,,,,,,
3055,,directmemory_phase3,1222111,,,,,,,,object_12c.png,,,49,,,1,,object_14b.png,object_04c.png,object_01a.png,object_14b.png,,0.9473684210526315,,1,,,,,,,,
12697.5,,directmemory_phase3,1234811,,,,,,,,object_13b.png,,,50,,,1,,object_03c.png,object_06c.png,object_04c.png,object_06c.png,,0.9487179487179487,,1,,,,,,,,
4501.5,,directmemory_phase3,1239315,,,,,,,,object_04b.png,,,51,,,1,,object_11a.png,object_06a.png,object_01b.png,object_01b.png,,0.95,,1,,,,,,,,
2255.8000000715256,,directmemory_phase3,1241575,,,,,,,,object_07b.png,,,50,,,1,,object_12c.png,object_09b.png,object_14c.png,object_09b.png,,0.9512195121951219,,1,,,,,,,,
7668.899999976158,,directmemory_phase3,1249247,,,,,,,,object_03a.png,,,51,,,1,,object_01b.png,object_13b.png,object_04a.png,object_04a.png,,0.9523809523809523,,1,,,,,,,,
4829.300000071526,,directmemory_phase3,1254079,,,,,,,,object_09c.png,,,49,,,1,,object_03b.png,object_06b.png,object_03c.png,object_03b.png,,0.9534883720930233,,1,,,,,,,,
3964.5,,directmemory_phase3,1258047,,,,,,,,object_06a.png,,,51,,,1,,object_03b.png,object_10c.png,object_15a.png,object_15a.png,,0.9545454545454546,,1,,,,,,,,
3006.600000023842,,directmemory_phase3,1261057,,,,,,,,object_12a.png,,,49,,,1,,object_06b.png,object_01b.png,object_14a.png,object_06b.png,,0.9555555555555556,,1,,,,,,,,
null,,thebreak,1261165,,,,,,,,<p></p>,,,null,,,,,,,,,,,,,,,,,,,,
30430.200000047684,,intro_0,1291597,,,,,,,,instruct,,,32,,,,,,,,,,,,,,,,,,,,
null,,learn_phase(without_color)4,1295099,,,,,,,,black_plus_sign,,,null,object_14c.png,object_03c.png,,,,,,,,,,,,,,,,,,
null,,black_cross(without_color)4,1296047,,,,,,,,green,,,null,object_14c.png,object_03c.png,,,,,,,,,,,,,,,,,,
null,,rt_plussign_withcolor4,1296567,,,,,,,,green,,,null,object_14c.png,object_03c.png,,,,,,,,,,,,,,,,,,
1341.8999999761581,,rt_thecrossant_black4,1297630,,,,,,,,black_plus_sign,,,50,,,1,,,,,,,1,,,,,,,,,,
null,,color_black4,1297746,,,,,,,,black_plus_sign,,,null,,,,,,,,,,,,,,,,,,,,
null,,learn_phase(without_color)4,1301261,,,,,,,,black_plus_sign,,,null,object_04c.png,object_10c.png,,,,,,,,,,,,,,,,,,
null,,black_cross(without_color)4,1301716,,,,,,,,blue,,,null,object_04c.png,object_10c.png,,,,,,,,,,,,,,,,,,
null,,rt_plussign_withcolor4,1302224,,,,,,,,blue,,,null,object_04c.png,object_10c.png,,,,,,,,,,,,,,,,,,
1517,,rt_thecrossant_black4,1303782,,,,,,,,black_plus_sign,,,49,,,1,,,,,,,1,,,,,,,,,,
null,,color_black4,1303891,,,,,,,,black_plus_sign,,,null,,,,,,,,,,,,,,,,,,,,
null,,learn_phase(without_color)4,1307398,,,,,,,,black_plus_sign,,,null,object_06b.png,object_12a.png,,,,,,,,,,,,,,,,,,
null,,black_cross(without_color)4,1308311,,,,,,,,blue,,,null,object_06b.png,object_12a.png,,,,,,,,,,,,,,,,,,
null,,rt_plussign_withcolor4,1308823,,,,,,,,blue,,,null,object_06b.png,object_12a.png,,,,,,,,,,,,,,,,,,
859,,rt_thecrossant_black4,1309922,,,,,,,,black_plus_sign,,,49,,,1,,,,,,,1,,,,,,,,,,
null,,color_black4,1310030,,,,,,,,black_plus_sign,,,null,,,,,,,,,,,,,,,,,,,,
null,,learn_phase(without_color)4,1313537,,,,,,,,black_plus_sign,,,null,object_09a.png,object_14a.png,,,,,,,,,,,,,,,,,,
null,,black_cross(without_color)4,1314442,,,,,,,,blue,,,null,object_09a.png,object_14a.png,,,,,,,,,,,,,,,,,,
null,,rt_plussign_withcolor4,1314952,,,,,,,,blue,,,null,object_09a.png,object_14a.png,,,,,,,,,,,,,,,,,,
1363.2000000476837,,rt_thecrossant_black4,1316062,,,,,,,,black_plus_sign,,,49,,,1,,,,,,,1,,,,,,,,,,
null,,color_black4,1316178,,,,,,,,black_plus_sign,,,null,,,,,,,,,,,,,,,,,,,,
null,,learn_phase(without_color)4,1319686,,,,,,,,black_plus_sign,,,null,object_11a.png,object_01a.png,,,,,,,,,,,,,,,,,,
null,,black_cross(without_color)4,1320745,,,,,,,,green,,,null,object_11a.png,object_01a.png,,,,,,,,,,,,,,,,,,
null,,rt_plussign_withcolor4,1321262,,,,,,,,green,,,null,object_11a.png,object_01a.png,,,,,,,,,,,,,,,,,,
1275.1000000238419,,rt_thecrossant_black4,1322211,,,,,,,,black_plus_sign,,,50,,,1,,,,,,,1,,,,,,,,,,
null,,color_black4,1322329,,,,,,,,black_plus_sign,,,null,,,,,,,,,,,,,,,,,,,,
null,,learn_phase(without_color)4,1325846,,,,,,,,black_plus_sign,,,null,object_15a.png,object_06a.png,,,,,,,,,,,,,,,,,,
null,,black_cross(without_color)4,1326545,,,,,,,,blue,,,null,object_15a.png,object_06a.png,,,,,,,,,,,,,,,,,,
null,,rt_plussign_withcolor4,1327052,,,,,,,,blue,,,null,object_15a.png,object_06a.png,,,,,,,,,,,,,,,,,,
1561.6000000238419,,rt_thecrossant_black4,1328379,,,,,,,,black_plus_sign,,,49,,,1,,,,,,,1,,,,,,,,,,
null,,color_black4,1328488,,,,,,,,black_plus_sign,,,null,,,,,,,,,,,,,,,,,,,,
null,,learn_phase(without_color)4,1332007,,,,,,,,black_plus_sign,,,null,object_04b.png,object_01b.png,,,,,,,,,,,,,,,,,,
null,,black_cross(without_color)4,1332782,,,,,,,,green,,,null,object_04b.png,object_01b.png,,,,,,,,,,,,,,,,,,
null,,rt_plussign_withcolor4,1333289,,,,,,,,green,,,null,object_04b.png,object_01b.png,,,,,,,,,,,,,,,,,,
1082.2000000476837,,rt_thecrossant_black4,1334526,,,,,,,,black_plus_sign,,,50,,,1,,,,,,,1,,,,,,,,,,
null,,color_black4,1334636,,,,,,,,black_plus_sign,,,null,,,,,,,,,,,,,,,,,,,,
null,,learn_phase(without_color)4,1338153,,,,,,,,black_plus_sign,,,null,object_15b.png,object_07c.png,,,,,,,,,,,,,,,,,,
null,,black_cross(without_color)4,1338952,,,,,,,,blue,,,null,object_15b.png,object_07c.png,,,,,,,,,,,,,,,,,,
null,,rt_plussign_withcolor4,1339458,,,,,,,,blue,,,null,object_15b.png,object_07c.png,,,,,,,,,,,,,,,,,,
1193.3000000715256,,rt_thecrossant_black4,1340666,,,,,,,,black_plus_sign,,,49,,,1,,,,,,,1,,,,,,,,,,
null,,color_black4,1340774,,,,,,,,black_plus_sign,,,null,,,,,,,,,,,,,,,,,,,,
null,,learn_phase(without_color)4,1344278,,,,,,,,black_plus_sign,,,null,object_09c.png,object_03b.png,,,,,,,,,,,,,,,,,,
null,,black_cross(without_color)4,1345010,,,,,,,,blue,,,null,object_09c.png,object_03b.png,,,,,,,,,,,,,,,,,,
null,,rt_plussign_withcolor4,1345514,,,,,,,,blue,,,null,object_09c.png,object_03b.png,,,,,,,,,,,,,,,,,,
1272,,rt_thecrossant_black4,1346799,,,,,,,,black_plus_sign,,,49,,,1,,,,,,,1,,,,,,,,,,
null,,color_black4,1346908,,,,,,,,black_plus_sign,,,null,,,,,,,,,,,,,,,,,,,,
null,,learn_phase(without_color)4,1350426,,,,,,,,black_plus_sign,,,null,object_09b.png,object_07b.png,,,,,,,,,,,,,,,,,,
null,,black_cross(without_color)4,1351456,,,,,,,,blue,,,null,object_09b.png,object_07b.png,,,,,,,,,,,,,,,,,,
null,,rt_plussign_withcolor4,1351962,,,,,,,,blue,,,null,object_09b.png,object_07b.png,,,,,,,,,,,,,,,,,,
1146.7000000476837,,rt_thecrossant_black4,1352950,,,,,,,,black_plus_sign,,,49,,,1,,,,,,,1,,,,,,,,,,
null,,color_black4,1353057,,,,,,,,black_plus_sign,,,null,,,,,,,,,,,,,,,,,,,,
null,,learn_phase(without_color)4,1356568,,,,,,,,black_plus_sign,,,null,object_08b.png,object_10b.png,,,,,,,,,,,,,,,,,,
null,,black_cross(without_color)4,1357464,,,,,,,,blue,,,null,object_08b.png,object_10b.png,,,,,,,,,,,,,,,,,,
null,,rt_plussign_withcolor4,1357967,,,,,,,,blue,,,null,object_08b.png,object_10b.png,,,,,,,,,,,,,,,,,,
1442.3000000715256,,rt_thecrossant_black4,1359083,,,,,,,,black_plus_sign,,,49,,,1,,,,,,,1,,,,,,,,,,
null,,color_black4,1359191,,,,,,,,black_plus_sign,,,null,,,,,,,,,,,,,,,,,,,,
null,,learn_phase(without_color)4,1362695,,,,,,,,black_plus_sign,,,null,object_08a.png,object_08c.png,,,,,,,,,,,,,,,,,,
null,,black_cross(without_color)4,1363360,,,,,,,,blue,,,null,object_08a.png,object_08c.png,,,,,,,,,,,,,,,,,,
null,,rt_plussign_withcolor4,1363872,,,,,,,,blue,,,null,object_08a.png,object_08c.png,,,,,,,,,,,,,,,,,,
1282.7000000476837,,rt_thecrossant_black4,1365227,,,,,,,,black_plus_sign,,,49,,,1,,,,,,,1,,,,,,,,,,
null,,color_black4,1365335,,,,,,,,black_plus_sign,,,null,,,,,,,,,,,,,,,,,,,,
null,,learn_phase(without_color)4,1368852,,,,,,,,black_plus_sign,,,null,object_12c.png,object_14b.png,,,,,,,,,,,,,,,,,,
null,,black_cross(without_color)4,1369768,,,,,,,,blue,,,null,object_12c.png,object_14b.png,,,,,,,,,,,,,,,,,,
null,,rt_plussign_withcolor4,1370271,,,,,,,,blue,,,null,object_12c.png,object_14b.png,,,,,,,,,,,,,,,,,,
1059.7999999523163,,rt_thecrossant_black4,1371378,,,,,,,,black_plus_sign,,,49,,,1,,,,,,,1,,,,,,,,,,
null,,color_black4,1371488,,,,,,,,black_plus_sign,,,null,,,,,,,,,,,,,,,,,,,,
null,,learn_phase(without_color)4,1375002,,,,,,,,black_plus_sign,,,null,object_06c.png,object_13b.png,,,,,,,,,,,,,,,,,,
null,,black_cross(without_color)4,1375889,,,,,,,,blue,,,null,object_06c.png,object_13b.png,,,,,,,,,,,,,,,,,,
null,,rt_plussign_withcolor4,1376402,,,,,,,,blue,,,null,object_06c.png,object_13b.png,,,,,,,,,,,,,,,,,,
1339.6000000238419,,rt_thecrossant_black4,1377525,,,,,,,,black_plus_sign,,,49,,,1,,,,,,,1,,,,,,,,,,
null,,color_black4,1377632,,,,,,,,black_plus_sign,,,null,,,,,,,,,,,,,,,,,,,,
null,,learn_phase(without_color)4,1381141,,,,,,,,black_plus_sign,,,null,object_04a.png,object_03a.png,,,,,,,,,,,,,,,,,,
null,,black_cross(without_color)4,1381958,,,,,,,,blue,,,null,object_04a.png,object_03a.png,,,,,,,,,,,,,,,,,,
null,,rt_plussign_withcolor4,1382475,,,,,,,,blue,,,null,object_04a.png,object_03a.png,,,,,,,,,,,,,,,,,,
1238.3999999761581,,rt_thecrossant_black4,1383680,,,,,,,,black_plus_sign,,,49,,,1,,,,,,,1,,,,,,,,,,
null,,color_black4,1383790,,,,,,,,black_plus_sign,,,null,,,,,,,,,,,,,,,,,,,,
null,,thebreak,1383900,,,,,,,,<p></p>,,,null,,,,,,,,,,,,,,,,,,,,
21481.100000023842,,intro_0,1405383,,,,,,,,instruct,,,32,,,,,,,,,,,,,,,,,,,,
4130.600000023842,,directmemory_phase4,1409516,,,,,,,,object_04b.png,,,49,,,1,,object_01b.png,object_15b.png,object_08a.png,object_01b.png,,0.9565217391304348,,1,,,,,,,,
2154.4000000953674,,directmemory_phase4,1411674,,,,,,,,object_12a.png,,,49,,,1,,object_06b.png,object_15b.png,object_01a.png,object_06b.png,,0.9574468085106383,,1,,,,,,,,
2445,,directmemory_phase4,1414122,,,,,,,,object_10c.png,,,50,,,1,,object_13b.png,object_04c.png,object_01b.png,object_04c.png,,0.9583333333333334,,1,,,,,,,,
3174.100000023842,,directmemory_phase4,1417300,,,,,,,,object_01a.png,,,50,,,1,,object_12a.png,object_11a.png,object_04a.png,object_11a.png,,0.9591836734693877,,1,,,,,,,,
2499,,directmemory_phase4,1419802,,,,,,,,object_08b.png,,,49,,,1,,object_10b.png,object_14c.png,object_10c.png,object_10b.png,,0.96,,1,,,,,,,,
4423,,directmemory_phase4,1424229,,,,,,,,object_12c.png,,,51,,,1,,object_11a.png,object_07c.png,object_14b.png,object_14b.png,,0.9607843137254902,,1,,,,,,,,
3162,,directmemory_phase4,1427394,,,,,,,,object_13b.png,,,51,,,1,,object_08c.png,object_04b.png,object_06c.png,object_06c.png,,0.9615384615384616,,1,,,,,,,,
2521.5,,directmemory_phase4,1429920,,,,,,,,object_06a.png,,,51,,,1,,object_06c.png,object_07c.png,object_15a.png,object_15a.png,,0.9622641509433962,,1,,,,,,,,
2380.8000000715256,,directmemory_phase4,1432304,,,,,,,,object_14a.png,,,49,,,1,,object_09a.png,object_08c.png,object_09c.png,object_09a.png,,0.9629629629629629,,1,,,,,,,,
2942.8000000715256,,directmemory_phase4,1435250,,,,,,,,object_08a.png,,,50,,,1,,object_14a.png,object_08c.png,object_06c.png,object_08c.png,,0.9636363636363636,,1,,,,,,,,
2323.8000000715256,,directmemory_phase4,1437578,,,,,,,,object_09c.png,,,50,,,1,,object_08b.png,object_03b.png,object_04c.png,object_03b.png,,0.9642857142857143,,1,,,,,,,,
4248.700000047684,,directmemory_phase4,1441831,,,,,,,,object_03a.png,,,50,,,1,,object_06a.png,object_04a.png,object_06b.png,object_04a.png,,0.9649122807017544,,1,,,,,,,,
2381.399999976158,,directmemory_phase4,1444216,,,,,,,,object_07b.png,,,49,,,1,,object_09b.png,object_15a.png,object_12c.png,object_09b.png,,0.9655172413793104,,1,,,,,,,,
2633.600000023842,,directmemory_phase4,1446853,,,,,,,,object_07c.png,,,50,,,1,,object_03a.png,object_15b.png,object_09a.png,object_15b.png,,0.9661016949152542,,1,,,,,,,,
2398.7000000476837,,directmemory_phase4,1449255,,,,,,,,object_03c.png,,,49,,,1,,object_14c.png,object_06c.png,object_14a.png,object_14c.png,,0.9666666666666667,,1,,,,,,,,
null,,thebreak,1449364,,,,,,,,<p></p>,,,null,,,,,,,,,,,,,,,,,,,,
26683.799999952316,,intro_0,1476050,,,,,,,,instruct,,,32,,,,,,,,,,,,,,,,,,,,
null,,learn_phase(without_color)5,1479555,,,,,,,,black_plus_sign,,,null,object_05b.png,object_03b.png,,,,,,,,,,,,,,,,,,
null,,black_cross(without_color)5,1480123,,,,,,,,green,,,null,object_05b.png,object_03b.png,,,,,,,,,,,,,,,,,,
null,,rt_plussign_withcolor5,1480636,,,,,,,,green,,,null,object_05b.png,object_03b.png,,,,,,,,,,,,,,,,,,
1032.5,,rt_thecrossant_black5,1482085,,,,,,,,black_plus_sign,,,50,,,1,,,,,,,1,,,,,,,,,,
null,,color_black5,1482193,,,,,,,,black_plus_sign,,,null,,,,,,,,,,,,,,,,,,,,
null,,learn_phase(without_color)5,1485701,,,,,,,,black_plus_sign,,,null,object_04c.png,object_01c.png,,,,,,,,,,,,,,,,,,
null,,black_cross(without_color)5,1486534,,,,,,,,blue,,,null,object_04c.png,object_01c.png,,,,,,,,,,,,,,,,,,
null,,rt_plussign_withcolor5,1487037,,,,,,,,blue,,,null,object_04c.png,object_01c.png,,,,,,,,,,,,,,,,,,
907.3999999761581,,rt_thecrossant_black5,1488218,,,,,,,,black_plus_sign,,,49,,,1,,,,,,,1,,,,,,,,,,
null,,color_black5,1488328,,,,,,,,black_plus_sign,,,null,,,,,,,,,,,,,,,,,,,,
null,,learn_phase(without_color)5,1491840,,,,,,,,black_plus_sign,,,null,object_07a.png,object_09a.png,,,,,,,,,,,,,,,,,,
null,,black_cross(without_color)5,1492335,,,,,,,,blue,,,null,object_07a.png,object_09a.png,,,,,,,,,,,,,,,,,,
null,,rt_plussign_withcolor5,1492849,,,,,,,,blue,,,null,object_07a.png,object_09a.png,,,,,,,,,,,,,,,,,,
1171,,rt_thecrossant_black5,1494374,,,,,,,,black_plus_sign,,,49,,,1,,,,,,,1,,,,,,,,,,
null,,color_black5,1494483,,,,,,,,black_plus_sign,,,null,,,,,,,,,,,,,,,,,,,,
null,,learn_phase(without_color)5,1497995,,,,,,,,black_plus_sign,,,null,object_04a.png,object_11c.png,,,,,,,,,,,,,,,,,,
null,,black_cross(without_color)5,1498456,,,,,,,,green,,,null,object_04a.png,object_11c.png,,,,,,,,,,,,,,,,,,
null,,rt_plussign_withcolor5,1498961,,,,,,,,green,,,null,object_04a.png,object_11c.png,,,,,,,,,,,,,,,,,,
942.8999999761581,,rt_thecrossant_black5,1500521,,,,,,,,black_plus_sign,,,50,,,1,,,,,,,1,,,,,,,,,,
null,,color_black5,1500629,,,,,,,,black_plus_sign,,,null,,,,,,,,,,,,,,,,,,,,
null,,learn_phase(without_color)5,1504140,,,,,,,,black_plus_sign,,,null,object_11b.png,object_01b.png,,,,,,,,,,,,,,,,,,
null,,black_cross(without_color)5,1504886,,,,,,,,blue,,,null,object_11b.png,object_01b.png,,,,,,,,,,,,,,,,,,
null,,rt_plussign_withcolor5,1505393,,,,,,,,blue,,,null,object_11b.png,object_01b.png,,,,,,,,,,,,,,,,,,
762.3999999761581,,rt_thecrossant_black5,1506678,,,,,,,,black_plus_sign,,,49,,,1,,,,,,,1,,,,,,,,,,
null,,color_black5,1506797,,,,,,,,black_plus_sign,,,null,,,,,,,,,,,,,,,,,,,,
null,,learn_phase(without_color)5,1510306,,,,,,,,black_plus_sign,,,null,object_06b.png,object_15c.png,,,,,,,,,,,,,,,,,,
null,,black_cross(without_color)5,1510803,,,,,,,,blue,,,null,object_06b.png,object_15c.png,,,,,,,,,,,,,,,,,,
null,,rt_plussign_withcolor5,1511307,,,,,,,,blue,,,null,object_06b.png,object_15c.png,,,,,,,,,,,,,,,,,,
1145.5999999046326,,rt_thecrossant_black5,1512823,,,,,,,,black_plus_sign,,,49,,,1,,,,,,,1,,,,,,,,,,
null,,color_black5,1512932,,,,,,,,black_plus_sign,,,null,,,,,,,,,,,,,,,,,,,,
null,,learn_phase(without_color)5,1516440,,,,,,,,black_plus_sign,,,null,object_11a.png,object_05c.png,,,,,,,,,,,,,,,,,,
null,,black_cross(without_color)5,1517074,,,,,,,,green,,,null,object_11a.png,object_05c.png,,,,,,,,,,,,,,,,,,
null,,rt_plussign_withcolor5,1517577,,,,,,,,green,,,null,object_11a.png,object_05c.png,,,,,,,,,,,,,,,,,,
862.1999999284744,,rt_thecrossant_black5,1518958,,,,,,,,black_plus_sign,,,50,,,1,,,,,,,1,,,,,,,,,,
null,,color_black5,1519068,,,,,,,,black_plus_sign,,,null,,,,,,,,,,,,,,,,,,,,
null,,learn_phase(without_color)5,1522578,,,,,,,,black_plus_sign,,,null,object_14b.png,object_12b.png,,,,,,,,,,,,,,,,,,
null,,black_cross(without_color)5,1523678,,,,,,,,blue,,,null,object_14b.png,object_12b.png,,,,,,,,,,,,,,,,,,
null,,rt_plussign_withcolor5,1524181,,,,,,,,blue,,,null,object_14b.png,object_12b.png,,,,,,,,,,,,,,,,,,
961.6999999284744,,rt_thecrossant_black5,1525090,,,,,,,,black_plus_sign,,,49,,,1,,,,,,,1,,,,,,,,,,
null,,color_black5,1525199,,,,,,,,black_plus_sign,,,null,,,,,,,,,,,,,,,,,,,,
null,,learn_phase(without_color)5,1528711,,,,,,,,black_plus_sign,,,null,object_02b.png,object_06c.png,,,,,,,,,,,,,,,,,,
null,,black_cross(without_color)5,1529261,,,,,,,,green,,,null,object_02b.png,object_06c.png,,,,,,,,,,,,,,,,,,
null,,rt_plussign_withcolor5,1529769,,,,,,,,green,,,null,object_02b.png,object_06c.png,,,,,,,,,,,,,,,,,,
1546.2000000476837,,rt_thecrossant_black5,1531245,,,,,,,,black_plus_sign,,,50,,,1,,,,,,,1,,,,,,,,,,
null,,color_black5,1531354,,,,,,,,black_plus_sign,,,null,,,,,,,,,,,,,,,,,,,,
null,,learn_phase(without_color)5,1534873,,,,,,,,black_plus_sign,,,null,object_02c.png,object_14c.png,,,,,,,,,,,,,,,,,,
null,,black_cross(without_color)5,1535873,,,,,,,,green,,,null,object_02c.png,object_14c.png,,,,,,,,,,,,,,,,,,
null,,rt_plussign_withcolor5,1536380,,,,,,,,green,,,null,object_02c.png,object_14c.png,,,,,,,,,,,,,,,,,,
891.8999999761581,,rt_thecrossant_black5,1537389,,,,,,,,black_plus_sign,,,50,,,1,,,,,,,1,,,,,,,,,,
null,,color_black5,1537498,,,,,,,,black_plus_sign,,,null,,,,,,,,,,,,,,,,,,,,
null,,learn_phase(without_color)5,1541006,,,,,,,,black_plus_sign,,,null,object_10a.png,object_10b.png,,,,,,,,,,,,,,,,,,
null,,black_cross(without_color)5,1541419,,,,,,,,green,,,null,object_10a.png,object_10b.png,,,,,,,,,,,,,,,,,,
null,,rt_plussign_withcolor5,1541924,,,,,,,,green,,,null,object_10a.png,object_10b.png,,,,,,,,,,,,,,,,,,
1400.7999999523163,,rt_thecrossant_black5,1543519,,,,,,,,black_plus_sign,,,50,,,1,,,,,,,1,,,,,,,,,,
null,,color_black5,1543629,,,,,,,,black_plus_sign,,,null,,,,,,,,,,,,,,,,,,,,
null,,learn_phase(without_color)5,1547139,,,,,,,,black_plus_sign,,,null,object_05a.png,object_08c.png,,,,,,,,,,,,,,,,,,
null,,black_cross(without_color)5,1548061,,,,,,,,green,,,null,object_05a.png,object_08c.png,,,,,,,,,,,,,,,,,,
null,,rt_plussign_withcolor5,1548564,,,,,,,,green,,,null,object_05a.png,object_08c.png,,,,,,,,,,,,,,,,,,
755.5,,rt_thecrossant_black5,1549660,,,,,,,,black_plus_sign,,,50,,,1,,,,,,,1,,,,,,,,,,
null,,color_black5,1549769,,,,,,,,black_plus_sign,,,null,,,,,,,,,,,,,,,,,,,,
null,,learn_phase(without_color)5,1553277,,,,,,,,black_plus_sign,,,null,object_09b.png,object_13a.png,,,,,,,,,,,,,,,,,,
null,,black_cross(without_color)5,1554230,,,,,,,,blue,,,null,object_09b.png,object_13a.png,,,,,,,,,,,,,,,,,,
null,,rt_plussign_withcolor5,1554733,,,,,,,,blue,,,null,object_09b.png,object_13a.png,,,,,,,,,,,,,,,,,,
1622,,rt_thecrossant_black5,1555797,,,,,,,,black_plus_sign,,,49,,,1,,,,,,,1,,,,,,,,,,
null,,color_black5,1555905,,,,,,,,black_plus_sign,,,null,,,,,,,,,,,,,,,,,,,,
null,,learn_phase(without_color)5,1559417,,,,,,,,black_plus_sign,,,null,object_15a.png,object_13c.png,,,,,,,,,,,,,,,,,,
null,,black_cross(without_color)5,1560224,,,,,,,,blue,,,null,object_15a.png,object_13c.png,,,,,,,,,,,,,,,,,,
null,,rt_plussign_withcolor5,1560734,,,,,,,,blue,,,null,object_15a.png,object_13c.png,,,,,,,,,,,,,,,,,,
1519.1999999284744,,rt_thecrossant_black5,1561948,,,,,,,,black_plus_sign,,,49,,,1,,,,,,,1,,,,,,,,,,
null,,color_black5,1562057,,,,,,,,black_plus_sign,,,null,,,,,,,,,,,,,,,,,,,,
null,,learn_phase(without_color)5,1565568,,,,,,,,black_plus_sign,,,null,object_02a.png,object_15b.png,,,,,,,,,,,,,,,,,,
null,,black_cross(without_color)5,1566032,,,,,,,,green,,,null,object_02a.png,object_15b.png,,,,,,,,,,,,,,,,,,
null,,rt_plussign_withcolor5,1566536,,,,,,,,green,,,null,object_02a.png,object_15b.png,,,,,,,,,,,,,,,,,,
1113,,rt_thecrossant_black5,1568083,,,,,,,,black_plus_sign,,,50,,,1,,,,,,,1,,,,,,,,,,
null,,color_black5,1568199,,,,,,,,black_plus_sign,,,null,,,,,,,,,,,,,,,,,,,,
null,,thebreak,1568309,,,,,,,,<p></p>,,,null,,,,,,,,,,,,,,,,,,,,
11445.700000047684,,intro_0,1579757,,,,,,,,instruct,,,32,,,,,,,,,,,,,,,,,,,,
4187.699999928474,,directmemory_phase5,1583946,,,,,,,,object_10a.png,,,51,,,1,,object_03b.png,object_15c.png,object_10b.png,object_10b.png,,0.9672131147540983,,1,,,,,,,,
10871.399999976158,,directmemory_phase5,1594822,,,,,,,,object_08c.png,,,49,,,1,,object_05a.png,object_02b.png,object_11a.png,object_05a.png,,0.967741935483871,,1,,,,,,,,
4980.600000023842,,directmemory_phase5,1599807,,,,,,,,object_05b.png,,,49,,,1,,object_03b.png,object_15b.png,object_02c.png,object_03b.png,,0.9682539682539683,,1,,,,,,,,
7413.300000071526,,directmemory_phase5,1607229,,,,,,,,object_13c.png,,,50,,,1,,object_01c.png,object_15a.png,object_14b.png,object_15a.png,,0.96875,,1,,,,,,,,
5493.599999904633,,directmemory_phase5,1612724,,,,,,,,object_14b.png,,,50,,,1,,object_09a.png,object_12b.png,object_13c.png,object_12b.png,,0.9692307692307692,,1,,,,,,,,
3610.399999976158,,directmemory_phase5,1616339,,,,,,,,object_02a.png,,,50,,,1,,object_05c.png,object_15b.png,object_08c.png,object_15b.png,,0.9696969696969697,,1,,,,,,,,
7354.600000023842,,directmemory_phase5,1623698,,,,,,,,object_06c.png,,,50,,,1,,object_14c.png,object_02b.png,object_05b.png,object_02b.png,,0.9701492537313433,,1,,,,,,,,
2306.0999999046326,,directmemory_phase5,1626008,,,,,,,,object_04a.png,,,50,,,1,,object_04c.png,object_11c.png,object_07a.png,object_11c.png,,0.9705882352941176,,1,,,,,,,,
2906.3000000715256,,directmemory_phase5,1628918,,,,,,,,object_06b.png,,,50,,,1,,object_06c.png,object_15c.png,object_02a.png,object_15c.png,,0.9710144927536232,,1,,,,,,,,
7332.099999904633,,directmemory_phase5,1636254,,,,,,,,object_13a.png,,,49,,,1,,object_09b.png,object_06b.png,object_11c.png,object_09b.png,,0.9714285714285714,,1,,,,,,,,
2635.3000000715256,,directmemory_phase5,1638893,,,,,,,,object_01c.png,,,50,,,1,,object_15c.png,object_04c.png,object_04a.png,object_04c.png,,0.971830985915493,,1,,,,,,,,
4268.899999976158,,directmemory_phase5,1643166,,,,,,,,object_05c.png,,,49,,,1,,object_11a.png,object_09a.png,object_02b.png,object_11a.png,,0.9722222222222222,,1,,,,,,,,
11190.100000023842,,directmemory_phase5,1654360,,,,,,,,object_14c.png,,,50,,,1,,object_09a.png,object_02c.png,object_12b.png,object_02c.png,,0.9726027397260274,,1,,,,,,,,
2976.600000023842,,directmemory_phase5,1657340,,,,,,,,object_09a.png,,,49,,,1,,object_07a.png,object_15c.png,object_14b.png,object_07a.png,,0.972972972972973,,1,,,,,,,,
2358.2999999523163,,directmemory_phase5,1659702,,,,,,,,object_01b.png,,,49,,,1,,object_11b.png,object_02b.png,object_04a.png,object_11b.png,,0.9733333333333334,,1,,,,,,,,
null,,thebreak,1659810,,,,,,,,<p></p>,,,null,,,,,,,,,,,,,,,,,,,,
49739.800000071526,,intro_0,1709552,,,,,,,,instruct,,,32,,,,,,,,,,,,,,,,,,,,
null,,learn_phase(without_color)6,1713055,,,,,,,,black_plus_sign,,,null,object_05c.png,object_11a.png,,,,,,,,,,,,,,,,,,
null,,black_cross(without_color)6,1713923,,,,,,,,green,,,null,object_05c.png,object_11a.png,,,,,,,,,,,,,,,,,,
null,,rt_plussign_withcolor6,1714427,,,,,,,,green,,,null,object_05c.png,object_11a.png,,,,,,,,,,,,,,,,,,
1263.7999999523163,,rt_thecrossant_black6,1715574,,,,,,,,black_plus_sign,,,50,,,1,,,,,,,1,,,,,,,,,,
null,,color_black6,1715682,,,,,,,,black_plus_sign,,,null,,,,,,,,,,,,,,,,,,,,
null,,learn_phase(without_color)6,1719194,,,,,,,,black_plus_sign,,,null,object_02b.png,object_06c.png,,,,,,,,,,,,,,,,,,
null,,black_cross(without_color)6,1720080,,,,,,,,blue,,,null,object_02b.png,object_06c.png,,,,,,,,,,,,,,,,,,
null,,rt_plussign_withcolor6,1720586,,,,,,,,blue,,,null,object_02b.png,object_06c.png,,,,,,,,,,,,,,,,,,
1270.1999999284744,,rt_thecrossant_black6,1721713,,,,,,,,black_plus_sign,,,49,,,1,,,,,,,1,,,,,,,,,,
null,,color_black6,1721823,,,,,,,,black_plus_sign,,,null,,,,,,,,,,,,,,,,,,,,
null,,learn_phase(without_color)6,1725332,,,,,,,,black_plus_sign,,,null,object_04c.png,object_01c.png,,,,,,,,,,,,,,,,,,
null,,black_cross(without_color)6,1725942,,,,,,,,green,,,null,object_04c.png,object_01c.png,,,,,,,,,,,,,,,,,,
null,,rt_plussign_withcolor6,1726449,,,,,,,,green,,,null,object_04c.png,object_01c.png,,,,,,,,,,,,,,,,,,
1455.7000000476837,,rt_thecrossant_black6,1727853,,,,,,,,black_plus_sign,,,50,,,1,,,,,,,1,,,,,,,,,,
null,,color_black6,1727962,,,,,,,,black_plus_sign,,,null,,,,,,,,,,,,,,,,,,,,
null,,learn_phase(without_color)6,1731469,,,,,,,,black_plus_sign,,,null,object_14c.png,object_02c.png,,,,,,,,,,,,,,,,,,
null,,black_cross(without_color)6,1731951,,,,,,,,green,,,null,object_14c.png,object_02c.png,,,,,,,,,,,,,,,,,,
null,,rt_plussign_withcolor6,1732457,,,,,,,,green,,,null,object_14c.png,object_02c.png,,,,,,,,,,,,,,,,,,
1058.3999999761581,,rt_thecrossant_black6,1733984,,,,,,,,black_plus_sign,,,50,,,1,,,,,,,1,,,,,,,,,,
null,,color_black6,1734090,,,,,,,,black_plus_sign,,,null,,,,,,,,,,,,,,,,,,,,
null,,learn_phase(without_color)6,1737609,,,,,,,,black_plus_sign,,,null,object_09b.png,object_13a.png,,,,,,,,,,,,,,,,,,
null,,black_cross(without_color)6,1738047,,,,,,,,green,,,null,object_09b.png,object_13a.png,,,,,,,,,,,,,,,,,,
null,,rt_plussign_withcolor6,1738552,,,,,,,,green,,,null,object_09b.png,object_13a.png,,,,,,,,,,,,,,,,,,
905.8999999761581,,rt_thecrossant_black6,1740127,,,,,,,,black_plus_sign,,,50,,,1,,,,,,,1,,,,,,,,,,
null,,color_black6,1740239,,,,,,,,black_plus_sign,,,null,,,,,,,,,,,,,,,,,,,,
null,,learn_phase(without_color)6,1743745,,,,,,,,black_plus_sign,,,null,object_13c.png,object_15a.png,,,,,,,,,,,,,,,,,,
null,,black_cross(without_color)6,1744832,,,,,,,,green,,,null,object_13c.png,object_15a.png,,,,,,,,,,,,,,,,,,
null,,rt_plussign_withcolor6,1745349,,,,,,,,green,,,null,object_13c.png,object_15a.png,,,,,,,,,,,,,,,,,,
801.6999999284744,,rt_thecrossant_black6,1746282,,,,,,,,black_plus_sign,,,50,,,1,,,,,,,1,,,,,,,,,,
null,,color_black6,1746389,,,,,,,,black_plus_sign,,,null,,,,,,,,,,,,,,,,,,,,
null,,learn_phase(without_color)6,1749893,,,,,,,,black_plus_sign,,,null,object_08c.png,object_05a.png,,,,,,,,,,,,,,,,,,
null,,black_cross(without_color)6,1750798,,,,,,,,green,,,null,object_08c.png,object_05a.png,,,,,,,,,,,,,,,,,,
null,,rt_plussign_withcolor6,1751307,,,,,,,,green,,,null,object_08c.png,object_05a.png,,,,,,,,,,,,,,,,,,
1380.7999999523163,,rt_thecrossant_black6,1752423,,,,,,,,black_plus_sign,,,50,,,1,,,,,,,1,,,,,,,,,,
null,,color_black6,1752531,,,,,,,,black_plus_sign,,,null,,,,,,,,,,,,,,,,,,,,
null,,learn_phase(without_color)6,1756047,,,,,,,,black_plus_sign,,,null,object_15b.png,object_02a.png,,,,,,,,,,,,,,,,,,
null,,black_cross(without_color)6,1756951,,,,,,,,green,,,null,object_15b.png,object_02a.png,,,,,,,,,,,,,,,,,,
null,,rt_plussign_withcolor6,1757457,,,,,,,,green,,,null,object_15b.png,object_02a.png,,,,,,,,,,,,,,,,,,
1226,,rt_thecrossant_black6,1758569,,,,,,,,black_plus_sign,,,50,,,1,,,,,,,1,,,,,,,,,,
null,,color_black6,1758677,,,,,,,,black_plus_sign,,,null,,,,,,,,,,,,,,,,,,,,
null,,learn_phase(without_color)6,1762195,,,,,,,,black_plus_sign,,,null,object_11b.png,object_01b.png,,,,,,,,,,,,,,,,,,
null,,black_cross(without_color)6,1763033,,,,,,,,blue,,,null,object_11b.png,object_01b.png,,,,,,,,,,,,,,,,,,
null,,rt_plussign_withcolor6,1763547,,,,,,,,blue,,,null,object_11b.png,object_01b.png,,,,,,,,,,,,,,,,,,
1317.1000000238419,,rt_thecrossant_black6,1764724,,,,,,,,black_plus_sign,,,49,,,1,,,,,,,1,,,,,,,,,,
null,,color_black6,1764834,,,,,,,,black_plus_sign,,,null,,,,,,,,,,,,,,,,,,,,
null,,learn_phase(without_color)6,1768347,,,,,,,,black_plus_sign,,,null,object_03b.png,object_05b.png,,,,,,,,,,,,,,,,,,
null,,black_cross(without_color)6,1768909,,,,,,,,green,,,null,object_03b.png,object_05b.png,,,,,,,,,,,,,,,,,,
null,,rt_plussign_withcolor6,1769415,,,,,,,,green,,,null,object_03b.png,object_05b.png,,,,,,,,,,,,,,,,,,
1226.1000000238419,,rt_thecrossant_black6,1770875,,,,,,,,black_plus_sign,,,50,,,1,,,,,,,1,,,,,,,,,,
null,,color_black6,1770984,,,,,,,,black_plus_sign,,,null,,,,,,,,,,,,,,,,,,,,
null,,learn_phase(without_color)6,1774496,,,,,,,,black_plus_sign,,,null,object_04a.png,object_11c.png,,,,,,,,,,,,,,,,,,
null,,black_cross(without_color)6,1775472,,,,,,,,blue,,,null,object_04a.png,object_11c.png,,,,,,,,,,,,,,,,,,
null,,rt_plussign_withcolor6,1775982,,,,,,,,blue,,,null,object_04a.png,object_11c.png,,,,,,,,,,,,,,,,,,
945,,rt_thecrossant_black6,1777035,,,,,,,,black_plus_sign,,,49,,,1,,,,,,,1,,,,,,,,,,
null,,color_black6,1777142,,,,,,,,black_plus_sign,,,null,,,,,,,,,,,,,,,,,,,,
null,,learn_phase(without_color)6,1780654,,,,,,,,black_plus_sign,,,null,object_06b.png,object_15c.png,,,,,,,,,,,,,,,,,,
null,,black_cross(without_color)6,1781564,,,,,,,,blue,,,null,object_06b.png,object_15c.png,,,,,,,,,,,,,,,,,,
null,,rt_plussign_withcolor6,1782069,,,,,,,,blue,,,null,object_06b.png,object_15c.png,,,,,,,,,,,,,,,,,,
1353.7999999523163,,rt_thecrossant_black6,1783181,,,,,,,,black_plus_sign,,,49,,,1,,,,,,,1,,,,,,,,,,
null,,color_black6,1783290,,,,,,,,black_plus_sign,,,null,,,,,,,,,,,,,,,,,,,,
null,,learn_phase(without_color)6,1786805,,,,,,,,black_plus_sign,,,null,object_10a.png,object_10b.png,,,,,,,,,,,,,,,,,,
null,,black_cross(without_color)6,1787690,,,,,,,,blue,,,null,object_10a.png,object_10b.png,,,,,,,,,,,,,,,,,,
null,,rt_plussign_withcolor6,1788206,,,,,,,,blue,,,null,object_10a.png,object_10b.png,,,,,,,,,,,,,,,,,,
1293.1999999284744,,rt_thecrossant_black6,1789342,,,,,,,,black_plus_sign,,,49,,,1,,,,,,,1,,,,,,,,,,
null,,color_black6,1789451,,,,,,,,black_plus_sign,,,null,,,,,,,,,,,,,,,,,,,,
null,,learn_phase(without_color)6,1792959,,,,,,,,black_plus_sign,,,null,object_14b.png,object_12b.png,,,,,,,,,,,,,,,,,,
null,,black_cross(without_color)6,1793648,,,,,,,,blue,,,null,object_14b.png,object_12b.png,,,,,,,,,,,,,,,,,,
null,,rt_plussign_withcolor6,1794154,,,,,,,,blue,,,null,object_14b.png,object_12b.png,,,,,,,,,,,,,,,,,,
1302.5,,rt_thecrossant_black6,1795477,,,,,,,,black_plus_sign,,,49,,,1,,,,,,,1,,,,,,,,,,
null,,color_black6,1795585,,,,,,,,black_plus_sign,,,null,,,,,,,,,,,,,,,,,,,,
null,,learn_phase(without_color)6,1799090,,,,,,,,black_plus_sign,,,null,object_07a.png,object_09a.png,,,,,,,,,,,,,,,,,,
null,,black_cross(without_color)6,1799884,,,,,,,,blue,,,null,object_07a.png,object_09a.png,,,,,,,,,,,,,,,,,,
null,,rt_plussign_withcolor6,1800391,,,,,,,,blue,,,null,object_07a.png,object_09a.png,,,,,,,,,,,,,,,,,,
1274.5,,rt_thecrossant_black6,1801617,,,,,,,,black_plus_sign,,,49,,,1,,,,,,,1,,,,,,,,,,
null,,color_black6,1801726,,,,,,,,black_plus_sign,,,null,,,,,,,,,,,,,,,,,,,,
null,,thebreak,1801835,,,,,,,,<p></p>,,,null,,,,,,,,,,,,,,,,,,,,
26169.799999952316,,intro_0,1828007,,,,,,,,instruct,,,32,,,,,,,,,,,,,,,,,,,,
5170.900000095367,,directmemory_phase6,1833181,,,,,,,,object_12b.png,,,51,,,1,,object_11a.png,object_02a.png,object_14b.png,object_14b.png,,0.9736842105263158,,1,,,,,,,,
5446.600000023842,,directmemory_phase6,1838632,,,,,,,,object_05a.png,,,50,,,1,,object_01c.png,object_08c.png,object_09a.png,object_08c.png,,0.974025974025974,,1,,,,,,,,
2404.6999999284744,,directmemory_phase6,1841040,,,,,,,,object_09b.png,,,51,,,1,,object_01c.png,object_06b.png,object_13a.png,object_13a.png,,0.9743589743589743,,1,,,,,,,,
3135.2000000476837,,directmemory_phase6,1844179,,,,,,,,object_11b.png,,,49,,,1,,object_01b.png,object_15a.png,object_10a.png,object_01b.png,,0.9746835443037974,,1,,,,,,,,
2616.399999976158,,directmemory_phase6,1846800,,,,,,,,object_09a.png,,,50,,,1,,object_06c.png,object_07a.png,object_12b.png,object_07a.png,,0.975,,1,,,,,,,,
5037.200000047684,,directmemory_phase6,1851841,,,,,,,,object_01c.png,,,51,,,1,,object_08c.png,object_07a.png,object_04c.png,object_04c.png,,0.9753086419753086,,1,,,,,,,,
4575.200000047684,,directmemory_phase6,1856421,,,,,,,,object_05c.png,,,51,,,1,,object_06b.png,object_02c.png,object_11a.png,object_11a.png,,0.975609756097561,,1,,,,,,,,
3370.3000000715256,,directmemory_phase6,1859795,,,,,,,,object_06b.png,,,50,,,1,,object_03b.png,object_15c.png,object_12b.png,object_15c.png,,0.9759036144578314,,1,,,,,,,,
4620.100000023842,,directmemory_phase6,1864419,,,,,,,,object_15b.png,,,51,,,1,,object_05c.png,object_06b.png,object_02a.png,object_02a.png,,0.9761904761904762,,1,,,,,,,,
2288.899999976158,,directmemory_phase6,1866712,,,,,,,,object_05b.png,,,50,,,1,,object_07a.png,object_03b.png,object_11a.png,object_03b.png,,0.9764705882352941,,1,,,,,,,,
5529.800000071526,,directmemory_phase6,1872246,,,,,,,,object_13c.png,,,50,,,1,,object_10a.png,object_15a.png,object_04c.png,object_15a.png,,0.9767441860465116,,1,,,,,,,,
3150.7999999523163,,directmemory_phase6,1875401,,,,,,,,object_02c.png,,,51,,,1,,object_04c.png,object_05c.png,object_14c.png,object_14c.png,,0.9770114942528736,,1,,,,,,,,
7080.599999904633,,directmemory_phase6,1882486,,,,,,,,object_06c.png,,,51,,,1,,object_13c.png,object_14b.png,object_02b.png,object_02b.png,,0.9772727272727273,,1,,,,,,,,
4561.800000071526,,directmemory_phase6,1887052,,,,,,,,object_10b.png,,,51,,,1,,object_02c.png,object_09a.png,object_10a.png,object_10a.png,,0.9775280898876404,,1,,,,,,,,
3939.5,,directmemory_phase6,1890996,,,,,,,,object_11c.png,,,49,,,1,,object_04a.png,object_06c.png,object_05a.png,object_04a.png,,0.9777777777777777,,1,,,,,,,,
null,,thebreak,1891107,,,,,,,,<p></p>,,,null,,,,,,,,,,,,,,,,,,,,
19815.299999952316,,intro_0,1910925,,,,,,,,instruct,,,32,,,,,,,,,,,,,,,,,,,,
null,,learn_phase(without_color)7,1914436,,,,,,,,black_plus_sign,,,null,object_11c.png,object_04a.png,,,,,,,,,,,,,,,,,,
null,,black_cross(without_color)7,1915502,,,,,,,,blue,,,null,object_11c.png,object_04a.png,,,,,,,,,,,,,,,,,,
null,,rt_plussign_withcolor7,1916019,,,,,,,,blue,,,null,object_11c.png,object_04a.png,,,,,,,,,,,,,,,,,,
1395.7000000476837,,rt_thecrossant_black7,1916971,,,,,,,,black_plus_sign,,,49,,,1,,,,,,,1,,,,,,,,,,
null,,color_black7,1917080,,,,,,,,black_plus_sign,,,null,,,,,,,,,,,,,,,,,,,,
null,,learn_phase(without_color)7,1920588,,,,,,,,black_plus_sign,,,null,object_03b.png,object_05b.png,,,,,,,,,,,,,,,,,,
null,,black_cross(without_color)7,1921229,,,,,,,,green,,,null,object_03b.png,object_05b.png,,,,,,,,,,,,,,,,,,
null,,rt_plussign_withcolor7,1921736,,,,,,,,green,,,null,object_03b.png,object_05b.png,,,,,,,,,,,,,,,,,,
1520.2999999523163,,rt_thecrossant_black7,1923122,,,,,,,,black_plus_sign,,,50,,,1,,,,,,,1,,,,,,,,,,
null,,color_black7,1923231,,,,,,,,black_plus_sign,,,null,,,,,,,,,,,,,,,,,,,,
null,,learn_phase(without_color)7,1926736,,,,,,,,black_plus_sign,,,null,object_08c.png,object_05a.png,,,,,,,,,,,,,,,,,,
null,,black_cross(without_color)7,1927624,,,,,,,,blue,,,null,object_08c.png,object_05a.png,,,,,,,,,,,,,,,,,,
null,,rt_plussign_withcolor7,1928130,,,,,,,,blue,,,null,object_08c.png,object_05a.png,,,,,,,,,,,,,,,,,,
1069.3999999761581,,rt_thecrossant_black7,1929269,,,,,,,,black_plus_sign,,,49,,,1,,,,,,,1,,,,,,,,,,
null,,color_black7,1929377,,,,,,,,black_plus_sign,,,null,,,,,,,,,,,,,,,,,,,,
null,,learn_phase(without_color)7,1932887,,,,,,,,black_plus_sign,,,null,object_01b.png,object_11b.png,,,,,,,,,,,,,,,,,,
null,,black_cross(without_color)7,1933995,,,,,,,,blue,,,null,object_01b.png,object_11b.png,,,,,,,,,,,,,,,,,,
null,,rt_plussign_withcolor7,1934510,,,,,,,,blue,,,null,object_01b.png,object_11b.png,,,,,,,,,,,,,,,,,,
1223.3999999761581,,rt_thecrossant_black7,1935415,,,,,,,,black_plus_sign,,,49,,,1,,,,,,,1,,,,,,,,,,
null,,color_black7,1935532,,,,,,,,black_plus_sign,,,null,,,,,,,,,,,,,,,,,,,,
null,,learn_phase(without_color)7,1939045,,,,,,,,black_plus_sign,,,null,object_13c.png,object_15a.png,,,,,,,,,,,,,,,,,,
null,,black_cross(without_color)7,1940042,,,,,,,,green,,,null,object_13c.png,object_15a.png,,,,,,,,,,,,,,,,,,
null,,rt_plussign_withcolor7,1940552,,,,,,,,green,,,null,object_13c.png,object_15a.png,,,,,,,,,,,,,,,,,,
1660.3000000715256,,rt_thecrossant_black7,1941577,,,,,,,,black_plus_sign,,,50,,,1,,,,,,,1,,,,,,,,,,
null,,color_black7,1941684,,,,,,,,black_plus_sign,,,null,,,,,,,,,,,,,,,,,,,,
null,,learn_phase(without_color)7,1945196,,,,,,,,black_plus_sign,,,null,object_14c.png,object_02c.png,,,,,,,,,,,,,,,,,,
null,,black_cross(without_color)7,1945881,,,,,,,,blue,,,null,object_14c.png,object_02c.png,,,,,,,,,,,,,,,,,,
null,,rt_plussign_withcolor7,1946390,,,,,,,,blue,,,null,object_14c.png,object_02c.png,,,,,,,,,,,,,,,,,,
1547.8999999761581,,rt_thecrossant_black7,1947731,,,,,,,,black_plus_sign,,,49,,,1,,,,,,,1,,,,,,,,,,
null,,color_black7,1947839,,,,,,,,black_plus_sign,,,null,,,,,,,,,,,,,,,,,,,,
null,,learn_phase(without_color)7,1951350,,,,,,,,black_plus_sign,,,null,object_02a.png,object_15b.png,,,,,,,,,,,,,,,,,,
null,,black_cross(without_color)7,1951805,,,,,,,,green,,,null,object_02a.png,object_15b.png,,,,,,,,,,,,,,,,,,
null,,rt_plussign_withcolor7,1952308,,,,,,,,green,,,null,object_02a.png,object_15b.png,,,,,,,,,,,,,,,,,,
1375.9000000953674,,rt_thecrossant_black7,1953869,,,,,,,,black_plus_sign,,,50,,,1,,,,,,,1,,,,,,,,,,
null,,color_black7,1953979,,,,,,,,black_plus_sign,,,null,,,,,,,,,,,,,,,,,,,,
null,,learn_phase(without_color)7,1957494,,,,,,,,black_plus_sign,,,null,object_10b.png,object_10a.png,,,,,,,,,,,,,,,,,,
null,,black_cross(without_color)7,1957977,,,,,,,,blue,,,null,object_10b.png,object_10a.png,,,,,,,,,,,,,,,,,,
null,,rt_plussign_withcolor7,1958488,,,,,,,,blue,,,null,object_10b.png,object_10a.png,,,,,,,,,,,,,,,,,,
873.8999999761581,,rt_thecrossant_black7,1960027,,,,,,,,black_plus_sign,,,49,,,1,,,,,,,1,,,,,,,,,,
null,,color_black7,1960135,,,,,,,,black_plus_sign,,,null,,,,,,,,,,,,,,,,,,,,
null,,learn_phase(without_color)7,1963650,,,,,,,,black_plus_sign,,,null,object_05c.png,object_11a.png,,,,,,,,,,,,,,,,,,
null,,black_cross(without_color)7,1964167,,,,,,,,blue,,,null,object_05c.png,object_11a.png,,,,,,,,,,,,,,,,,,
null,,rt_plussign_withcolor7,1964674,,,,,,,,blue,,,null,object_05c.png,object_11a.png,,,,,,,,,,,,,,,,,,
971.6000000238419,,rt_thecrossant_black7,1966185,,,,,,,,black_plus_sign,,,49,,,1,,,,,,,1,,,,,,,,,,
null,,color_black7,1966301,,,,,,,,black_plus_sign,,,null,,,,,,,,,,,,,,,,,,,,
null,,learn_phase(without_color)7,1969814,,,,,,,,black_plus_sign,,,null,object_07a.png,object_09a.png,,,,,,,,,,,,,,,,,,
null,,black_cross(without_color)7,1970246,,,,,,,,green,,,null,object_07a.png,object_09a.png,,,,,,,,,,,,,,,,,,
null,,rt_plussign_withcolor7,1970749,,,,,,,,green,,,null,object_07a.png,object_09a.png,,,,,,,,,,,,,,,,,,
1054.7000000476837,,rt_thecrossant_black7,1972339,,,,,,,,black_plus_sign,,,50,,,1,,,,,,,1,,,,,,,,,,
null,,color_black7,1972458,,,,,,,,black_plus_sign,,,null,,,,,,,,,,,,,,,,,,,,
null,,learn_phase(without_color)7,1975968,,,,,,,,black_plus_sign,,,null,object_12b.png,object_14b.png,,,,,,,,,,,,,,,,,,
null,,black_cross(without_color)7,1976876,,,,,,,,blue,,,null,object_12b.png,object_14b.png,,,,,,,,,,,,,,,,,,
null,,rt_plussign_withcolor7,1977393,,,,,,,,blue,,,null,object_12b.png,object_14b.png,,,,,,,,,,,,,,,,,,
793.3999999761581,,rt_thecrossant_black7,1978513,,,,,,,,black_plus_sign,,,49,,,1,,,,,,,1,,,,,,,,,,
null,,color_black7,1978622,,,,,,,,black_plus_sign,,,null,,,,,,,,,,,,,,,,,,,,
null,,learn_phase(without_color)7,1982131,,,,,,,,black_plus_sign,,,null,object_06b.png,object_15c.png,,,,,,,,,,,,,,,,,,
null,,black_cross(without_color)7,1982914,,,,,,,,blue,,,null,object_06b.png,object_15c.png,,,,,,,,,,,,,,,,,,
null,,rt_plussign_withcolor7,1983417,,,,,,,,blue,,,null,object_06b.png,object_15c.png,,,,,,,,,,,,,,,,,,
1092.2000000476837,,rt_thecrossant_black7,1984648,,,,,,,,black_plus_sign,,,49,,,1,,,,,,,1,,,,,,,,,,
null,,color_black7,1984755,,,,,,,,black_plus_sign,,,null,,,,,,,,,,,,,,,,,,,,
null,,learn_phase(without_color)7,1988261,,,,,,,,black_plus_sign,,,null,object_09b.png,object_13a.png,,,,,,,,,,,,,,,,,,
null,,black_cross(without_color)7,1988806,,,,,,,,green,,,null,object_09b.png,object_13a.png,,,,,,,,,,,,,,,,,,
null,,rt_plussign_withcolor7,1989312,,,,,,,,green,,,null,object_09b.png,object_13a.png,,,,,,,,,,,,,,,,,,
1159.6999999284744,,rt_thecrossant_black7,1990784,,,,,,,,black_plus_sign,,,50,,,1,,,,,,,1,,,,,,,,,,
null,,color_black7,1990892,,,,,,,,black_plus_sign,,,null,,,,,,,,,,,,,,,,,,,,
null,,learn_phase(without_color)7,1994400,,,,,,,,black_plus_sign,,,null,object_06c.png,object_02b.png,,,,,,,,,,,,,,,,,,
null,,black_cross(without_color)7,1995089,,,,,,,,green,,,null,object_06c.png,object_02b.png,,,,,,,,,,,,,,,,,,
null,,rt_plussign_withcolor7,1995591,,,,,,,,green,,,null,object_06c.png,object_02b.png,,,,,,,,,,,,,,,,,,
930.5,,rt_thecrossant_black7,1996926,,,,,,,,black_plus_sign,,,50,,,1,,,,,,,1,,,,,,,,,,
null,,color_black7,1997035,,,,,,,,black_plus_sign,,,null,,,,,,,,,,,,,,,,,,,,
null,,learn_phase(without_color)7,2000546,,,,,,,,black_plus_sign,,,null,object_04c.png,object_01c.png,,,,,,,,,,,,,,,,,,
null,,black_cross(without_color)7,2001202,,,,,,,,blue,,,null,object_04c.png,object_01c.png,,,,,,,,,,,,,,,,,,
null,,rt_plussign_withcolor7,2001708,,,,,,,,blue,,,null,object_04c.png,object_01c.png,,,,,,,,,,,,,,,,,,
1280.7000000476837,,rt_thecrossant_black7,2003075,,,,,,,,black_plus_sign,,,49,,,1,,,,,,,1,,,,,,,,,,
null,,color_black7,2003184,,,,,,,,black_plus_sign,,,null,,,,,,,,,,,,,,,,,,,,
null,,thebreak,2003294,,,,,,,,<p></p>,,,null,,,,,,,,,,,,,,,,,,,,
20262.100000023842,,intro_0,2023559,,,,,,,,instruct,,,32,,,,,,,,,,,,,,,,,,,,
3965.6999999284744,,directmemory_phase7,2027527,,,,,,,,object_15c.png,,,51,,,1,,object_14b.png,object_10a.png,object_06b.png,object_06b.png,,0.978021978021978,,1,,,,,,,,
2964.5999999046326,,directmemory_phase7,2030496,,,,,,,,object_04a.png,,,50,,,1,,object_14b.png,object_11c.png,object_01c.png,object_11c.png,,0.9782608695652174,,1,,,,,,,,
null,,directmemory_phase7,2045503,,,,,,,,object_14c.png,,,null,,,0,,object_05b.png,object_04a.png,object_02c.png,object_02c.png,,0.967741935483871,,0,,,,,,,,
null,,warning_page,2050510,,,,,,,,warning,,,null,,,,,,,,,,,,,,,,,,,,
5441.899999976158,,directmemory_phase7,2055954,,,,,,,,object_15b.png,,,51,,,1,,object_11b.png,object_14b.png,object_02a.png,object_02a.png,,0.9680851063829787,,1,,,,,,,,
3454.399999976158,,directmemory_phase7,2059415,,,,,,,,object_11b.png,,,50,,,1,,object_15c.png,object_01b.png,object_14b.png,object_01b.png,,0.968421052631579,,1,,,,,,,,
3159.5,,directmemory_phase7,2062578,,,,,,,,object_01c.png,,,50,,,1,,object_02b.png,object_04c.png,object_15a.png,object_04c.png,,0.96875,,1,,,,,,,,
2210.8000000715256,,directmemory_phase7,2064793,,,,,,,,object_10b.png,,,50,,,1,,object_06b.png,object_10a.png,object_05c.png,object_10a.png,,0.9690721649484536,,1,,,,,,,,
4705.399999976158,,directmemory_phase7,2069504,,,,,,,,object_06c.png,,,50,,,1,,object_15a.png,object_02b.png,object_12b.png,object_02b.png,,0.9693877551020408,,1,,,,,,,,
1924.8000000715256,,directmemory_phase7,2071433,,,,,,,,object_12b.png,,,51,,,1,,object_11a.png,object_05b.png,object_14b.png,object_14b.png,,0.9696969696969697,,1,,,,,,,,
1818.8000000715256,,directmemory_phase7,2073256,,,,,,,,object_09a.png,,,49,,,1,,object_07a.png,object_05b.png,object_14c.png,object_07a.png,,0.97,,1,,,,,,,,
3802.1999999284744,,directmemory_phase7,2077062,,,,,,,,object_03b.png,,,50,,,1,,object_04c.png,object_05b.png,object_02b.png,object_05b.png,,0.9702970297029703,,1,,,,,,,,
2567.600000023842,,directmemory_phase7,2079634,,,,,,,,object_15a.png,,,51,,,1,,object_05a.png,object_04c.png,object_13c.png,object_13c.png,,0.9705882352941176,,1,,,,,,,,
4882.899999976158,,directmemory_phase7,2084521,,,,,,,,object_09b.png,,,50,,,1,,object_14c.png,object_13a.png,object_10a.png,object_13a.png,,0.970873786407767,,1,,,,,,,,
6260.899999976158,,directmemory_phase7,2090786,,,,,,,,object_08c.png,,,51,,,1,,object_02a.png,object_04a.png,object_05a.png,object_05a.png,,0.9711538461538461,,1,,,,,,,,
2925,,directmemory_phase7,2093715,,,,,,,,object_05c.png,,,50,,,1,,object_02c.png,object_11a.png,object_08c.png,object_11a.png,,0.9714285714285714,,1,,,,,,,,
null,,thebreak,2093822,,,,,,,,<p></p>,,,null,,,,,,,,,,,,,,,,,,,,
22558.799999952316,,intro_0,2116383,,,,,,,,instruct,,,32,,,,,,,,,,,,,,,,,,,,
null,,learn_phase(without_color)8,2119893,,,,,,,,black_plus_sign,,,null,object_04a.png,object_11c.png,,,,,,,,,,,,,,,,,,
null,,black_cross(without_color)8,2120741,,,,,,,,blue,,,null,object_04a.png,object_11c.png,,,,,,,,,,,,,,,,,,
null,,rt_plussign_withcolor8,2121254,,,,,,,,blue,,,null,object_04a.png,object_11c.png,,,,,,,,,,,,,,,,,,
1070.7000000476837,,rt_thecrossant_black8,2122430,,,,,,,,black_plus_sign,,,49,,,1,,,,,,,1,,,,,,,,,,
null,,color_black8,2122540,,,,,,,,black_plus_sign,,,null,,,,,,,,,,,,,,,,,,,,
null,,learn_phase(without_color)8,2126054,,,,,,,,black_plus_sign,,,null,object_06b.png,object_15c.png,,,,,,,,,,,,,,,,,,
null,,black_cross(without_color)8,2126797,,,,,,,,blue,,,null,object_06b.png,object_15c.png,,,,,,,,,,,,,,,,,,
null,,rt_plussign_withcolor8,2127304,,,,,,,,blue,,,null,object_06b.png,object_15c.png,,,,,,,,,,,,,,,,,,
1158,,rt_thecrossant_black8,2128589,,,,,,,,black_plus_sign,,,49,,,1,,,,,,,1,,,,,,,,,,
null,,color_black8,2128696,,,,,,,,black_plus_sign,,,null,,,,,,,,,,,,,,,,,,,,
null,,learn_phase(without_color)8,2132209,,,,,,,,black_plus_sign,,,null,object_01c.png,object_04c.png,,,,,,,,,,,,,,,,,,
null,,black_cross(without_color)8,2133250,,,,,,,,blue,,,null,object_01c.png,object_04c.png,,,,,,,,,,,,,,,,,,
null,,rt_plussign_withcolor8,2133759,,,,,,,,blue,,,null,object_01c.png,object_04c.png,,,,,,,,,,,,,,,,,,
891.6999999284744,,rt_thecrossant_black8,2134736,,,,,,,,black_plus_sign,,,49,,,1,,,,,,,1,,,,,,,,,,
null,,color_black8,2134844,,,,,,,,black_plus_sign,,,null,,,,,,,,,,,,,,,,,,,,
null,,learn_phase(without_color)8,2138363,,,,,,,,black_plus_sign,,,null,object_05c.png,object_11a.png,,,,,,,,,,,,,,,,,,
null,,black_cross(without_color)8,2138823,,,,,,,,blue,,,null,object_05c.png,object_11a.png,,,,,,,,,,,,,,,,,,
null,,rt_plussign_withcolor8,2139330,,,,,,,,blue,,,null,object_05c.png,object_11a.png,,,,,,,,,,,,,,,,,,
1266.3999999761581,,rt_thecrossant_black8,2140895,,,,,,,,black_plus_sign,,,49,,,1,,,,,,,1,,,,,,,,,,
null,,color_black8,2141004,,,,,,,,black_plus_sign,,,null,,,,,,,,,,,,,,,,,,,,
null,,learn_phase(without_color)8,2144519,,,,,,,,black_plus_sign,,,null,object_13a.png,object_09b.png,,,,,,,,,,,,,,,,,,
null,,black_cross(without_color)8,2144952,,,,,,,,green,,,null,object_13a.png,object_09b.png,,,,,,,,,,,,,,,,,,
null,,rt_plussign_withcolor8,2145462,,,,,,,,green,,,null,object_13a.png,object_09b.png,,,,,,,,,,,,,,,,,,
1012.7999999523163,,rt_thecrossant_black8,2147058,,,,,,,,black_plus_sign,,,50,,,1,,,,,,,1,,,,,,,,,,
null,,color_black8,2147167,,,,,,,,black_plus_sign,,,null,,,,,,,,,,,,,,,,,,,,
null,,learn_phase(without_color)8,2150684,,,,,,,,black_plus_sign,,,null,object_14b.png,object_12b.png,,,,,,,,,,,,,,,,,,
null,,black_cross(without_color)8,2151573,,,,,,,,green,,,null,object_14b.png,object_12b.png,,,,,,,,,,,,,,,,,,
425.6999999284744,,rt_plussign_withcolor8,2152077,,,,,,,,green,,,50,object_14b.png,object_12b.png,,,,,,,,,,,,,,,,,,
null,,rt_thecrossant_black8,2153203,,,,,,,,black_plus_sign,,,null,,,1,,,,,,,1,,,,,,,,,,
null,,color_black8,2153310,,,,,,,,black_plus_sign,,,null,,,,,,,,,,,,,,,,,,,,
null,,learn_phase(without_color)8,2156824,,,,,,,,black_plus_sign,,,null,object_05a.png,object_08c.png,,,,,,,,,,,,,,,,,,
null,,black_cross(without_color)8,2157822,,,,,,,,blue,,,null,object_05a.png,object_08c.png,,,,,,,,,,,,,,,,,,
null,,rt_plussign_withcolor8,2158327,,,,,,,,blue,,,null,object_05a.png,object_08c.png,,,,,,,,,,,,,,,,,,
1321.3000000715256,,rt_thecrossant_black8,2159346,,,,,,,,black_plus_sign,,,49,,,1,,,,,,,1,,,,,,,,,,
null,,color_black8,2159463,,,,,,,,black_plus_sign,,,null,,,,,,,,,,,,,,,,,,,,
null,,learn_phase(without_color)8,2162972,,,,,,,,black_plus_sign,,,null,object_09a.png,object_07a.png,,,,,,,,,,,,,,,,,,
null,,black_cross(without_color)8,2163997,,,,,,,,green,,,null,object_09a.png,object_07a.png,,,,,,,,,,,,,,,,,,
null,,rt_plussign_withcolor8,2164504,,,,,,,,green,,,null,object_09a.png,object_07a.png,,,,,,,,,,,,,,,,,,
1505,,rt_thecrossant_black8,2165509,,,,,,,,black_plus_sign,,,50,,,1,,,,,,,1,,,,,,,,,,
null,,color_black8,2165618,,,,,,,,black_plus_sign,,,null,,,,,,,,,,,,,,,,,,,,
null,,learn_phase(without_color)8,2169138,,,,,,,,black_plus_sign,,,null,object_10a.png,object_10b.png,,,,,,,,,,,,,,,,,,
null,,black_cross(without_color)8,2169768,,,,,,,,green,,,null,object_10a.png,object_10b.png,,,,,,,,,,,,,,,,,,
null,,rt_plussign_withcolor8,2170272,,,,,,,,green,,,null,object_10a.png,object_10b.png,,,,,,,,,,,,,,,,,,
1403.8000000715256,,rt_thecrossant_black8,2171663,,,,,,,,black_plus_sign,,,50,,,1,,,,,,,1,,,,,,,,,,
null,,color_black8,2171773,,,,,,,,black_plus_sign,,,null,,,,,,,,,,,,,,,,,,,,
null,,learn_phase(without_color)8,2175282,,,,,,,,black_plus_sign,,,null,object_06c.png,object_02b.png,,,,,,,,,,,,,,,,,,
null,,black_cross(without_color)8,2175692,,,,,,,,blue,,,null,object_06c.png,object_02b.png,,,,,,,,,,,,,,,,,,
null,,rt_plussign_withcolor8,2176198,,,,,,,,blue,,,null,object_06c.png,object_02b.png,,,,,,,,,,,,,,,,,,
1143.3999999761581,,rt_thecrossant_black8,2177815,,,,,,,,black_plus_sign,,,49,,,1,,,,,,,1,,,,,,,,,,
null,,color_black8,2177923,,,,,,,,black_plus_sign,,,null,,,,,,,,,,,,,,,,,,,,
null,,learn_phase(without_color)8,2181438,,,,,,,,black_plus_sign,,,null,object_13c.png,object_15a.png,,,,,,,,,,,,,,,,,,
null,,black_cross(without_color)8,2182240,,,,,,,,green,,,null,object_13c.png,object_15a.png,,,,,,,,,,,,,,,,,,
null,,rt_plussign_withcolor8,2182744,,,,,,,,green,,,null,object_13c.png,object_15a.png,,,,,,,,,,,,,,,,,,
782.3000000715256,,rt_thecrossant_black8,2183958,,,,,,,,black_plus_sign,,,50,,,1,,,,,,,1,,,,,,,,,,
null,,color_black8,2184065,,,,,,,,black_plus_sign,,,null,,,,,,,,,,,,,,,,,,,,
null,,learn_phase(without_color)8,2187576,,,,,,,,black_plus_sign,,,null,object_02c.png,object_14c.png,,,,,,,,,,,,,,,,,,
null,,black_cross(without_color)8,2188046,,,,,,,,green,,,null,object_02c.png,object_14c.png,,,,,,,,,,,,,,,,,,
null,,rt_plussign_withcolor8,2188549,,,,,,,,green,,,null,object_02c.png,object_14c.png,,,,,,,,,,,,,,,,,,
1097.6999999284744,,rt_thecrossant_black8,2190099,,,,,,,,black_plus_sign,,,50,,,1,,,,,,,1,,,,,,,,,,
null,,color_black8,2190208,,,,,,,,black_plus_sign,,,null,,,,,,,,,,,,,,,,,,,,
null,,learn_phase(without_color)8,2193714,,,,,,,,black_plus_sign,,,null,object_05b.png,object_03b.png,,,,,,,,,,,,,,,,,,
null,,black_cross(without_color)8,2194668,,,,,,,,blue,,,null,object_05b.png,object_03b.png,,,,,,,,,,,,,,,,,,
null,,rt_plussign_withcolor8,2195172,,,,,,,,blue,,,null,object_05b.png,object_03b.png,,,,,,,,,,,,,,,,,,
810.8000000715256,,rt_thecrossant_black8,2196254,,,,,,,,black_plus_sign,,,49,,,1,,,,,,,1,,,,,,,,,,
null,,color_black8,2196363,,,,,,,,black_plus_sign,,,null,,,,,,,,,,,,,,,,,,,,
null,,learn_phase(without_color)8,2199875,,,,,,,,black_plus_sign,,,null,object_11b.png,object_01b.png,,,,,,,,,,,,,,,,,,
null,,black_cross(without_color)8,2200646,,,,,,,,green,,,null,object_11b.png,object_01b.png,,,,,,,,,,,,,,,,,,
null,,rt_plussign_withcolor8,2201158,,,,,,,,green,,,null,object_11b.png,object_01b.png,,,,,,,,,,,,,,,,,,
1401.3999999761581,,rt_thecrossant_black8,2202412,,,,,,,,black_plus_sign,,,50,,,1,,,,,,,1,,,,,,,,,,
null,,color_black8,2202521,,,,,,,,black_plus_sign,,,null,,,,,,,,,,,,,,,,,,,,
null,,learn_phase(without_color)8,2206032,,,,,,,,black_plus_sign,,,null,object_02a.png,object_15b.png,,,,,,,,,,,,,,,,,,
null,,black_cross(without_color)8,2206551,,,,,,,,green,,,null,object_02a.png,object_15b.png,,,,,,,,,,,,,,,,,,
null,,rt_plussign_withcolor8,2207054,,,,,,,,green,,,null,object_02a.png,object_15b.png,,,,,,,,,,,,,,,,,,
945.3999999761581,,rt_thecrossant_black8,2208555,,,,,,,,black_plus_sign,,,50,,,1,,,,,,,1,,,,,,,,,,
null,,color_black8,2208658,,,,,,,,black_plus_sign,,,null,,,,,,,,,,,,,,,,,,,,
null,,thebreak,2208767,,,,,,,,<p></p>,,,null,,,,,,,,,,,,,,,,,,,,
38894.300000071526,,intro_0,2247664,,,,,,,,instruct,,,32,,,,,,,,,,,,,,,,,,,,
3373.100000023842,,directmemory_phase8,2251040,,,,,,,,object_06b.png,,,51,,,1,,object_11c.png,object_04a.png,object_15c.png,object_15c.png,,0.9716981132075472,,1,,,,,,,,
5719.299999952316,,directmemory_phase8,2256764,,,,,,,,object_13c.png,,,49,,,1,,object_15a.png,object_06c.png,object_11b.png,object_15a.png,,0.9719626168224299,,1,,,,,,,,
2848.3000000715256,,directmemory_phase8,2259616,,,,,,,,object_01c.png,,,51,,,1,,object_09a.png,object_12b.png,object_04c.png,object_04c.png,,0.9722222222222222,,1,,,,,,,,
2204.100000023842,,directmemory_phase8,2261825,,,,,,,,object_09a.png,,,50,,,1,,object_04a.png,object_07a.png,object_13c.png,object_07a.png,,0.9724770642201835,,1,,,,,,,,
5969,,directmemory_phase8,2267798,,,,,,,,object_15b.png,,,49,,,1,,object_02a.png,object_15c.png,object_06b.png,object_02a.png,,0.9727272727272728,,1,,,,,,,,
2323.7999999523163,,directmemory_phase8,2270126,,,,,,,,object_04a.png,,,50,,,1,,object_14c.png,object_11c.png,object_05b.png,object_11c.png,,0.972972972972973,,1,,,,,,,,
2275.0999999046326,,directmemory_phase8,2272407,,,,,,,,object_12b.png,,,49,,,1,,object_14b.png,object_06b.png,object_05b.png,object_14b.png,,0.9732142857142857,,1,,,,,,,,
3104.899999976158,,directmemory_phase8,2275516,,,,,,,,object_06c.png,,,49,,,1,,object_02b.png,object_15c.png,object_09a.png,object_02b.png,,0.9734513274336283,,1,,,,,,,,
5217.399999976158,,directmemory_phase8,2280738,,,,,,,,object_14c.png,,,51,,,1,,object_15c.png,object_08c.png,object_02c.png,object_02c.png,,0.9736842105263158,,1,,,,,,,,
2561.7000000476837,,directmemory_phase8,2283304,,,,,,,,object_10a.png,,,51,,,1,,object_04c.png,object_02c.png,object_10b.png,object_10b.png,,0.9739130434782609,,1,,,,,,,,
4304.700000047684,,directmemory_phase8,2287612,,,,,,,,object_05c.png,,,49,,,1,,object_11a.png,object_04a.png,object_15c.png,object_11a.png,,0.9741379310344828,,1,,,,,,,,
2898.399999976158,,directmemory_phase8,2290515,,,,,,,,object_05a.png,,,50,,,1,,object_02b.png,object_08c.png,object_15b.png,object_08c.png,,0.9743589743589743,,1,,,,,,,,
6358.300000071526,,directmemory_phase8,2296877,,,,,,,,object_05b.png,,,49,,,0,,object_10a.png,object_03b.png,object_04a.png,object_03b.png,,0.9661016949152542,,0,,,,,,,,
2516.7999999523163,,directmemory_phase8,2299399,,,,,,,,object_09b.png,,,50,,,1,,object_06b.png,object_13a.png,object_11b.png,object_13a.png,,0.9663865546218487,,1,,,,,,,,
2663.7999999523163,,directmemory_phase8,2302067,,,,,,,,object_11b.png,,,50,,,1,,object_05b.png,object_01b.png,object_14c.png,object_01b.png,,0.9666666666666667,,1,,,,,,,,
null,,thebreak,2302171,,,,,,,,<p></p>,,,null,,,,,,,,,,,,,,,,,,,,
10280.400000095367,,intro_0,2312454,,,,,,,,instruct,,,32,,,,,,,,,,,,,,,,,,,,
19089,,intro_1,2331546,,,,,,,,instruct,,,32,,,,,,,,,,,,,,,,,,,,
15736.100000023842,,intro_2,2347284,,,,,,,,instruct,,,32,,,,,,,,,,,,,,,,,,,,
,,intro_3,2397498,,,,,,,,instruct,,,,,,,,,,,,,,,,,,,,,,,
14335.700000047684,,intro_4,2411837,,,,,,,,instruct,,,32,,,,,,,,,,,,,,,,,,,,
5684,,inference_phase,2417524,,,,,,,,object_13a.png,,,50,object_09c.png,object_07b.png,0,,,,,object_07b.png,,0,,,object_04a.png,,,,,,,
6725.399999976158,,inference_phase,2424255,,,,,,,,object_14a.png,,,51,object_04c.png,object_05c.png,0,,,,,object_07a.png,,0,,,object_07a.png,,,,,,,
4575.800000071526,,inference_phase,2428835,,,,,,,,object_04b.png,,,49,object_10b.png,object_07a.png,0,,,,,object_11b.png,,0,,,object_11b.png,,,,,,,
5727.600000023842,,inference_phase,2434568,,,,,,,,object_12c.png,,,50,object_06b.png,object_12b.png,0,,,,,object_12b.png,,0,,,object_11c.png,,,,,,,
6337.400000095367,,inference_phase,2440910,,,,,,,,object_02c.png,,,51,object_03c.png,object_01a.png,0,,,,,object_03c.png,,0,,,object_09a.png,,,,,,,
5093.5,,inference_phase,2446008,,,,,,,,object_11c.png,,,51,object_04b.png,object_10b.png,0,,,,,object_03a.png,,0,,,object_03a.png,,,,,,,
3932.899999976158,,inference_phase,2449945,,,,,,,,object_12a.png,,,51,object_15c.png,object_02b.png,0,,,,,object_15c.png,,0,,,object_15a.png,,,,,,,
4680.200000047684,,inference_phase,2454630,,,,,,,,object_13c.png,,,50,object_06a.png,object_03c.png,0,,,,,object_06a.png,,0,,,object_06c.png,,,,,,,
3573.1999999284744,,inference_phase,2458208,,,,,,,,object_08b.png,,,51,object_10a.png,object_05c.png,0,,,,,object_10a.png,,0,,,object_04c.png,,,,,,,
4647.299999952316,,inference_phase,2462860,,,,,,,,object_01a.png,,,49,object_05c.png,object_15c.png,1,,,,,object_05c.png,,0.1,,,object_04c.png,,,,,,,
4614.300000071526,,inference_phase,2467479,,,,,,,,object_09c.png,,,51,object_05b.png,object_07a.png,0,,,,,object_05b.png,,0.09090909090909091,,,object_14c.png,,,,,,,
5304.799999952316,,inference_phase,2472789,,,,,,,,object_05a.png,,,50,object_01a.png,object_15a.png,1,,,,,object_08a.png,,0.16666666666666666,,,object_08a.png,,,,,,,
2558.2000000476837,,inference_phase,2475351,,,,,,,,object_13b.png,,,49,object_03b.png,object_02b.png,0,,,,,object_02b.png,,0.15384615384615385,,,object_15c.png,,,,,,,
5931.299999952316,,inference_phase,2481287,,,,,,,,object_07c.png,,,49,object_04c.png,object_02a.png,0,,,,,object_02a.png,,0.14285714285714285,,,object_11c.png,,,,,,,
4836.600000023842,,inference_phase,2486127,,,,,,,,object_10c.png,,,51,object_10b.png,object_11c.png,0,,,,,object_01c.png,,0.13333333333333333,,,object_01c.png,,,,,,,
,,survey,2627925,,,,,,,,survey-questions,,,,,,,,,,,,,,,,,none,high,NO,I was in one sitting during the task.,They were all the same,NO,
