rt,responses,trial_type,time_elapsed,identifier_a,identifier_b,identifier_c,tasktype,browser_type,local_time,UTC_time,stimulus,button_pressed,response,key_press,stimulus_left,stimulus_right,practice_cumulative_accuracy,accuracy,stimulus_down_left,stimulus_down_mid,stimulus_down_right,stimulus_correct,prac_weighted_accuracy,cumulative_accuracy,failed_practice,weighted_accuracy,stimulus_middle,problems,smooth,distraction,strategies,easier,similar,comments
12021.40000000596,{worker_id:628f7e982aad1788d940317a},id_enter,12026,object_08a.png; object_15c.png; object_04b.png; object_13a.png; object_06b.png; object_12a.png; object_10c.png; object_14c.png; object_02b.png; object_13c.png; object_09b.png; object_15b.png; object_06c.png; object_15a.png; object_01a.png,object_01c.png; object_05c.png; object_14a.png; object_06a.png; object_04a.png; object_12c.png; object_13b.png; object_07c.png; object_10b.png; object_03c.png; object_05a.png; object_10a.png; object_02c.png; object_12b.png; object_14b.png,object_01b.png; object_07b.png; object_11b.png; object_02a.png; object_09a.png; object_07a.png; object_04c.png; object_11c.png; object_09c.png; object_11a.png; object_08b.png; object_03a.png; object_05b.png; object_03b.png; object_08c.png,interleaved,Mozilla/5.0 (Windows NT 10.0; Win64; x64) AppleWebKit/537.36 (KHTML, like Gecko) Chrome/135.0.0.0 Safari/537.36,5/8/2025, 2:10:53 PM,2025-05-08 19:10:53.877,,,,,,,,,,,,,,,,,,,,,,,,
33108.40000000596,,make_fullscreen,45143,,,,,,,,fullscreen,0,,,,,,,,,,,,,,,,,,,,,,
5992.5999999940395,,instruct_1,51174,,,,,,,,instruct,0,Next,,,,,,,,,,,,,,,,,,,,,
23724.69999998808,,instruct_2,74902,,,,,,,,instruct,1,Next,,,,,,,,,,,,,,,,,,,,,
8615.300000011921,,instruct_3,83518,,,,,,,,instruct,1,Next,,,,,,,,,,,,,,,,,,,,,
24638.59999999404,,instruct_4,108158,,,,,,,,instruct,1,Next,,,,,,,,,,,,,,,,,,,,,
17510.30000001192,,instruct_5,125670,,,,,,,,instruct,1,Next,,,,,,,,,,,,,,,,,,,,,
26494.90000000596,,instruct_6,152166,,,,,,,,instruct,1,Next,,,,,,,,,,,,,,,,,,,,,
44766.59999999404,,instruct_7,196934,,,,,,,,instruct,1,Next,,,,,,,,,,,,,,,,,,,,,
null,,prac_atten_color_black,197297,,,,,,,,black_plus_sign,,,null,,,,,,,,,,,,,,,,,,,,
null,,prac_atten_color,198337,,,,,,,,<p style='position:absolute;top: 50%;right: 50%;transform: translate(50%, -50%);font-size: 125px;color: blue;'>+</p>,,,null,,,,,,,,,,,,,,,,,,,,
null,,prac_atten_color_black,200338,,,,,,,,black_plus_sign,,,null,,,,,,,,,,,,,,,,,,,,
7801,,attentioncheck_help,208141,,,,,,,,instruct,,,32,,,,,,,,,,,,,,,,,,,,
null,,prac_atten_color_black,208504,,,,,,,,black_plus_sign,,,null,,,,,,,,,,,,,,,,,,,,
null,,prac_atten_color,208930,,,,,,,,<p style='position:absolute;top: 50%;right: 50%;transform: translate(50%, -50%);font-size: 125px;color: green;'>+</p>,,,null,,,,,,,,,,,,,,,,,,,,
353,,prac_atten_color_black,210932,,,,,,,,black_plus_sign,,,49,,,,,,,,,,,,,,,,,,,,
8559.09999999404,,attentioncheck_help,219492,,,,,,,,instruct,,,32,,,,,,,,,,,,,,,,,,,,
null,,prac_atten_color_black,220471,,,,,,,,black_plus_sign,,,null,,,,,,,,,,,,,,,,,,,,
null,,prac_atten_color,221107,,,,,,,,<p style='position:absolute;top: 50%;right: 50%;transform: translate(50%, -50%);font-size: 125px;color: green;'>+</p>,,,null,,,,,,,,,,,,,,,,,,,,
752,,prac_atten_color_black,223109,,,,,,,,black_plus_sign,,,50,,,,,,,,,,,,,,,,,,,,
null,,prac_atten_color_black,223876,,,,,,,,black_plus_sign,,,null,,,,,,,,,,,,,,,,,,,,
null,,prac_atten_color,224569,,,,,,,,<p style='position:absolute;top: 50%;right: 50%;transform: translate(50%, -50%);font-size: 125px;color: blue;'>+</p>,,,null,,,,,,,,,,,,,,,,,,,,
1330.699999988079,,prac_atten_color_black,226570,,,,,,,,black_plus_sign,,,49,,,,,,,,,,,,,,,,,,,,
null,,prac_atten_color_black,227281,,,,,,,,black_plus_sign,,,null,,,,,,,,,,,,,,,,,,,,
729.4000000059605,,prac_atten_color,228166,,,,,,,,<p style='position:absolute;top: 50%;right: 50%;transform: translate(50%, -50%);font-size: 125px;color: green;'>+</p>,,,50,,,,,,,,,,,,,,,,,,,,
null,,prac_atten_color_black,230167,,,,,,,,black_plus_sign,,,null,,,,,,,,,,,,,,,,,,,,
null,,prac_atten_color_black,230686,,,,,,,,black_plus_sign,,,null,,,,,,,,,,,,,,,,,,,,
717,,prac_atten_color,231419,,,,,,,,<p style='position:absolute;top: 50%;right: 50%;transform: translate(50%, -50%);font-size: 125px;color: green;'>+</p>,,,50,,,,,,,,,,,,,,,,,,,,
null,,prac_atten_color_black,233420,,,,,,,,black_plus_sign,,,null,,,,,,,,,,,,,,,,,,,,
null,,prac_atten_color_black,234091,,,,,,,,black_plus_sign,,,null,,,,,,,,,,,,,,,,,,,,
864.6000000238419,,prac_atten_color,235111,,,,,,,,<p style='position:absolute;top: 50%;right: 50%;transform: translate(50%, -50%);font-size: 125px;color: blue;'>+</p>,,,49,,,,,,,,,,,,,,,,,,,,
null,,prac_atten_color_black,237112,,,,,,,,black_plus_sign,,,null,,,,,,,,,,,,,,,,,,,,
null,,prac_atten_color_black,237495,,,,,,,,black_plus_sign,,,null,,,,,,,,,,,,,,,,,,,,
620.4000000059605,,prac_atten_color,238274,,,,,,,,<p style='position:absolute;top: 50%;right: 50%;transform: translate(50%, -50%);font-size: 125px;color: green;'>+</p>,,,50,,,,,,,,,,,,,,,,,,,,
null,,prac_atten_color_black,240275,,,,,,,,black_plus_sign,,,null,,,,,,,,,,,,,,,,,,,,
null,,prac_atten_color_black,240899,,,,,,,,black_plus_sign,,,null,,,,,,,,,,,,,,,,,,,,
null,,prac_atten_color,241395,,,,,,,,<p style='position:absolute;top: 50%;right: 50%;transform: translate(50%, -50%);font-size: 125px;color: blue;'>+</p>,,,null,,,,,,,,,,,,,,,,,,,,
1000.2999999821186,,prac_atten_color_black,243396,,,,,,,,black_plus_sign,,,49,,,,,,,,,,,,,,,,,,,,
null,,prac_atten_color_black,244304,,,,,,,,black_plus_sign,,,null,,,,,,,,,,,,,,,,,,,,
803.2999999821186,,prac_atten_color,245344,,,,,,,,<p style='position:absolute;top: 50%;right: 50%;transform: translate(50%, -50%);font-size: 125px;color: blue;'>+</p>,,,49,,,,,,,,,,,,,,,,,,,,
null,,prac_atten_color_black,247346,,,,,,,,black_plus_sign,,,null,,,,,,,,,,,,,,,,,,,,
12178.40000000596,,attentioncheck_feedback,259525,,,,,,,,cross_check_feedback,0,,,,,,,,,,,,,,,,,,,,,,
12933.59999999404,,last_instruct,272460,,,,,,,,instruct,,,32,,,,,,,,,,,,,,,,,,,,
null,,prac_learn_phase(without_color),275961,,,,,,,,black_plus_sign,,,null,object_02b.png,object_10b.png,,,,,,,,,,,,,,,,,,
null,,prac_black_cross(without_color),276958,,,,,,,,blue,,,null,object_02b.png,object_10b.png,,,,,,,,,,,,,,,,,,
null,,prac_rt_plussign_withcolor,277459,,,,,,,,blue,,,null,object_02b.png,object_10b.png,,,,,,,,,,,,,,,,,,
null,,prac_rt_thecrossant_black,278466,,,,,,,,black_plus_sign,,,null,,,NaN,,,,,,,,,,,,,,,,,
null,,prac_color_black,278567,,,,,,,,black_plus_sign,,,null,,,,,,,,,,,,,,,,,,,,
null,,prac_learn_phase(without_color),282069,,,,,,,,black_plus_sign,,,null,object_06b.png,object_04a.png,,,,,,,,,,,,,,,,,,
null,,black_cross(without_color)1,283130,,,,,,,,blue,,,null,object_02b.png,object_10b.png,,,,,,,,,,,,,,,,,,
null,,prac_rt_plussign_withcolor,283631,,,,,,,,green,,,null,object_06b.png,object_04a.png,,,,,,,,,,,,,,,,,,
1098.800000011921,,prac_rt_thecrossant_black,285126,,,,,,,,black_plus_sign,,,50,,,1,1,,,,,,,,,,,,,,,,
null,,prac_color_black,285228,,,,,,,,black_plus_sign,,,null,,,,,,,,,,,,,,,,,,,,
null,,prac_learn_phase(without_color),288731,,,,,,,,black_plus_sign,,,null,object_08a.png,object_01c.png,,,,,,,,,,,,,,,,,,
null,,black_cross(without_color)1,289791,,,,,,,,blue,,,null,object_02b.png,object_10b.png,,,,,,,,,,,,,,,,,,
null,,prac_rt_plussign_withcolor,290292,,,,,,,,green,,,null,object_08a.png,object_01c.png,,,,,,,,,,,,,,,,,,
749,,prac_rt_thecrossant_black,291496,,,,,,,,black_plus_sign,,,50,,,1,1,,,,,,,,,,,,,,,,
null,,prac_color_black,291597,,,,,,,,black_plus_sign,,,null,,,,,,,,,,,,,,,,,,,,
null,,prac_learn_phase(without_color),295099,,,,,,,,black_plus_sign,,,null,object_13c.png,object_03c.png,,,,,,,,,,,,,,,,,,
null,,black_cross(without_color)1,296160,,,,,,,,blue,,,null,object_02b.png,object_10b.png,,,,,,,,,,,,,,,,,,
null,,prac_rt_plussign_withcolor,296662,,,,,,,,blue,,,null,object_13c.png,object_03c.png,,,,,,,,,,,,,,,,,,
1198,,prac_rt_thecrossant_black,297598,,,,,,,,black_plus_sign,,,50,,,0.6666666666666666,0,,,,,,,,,,,,,,,,
null,,prac_color_black,297699,,,,,,,,black_plus_sign,,,null,,,,,,,,,,,,,,,,,,,,
21512.80000001192,,instruct_dir_01,319213,,,,,,,,instruct,0,Next,,,,,,,,,,,,,,,,,,,,,
11886.59999999404,,instruct_dir_2,331101,,,,,,,,instruct,1,Next,,,,,,,,,,,,,,,,,,,,,
12470.699999988079,,instruct_dir_3,343573,,,,,,,,instruct,1,Next,,,,,,,,,,,,,,,,,,,,,
15502.799999982119,,instruct_dir_4,359077,,,,,,,,instruct,1,Start,,,,,,,,,,,,,,,,,,,,,
null,,thebreak,359178,,,,,,,,<p></p>,,,null,,,,,,,,,,,,,,,,,,,,
2000.300000011921,,intro_0,361179,,,,,,,,instruct,,,32,,,,,,,,,,,,,,,,,,,,
4943.300000011921,,prac_directmemory_phase,366123,,,,,,,,practice/object_04b.png,,,49,,,,1,practice/object_04a.png,practice/object_02a.png,practice/object_01a.png,practice/object_04a.png,1,1,,,,,,,,,,
4902.4000000059605,,prac_directmemory_phase,371027,,,,,,,,practice/object_02b.png,,,49,,,,0,practice/object_01a.png,practice/object_02a.png,practice/object_03a.png,practice/object_02a.png,0,0.5,,,,,,,,,,
3054.5,,prac_directmemory_phase,374083,,,,,,,,practice/object_01b.png,,,50,,,,1,practice/object_04a.png,practice/object_01a.png,practice/object_02a.png,practice/object_01a.png,1,0.6666666666666666,,,,,,,,,,
3143,,prac_directmemory_phase,377227,,,,,,,,practice/object_03b.png,,,49,,,,0,practice/object_04a.png,practice/object_03a.png,practice/object_02a.png,practice/object_03a.png,0,0.5,,,,,,,,,,
9768.40000000596,,practice_feedback_force_restart,386997,,,,,,,,practice_feedback,0,,,,,,,,,,,,,1,,,,,,,,,
11333.299999982119,,last_instruct,398331,,,,,,,,instruct,,,32,,,,,,,,,,,,,,,,,,,,
null,,prac_learn_phase(without_color),401832,,,,,,,,black_plus_sign,,,null,object_02b.png,object_10b.png,,,,,,,,,,,,,,,,,,
null,,prac_black_cross(without_color),402377,,,,,,,,blue,,,null,object_02b.png,object_10b.png,,,,,,,,,,,,,,,,,,
null,,prac_rt_plussign_withcolor,402879,,,,,,,,blue,,,null,object_02b.png,object_10b.png,,,,,,,,,,,,,,,,,,
null,,prac_rt_thecrossant_black,404337,,,,,,,,black_plus_sign,,,null,,,0.6666666666666666,,,,,,,,,,,,,,,,,
null,,warning_page,409338,,,,,,,,warning,,,null,,,,,,,,,,,,,,,,,,,,
null,,prac_color_black,409440,,,,,,,,black_plus_sign,,,null,,,,,,,,,,,,,,,,,,,,
null,,prac_learn_phase(without_color),412941,,,,,,,,black_plus_sign,,,null,object_06b.png,object_04a.png,,,,,,,,,,,,,,,,,,
null,,black_cross(without_color)1,414002,,,,,,,,blue,,,null,object_02b.png,object_10b.png,,,,,,,,,,,,,,,,,,
null,,prac_rt_plussign_withcolor,414504,,,,,,,,green,,,null,object_06b.png,object_04a.png,,,,,,,,,,,,,,,,,,
1189.5999999940395,,prac_rt_thecrossant_black,415444,,,,,,,,black_plus_sign,,,50,,,0.75,1,,,,,,,,,,,,,,,,
null,,prac_color_black,415545,,,,,,,,black_plus_sign,,,null,,,,,,,,,,,,,,,,,,,,
null,,prac_learn_phase(without_color),419047,,,,,,,,black_plus_sign,,,null,object_08a.png,object_01c.png,,,,,,,,,,,,,,,,,,
null,,black_cross(without_color)1,420110,,,,,,,,blue,,,null,object_02b.png,object_10b.png,,,,,,,,,,,,,,,,,,
null,,prac_rt_plussign_withcolor,420612,,,,,,,,green,,,null,object_08a.png,object_01c.png,,,,,,,,,,,,,,,,,,
1422.6000000238419,,prac_rt_thecrossant_black,421987,,,,,,,,black_plus_sign,,,50,,,0.8,1,,,,,,,,,,,,,,,,
null,,prac_color_black,422089,,,,,,,,black_plus_sign,,,null,,,,,,,,,,,,,,,,,,,,
null,,prac_learn_phase(without_color),425591,,,,,,,,black_plus_sign,,,null,object_13c.png,object_03c.png,,,,,,,,,,,,,,,,,,
null,,black_cross(without_color)1,426652,,,,,,,,blue,,,null,object_02b.png,object_10b.png,,,,,,,,,,,,,,,,,,
null,,prac_rt_plussign_withcolor,427153,,,,,,,,blue,,,null,object_13c.png,object_03c.png,,,,,,,,,,,,,,,,,,
1071.699999988079,,prac_rt_thecrossant_black,428634,,,,,,,,black_plus_sign,,,49,,,0.8333333333333334,1,,,,,,,,,,,,,,,,
null,,prac_color_black,428736,,,,,,,,black_plus_sign,,,null,,,,,,,,,,,,,,,,,,,,
9106.700000017881,,instruct_dir_01,437844,,,,,,,,instruct,0,Next,,,,,,,,,,,,,,,,,,,,,
1926.9000000059605,,instruct_dir_2,439772,,,,,,,,instruct,1,Next,,,,,,,,,,,,,,,,,,,,,
1335,,instruct_dir_3,441108,,,,,,,,instruct,1,Next,,,,,,,,,,,,,,,,,,,,,
6087.0999999940395,,instruct_dir_4,447196,,,,,,,,instruct,1,Start,,,,,,,,,,,,,,,,,,,,,
null,,thebreak,447297,,,,,,,,<p></p>,,,null,,,,,,,,,,,,,,,,,,,,
1641.0999999940395,,intro_0,448938,,,,,,,,instruct,,,32,,,,,,,,,,,,,,,,,,,,
2311,,prac_directmemory_phase,451250,,,,,,,,practice/object_04b.png,,,49,,,,1,practice/object_04a.png,practice/object_02a.png,practice/object_01a.png,practice/object_04a.png,1,1,,,,,,,,,,
3710.699999988079,,prac_directmemory_phase,454962,,,,,,,,practice/object_02b.png,,,50,,,,1,practice/object_01a.png,practice/object_02a.png,practice/object_03a.png,practice/object_02a.png,1,1,,,,,,,,,,
2358.5999999940395,,prac_directmemory_phase,457323,,,,,,,,practice/object_01b.png,,,50,,,,1,practice/object_04a.png,practice/object_01a.png,practice/object_02a.png,practice/object_01a.png,1,1,,,,,,,,,,
2214.5999999940395,,prac_directmemory_phase,459539,,,,,,,,practice/object_03b.png,,,49,,,,0,practice/object_04a.png,practice/object_03a.png,practice/object_02a.png,practice/object_03a.png,0,0.75,,,,,,,,,,
7000.399999976158,,practice_feedback,466540,,,,,,,,practice_feedback,1,,,,,,,,,,,,,,,,,,,,,,
9702.600000023842,,proceed_actualTask,476244,,,,,,,,proceed_actualTask,1,Continue,,,,,,,,,,,,,,,,,,,,,
13197.40000000596,,last_inst,489442,,,,,,,,last_inst,,,32,,,,,,,,,,,,,,,,,,,,
null,,learn_phase(without_color)1,492944,,,,,,,,black_plus_sign,,,null,object_02b.png,object_10b.png,,,,,,,,,,,,,,,,,,
null,,black_cross(without_color)1,494005,,,,,,,,blue,,,null,object_02b.png,object_10b.png,,,,,,,,,,,,,,,,,,
null,,rt_plussign_withcolor1,494506,,,,,,,,blue,,,null,object_02b.png,object_10b.png,,,,,,,,,,,,,,,,,,
1236.1000000238419,,rt_thecrossant_black1,495449,,,,,,,,black_plus_sign,,,49,,,,1,,,,,,1,,,,,,,,,,
null,,color_black1,495551,,,,,,,,black_plus_sign,,,null,,,,,,,,,,,,,,,,,,,,
null,,learn_phase(without_color)1,499053,,,,,,,,black_plus_sign,,,null,object_06b.png,object_04a.png,,,,,,,,,,,,,,,,,,
null,,black_cross(without_color)1,499942,,,,,,,,green,,,null,object_06b.png,object_04a.png,,,,,,,,,,,,,,,,,,
null,,rt_plussign_withcolor1,500443,,,,,,,,green,,,null,object_06b.png,object_04a.png,,,,,,,,,,,,,,,,,,
1449.9000000059605,,rt_thecrossant_black1,501557,,,,,,,,black_plus_sign,,,50,,,,1,,,,,,1,,,,,,,,,,
null,,color_black1,501660,,,,,,,,black_plus_sign,,,null,,,,,,,,,,,,,,,,,,,,
null,,learn_phase(without_color)1,505162,,,,,,,,black_plus_sign,,,null,object_08a.png,object_01c.png,,,,,,,,,,,,,,,,,,
null,,black_cross(without_color)1,505722,,,,,,,,green,,,null,object_08a.png,object_01c.png,,,,,,,,,,,,,,,,,,
495,,rt_plussign_withcolor1,506223,,,,,,,,green,,,50,object_08a.png,object_01c.png,,,,,,,,,,,,,,,,,,
null,,rt_thecrossant_black1,507666,,,,,,,,black_plus_sign,,,null,,,,1,,,,,,1,,,,,,,,,,
null,,color_black1,507767,,,,,,,,black_plus_sign,,,null,,,,,,,,,,,,,,,,,,,,
null,,learn_phase(without_color)1,511269,,,,,,,,black_plus_sign,,,null,object_13c.png,object_03c.png,,,,,,,,,,,,,,,,,,
null,,black_cross(without_color)1,511677,,,,,,,,green,,,null,object_13c.png,object_03c.png,,,,,,,,,,,,,,,,,,
null,,rt_plussign_withcolor1,512178,,,,,,,,green,,,null,object_13c.png,object_03c.png,,,,,,,,,,,,,,,,,,
874.6000000238419,,rt_thecrossant_black1,513773,,,,,,,,black_plus_sign,,,50,,,,1,,,,,,1,,,,,,,,,,
null,,color_black1,513876,,,,,,,,black_plus_sign,,,null,,,,,,,,,,,,,,,,,,,,
null,,learn_phase(without_color)1,517377,,,,,,,,black_plus_sign,,,null,object_12b.png,object_03b.png,,,,,,,,,,,,,,,,,,
null,,black_cross(without_color)1,518321,,,,,,,,blue,,,null,object_12b.png,object_03b.png,,,,,,,,,,,,,,,,,,
null,,rt_plussign_withcolor1,518822,,,,,,,,blue,,,null,object_12b.png,object_03b.png,,,,,,,,,,,,,,,,,,
1012.5,,rt_thecrossant_black1,519882,,,,,,,,black_plus_sign,,,49,,,,1,,,,,,1,,,,,,,,,,
null,,color_black1,519984,,,,,,,,black_plus_sign,,,null,,,,,,,,,,,,,,,,,,,,
null,,learn_phase(without_color)1,523486,,,,,,,,black_plus_sign,,,null,object_05a.png,object_08b.png,,,,,,,,,,,,,,,,,,
null,,black_cross(without_color)1,523958,,,,,,,,green,,,null,object_05a.png,object_08b.png,,,,,,,,,,,,,,,,,,
null,,rt_plussign_withcolor1,524459,,,,,,,,green,,,null,object_05a.png,object_08b.png,,,,,,,,,,,,,,,,,,
1376,,rt_thecrossant_black1,526004,,,,,,,,black_plus_sign,,,50,,,,1,,,,,,1,,,,,,,,,,
null,,color_black1,526107,,,,,,,,black_plus_sign,,,null,,,,,,,,,,,,,,,,,,,,
null,,learn_phase(without_color)1,529610,,,,,,,,black_plus_sign,,,null,object_01c.png,object_01b.png,,,,,,,,,,,,,,,,,,
null,,black_cross(without_color)1,530581,,,,,,,,blue,,,null,object_01c.png,object_01b.png,,,,,,,,,,,,,,,,,,
null,,rt_plussign_withcolor1,531082,,,,,,,,blue,,,null,object_01c.png,object_01b.png,,,,,,,,,,,,,,,,,,
947.5999999940395,,rt_thecrossant_black1,532114,,,,,,,,black_plus_sign,,,49,,,,1,,,,,,1,,,,,,,,,,
null,,color_black1,532216,,,,,,,,black_plus_sign,,,null,,,,,,,,,,,,,,,,,,,,
null,,learn_phase(without_color)1,535719,,,,,,,,black_plus_sign,,,null,object_15c.png,object_05c.png,,,,,,,,,,,,,,,,,,
null,,black_cross(without_color)1,536564,,,,,,,,blue,,,null,object_15c.png,object_05c.png,,,,,,,,,,,,,,,,,,
461.10000002384186,,rt_plussign_withcolor1,537065,,,,,,,,blue,,,49,object_15c.png,object_05c.png,,,,,,,,,,,,,,,,,,
null,,rt_thecrossant_black1,538224,,,,,,,,black_plus_sign,,,null,,,,1,,,,,,1,,,,,,,,,,
null,,color_black1,538327,,,,,,,,black_plus_sign,,,null,,,,,,,,,,,,,,,,,,,,
null,,learn_phase(without_color)1,541830,,,,,,,,black_plus_sign,,,null,object_15a.png,object_12b.png,,,,,,,,,,,,,,,,,,
null,,black_cross(without_color)1,542239,,,,,,,,green,,,null,object_15a.png,object_12b.png,,,,,,,,,,,,,,,,,,
null,,rt_plussign_withcolor1,542740,,,,,,,,green,,,null,object_15a.png,object_12b.png,,,,,,,,,,,,,,,,,,
1243.9000000059605,,rt_thecrossant_black1,544336,,,,,,,,black_plus_sign,,,50,,,,1,,,,,,1,,,,,,,,,,
null,,color_black1,544438,,,,,,,,black_plus_sign,,,null,,,,,,,,,,,,,,,,,,,,
null,,learn_phase(without_color)1,547941,,,,,,,,black_plus_sign,,,null,object_10a.png,object_03a.png,,,,,,,,,,,,,,,,,,
null,,black_cross(without_color)1,548699,,,,,,,,green,,,null,object_10a.png,object_03a.png,,,,,,,,,,,,,,,,,,
null,,rt_plussign_withcolor1,549200,,,,,,,,green,,,null,object_10a.png,object_03a.png,,,,,,,,,,,,,,,,,,
602.6999999880791,,rt_thecrossant_black1,550458,,,,,,,,black_plus_sign,,,50,,,,1,,,,,,1,,,,,,,,,,
null,,color_black1,550559,,,,,,,,black_plus_sign,,,null,,,,,,,,,,,,,,,,,,,,
null,,learn_phase(without_color)1,554061,,,,,,,,black_plus_sign,,,null,object_10c.png,object_13b.png,,,,,,,,,,,,,,,,,,
null,,black_cross(without_color)1,554702,,,,,,,,green,,,null,object_10c.png,object_13b.png,,,,,,,,,,,,,,,,,,
null,,rt_plussign_withcolor1,555204,,,,,,,,green,,,null,object_10c.png,object_13b.png,,,,,,,,,,,,,,,,,,
1141.1000000238419,,rt_thecrossant_black1,556566,,,,,,,,black_plus_sign,,,50,,,,1,,,,,,1,,,,,,,,,,
null,,color_black1,556667,,,,,,,,black_plus_sign,,,null,,,,,,,,,,,,,,,,,,,,
null,,learn_phase(without_color)1,560170,,,,,,,,black_plus_sign,,,null,object_14b.png,object_08c.png,,,,,,,,,,,,,,,,,,
null,,black_cross(without_color)1,561037,,,,,,,,blue,,,null,object_14b.png,object_08c.png,,,,,,,,,,,,,,,,,,
348.5,,rt_plussign_withcolor1,561538,,,,,,,,blue,,,49,object_14b.png,object_08c.png,,,,,,,,,,,,,,,,,,
null,,rt_thecrossant_black1,562675,,,,,,,,black_plus_sign,,,null,,,,1,,,,,,1,,,,,,,,,,
null,,color_black1,562776,,,,,,,,black_plus_sign,,,null,,,,,,,,,,,,,,,,,,,,
null,,learn_phase(without_color)1,566279,,,,,,,,black_plus_sign,,,null,object_03c.png,object_11a.png,,,,,,,,,,,,,,,,,,
null,,black_cross(without_color)1,566955,,,,,,,,green,,,null,object_03c.png,object_11a.png,,,,,,,,,,,,,,,,,,
null,,rt_plussign_withcolor1,567457,,,,,,,,green,,,null,object_03c.png,object_11a.png,,,,,,,,,,,,,,,,,,
1436,,rt_thecrossant_black1,568785,,,,,,,,black_plus_sign,,,50,,,,1,,,,,,1,,,,,,,,,,
null,,color_black1,568887,,,,,,,,black_plus_sign,,,null,,,,,,,,,,,,,,,,,,,,
null,,learn_phase(without_color)1,572388,,,,,,,,black_plus_sign,,,null,object_02c.png,object_05b.png,,,,,,,,,,,,,,,,,,
null,,black_cross(without_color)1,572897,,,,,,,,blue,,,null,object_02c.png,object_05b.png,,,,,,,,,,,,,,,,,,
null,,rt_plussign_withcolor1,573399,,,,,,,,blue,,,null,object_02c.png,object_05b.png,,,,,,,,,,,,,,,,,,
1129,,rt_thecrossant_black1,574892,,,,,,,,black_plus_sign,,,49,,,,1,,,,,,1,,,,,,,,,,
null,,color_black1,574994,,,,,,,,black_plus_sign,,,null,,,,,,,,,,,,,,,,,,,,
null,,learn_phase(without_color)1,578496,,,,,,,,black_plus_sign,,,null,object_04b.png,object_14a.png,,,,,,,,,,,,,,,,,,
null,,black_cross(without_color)1,578924,,,,,,,,green,,,null,object_04b.png,object_14a.png,,,,,,,,,,,,,,,,,,
null,,rt_plussign_withcolor1,579426,,,,,,,,green,,,null,object_04b.png,object_14a.png,,,,,,,,,,,,,,,,,,
1199.1000000238419,,rt_thecrossant_black1,581001,,,,,,,,black_plus_sign,,,50,,,,1,,,,,,1,,,,,,,,,,
null,,color_black1,581103,,,,,,,,black_plus_sign,,,null,,,,,,,,,,,,,,,,,,,,
null,,learn_phase(without_color)1,584605,,,,,,,,black_plus_sign,,,null,object_04a.png,object_09a.png,,,,,,,,,,,,,,,,,,
null,,black_cross(without_color)1,585052,,,,,,,,green,,,null,object_04a.png,object_09a.png,,,,,,,,,,,,,,,,,,
null,,rt_plussign_withcolor1,585554,,,,,,,,green,,,null,object_04a.png,object_09a.png,,,,,,,,,,,,,,,,,,
780.5,,rt_thecrossant_black1,587111,,,,,,,,black_plus_sign,,,50,,,,1,,,,,,1,,,,,,,,,,
null,,color_black1,587212,,,,,,,,black_plus_sign,,,null,,,,,,,,,,,,,,,,,,,,
null,,learn_phase(without_color)1,590714,,,,,,,,black_plus_sign,,,null,object_13b.png,object_04c.png,,,,,,,,,,,,,,,,,,
null,,black_cross(without_color)1,591402,,,,,,,,green,,,null,object_13b.png,object_04c.png,,,,,,,,,,,,,,,,,,
null,,rt_plussign_withcolor1,591903,,,,,,,,green,,,null,object_13b.png,object_04c.png,,,,,,,,,,,,,,,,,,
706,,rt_thecrossant_black1,593220,,,,,,,,black_plus_sign,,,50,,,,1,,,,,,1,,,,,,,,,,
null,,color_black1,593322,,,,,,,,black_plus_sign,,,null,,,,,,,,,,,,,,,,,,,,
null,,learn_phase(without_color)1,596824,,,,,,,,black_plus_sign,,,null,object_12c.png,object_07a.png,,,,,,,,,,,,,,,,,,
null,,black_cross(without_color)1,597391,,,,,,,,green,,,null,object_12c.png,object_07a.png,,,,,,,,,,,,,,,,,,
null,,rt_plussign_withcolor1,597893,,,,,,,,green,,,null,object_12c.png,object_07a.png,,,,,,,,,,,,,,,,,,
1148.5999999940395,,rt_thecrossant_black1,599329,,,,,,,,black_plus_sign,,,50,,,,1,,,,,,1,,,,,,,,,,
null,,color_black1,599431,,,,,,,,black_plus_sign,,,null,,,,,,,,,,,,,,,,,,,,
null,,learn_phase(without_color)1,602933,,,,,,,,black_plus_sign,,,null,object_06a.png,object_02a.png,,,,,,,,,,,,,,,,,,
null,,black_cross(without_color)1,603586,,,,,,,,green,,,null,object_06a.png,object_02a.png,,,,,,,,,,,,,,,,,,
null,,rt_plussign_withcolor1,604089,,,,,,,,green,,,null,object_06a.png,object_02a.png,,,,,,,,,,,,,,,,,,
824.6999999880791,,rt_thecrossant_black1,605439,,,,,,,,black_plus_sign,,,50,,,,1,,,,,,1,,,,,,,,,,
null,,color_black1,605541,,,,,,,,black_plus_sign,,,null,,,,,,,,,,,,,,,,,,,,
null,,learn_phase(without_color)1,609044,,,,,,,,black_plus_sign,,,null,object_12a.png,object_12c.png,,,,,,,,,,,,,,,,,,
null,,black_cross(without_color)1,609496,,,,,,,,green,,,null,object_12a.png,object_12c.png,,,,,,,,,,,,,,,,,,
null,,rt_plussign_withcolor1,609997,,,,,,,,green,,,null,object_12a.png,object_12c.png,,,,,,,,,,,,,,,,,,
1219.3999999761581,,rt_thecrossant_black1,611549,,,,,,,,black_plus_sign,,,50,,,,1,,,,,,1,,,,,,,,,,
null,,color_black1,611651,,,,,,,,black_plus_sign,,,null,,,,,,,,,,,,,,,,,,,,
null,,learn_phase(without_color)1,615152,,,,,,,,black_plus_sign,,,null,object_05c.png,object_07b.png,,,,,,,,,,,,,,,,,,
null,,black_cross(without_color)1,615764,,,,,,,,blue,,,null,object_05c.png,object_07b.png,,,,,,,,,,,,,,,,,,
null,,rt_plussign_withcolor1,616266,,,,,,,,blue,,,null,object_05c.png,object_07b.png,,,,,,,,,,,,,,,,,,
621.5999999940395,,rt_thecrossant_black1,617657,,,,,,,,black_plus_sign,,,49,,,,1,,,,,,1,,,,,,,,,,
null,,color_black1,617758,,,,,,,,black_plus_sign,,,null,,,,,,,,,,,,,,,,,,,,
null,,learn_phase(without_color)1,621260,,,,,,,,black_plus_sign,,,null,object_06c.png,object_02c.png,,,,,,,,,,,,,,,,,,
null,,black_cross(without_color)1,622145,,,,,,,,green,,,null,object_06c.png,object_02c.png,,,,,,,,,,,,,,,,,,
null,,rt_plussign_withcolor1,622646,,,,,,,,green,,,null,object_06c.png,object_02c.png,,,,,,,,,,,,,,,,,,
864.0999999940395,,rt_thecrossant_black1,623768,,,,,,,,black_plus_sign,,,50,,,,1,,,,,,1,,,,,,,,,,
null,,color_black1,623870,,,,,,,,black_plus_sign,,,null,,,,,,,,,,,,,,,,,,,,
null,,learn_phase(without_color)1,627372,,,,,,,,black_plus_sign,,,null,object_10b.png,object_09c.png,,,,,,,,,,,,,,,,,,
null,,black_cross(without_color)1,627903,,,,,,,,blue,,,null,object_10b.png,object_09c.png,,,,,,,,,,,,,,,,,,
null,,rt_plussign_withcolor1,628405,,,,,,,,blue,,,null,object_10b.png,object_09c.png,,,,,,,,,,,,,,,,,,
1079.0999999940395,,rt_thecrossant_black1,629876,,,,,,,,black_plus_sign,,,49,,,,1,,,,,,1,,,,,,,,,,
null,,color_black1,629978,,,,,,,,black_plus_sign,,,null,,,,,,,,,,,,,,,,,,,,
null,,learn_phase(without_color)1,633480,,,,,,,,black_plus_sign,,,null,object_14c.png,object_07c.png,,,,,,,,,,,,,,,,,,
null,,black_cross(without_color)1,634487,,,,,,,,blue,,,null,object_14c.png,object_07c.png,,,,,,,,,,,,,,,,,,
null,,rt_plussign_withcolor1,634989,,,,,,,,blue,,,null,object_14c.png,object_07c.png,,,,,,,,,,,,,,,,,,
641.7000000178814,,rt_thecrossant_black1,635986,,,,,,,,black_plus_sign,,,49,,,,1,,,,,,1,,,,,,,,,,
null,,color_black1,636087,,,,,,,,black_plus_sign,,,null,,,,,,,,,,,,,,,,,,,,
null,,learn_phase(without_color)1,639589,,,,,,,,black_plus_sign,,,null,object_01a.png,object_14b.png,,,,,,,,,,,,,,,,,,
null,,black_cross(without_color)1,640237,,,,,,,,green,,,null,object_01a.png,object_14b.png,,,,,,,,,,,,,,,,,,
null,,rt_plussign_withcolor1,640738,,,,,,,,green,,,null,object_01a.png,object_14b.png,,,,,,,,,,,,,,,,,,
1214.699999988079,,rt_thecrossant_black1,642094,,,,,,,,black_plus_sign,,,50,,,,1,,,,,,1,,,,,,,,,,
null,,color_black1,642196,,,,,,,,black_plus_sign,,,null,,,,,,,,,,,,,,,,,,,,
null,,learn_phase(without_color)1,645698,,,,,,,,black_plus_sign,,,null,object_15b.png,object_10a.png,,,,,,,,,,,,,,,,,,
null,,black_cross(without_color)1,646599,,,,,,,,blue,,,null,object_15b.png,object_10a.png,,,,,,,,,,,,,,,,,,
null,,rt_plussign_withcolor1,647100,,,,,,,,blue,,,null,object_15b.png,object_10a.png,,,,,,,,,,,,,,,,,,
1358,,rt_thecrossant_black1,648204,,,,,,,,black_plus_sign,,,49,,,,1,,,,,,1,,,,,,,,,,
null,,color_black1,648306,,,,,,,,black_plus_sign,,,null,,,,,,,,,,,,,,,,,,,,
null,,learn_phase(without_color)1,651808,,,,,,,,black_plus_sign,,,null,object_13a.png,object_06a.png,,,,,,,,,,,,,,,,,,
null,,black_cross(without_color)1,652358,,,,,,,,blue,,,null,object_13a.png,object_06a.png,,,,,,,,,,,,,,,,,,
null,,rt_plussign_withcolor1,652860,,,,,,,,blue,,,null,object_13a.png,object_06a.png,,,,,,,,,,,,,,,,,,
1114.5,,rt_thecrossant_black1,654312,,,,,,,,black_plus_sign,,,49,,,,1,,,,,,1,,,,,,,,,,
null,,color_black1,654414,,,,,,,,black_plus_sign,,,null,,,,,,,,,,,,,,,,,,,,
null,,learn_phase(without_color)1,657918,,,,,,,,black_plus_sign,,,null,object_07c.png,object_11c.png,,,,,,,,,,,,,,,,,,
null,,black_cross(without_color)1,658860,,,,,,,,blue,,,null,object_07c.png,object_11c.png,,,,,,,,,,,,,,,,,,
null,,rt_plussign_withcolor1,659362,,,,,,,,blue,,,null,object_07c.png,object_11c.png,,,,,,,,,,,,,,,,,,
1031,,rt_thecrossant_black1,660423,,,,,,,,black_plus_sign,,,49,,,,1,,,,,,1,,,,,,,,,,
null,,color_black1,660525,,,,,,,,black_plus_sign,,,null,,,,,,,,,,,,,,,,,,,,
null,,learn_phase(without_color)1,664027,,,,,,,,black_plus_sign,,,null,object_14a.png,object_11b.png,,,,,,,,,,,,,,,,,,
null,,black_cross(without_color)1,664931,,,,,,,,blue,,,null,object_14a.png,object_11b.png,,,,,,,,,,,,,,,,,,
null,,rt_plussign_withcolor1,665432,,,,,,,,blue,,,null,object_14a.png,object_11b.png,,,,,,,,,,,,,,,,,,
1169.199999988079,,rt_thecrossant_black1,666544,,,,,,,,black_plus_sign,,,49,,,,1,,,,,,1,,,,,,,,,,
null,,color_black1,666647,,,,,,,,black_plus_sign,,,null,,,,,,,,,,,,,,,,,,,,
null,,learn_phase(without_color)1,670150,,,,,,,,black_plus_sign,,,null,object_09b.png,object_05a.png,,,,,,,,,,,,,,,,,,
null,,black_cross(without_color)1,671094,,,,,,,,green,,,null,object_09b.png,object_05a.png,,,,,,,,,,,,,,,,,,
null,,rt_plussign_withcolor1,671596,,,,,,,,green,,,null,object_09b.png,object_05a.png,,,,,,,,,,,,,,,,,,
1158.199999988079,,rt_thecrossant_black1,672654,,,,,,,,black_plus_sign,,,50,,,,1,,,,,,1,,,,,,,,,,
null,,color_black1,672756,,,,,,,,black_plus_sign,,,null,,,,,,,,,,,,,,,,,,,,
null,,thebreak,672859,,,,,,,,<p></p>,,,null,,,,,,,,,,,,,,,,,,,,
1685.5999999940395,,intro_0,674545,,,,,,,,instruct,,,32,,,,,,,,,,,,,,,,,,,,
3071.199999988079,,directmemory_phase1,677617,,,,,,,,object_07c.png,,,51,,,,0,object_14c.png,object_13c.png,object_15c.png,object_14c.png,,0,,0,,,,,,,,
3078,,directmemory_phase1,680697,,,,,,,,object_10b.png,,,50,,,,1,object_15b.png,object_02b.png,object_13a.png,object_02b.png,,0.5,,1,,,,,,,,
1950.9000000059605,,directmemory_phase1,682649,,,,,,,,object_06a.png,,,51,,,,1,object_14c.png,object_15a.png,object_13a.png,object_13a.png,,0.6666666666666666,,1,,,,,,,,
2902.5,,directmemory_phase1,685553,,,,,,,,object_08c.png,,,50,,,,0,object_10b.png,object_07c.png,object_14b.png,object_14b.png,,0.5,,0,,,,,,,,
2382.4000000059605,,directmemory_phase1,687937,,,,,,,,object_10a.png,,,51,,,,0,object_15a.png,object_15b.png,object_12a.png,object_15b.png,,0.4,,0,,,,,,,,
2918.5999999940395,,directmemory_phase1,690857,,,,,,,,object_09a.png,,,51,,,,1,object_12c.png,object_10b.png,object_04a.png,object_04a.png,,0.5,,1,,,,,,,,
2838.699999988079,,directmemory_phase1,693697,,,,,,,,object_11a.png,,,49,,,,0,object_01c.png,object_05a.png,object_03c.png,object_03c.png,,0.42857142857142855,,0,,,,,,,,
2910.5999999940395,,directmemory_phase1,696609,,,,,,,,object_05c.png,,,50,,,,0,object_15c.png,object_04b.png,object_15b.png,object_15c.png,,0.375,,0,,,,,,,,
2238.5999999940395,,directmemory_phase1,698849,,,,,,,,object_01b.png,,,49,,,,0,object_04a.png,object_10a.png,object_01c.png,object_01c.png,,0.3333333333333333,,0,,,,,,,,
2334.699999988079,,directmemory_phase1,701185,,,,,,,,object_09c.png,,,51,,,,0,object_12b.png,object_10b.png,object_05c.png,object_10b.png,,0.3,,0,,,,,,,,
3468.5,,directmemory_phase1,704657,,,,,,,,object_14a.png,,,51,,,,0,object_08a.png,object_04b.png,object_15c.png,object_04b.png,,0.2727272727272727,,0,,,,,,,,
2685.9000000059605,,directmemory_phase1,707345,,,,,,,,object_02c.png,,,49,,,,1,object_06c.png,object_12a.png,object_15b.png,object_06c.png,,0.3333333333333333,,1,,,,,,,,
2566.5999999940395,,directmemory_phase1,709913,,,,,,,,object_04c.png,,,50,,,,0,object_13b.png,object_05a.png,object_04a.png,object_13b.png,,0.3076923076923077,,0,,,,,,,,
3198.9000000059605,,directmemory_phase1,713113,,,,,,,,object_01c.png,,,50,,,,0,object_13a.png,object_15c.png,object_08a.png,object_08a.png,,0.2857142857142857,,0,,,,,,,,
2231,,directmemory_phase1,715345,,,,,,,,object_05b.png,,,49,,,,1,object_02c.png,object_13b.png,object_12c.png,object_02c.png,,0.3333333333333333,,1,,,,,,,,
2373.7999999821186,,directmemory_phase1,717721,,,,,,,,object_03b.png,,,49,,,,0,object_14a.png,object_13b.png,object_12b.png,object_12b.png,,0.3125,,0,,,,,,,,
3630.5999999940395,,directmemory_phase1,721353,,,,,,,,object_12b.png,,,51,,,,0,object_08a.png,object_15a.png,object_13a.png,object_15a.png,,0.29411764705882354,,0,,,,,,,,
2438.2999999821186,,directmemory_phase1,723793,,,,,,,,object_02a.png,,,51,,,,1,object_02c.png,object_01c.png,object_06a.png,object_06a.png,,0.3333333333333333,,1,,,,,,,,
3086.699999988079,,directmemory_phase1,726881,,,,,,,,object_07a.png,,,49,,,,0,object_04a.png,object_02c.png,object_12c.png,object_12c.png,,0.3157894736842105,,0,,,,,,,,
2430.300000011921,,directmemory_phase1,729313,,,,,,,,object_11b.png,,,50,,,,1,object_02c.png,object_14a.png,object_05a.png,object_14a.png,,0.35,,1,,,,,,,,
2870.600000023842,,directmemory_phase1,732185,,,,,,,,object_14b.png,,,51,,,,1,object_12a.png,object_04b.png,object_01a.png,object_01a.png,,0.38095238095238093,,1,,,,,,,,
2534.5,,directmemory_phase1,734721,,,,,,,,object_08b.png,,,49,,,,1,object_05a.png,object_06a.png,object_07c.png,object_05a.png,,0.4090909090909091,,1,,,,,,,,
2662.699999988079,,directmemory_phase1,737385,,,,,,,,object_03a.png,,,51,,,,1,object_01c.png,object_14a.png,object_10a.png,object_10a.png,,0.43478260869565216,,1,,,,,,,,
2446.600000023842,,directmemory_phase1,739833,,,,,,,,object_11c.png,,,50,,,,0,object_07c.png,object_05c.png,object_02c.png,object_07c.png,,0.4166666666666667,,0,,,,,,,,
2846.5,,directmemory_phase1,742681,,,,,,,,object_04a.png,,,50,,,,0,object_09b.png,object_02b.png,object_06b.png,object_06b.png,,0.4,,0,,,,,,,,
2118.600000023842,,directmemory_phase1,744801,,,,,,,,object_05a.png,,,49,,,,0,object_02b.png,object_06b.png,object_09b.png,object_09b.png,,0.38461538461538464,,0,,,,,,,,
2198.600000023842,,directmemory_phase1,747001,,,,,,,,object_12c.png,,,49,,,,1,object_12a.png,object_15b.png,object_06b.png,object_12a.png,,0.4074074074074074,,1,,,,,,,,
2982.5999999940395,,directmemory_phase1,749985,,,,,,,,object_03c.png,,,51,,,,1,object_15a.png,object_15b.png,object_13c.png,object_13c.png,,0.42857142857142855,,1,,,,,,,,
2350.2999999821186,,directmemory_phase1,752337,,,,,,,,object_07b.png,,,49,,,,1,object_05c.png,object_05a.png,object_12b.png,object_05c.png,,0.4482758620689655,,1,,,,,,,,
2462.5999999940395,,directmemory_phase1,754801,,,,,,,,object_13b.png,,,49,,,,0,object_09b.png,object_08a.png,object_10c.png,object_10c.png,,0.43333333333333335,,0,,,,,,,,
null,,thebreak,754903,,,,,,,,<p></p>,,,null,,,,,,,,,,,,,,,,,,,,
2136.4000000059605,,intro_0,757040,,,,,,,,instruct,,,32,,,,,,,,,,,,,,,,,,,,
null,,learn_phase(without_color)2,760542,,,,,,,,black_plus_sign,,,null,object_13b.png,object_04c.png,,,,,,,,,,,,,,,,,,
null,,black_cross(without_color)2,761085,,,,,,,,blue,,,null,object_13b.png,object_04c.png,,,,,,,,,,,,,,,,,,
null,,rt_plussign_withcolor2,761587,,,,,,,,blue,,,null,object_13b.png,object_04c.png,,,,,,,,,,,,,,,,,,
1070.699999988079,,rt_thecrossant_black2,763047,,,,,,,,black_plus_sign,,,49,,,,1,,,,,,1,,,,,,,,,,
null,,color_black2,763149,,,,,,,,black_plus_sign,,,null,,,,,,,,,,,,,,,,,,,,
null,,learn_phase(without_color)2,766651,,,,,,,,black_plus_sign,,,null,object_12c.png,object_07a.png,,,,,,,,,,,,,,,,,,
null,,black_cross(without_color)2,767535,,,,,,,,blue,,,null,object_12c.png,object_07a.png,,,,,,,,,,,,,,,,,,
null,,rt_plussign_withcolor2,768036,,,,,,,,blue,,,null,object_12c.png,object_07a.png,,,,,,,,,,,,,,,,,,
null,,rt_thecrossant_black2,769157,,,,,,,,black_plus_sign,,,null,,,,,,,,,,1,,,,,,,,,,
null,,color_black2,769258,,,,,,,,black_plus_sign,,,null,,,,,,,,,,,,,,,,,,,,
null,,learn_phase(without_color)2,772760,,,,,,,,black_plus_sign,,,null,object_13c.png,object_03c.png,,,,,,,,,,,,,,,,,,
null,,black_cross(without_color)2,773322,,,,,,,,green,,,null,object_13c.png,object_03c.png,,,,,,,,,,,,,,,,,,
null,,rt_plussign_withcolor2,773825,,,,,,,,green,,,null,object_13c.png,object_03c.png,,,,,,,,,,,,,,,,,,
1083.3999999761581,,rt_thecrossant_black2,775268,,,,,,,,black_plus_sign,,,50,,,,1,,,,,,1,,,,,,,,,,
null,,color_black2,775369,,,,,,,,black_plus_sign,,,null,,,,,,,,,,,,,,,,,,,,
null,,learn_phase(without_color)2,778872,,,,,,,,black_plus_sign,,,null,object_01c.png,object_01b.png,,,,,,,,,,,,,,,,,,
null,,black_cross(without_color)2,779365,,,,,,,,green,,,null,object_01c.png,object_01b.png,,,,,,,,,,,,,,,,,,
null,,rt_plussign_withcolor2,779866,,,,,,,,green,,,null,object_01c.png,object_01b.png,,,,,,,,,,,,,,,,,,
1105.0999999940395,,rt_thecrossant_black2,781377,,,,,,,,black_plus_sign,,,50,,,,1,,,,,,1,,,,,,,,,,
null,,color_black2,781480,,,,,,,,black_plus_sign,,,null,,,,,,,,,,,,,,,,,,,,
null,,learn_phase(without_color)2,784983,,,,,,,,black_plus_sign,,,null,object_10b.png,object_09c.png,,,,,,,,,,,,,,,,,,
null,,black_cross(without_color)2,786035,,,,,,,,blue,,,null,object_10b.png,object_09c.png,,,,,,,,,,,,,,,,,,
null,,rt_plussign_withcolor2,786536,,,,,,,,blue,,,null,object_10b.png,object_09c.png,,,,,,,,,,,,,,,,,,
871.1999999880791,,rt_thecrossant_black2,787487,,,,,,,,black_plus_sign,,,49,,,,1,,,,,,1,,,,,,,,,,
null,,color_black2,787590,,,,,,,,black_plus_sign,,,null,,,,,,,,,,,,,,,,,,,,
null,,learn_phase(without_color)2,791091,,,,,,,,black_plus_sign,,,null,object_07c.png,object_11c.png,,,,,,,,,,,,,,,,,,
null,,black_cross(without_color)2,792156,,,,,,,,blue,,,null,object_07c.png,object_11c.png,,,,,,,,,,,,,,,,,,
null,,rt_plussign_withcolor2,792658,,,,,,,,blue,,,null,object_07c.png,object_11c.png,,,,,,,,,,,,,,,,,,
1227.9000000059605,,rt_thecrossant_black2,793597,,,,,,,,black_plus_sign,,,49,,,,1,,,,,,1,,,,,,,,,,
null,,color_black2,793699,,,,,,,,black_plus_sign,,,null,,,,,,,,,,,,,,,,,,,,
null,,learn_phase(without_color)2,797202,,,,,,,,black_plus_sign,,,null,object_12a.png,object_12c.png,,,,,,,,,,,,,,,,,,
null,,black_cross(without_color)2,798113,,,,,,,,green,,,null,object_12a.png,object_12c.png,,,,,,,,,,,,,,,,,,
null,,rt_plussign_withcolor2,798615,,,,,,,,green,,,null,object_12a.png,object_12c.png,,,,,,,,,,,,,,,,,,
1371,,rt_thecrossant_black2,799707,,,,,,,,black_plus_sign,,,50,,,,1,,,,,,1,,,,,,,,,,
null,,color_black2,799808,,,,,,,,black_plus_sign,,,null,,,,,,,,,,,,,,,,,,,,
null,,learn_phase(without_color)2,803310,,,,,,,,black_plus_sign,,,null,object_06b.png,object_04a.png,,,,,,,,,,,,,,,,,,
null,,black_cross(without_color)2,803711,,,,,,,,green,,,null,object_06b.png,object_04a.png,,,,,,,,,,,,,,,,,,
null,,rt_plussign_withcolor2,804212,,,,,,,,green,,,null,object_06b.png,object_04a.png,,,,,,,,,,,,,,,,,,
1261,,rt_thecrossant_black2,805814,,,,,,,,black_plus_sign,,,50,,,,1,,,,,,1,,,,,,,,,,
null,,color_black2,805915,,,,,,,,black_plus_sign,,,null,,,,,,,,,,,,,,,,,,,,
null,,learn_phase(without_color)2,809418,,,,,,,,black_plus_sign,,,null,object_15c.png,object_05c.png,,,,,,,,,,,,,,,,,,
null,,black_cross(without_color)2,810489,,,,,,,,blue,,,null,object_15c.png,object_05c.png,,,,,,,,,,,,,,,,,,
null,,rt_plussign_withcolor2,810991,,,,,,,,blue,,,null,object_15c.png,object_05c.png,,,,,,,,,,,,,,,,,,
532.8000000119209,,rt_thecrossant_black2,811923,,,,,,,,black_plus_sign,,,49,,,,1,,,,,,1,,,,,,,,,,
null,,color_black2,812025,,,,,,,,black_plus_sign,,,null,,,,,,,,,,,,,,,,,,,,
null,,learn_phase(without_color)2,815528,,,,,,,,black_plus_sign,,,null,object_10c.png,object_13b.png,,,,,,,,,,,,,,,,,,
null,,black_cross(without_color)2,816494,,,,,,,,blue,,,null,object_10c.png,object_13b.png,,,,,,,,,,,,,,,,,,
null,,rt_plussign_withcolor2,816996,,,,,,,,blue,,,null,object_10c.png,object_13b.png,,,,,,,,,,,,,,,,,,
1453.1000000238419,,rt_thecrossant_black2,818034,,,,,,,,black_plus_sign,,,49,,,,1,,,,,,1,,,,,,,,,,
null,,color_black2,818137,,,,,,,,black_plus_sign,,,null,,,,,,,,,,,,,,,,,,,,
null,,learn_phase(without_color)2,821639,,,,,,,,black_plus_sign,,,null,object_14b.png,object_08c.png,,,,,,,,,,,,,,,,,,
null,,black_cross(without_color)2,822336,,,,,,,,blue,,,null,object_14b.png,object_08c.png,,,,,,,,,,,,,,,,,,
479.30000001192093,,rt_plussign_withcolor2,822837,,,,,,,,blue,,,49,object_14b.png,object_08c.png,,,,,,,,,,,,,,,,,,
null,,rt_thecrossant_black2,824145,,,,,,,,black_plus_sign,,,null,,,,1,,,,,,1,,,,,,,,,,
null,,color_black2,824248,,,,,,,,black_plus_sign,,,null,,,,,,,,,,,,,,,,,,,,
null,,learn_phase(without_color)2,827750,,,,,,,,black_plus_sign,,,null,object_14c.png,object_07c.png,,,,,,,,,,,,,,,,,,
null,,black_cross(without_color)2,828513,,,,,,,,blue,,,null,object_14c.png,object_07c.png,,,,,,,,,,,,,,,,,,
null,,rt_plussign_withcolor2,829015,,,,,,,,blue,,,null,object_14c.png,object_07c.png,,,,,,,,,,,,,,,,,,
890.9000000059605,,rt_thecrossant_black2,830257,,,,,,,,black_plus_sign,,,49,,,,1,,,,,,1,,,,,,,,,,
null,,color_black2,830359,,,,,,,,black_plus_sign,,,null,,,,,,,,,,,,,,,,,,,,
null,,learn_phase(without_color)2,833861,,,,,,,,black_plus_sign,,,null,object_03c.png,object_11a.png,,,,,,,,,,,,,,,,,,
null,,black_cross(without_color)2,834676,,,,,,,,green,,,null,object_03c.png,object_11a.png,,,,,,,,,,,,,,,,,,
null,,rt_plussign_withcolor2,835179,,,,,,,,green,,,null,object_03c.png,object_11a.png,,,,,,,,,,,,,,,,,,
1247.800000011921,,rt_thecrossant_black2,836366,,,,,,,,black_plus_sign,,,50,,,,1,,,,,,1,,,,,,,,,,
null,,color_black2,836468,,,,,,,,black_plus_sign,,,null,,,,,,,,,,,,,,,,,,,,
null,,learn_phase(without_color)2,839970,,,,,,,,black_plus_sign,,,null,object_02c.png,object_05b.png,,,,,,,,,,,,,,,,,,
null,,black_cross(without_color)2,841036,,,,,,,,blue,,,null,object_02c.png,object_05b.png,,,,,,,,,,,,,,,,,,
null,,rt_plussign_withcolor2,841537,,,,,,,,blue,,,null,object_02c.png,object_05b.png,,,,,,,,,,,,,,,,,,
1024.2000000178814,,rt_thecrossant_black2,842475,,,,,,,,black_plus_sign,,,49,,,,1,,,,,,1,,,,,,,,,,
null,,color_black2,842578,,,,,,,,black_plus_sign,,,null,,,,,,,,,,,,,,,,,,,,
null,,learn_phase(without_color)2,846080,,,,,,,,black_plus_sign,,,null,object_14a.png,object_11b.png,,,,,,,,,,,,,,,,,,
null,,black_cross(without_color)2,847141,,,,,,,,blue,,,null,object_14a.png,object_11b.png,,,,,,,,,,,,,,,,,,
null,,rt_plussign_withcolor2,847642,,,,,,,,blue,,,null,object_14a.png,object_11b.png,,,,,,,,,,,,,,,,,,
1281.2999999821186,,rt_thecrossant_black2,848585,,,,,,,,black_plus_sign,,,49,,,,1,,,,,,1,,,,,,,,,,
null,,color_black2,848687,,,,,,,,black_plus_sign,,,null,,,,,,,,,,,,,,,,,,,,
null,,learn_phase(without_color)2,852189,,,,,,,,black_plus_sign,,,null,object_02b.png,object_10b.png,,,,,,,,,,,,,,,,,,
null,,black_cross(without_color)2,852902,,,,,,,,green,,,null,object_02b.png,object_10b.png,,,,,,,,,,,,,,,,,,
null,,rt_plussign_withcolor2,853404,,,,,,,,green,,,null,object_02b.png,object_10b.png,,,,,,,,,,,,,,,,,,
1329.9000000059605,,rt_thecrossant_black2,854694,,,,,,,,black_plus_sign,,,50,,,,1,,,,,,1,,,,,,,,,,
null,,color_black2,854795,,,,,,,,black_plus_sign,,,null,,,,,,,,,,,,,,,,,,,,
null,,learn_phase(without_color)2,858298,,,,,,,,black_plus_sign,,,null,object_06c.png,object_02c.png,,,,,,,,,,,,,,,,,,
null,,black_cross(without_color)2,858872,,,,,,,,green,,,null,object_06c.png,object_02c.png,,,,,,,,,,,,,,,,,,
null,,rt_plussign_withcolor2,859373,,,,,,,,green,,,null,object_06c.png,object_02c.png,,,,,,,,,,,,,,,,,,
1109.7000000178814,,rt_thecrossant_black2,860803,,,,,,,,black_plus_sign,,,50,,,,1,,,,,,1,,,,,,,,,,
null,,color_black2,860904,,,,,,,,black_plus_sign,,,null,,,,,,,,,,,,,,,,,,,,
null,,learn_phase(without_color)2,864407,,,,,,,,black_plus_sign,,,null,object_09b.png,object_05a.png,,,,,,,,,,,,,,,,,,
null,,black_cross(without_color)2,865040,,,,,,,,green,,,null,object_09b.png,object_05a.png,,,,,,,,,,,,,,,,,,
null,,rt_plussign_withcolor2,865543,,,,,,,,green,,,null,object_09b.png,object_05a.png,,,,,,,,,,,,,,,,,,
889,,rt_thecrossant_black2,866913,,,,,,,,black_plus_sign,,,50,,,,1,,,,,,1,,,,,,,,,,
null,,color_black2,867014,,,,,,,,black_plus_sign,,,null,,,,,,,,,,,,,,,,,,,,
null,,learn_phase(without_color)2,870517,,,,,,,,black_plus_sign,,,null,object_15a.png,object_12b.png,,,,,,,,,,,,,,,,,,
null,,black_cross(without_color)2,871343,,,,,,,,blue,,,null,object_15a.png,object_12b.png,,,,,,,,,,,,,,,,,,
null,,rt_plussign_withcolor2,871845,,,,,,,,blue,,,null,object_15a.png,object_12b.png,,,,,,,,,,,,,,,,,,
734.2000000178814,,rt_thecrossant_black2,873023,,,,,,,,black_plus_sign,,,49,,,,1,,,,,,1,,,,,,,,,,
null,,color_black2,873124,,,,,,,,black_plus_sign,,,null,,,,,,,,,,,,,,,,,,,,
null,,learn_phase(without_color)2,876627,,,,,,,,black_plus_sign,,,null,object_06a.png,object_02a.png,,,,,,,,,,,,,,,,,,
null,,black_cross(without_color)2,877147,,,,,,,,green,,,null,object_06a.png,object_02a.png,,,,,,,,,,,,,,,,,,
null,,rt_plussign_withcolor2,877648,,,,,,,,green,,,null,object_06a.png,object_02a.png,,,,,,,,,,,,,,,,,,
1154.4000000059605,,rt_thecrossant_black2,879131,,,,,,,,black_plus_sign,,,50,,,,1,,,,,,1,,,,,,,,,,
null,,color_black2,879232,,,,,,,,black_plus_sign,,,null,,,,,,,,,,,,,,,,,,,,
null,,learn_phase(without_color)2,882734,,,,,,,,black_plus_sign,,,null,object_05c.png,object_07b.png,,,,,,,,,,,,,,,,,,
null,,black_cross(without_color)2,883340,,,,,,,,blue,,,null,object_05c.png,object_07b.png,,,,,,,,,,,,,,,,,,
482.60000002384186,,rt_plussign_withcolor2,883842,,,,,,,,blue,,,49,object_05c.png,object_07b.png,,,,,,,,,,,,,,,,,,
null,,rt_thecrossant_black2,885239,,,,,,,,black_plus_sign,,,null,,,,1,,,,,,1,,,,,,,,,,
null,,color_black2,885341,,,,,,,,black_plus_sign,,,null,,,,,,,,,,,,,,,,,,,,
null,,learn_phase(without_color)2,888843,,,,,,,,black_plus_sign,,,null,object_10a.png,object_03a.png,,,,,,,,,,,,,,,,,,
null,,black_cross(without_color)2,889637,,,,,,,,green,,,null,object_10a.png,object_03a.png,,,,,,,,,,,,,,,,,,
null,,rt_plussign_withcolor2,890139,,,,,,,,green,,,null,object_10a.png,object_03a.png,,,,,,,,,,,,,,,,,,
884.8999999761581,,rt_thecrossant_black2,891348,,,,,,,,black_plus_sign,,,50,,,,1,,,,,,1,,,,,,,,,,
null,,color_black2,891450,,,,,,,,black_plus_sign,,,null,,,,,,,,,,,,,,,,,,,,
null,,learn_phase(without_color)2,894952,,,,,,,,black_plus_sign,,,null,object_01a.png,object_14b.png,,,,,,,,,,,,,,,,,,
null,,black_cross(without_color)2,896031,,,,,,,,blue,,,null,object_01a.png,object_14b.png,,,,,,,,,,,,,,,,,,
null,,rt_plussign_withcolor2,896534,,,,,,,,blue,,,null,object_01a.png,object_14b.png,,,,,,,,,,,,,,,,,,
916.6000000238419,,rt_thecrossant_black2,897457,,,,,,,,black_plus_sign,,,49,,,,1,,,,,,1,,,,,,,,,,
null,,color_black2,897559,,,,,,,,black_plus_sign,,,null,,,,,,,,,,,,,,,,,,,,
null,,learn_phase(without_color)2,901062,,,,,,,,black_plus_sign,,,null,object_15b.png,object_10a.png,,,,,,,,,,,,,,,,,,
null,,black_cross(without_color)2,901891,,,,,,,,green,,,null,object_15b.png,object_10a.png,,,,,,,,,,,,,,,,,,
null,,rt_plussign_withcolor2,902392,,,,,,,,green,,,null,object_15b.png,object_10a.png,,,,,,,,,,,,,,,,,,
1383.8999999761581,,rt_thecrossant_black2,903567,,,,,,,,black_plus_sign,,,50,,,,1,,,,,,1,,,,,,,,,,
null,,color_black2,903669,,,,,,,,black_plus_sign,,,null,,,,,,,,,,,,,,,,,,,,
null,,learn_phase(without_color)2,907171,,,,,,,,black_plus_sign,,,null,object_13a.png,object_06a.png,,,,,,,,,,,,,,,,,,
null,,black_cross(without_color)2,908068,,,,,,,,blue,,,null,object_13a.png,object_06a.png,,,,,,,,,,,,,,,,,,
466.7999999821186,,rt_plussign_withcolor2,908570,,,,,,,,blue,,,49,object_13a.png,object_06a.png,,,,,,,,,,,,,,,,,,
null,,rt_thecrossant_black2,909677,,,,,,,,black_plus_sign,,,null,,,,1,,,,,,1,,,,,,,,,,
null,,color_black2,909779,,,,,,,,black_plus_sign,,,null,,,,,,,,,,,,,,,,,,,,
null,,learn_phase(without_color)2,913282,,,,,,,,black_plus_sign,,,null,object_04a.png,object_09a.png,,,,,,,,,,,,,,,,,,
null,,black_cross(without_color)2,913870,,,,,,,,green,,,null,object_04a.png,object_09a.png,,,,,,,,,,,,,,,,,,
null,,rt_plussign_withcolor2,914371,,,,,,,,green,,,null,object_04a.png,object_09a.png,,,,,,,,,,,,,,,,,,
1165.5999999940395,,rt_thecrossant_black2,915788,,,,,,,,black_plus_sign,,,50,,,,1,,,,,,1,,,,,,,,,,
null,,color_black2,915890,,,,,,,,black_plus_sign,,,null,,,,,,,,,,,,,,,,,,,,
null,,learn_phase(without_color)2,919393,,,,,,,,black_plus_sign,,,null,object_05a.png,object_08b.png,,,,,,,,,,,,,,,,,,
null,,black_cross(without_color)2,920144,,,,,,,,blue,,,null,object_05a.png,object_08b.png,,,,,,,,,,,,,,,,,,
null,,rt_plussign_withcolor2,920645,,,,,,,,blue,,,null,object_05a.png,object_08b.png,,,,,,,,,,,,,,,,,,
823.4000000059605,,rt_thecrossant_black2,921908,,,,,,,,black_plus_sign,,,49,,,,1,,,,,,1,,,,,,,,,,
null,,color_black2,922010,,,,,,,,black_plus_sign,,,null,,,,,,,,,,,,,,,,,,,,
null,,learn_phase(without_color)2,925512,,,,,,,,black_plus_sign,,,null,object_08a.png,object_01c.png,,,,,,,,,,,,,,,,,,
null,,black_cross(without_color)2,926178,,,,,,,,green,,,null,object_08a.png,object_01c.png,,,,,,,,,,,,,,,,,,
null,,rt_plussign_withcolor2,926679,,,,,,,,green,,,null,object_08a.png,object_01c.png,,,,,,,,,,,,,,,,,,
1286.2999999821186,,rt_thecrossant_black2,928016,,,,,,,,black_plus_sign,,,50,,,,1,,,,,,1,,,,,,,,,,
null,,color_black2,928118,,,,,,,,black_plus_sign,,,null,,,,,,,,,,,,,,,,,,,,
null,,learn_phase(without_color)2,931621,,,,,,,,black_plus_sign,,,null,object_04b.png,object_14a.png,,,,,,,,,,,,,,,,,,
null,,black_cross(without_color)2,932633,,,,,,,,blue,,,null,object_04b.png,object_14a.png,,,,,,,,,,,,,,,,,,
null,,rt_plussign_withcolor2,933135,,,,,,,,blue,,,null,object_04b.png,object_14a.png,,,,,,,,,,,,,,,,,,
1051.800000011921,,rt_thecrossant_black2,934126,,,,,,,,black_plus_sign,,,49,,,,1,,,,,,1,,,,,,,,,,
null,,color_black2,934228,,,,,,,,black_plus_sign,,,null,,,,,,,,,,,,,,,,,,,,
null,,learn_phase(without_color)2,937730,,,,,,,,black_plus_sign,,,null,object_12b.png,object_03b.png,,,,,,,,,,,,,,,,,,
null,,black_cross(without_color)2,938380,,,,,,,,green,,,null,object_12b.png,object_03b.png,,,,,,,,,,,,,,,,,,
null,,rt_plussign_withcolor2,938882,,,,,,,,green,,,null,object_12b.png,object_03b.png,,,,,,,,,,,,,,,,,,
1306.199999988079,,rt_thecrossant_black2,940236,,,,,,,,black_plus_sign,,,50,,,,1,,,,,,1,,,,,,,,,,
null,,color_black2,940337,,,,,,,,black_plus_sign,,,null,,,,,,,,,,,,,,,,,,,,
null,,thebreak,940439,,,,,,,,<p></p>,,,null,,,,,,,,,,,,,,,,,,,,
15423.90000000596,,intro_0,955864,,,,,,,,instruct,,,32,,,,,,,,,,,,,,,,,,,,
2942.600000023842,,directmemory_phase2,958807,,,,,,,,object_10a.png,,,51,,,,0,object_15b.png,object_06c.png,object_14c.png,object_15b.png,,0.41935483870967744,,0,,,,,,,,
3094.4000000059605,,directmemory_phase2,961903,,,,,,,,object_03a.png,,,50,,,,1,object_06a.png,object_10a.png,object_14a.png,object_10a.png,,0.4375,,1,,,,,,,,
3134.2999999821186,,directmemory_phase2,965039,,,,,,,,object_08b.png,,,50,,,,1,object_03c.png,object_05a.png,object_06a.png,object_05a.png,,0.45454545454545453,,1,,,,,,,,
2526.699999988079,,directmemory_phase2,967567,,,,,,,,object_01c.png,,,50,,,,1,object_02b.png,object_08a.png,object_15b.png,object_08a.png,,0.47058823529411764,,1,,,,,,,,
2846.300000011921,,directmemory_phase2,970415,,,,,,,,object_07a.png,,,49,,,,0,object_13b.png,object_05c.png,object_12c.png,object_12c.png,,0.45714285714285713,,0,,,,,,,,
3366.2999999821186,,directmemory_phase2,973783,,,,,,,,object_10b.png,,,49,,,,0,object_14c.png,object_02b.png,object_06c.png,object_02b.png,,0.4444444444444444,,0,,,,,,,,
1670.0999999940395,,directmemory_phase2,975455,,,,,,,,object_02a.png,,,49,,,,1,object_06a.png,object_12b.png,object_10a.png,object_06a.png,,0.4594594594594595,,1,,,,,,,,
2902.5,,directmemory_phase2,978359,,,,,,,,object_05a.png,,,49,,,,1,object_09b.png,object_15b.png,object_14c.png,object_09b.png,,0.47368421052631576,,1,,,,,,,,
3142.199999988079,,directmemory_phase2,981503,,,,,,,,object_03b.png,,,51,,,,1,object_02c.png,object_03c.png,object_12b.png,object_12b.png,,0.48717948717948717,,1,,,,,,,,
2214.2999999821186,,directmemory_phase2,983719,,,,,,,,object_08c.png,,,50,,,,1,object_02c.png,object_14b.png,object_10a.png,object_14b.png,,0.5,,1,,,,,,,,
3990.0999999940395,,directmemory_phase2,987711,,,,,,,,object_11a.png,,,51,,,,1,object_10b.png,object_06a.png,object_03c.png,object_03c.png,,0.5121951219512195,,1,,,,,,,,
3014.800000011921,,directmemory_phase2,990727,,,,,,,,object_14a.png,,,50,,,,1,object_13c.png,object_04b.png,object_10c.png,object_04b.png,,0.5238095238095238,,1,,,,,,,,
2710.2000000178814,,directmemory_phase2,993439,,,,,,,,object_04c.png,,,50,,,,1,object_04a.png,object_13b.png,object_14a.png,object_13b.png,,0.5348837209302325,,1,,,,,,,,
2174.0999999940395,,directmemory_phase2,995615,,,,,,,,object_05c.png,,,49,,,,0,object_09b.png,object_15c.png,object_02b.png,object_15c.png,,0.5227272727272727,,0,,,,,,,,
2670.2000000178814,,directmemory_phase2,998287,,,,,,,,object_01b.png,,,50,,,,0,object_06a.png,object_14a.png,object_01c.png,object_01c.png,,0.5111111111111111,,0,,,,,,,,
3102.7000000178814,,directmemory_phase2,1001391,,,,,,,,object_14b.png,,,49,,,,0,object_13a.png,object_01a.png,object_08a.png,object_01a.png,,0.5,,0,,,,,,,,
3198.0999999940395,,directmemory_phase2,1004591,,,,,,,,object_02c.png,,,51,,,,1,object_08a.png,object_15a.png,object_06c.png,object_06c.png,,0.5106382978723404,,1,,,,,,,,
2910.2999999821186,,directmemory_phase2,1007503,,,,,,,,object_13b.png,,,49,,,,0,object_13c.png,object_10c.png,object_04b.png,object_10c.png,,0.5,,0,,,,,,,,
1990.199999988079,,directmemory_phase2,1009495,,,,,,,,object_11c.png,,,49,,,,1,object_07c.png,object_14a.png,object_05a.png,object_07c.png,,0.5102040816326531,,1,,,,,,,,
2190.300000011921,,directmemory_phase2,1011687,,,,,,,,object_07c.png,,,50,,,,0,object_09b.png,object_12a.png,object_14c.png,object_14c.png,,0.5,,0,,,,,,,,
2966.4000000059605,,directmemory_phase2,1014655,,,,,,,,object_12b.png,,,51,,,,1,object_08a.png,object_13c.png,object_15a.png,object_15a.png,,0.5098039215686274,,1,,,,,,,,
2238.100000023842,,directmemory_phase2,1016895,,,,,,,,object_05b.png,,,49,,,,0,object_07c.png,object_02c.png,object_05a.png,object_02c.png,,0.5,,0,,,,,,,,
3366.300000011921,,directmemory_phase2,1020263,,,,,,,,object_12c.png,,,51,,,,1,object_06c.png,object_02b.png,object_12a.png,object_12a.png,,0.5094339622641509,,1,,,,,,,,
2206.5999999940395,,directmemory_phase2,1022471,,,,,,,,object_11b.png,,,50,,,,1,object_05a.png,object_14a.png,object_07c.png,object_14a.png,,0.5185185185185185,,1,,,,,,,,
1502,,directmemory_phase2,1023975,,,,,,,,object_06a.png,,,49,,,,1,object_13a.png,object_12a.png,object_13c.png,object_13a.png,,0.5272727272727272,,1,,,,,,,,
3286.2000000178814,,directmemory_phase2,1027263,,,,,,,,object_09a.png,,,50,,,,1,object_01c.png,object_04a.png,object_07c.png,object_04a.png,,0.5357142857142857,,1,,,,,,,,
2406.4000000059605,,directmemory_phase2,1029671,,,,,,,,object_09c.png,,,49,,,,1,object_10b.png,object_12b.png,object_10a.png,object_10b.png,,0.543859649122807,,1,,,,,,,,
1670.0999999940395,,directmemory_phase2,1031343,,,,,,,,object_03c.png,,,50,,,,0,object_13c.png,object_14c.png,object_09b.png,object_13c.png,,0.5344827586206896,,0,,,,,,,,
2662.300000011921,,directmemory_phase2,1034007,,,,,,,,object_04a.png,,,51,,,,1,object_02b.png,object_12a.png,object_06b.png,object_06b.png,,0.5423728813559322,,1,,,,,,,,
2518.2000000178814,,directmemory_phase2,1036527,,,,,,,,object_07b.png,,,50,,,,0,object_05c.png,object_06a.png,object_03c.png,object_05c.png,,0.5333333333333333,,0,,,,,,,,
null,,thebreak,1036630,,,,,,,,<p></p>,,,null,,,,,,,,,,,,,,,,,,,,
2103.9000000059605,,intro_0,1038735,,,,,,,,instruct,,,32,,,,,,,,,,,,,,,,,,,,
null,,learn_phase(without_color)3,1042238,,,,,,,,black_plus_sign,,,null,object_12b.png,object_03b.png,,,,,,,,,,,,,,,,,,
null,,black_cross(without_color)3,1043194,,,,,,,,blue,,,null,object_12b.png,object_03b.png,,,,,,,,,,,,,,,,,,
null,,rt_plussign_withcolor3,1043695,,,,,,,,blue,,,null,object_12b.png,object_03b.png,,,,,,,,,,,,,,,,,,
1524.1000000238419,,rt_thecrossant_black3,1044744,,,,,,,,black_plus_sign,,,49,,,,1,,,,,,1,,,,,,,,,,
null,,color_black3,1044846,,,,,,,,black_plus_sign,,,null,,,,,,,,,,,,,,,,,,,,
null,,learn_phase(without_color)3,1048348,,,,,,,,black_plus_sign,,,null,object_10a.png,object_03a.png,,,,,,,,,,,,,,,,,,
null,,black_cross(without_color)3,1049346,,,,,,,,green,,,null,object_10a.png,object_03a.png,,,,,,,,,,,,,,,,,,
null,,rt_plussign_withcolor3,1049848,,,,,,,,green,,,null,object_10a.png,object_03a.png,,,,,,,,,,,,,,,,,,
1395.800000011921,,rt_thecrossant_black3,1050854,,,,,,,,black_plus_sign,,,50,,,,1,,,,,,1,,,,,,,,,,
null,,color_black3,1050956,,,,,,,,black_plus_sign,,,null,,,,,,,,,,,,,,,,,,,,
null,,learn_phase(without_color)3,1054458,,,,,,,,black_plus_sign,,,null,object_02b.png,object_10b.png,,,,,,,,,,,,,,,,,,
null,,black_cross(without_color)3,1055545,,,,,,,,green,,,null,object_02b.png,object_10b.png,,,,,,,,,,,,,,,,,,
null,,rt_plussign_withcolor3,1056047,,,,,,,,green,,,null,object_02b.png,object_10b.png,,,,,,,,,,,,,,,,,,
1310.4000000059605,,rt_thecrossant_black3,1056964,,,,,,,,black_plus_sign,,,50,,,,1,,,,,,1,,,,,,,,,,
null,,color_black3,1057065,,,,,,,,black_plus_sign,,,null,,,,,,,,,,,,,,,,,,,,
null,,learn_phase(without_color)3,1060567,,,,,,,,black_plus_sign,,,null,object_15b.png,object_10a.png,,,,,,,,,,,,,,,,,,
null,,black_cross(without_color)3,1061332,,,,,,,,blue,,,null,object_15b.png,object_10a.png,,,,,,,,,,,,,,,,,,
null,,rt_plussign_withcolor3,1061834,,,,,,,,blue,,,null,object_15b.png,object_10a.png,,,,,,,,,,,,,,,,,,
1300.9000000059605,,rt_thecrossant_black3,1063084,,,,,,,,black_plus_sign,,,49,,,,1,,,,,,1,,,,,,,,,,
null,,color_black3,1063185,,,,,,,,black_plus_sign,,,null,,,,,,,,,,,,,,,,,,,,
null,,learn_phase(without_color)3,1066688,,,,,,,,black_plus_sign,,,null,object_14a.png,object_11b.png,,,,,,,,,,,,,,,,,,
null,,black_cross(without_color)3,1067744,,,,,,,,blue,,,null,object_14a.png,object_11b.png,,,,,,,,,,,,,,,,,,
446.10000002384186,,rt_plussign_withcolor3,1068251,,,,,,,,blue,,,49,object_14a.png,object_11b.png,,,,,,,,,,,,,,,,,,
null,,rt_thecrossant_black3,1069200,,,,,,,,black_plus_sign,,,null,,,,1,,,,,,1,,,,,,,,,,
null,,color_black3,1069301,,,,,,,,black_plus_sign,,,null,,,,,,,,,,,,,,,,,,,,
null,,learn_phase(without_color)3,1072804,,,,,,,,black_plus_sign,,,null,object_12a.png,object_12c.png,,,,,,,,,,,,,,,,,,
null,,black_cross(without_color)3,1073267,,,,,,,,blue,,,null,object_12a.png,object_12c.png,,,,,,,,,,,,,,,,,,
null,,rt_plussign_withcolor3,1073769,,,,,,,,blue,,,null,object_12a.png,object_12c.png,,,,,,,,,,,,,,,,,,
1309.199999988079,,rt_thecrossant_black3,1075308,,,,,,,,black_plus_sign,,,49,,,,1,,,,,,1,,,,,,,,,,
null,,color_black3,1075410,,,,,,,,black_plus_sign,,,null,,,,,,,,,,,,,,,,,,,,
null,,learn_phase(without_color)3,1078914,,,,,,,,black_plus_sign,,,null,object_06b.png,object_04a.png,,,,,,,,,,,,,,,,,,
null,,black_cross(without_color)3,1079538,,,,,,,,blue,,,null,object_06b.png,object_04a.png,,,,,,,,,,,,,,,,,,
475.7000000178814,,rt_plussign_withcolor3,1080041,,,,,,,,blue,,,49,object_06b.png,object_04a.png,,,,,,,,,,,,,,,,,,
null,,rt_thecrossant_black3,1081421,,,,,,,,black_plus_sign,,,null,,,,1,,,,,,1,,,,,,,,,,
null,,color_black3,1081523,,,,,,,,black_plus_sign,,,null,,,,,,,,,,,,,,,,,,,,
null,,learn_phase(without_color)3,1085026,,,,,,,,black_plus_sign,,,null,object_07c.png,object_11c.png,,,,,,,,,,,,,,,,,,
null,,black_cross(without_color)3,1086055,,,,,,,,blue,,,null,object_07c.png,object_11c.png,,,,,,,,,,,,,,,,,,
null,,rt_plussign_withcolor3,1086556,,,,,,,,blue,,,null,object_07c.png,object_11c.png,,,,,,,,,,,,,,,,,,
738.9000000059605,,rt_thecrossant_black3,1087531,,,,,,,,black_plus_sign,,,49,,,,1,,,,,,1,,,,,,,,,,
null,,color_black3,1087634,,,,,,,,black_plus_sign,,,null,,,,,,,,,,,,,,,,,,,,
null,,learn_phase(without_color)3,1091137,,,,,,,,black_plus_sign,,,null,object_10c.png,object_13b.png,,,,,,,,,,,,,,,,,,
null,,black_cross(without_color)3,1091850,,,,,,,,blue,,,null,object_10c.png,object_13b.png,,,,,,,,,,,,,,,,,,
491.69999998807907,,rt_plussign_withcolor3,1092351,,,,,,,,blue,,,49,object_10c.png,object_13b.png,,,,,,,,,,,,,,,,,,
null,,rt_thecrossant_black3,1093642,,,,,,,,black_plus_sign,,,null,,,,1,,,,,,1,,,,,,,,,,
null,,color_black3,1093757,,,,,,,,black_plus_sign,,,null,,,,,,,,,,,,,,,,,,,,
null,,learn_phase(without_color)3,1097259,,,,,,,,black_plus_sign,,,null,object_05a.png,object_08b.png,,,,,,,,,,,,,,,,,,
null,,black_cross(without_color)3,1098093,,,,,,,,blue,,,null,object_05a.png,object_08b.png,,,,,,,,,,,,,,,,,,
360.40000000596046,,rt_plussign_withcolor3,1098595,,,,,,,,blue,,,49,object_05a.png,object_08b.png,,,,,,,,,,,,,,,,,,
null,,rt_thecrossant_black3,1099765,,,,,,,,black_plus_sign,,,null,,,,1,,,,,,1,,,,,,,,,,
null,,color_black3,1099868,,,,,,,,black_plus_sign,,,null,,,,,,,,,,,,,,,,,,,,
null,,learn_phase(without_color)3,1103370,,,,,,,,black_plus_sign,,,null,object_13c.png,object_03c.png,,,,,,,,,,,,,,,,,,
null,,black_cross(without_color)3,1104458,,,,,,,,green,,,null,object_13c.png,object_03c.png,,,,,,,,,,,,,,,,,,
null,,rt_plussign_withcolor3,1104959,,,,,,,,green,,,null,object_13c.png,object_03c.png,,,,,,,,,,,,,,,,,,
1265.7999999821186,,rt_thecrossant_black3,1105876,,,,,,,,black_plus_sign,,,50,,,,1,,,,,,1,,,,,,,,,,
null,,color_black3,1105978,,,,,,,,black_plus_sign,,,null,,,,,,,,,,,,,,,,,,,,
null,,learn_phase(without_color)3,1109480,,,,,,,,black_plus_sign,,,null,object_06c.png,object_02c.png,,,,,,,,,,,,,,,,,,
null,,black_cross(without_color)3,1110453,,,,,,,,green,,,null,object_06c.png,object_02c.png,,,,,,,,,,,,,,,,,,
360.90000000596046,,rt_plussign_withcolor3,1110955,,,,,,,,green,,,49,object_06c.png,object_02c.png,,,,,,,,,,,,,,,,,,
null,,rt_thecrossant_black3,1111986,,,,,,,,black_plus_sign,,,50,,,,0,,,,,,0.9166666666666666,,,,,,,,,,
null,,color_black3,1112088,,,,,,,,black_plus_sign,,,null,,,,,,,,,,,,,,,,,,,,
null,,learn_phase(without_color)3,1115591,,,,,,,,black_plus_sign,,,null,object_03c.png,object_11a.png,,,,,,,,,,,,,,,,,,
null,,black_cross(without_color)3,1116622,,,,,,,,blue,,,null,object_03c.png,object_11a.png,,,,,,,,,,,,,,,,,,
null,,rt_plussign_withcolor3,1117124,,,,,,,,blue,,,null,object_03c.png,object_11a.png,,,,,,,,,,,,,,,,,,
null,,rt_thecrossant_black3,1118107,,,,,,,,black_plus_sign,,,null,,,,,,,,,,0.9166666666666666,,,,,,,,,,
null,,warning_page,1123109,,,,,,,,warning,,,null,,,,,,,,,,,,,,,,,,,,
null,,color_black3,1123212,,,,,,,,black_plus_sign,,,null,,,,,,,,,,,,,,,,,,,,
null,,learn_phase(without_color)3,1126714,,,,,,,,black_plus_sign,,,null,object_14b.png,object_08c.png,,,,,,,,,,,,,,,,,,
null,,black_cross(without_color)3,1127467,,,,,,,,green,,,null,object_14b.png,object_08c.png,,,,,,,,,,,,,,,,,,
null,,rt_plussign_withcolor3,1127969,,,,,,,,green,,,null,object_14b.png,object_08c.png,,,,,,,,,,,,,,,,,,
1365.9000000059605,,rt_thecrossant_black3,1129220,,,,,,,,black_plus_sign,,,50,,,,1,,,,,,0.9230769230769231,,,,,,,,,,
null,,color_black3,1129322,,,,,,,,black_plus_sign,,,null,,,,,,,,,,,,,,,,,,,,
null,,learn_phase(without_color)3,1132825,,,,,,,,black_plus_sign,,,null,object_14c.png,object_07c.png,,,,,,,,,,,,,,,,,,
null,,black_cross(without_color)3,1133792,,,,,,,,green,,,null,object_14c.png,object_07c.png,,,,,,,,,,,,,,,,,,
null,,rt_plussign_withcolor3,1134293,,,,,,,,green,,,null,object_14c.png,object_07c.png,,,,,,,,,,,,,,,,,,
1123.7000000178814,,rt_thecrossant_black3,1135330,,,,,,,,black_plus_sign,,,50,,,,1,,,,,,0.9285714285714286,,,,,,,,,,
null,,color_black3,1135431,,,,,,,,black_plus_sign,,,null,,,,,,,,,,,,,,,,,,,,
null,,learn_phase(without_color)3,1138934,,,,,,,,black_plus_sign,,,null,object_13b.png,object_04c.png,,,,,,,,,,,,,,,,,,
null,,black_cross(without_color)3,1139740,,,,,,,,blue,,,null,object_13b.png,object_04c.png,,,,,,,,,,,,,,,,,,
null,,rt_plussign_withcolor3,1140242,,,,,,,,blue,,,null,object_13b.png,object_04c.png,,,,,,,,,,,,,,,,,,
1316.5,,rt_thecrossant_black3,1141440,,,,,,,,black_plus_sign,,,49,,,,1,,,,,,0.9333333333333333,,,,,,,,,,
null,,color_black3,1141542,,,,,,,,black_plus_sign,,,null,,,,,,,,,,,,,,,,,,,,
null,,learn_phase(without_color)3,1145044,,,,,,,,black_plus_sign,,,null,object_04b.png,object_14a.png,,,,,,,,,,,,,,,,,,
null,,black_cross(without_color)3,1145654,,,,,,,,blue,,,null,object_04b.png,object_14a.png,,,,,,,,,,,,,,,,,,
null,,rt_plussign_withcolor3,1146156,,,,,,,,blue,,,null,object_04b.png,object_14a.png,,,,,,,,,,,,,,,,,,
1273.3999999761581,,rt_thecrossant_black3,1147551,,,,,,,,black_plus_sign,,,49,,,,1,,,,,,0.9375,,,,,,,,,,
null,,color_black3,1147653,,,,,,,,black_plus_sign,,,null,,,,,,,,,,,,,,,,,,,,
null,,learn_phase(without_color)3,1151155,,,,,,,,black_plus_sign,,,null,object_15c.png,object_05c.png,,,,,,,,,,,,,,,,,,
null,,black_cross(without_color)3,1151575,,,,,,,,blue,,,null,object_15c.png,object_05c.png,,,,,,,,,,,,,,,,,,
null,,rt_plussign_withcolor3,1152076,,,,,,,,blue,,,null,object_15c.png,object_05c.png,,,,,,,,,,,,,,,,,,
892.5,,rt_thecrossant_black3,1153660,,,,,,,,black_plus_sign,,,49,,,,1,,,,,,0.9411764705882353,,,,,,,,,,
null,,color_black3,1153762,,,,,,,,black_plus_sign,,,null,,,,,,,,,,,,,,,,,,,,
null,,learn_phase(without_color)3,1157265,,,,,,,,black_plus_sign,,,null,object_05c.png,object_07b.png,,,,,,,,,,,,,,,,,,
null,,black_cross(without_color)3,1157909,,,,,,,,green,,,null,object_05c.png,object_07b.png,,,,,,,,,,,,,,,,,,
null,,rt_plussign_withcolor3,1158411,,,,,,,,green,,,null,object_05c.png,object_07b.png,,,,,,,,,,,,,,,,,,
703.8000000119209,,rt_thecrossant_black3,1159770,,,,,,,,black_plus_sign,,,50,,,,1,,,,,,0.9444444444444444,,,,,,,,,,
null,,color_black3,1159871,,,,,,,,black_plus_sign,,,null,,,,,,,,,,,,,,,,,,,,
null,,learn_phase(without_color)3,1163375,,,,,,,,black_plus_sign,,,null,object_12c.png,object_07a.png,,,,,,,,,,,,,,,,,,
null,,black_cross(without_color)3,1164232,,,,,,,,green,,,null,object_12c.png,object_07a.png,,,,,,,,,,,,,,,,,,
null,,rt_plussign_withcolor3,1164733,,,,,,,,green,,,null,object_12c.png,object_07a.png,,,,,,,,,,,,,,,,,,
1061.5,,rt_thecrossant_black3,1165893,,,,,,,,black_plus_sign,,,50,,,,1,,,,,,0.9473684210526315,,,,,,,,,,
null,,color_black3,1165995,,,,,,,,black_plus_sign,,,null,,,,,,,,,,,,,,,,,,,,
null,,learn_phase(without_color)3,1169498,,,,,,,,black_plus_sign,,,null,object_01a.png,object_14b.png,,,,,,,,,,,,,,,,,,
null,,black_cross(without_color)3,1170180,,,,,,,,blue,,,null,object_01a.png,object_14b.png,,,,,,,,,,,,,,,,,,
null,,rt_plussign_withcolor3,1170682,,,,,,,,blue,,,null,object_01a.png,object_14b.png,,,,,,,,,,,,,,,,,,
1325.300000011921,,rt_thecrossant_black3,1172006,,,,,,,,black_plus_sign,,,49,,,,1,,,,,,0.95,,,,,,,,,,
null,,color_black3,1172107,,,,,,,,black_plus_sign,,,null,,,,,,,,,,,,,,,,,,,,
null,,learn_phase(without_color)3,1175610,,,,,,,,black_plus_sign,,,null,object_15a.png,object_12b.png,,,,,,,,,,,,,,,,,,
null,,black_cross(without_color)3,1176576,,,,,,,,green,,,null,object_15a.png,object_12b.png,,,,,,,,,,,,,,,,,,
null,,rt_plussign_withcolor3,1177078,,,,,,,,green,,,null,object_15a.png,object_12b.png,,,,,,,,,,,,,,,,,,
1107.199999988079,,rt_thecrossant_black3,1178115,,,,,,,,black_plus_sign,,,50,,,,1,,,,,,0.9523809523809523,,,,,,,,,,
null,,color_black3,1178218,,,,,,,,black_plus_sign,,,null,,,,,,,,,,,,,,,,,,,,
null,,learn_phase(without_color)3,1181720,,,,,,,,black_plus_sign,,,null,object_10b.png,object_09c.png,,,,,,,,,,,,,,,,,,
null,,black_cross(without_color)3,1182357,,,,,,,,green,,,null,object_10b.png,object_09c.png,,,,,,,,,,,,,,,,,,
null,,rt_plussign_withcolor3,1182858,,,,,,,,green,,,null,object_10b.png,object_09c.png,,,,,,,,,,,,,,,,,,
1235.300000011921,,rt_thecrossant_black3,1184226,,,,,,,,black_plus_sign,,,50,,,,1,,,,,,0.9545454545454546,,,,,,,,,,
null,,color_black3,1184327,,,,,,,,black_plus_sign,,,null,,,,,,,,,,,,,,,,,,,,
null,,learn_phase(without_color)3,1187829,,,,,,,,black_plus_sign,,,null,object_01c.png,object_01b.png,,,,,,,,,,,,,,,,,,
null,,black_cross(without_color)3,1188656,,,,,,,,blue,,,null,object_01c.png,object_01b.png,,,,,,,,,,,,,,,,,,
null,,rt_plussign_withcolor3,1189157,,,,,,,,blue,,,null,object_01c.png,object_01b.png,,,,,,,,,,,,,,,,,,
1174.800000011921,,rt_thecrossant_black3,1190335,,,,,,,,black_plus_sign,,,49,,,,1,,,,,,0.9565217391304348,,,,,,,,,,
null,,color_black3,1190438,,,,,,,,black_plus_sign,,,null,,,,,,,,,,,,,,,,,,,,
null,,learn_phase(without_color)3,1193940,,,,,,,,black_plus_sign,,,null,object_09b.png,object_05a.png,,,,,,,,,,,,,,,,,,
null,,black_cross(without_color)3,1194793,,,,,,,,green,,,null,object_09b.png,object_05a.png,,,,,,,,,,,,,,,,,,
null,,rt_plussign_withcolor3,1195296,,,,,,,,green,,,null,object_09b.png,object_05a.png,,,,,,,,,,,,,,,,,,
1082.1000000238419,,rt_thecrossant_black3,1196445,,,,,,,,black_plus_sign,,,50,,,,1,,,,,,0.9583333333333334,,,,,,,,,,
null,,color_black3,1196547,,,,,,,,black_plus_sign,,,null,,,,,,,,,,,,,,,,,,,,
null,,learn_phase(without_color)3,1200063,,,,,,,,black_plus_sign,,,null,object_02c.png,object_05b.png,,,,,,,,,,,,,,,,,,
null,,black_cross(without_color)3,1200738,,,,,,,,green,,,null,object_02c.png,object_05b.png,,,,,,,,,,,,,,,,,,
null,,rt_plussign_withcolor3,1201240,,,,,,,,green,,,null,object_02c.png,object_05b.png,,,,,,,,,,,,,,,,,,
1140.7000000178814,,rt_thecrossant_black3,1202570,,,,,,,,black_plus_sign,,,50,,,,1,,,,,,0.96,,,,,,,,,,
null,,color_black3,1202672,,,,,,,,black_plus_sign,,,null,,,,,,,,,,,,,,,,,,,,
null,,learn_phase(without_color)3,1206174,,,,,,,,black_plus_sign,,,null,object_13a.png,object_06a.png,,,,,,,,,,,,,,,,,,
null,,black_cross(without_color)3,1206959,,,,,,,,blue,,,null,object_13a.png,object_06a.png,,,,,,,,,,,,,,,,,,
null,,rt_plussign_withcolor3,1207460,,,,,,,,blue,,,null,object_13a.png,object_06a.png,,,,,,,,,,,,,,,,,,
821,,rt_thecrossant_black3,1208680,,,,,,,,black_plus_sign,,,49,,,,1,,,,,,0.9615384615384616,,,,,,,,,,
null,,color_black3,1208782,,,,,,,,black_plus_sign,,,null,,,,,,,,,,,,,,,,,,,,
null,,learn_phase(without_color)3,1212284,,,,,,,,black_plus_sign,,,null,object_06a.png,object_02a.png,,,,,,,,,,,,,,,,,,
null,,black_cross(without_color)3,1213105,,,,,,,,blue,,,null,object_06a.png,object_02a.png,,,,,,,,,,,,,,,,,,
null,,rt_plussign_withcolor3,1213607,,,,,,,,blue,,,null,object_06a.png,object_02a.png,,,,,,,,,,,,,,,,,,
1040.2000000178814,,rt_thecrossant_black3,1214791,,,,,,,,black_plus_sign,,,49,,,,1,,,,,,0.9629629629629629,,,,,,,,,,
null,,color_black3,1214892,,,,,,,,black_plus_sign,,,null,,,,,,,,,,,,,,,,,,,,
null,,learn_phase(without_color)3,1218395,,,,,,,,black_plus_sign,,,null,object_04a.png,object_09a.png,,,,,,,,,,,,,,,,,,
null,,black_cross(without_color)3,1219091,,,,,,,,green,,,null,object_04a.png,object_09a.png,,,,,,,,,,,,,,,,,,
null,,rt_plussign_withcolor3,1219593,,,,,,,,green,,,null,object_04a.png,object_09a.png,,,,,,,,,,,,,,,,,,
1130.5999999940395,,rt_thecrossant_black3,1220901,,,,,,,,black_plus_sign,,,50,,,,1,,,,,,0.9642857142857143,,,,,,,,,,
null,,color_black3,1221003,,,,,,,,black_plus_sign,,,null,,,,,,,,,,,,,,,,,,,,
null,,learn_phase(without_color)3,1224506,,,,,,,,black_plus_sign,,,null,object_08a.png,object_01c.png,,,,,,,,,,,,,,,,,,
null,,black_cross(without_color)3,1225335,,,,,,,,blue,,,null,object_08a.png,object_01c.png,,,,,,,,,,,,,,,,,,
null,,rt_plussign_withcolor3,1225837,,,,,,,,blue,,,null,object_08a.png,object_01c.png,,,,,,,,,,,,,,,,,,
986,,rt_thecrossant_black3,1227014,,,,,,,,black_plus_sign,,,49,,,,1,,,,,,0.9655172413793104,,,,,,,,,,
null,,color_black3,1227116,,,,,,,,black_plus_sign,,,null,,,,,,,,,,,,,,,,,,,,
null,,thebreak,1227219,,,,,,,,<p></p>,,,null,,,,,,,,,,,,,,,,,,,,
1657.699999988079,,intro_0,1228878,,,,,,,,instruct,,,32,,,,,,,,,,,,,,,,,,,,
2542.800000011921,,directmemory_phase3,1231422,,,,,,,,object_03c.png,,,50,,,,0,object_06c.png,object_04b.png,object_13c.png,object_13c.png,,0.5245901639344263,,0,,,,,,,,
2646.5,,directmemory_phase3,1234070,,,,,,,,object_11b.png,,,50,,,,0,object_14a.png,object_07c.png,object_05a.png,object_14a.png,,0.5161290322580645,,0,,,,,,,,
1613.9000000059605,,directmemory_phase3,1235686,,,,,,,,object_01c.png,,,50,,,,1,object_15b.png,object_08a.png,object_15c.png,object_08a.png,,0.5238095238095238,,1,,,,,,,,
1902.3999999761581,,directmemory_phase3,1237590,,,,,,,,object_12b.png,,,51,,,,1,object_14c.png,object_09b.png,object_15a.png,object_15a.png,,0.53125,,1,,,,,,,,
2517.9000000059605,,directmemory_phase3,1240110,,,,,,,,object_01b.png,,,49,,,,0,object_03c.png,object_05c.png,object_01c.png,object_01c.png,,0.5230769230769231,,0,,,,,,,,
1766.0999999940395,,directmemory_phase3,1241878,,,,,,,,object_06a.png,,,51,,,,1,object_15b.png,object_04b.png,object_13a.png,object_13a.png,,0.5303030303030303,,1,,,,,,,,
2686.399999976158,,directmemory_phase3,1244566,,,,,,,,object_05a.png,,,49,,,,0,object_15c.png,object_04b.png,object_09b.png,object_09b.png,,0.5223880597014925,,0,,,,,,,,
2037.9000000059605,,directmemory_phase3,1246606,,,,,,,,object_02a.png,,,51,,,,1,object_10b.png,object_04a.png,object_06a.png,object_06a.png,,0.5294117647058824,,1,,,,,,,,
2478.0999999940395,,directmemory_phase3,1249086,,,,,,,,object_07c.png,,,50,,,,0,object_13a.png,object_12a.png,object_14c.png,object_14c.png,,0.5217391304347826,,0,,,,,,,,
2374.300000011921,,directmemory_phase3,1251462,,,,,,,,object_09a.png,,,50,,,,1,object_10b.png,object_04a.png,object_03c.png,object_04a.png,,0.5285714285714286,,1,,,,,,,,
1726.2000000178814,,directmemory_phase3,1253190,,,,,,,,object_11c.png,,,50,,,,1,object_05a.png,object_07c.png,object_14a.png,object_07c.png,,0.5352112676056338,,1,,,,,,,,
2381.9000000059605,,directmemory_phase3,1255573,,,,,,,,object_05c.png,,,49,,,,1,object_15c.png,object_10c.png,object_02b.png,object_15c.png,,0.5416666666666666,,1,,,,,,,,
2990.600000023842,,directmemory_phase3,1258565,,,,,,,,object_02c.png,,,50,,,,1,object_08a.png,object_06c.png,object_09b.png,object_06c.png,,0.547945205479452,,1,,,,,,,,
2606.2000000178814,,directmemory_phase3,1261173,,,,,,,,object_13b.png,,,50,,,,1,object_14c.png,object_10c.png,object_13a.png,object_10c.png,,0.5540540540540541,,1,,,,,,,,
2374,,directmemory_phase3,1263549,,,,,,,,object_07b.png,,,50,,,,1,object_02c.png,object_05c.png,object_12c.png,object_05c.png,,0.56,,1,,,,,,,,
2270.5,,directmemory_phase3,1265822,,,,,,,,object_10b.png,,,49,,,,1,object_02b.png,object_13c.png,object_10c.png,object_02b.png,,0.5657894736842105,,1,,,,,,,,
2366.2000000178814,,directmemory_phase3,1268189,,,,,,,,object_08b.png,,,50,,,,1,object_07c.png,object_05a.png,object_01c.png,object_05a.png,,0.5714285714285714,,1,,,,,,,,
2630.2000000178814,,directmemory_phase3,1270821,,,,,,,,object_08c.png,,,51,,,,1,object_02c.png,object_05a.png,object_14b.png,object_14b.png,,0.5769230769230769,,1,,,,,,,,
1774.4000000059605,,directmemory_phase3,1272598,,,,,,,,object_03b.png,,,49,,,,0,object_03c.png,object_12b.png,object_10b.png,object_12b.png,,0.569620253164557,,0,,,,,,,,
2165.699999988079,,directmemory_phase3,1274765,,,,,,,,object_04c.png,,,51,,,,1,object_05c.png,object_02c.png,object_13b.png,object_13b.png,,0.575,,1,,,,,,,,
2726.4000000059605,,directmemory_phase3,1277493,,,,,,,,object_14b.png,,,49,,,,1,object_01a.png,object_04b.png,object_08a.png,object_01a.png,,0.5802469135802469,,1,,,,,,,,
3086,,directmemory_phase3,1280581,,,,,,,,object_14a.png,,,51,,,,0,object_04b.png,object_06b.png,object_12a.png,object_04b.png,,0.573170731707317,,0,,,,,,,,
3094,,directmemory_phase3,1283677,,,,,,,,object_04a.png,,,49,,,,1,object_06b.png,object_04b.png,object_14c.png,object_06b.png,,0.5783132530120482,,1,,,,,,,,
2157.9000000059605,,directmemory_phase3,1285837,,,,,,,,object_10a.png,,,50,,,,0,object_15b.png,object_13a.png,object_12a.png,object_15b.png,,0.5714285714285714,,0,,,,,,,,
2574.399999976158,,directmemory_phase3,1288413,,,,,,,,object_11a.png,,,51,,,,0,object_03c.png,object_04a.png,object_02c.png,object_03c.png,,0.5647058823529412,,0,,,,,,,,
2326.2999999821186,,directmemory_phase3,1290741,,,,,,,,object_09c.png,,,50,,,,0,object_07c.png,object_12c.png,object_10b.png,object_10b.png,,0.5581395348837209,,0,,,,,,,,
3326.2000000178814,,directmemory_phase3,1294069,,,,,,,,object_05b.png,,,50,,,,0,object_12b.png,object_14a.png,object_02c.png,object_02c.png,,0.5517241379310345,,0,,,,,,,,
3029.9000000059605,,directmemory_phase3,1297101,,,,,,,,object_12c.png,,,51,,,,1,object_15b.png,object_06c.png,object_12a.png,object_12a.png,,0.5568181818181818,,1,,,,,,,,
2398.0999999940395,,directmemory_phase3,1299501,,,,,,,,object_07a.png,,,51,,,,1,object_04a.png,object_10b.png,object_12c.png,object_12c.png,,0.5617977528089888,,1,,,,,,,,
1910.0999999940395,,directmemory_phase3,1301413,,,,,,,,object_03a.png,,,50,,,,1,object_10b.png,object_10a.png,object_14a.png,object_10a.png,,0.5666666666666667,,1,,,,,,,,
null,,thebreak,1301515,,,,,,,,<p></p>,,,null,,,,,,,,,,,,,,,,,,,,
1776.4000000059605,,intro_0,1303293,,,,,,,,instruct,,,32,,,,,,,,,,,,,,,,,,,,
null,,learn_phase(without_color)4,1306795,,,,,,,,black_plus_sign,,,null,object_13b.png,object_04c.png,,,,,,,,,,,,,,,,,,
null,,black_cross(without_color)4,1307404,,,,,,,,green,,,null,object_13b.png,object_04c.png,,,,,,,,,,,,,,,,,,
null,,rt_plussign_withcolor4,1307905,,,,,,,,green,,,null,object_13b.png,object_04c.png,,,,,,,,,,,,,,,,,,
925.5,,rt_thecrossant_black4,1309300,,,,,,,,black_plus_sign,,,50,,,,1,,,,,,1,,,,,,,,,,
null,,color_black4,1309403,,,,,,,,black_plus_sign,,,null,,,,,,,,,,,,,,,,,,,,
null,,learn_phase(without_color)4,1312906,,,,,,,,black_plus_sign,,,null,object_01a.png,object_14b.png,,,,,,,,,,,,,,,,,,
null,,black_cross(without_color)4,1313378,,,,,,,,blue,,,null,object_01a.png,object_14b.png,,,,,,,,,,,,,,,,,,
null,,rt_plussign_withcolor4,1313880,,,,,,,,blue,,,null,object_01a.png,object_14b.png,,,,,,,,,,,,,,,,,,
726.5999999940395,,rt_thecrossant_black4,1315414,,,,,,,,black_plus_sign,,,49,,,,1,,,,,,1,,,,,,,,,,
null,,color_black4,1315515,,,,,,,,black_plus_sign,,,null,,,,,,,,,,,,,,,,,,,,
null,,learn_phase(without_color)4,1319017,,,,,,,,black_plus_sign,,,null,object_12b.png,object_03b.png,,,,,,,,,,,,,,,,,,
null,,black_cross(without_color)4,1319660,,,,,,,,green,,,null,object_12b.png,object_03b.png,,,,,,,,,,,,,,,,,,
null,,rt_plussign_withcolor4,1320162,,,,,,,,green,,,null,object_12b.png,object_03b.png,,,,,,,,,,,,,,,,,,
1850.7999999821186,,rt_thecrossant_black4,1321524,,,,,,,,black_plus_sign,,,49,,,,0,,,,,,0.6666666666666666,,,,,,,,,,
null,,color_black4,1321626,,,,,,,,black_plus_sign,,,null,,,,,,,,,,,,,,,,,,,,
null,,learn_phase(without_color)4,1325128,,,,,,,,black_plus_sign,,,null,object_03c.png,object_11a.png,,,,,,,,,,,,,,,,,,
null,,black_cross(without_color)4,1326096,,,,,,,,blue,,,null,object_03c.png,object_11a.png,,,,,,,,,,,,,,,,,,
null,,rt_plussign_withcolor4,1326597,,,,,,,,blue,,,null,object_03c.png,object_11a.png,,,,,,,,,,,,,,,,,,
899.3000000119209,,rt_thecrossant_black4,1327634,,,,,,,,black_plus_sign,,,49,,,,1,,,,,,0.75,,,,,,,,,,
null,,color_black4,1327736,,,,,,,,black_plus_sign,,,null,,,,,,,,,,,,,,,,,,,,
null,,learn_phase(without_color)4,1331238,,,,,,,,black_plus_sign,,,null,object_09b.png,object_05a.png,,,,,,,,,,,,,,,,,,
null,,black_cross(without_color)4,1332071,,,,,,,,green,,,null,object_09b.png,object_05a.png,,,,,,,,,,,,,,,,,,
null,,rt_plussign_withcolor4,1332573,,,,,,,,green,,,null,object_09b.png,object_05a.png,,,,,,,,,,,,,,,,,,
1288.4000000059605,,rt_thecrossant_black4,1333745,,,,,,,,black_plus_sign,,,50,,,,1,,,,,,0.8,,,,,,,,,,
null,,color_black4,1333847,,,,,,,,black_plus_sign,,,null,,,,,,,,,,,,,,,,,,,,
null,,learn_phase(without_color)4,1337350,,,,,,,,black_plus_sign,,,null,object_14c.png,object_07c.png,,,,,,,,,,,,,,,,,,
null,,black_cross(without_color)4,1338187,,,,,,,,blue,,,null,object_14c.png,object_07c.png,,,,,,,,,,,,,,,,,,
null,,rt_plussign_withcolor4,1338690,,,,,,,,blue,,,null,object_14c.png,object_07c.png,,,,,,,,,,,,,,,,,,
1029,,rt_thecrossant_black4,1339857,,,,,,,,black_plus_sign,,,49,,,,1,,,,,,0.8333333333333334,,,,,,,,,,
null,,color_black4,1339959,,,,,,,,black_plus_sign,,,null,,,,,,,,,,,,,,,,,,,,
null,,learn_phase(without_color)4,1343461,,,,,,,,black_plus_sign,,,null,object_06c.png,object_02c.png,,,,,,,,,,,,,,,,,,
null,,black_cross(without_color)4,1344102,,,,,,,,green,,,null,object_06c.png,object_02c.png,,,,,,,,,,,,,,,,,,
null,,rt_plussign_withcolor4,1344604,,,,,,,,green,,,null,object_06c.png,object_02c.png,,,,,,,,,,,,,,,,,,
1143.0999999940395,,rt_thecrossant_black4,1345967,,,,,,,,black_plus_sign,,,50,,,,1,,,,,,0.8571428571428571,,,,,,,,,,
null,,color_black4,1346070,,,,,,,,black_plus_sign,,,null,,,,,,,,,,,,,,,,,,,,
null,,learn_phase(without_color)4,1349572,,,,,,,,black_plus_sign,,,null,object_15c.png,object_05c.png,,,,,,,,,,,,,,,,,,
null,,black_cross(without_color)4,1350254,,,,,,,,blue,,,null,object_15c.png,object_05c.png,,,,,,,,,,,,,,,,,,
477.69999998807907,,rt_plussign_withcolor4,1350755,,,,,,,,blue,,,49,object_15c.png,object_05c.png,,,,,,,,,,,,,,,,,,
null,,rt_thecrossant_black4,1352077,,,,,,,,black_plus_sign,,,null,,,,1,,,,,,0.875,,,,,,,,,,
null,,color_black4,1352178,,,,,,,,black_plus_sign,,,null,,,,,,,,,,,,,,,,,,,,
null,,learn_phase(without_color)4,1355681,,,,,,,,black_plus_sign,,,null,object_14b.png,object_08c.png,,,,,,,,,,,,,,,,,,
null,,black_cross(without_color)4,1356283,,,,,,,,blue,,,null,object_14b.png,object_08c.png,,,,,,,,,,,,,,,,,,
null,,rt_plussign_withcolor4,1356784,,,,,,,,blue,,,null,object_14b.png,object_08c.png,,,,,,,,,,,,,,,,,,
919.2000000178814,,rt_thecrossant_black4,1358187,,,,,,,,black_plus_sign,,,49,,,,1,,,,,,0.8888888888888888,,,,,,,,,,
null,,color_black4,1358289,,,,,,,,black_plus_sign,,,null,,,,,,,,,,,,,,,,,,,,
null,,learn_phase(without_color)4,1361792,,,,,,,,black_plus_sign,,,null,object_15b.png,object_10a.png,,,,,,,,,,,,,,,,,,
null,,black_cross(without_color)4,1362595,,,,,,,,blue,,,null,object_15b.png,object_10a.png,,,,,,,,,,,,,,,,,,
null,,rt_plussign_withcolor4,1363097,,,,,,,,blue,,,null,object_15b.png,object_10a.png,,,,,,,,,,,,,,,,,,
710.0999999940395,,rt_thecrossant_black4,1364297,,,,,,,,black_plus_sign,,,49,,,,1,,,,,,0.9,,,,,,,,,,
null,,color_black4,1364399,,,,,,,,black_plus_sign,,,null,,,,,,,,,,,,,,,,,,,,
null,,learn_phase(without_color)4,1367902,,,,,,,,black_plus_sign,,,null,object_15a.png,object_12b.png,,,,,,,,,,,,,,,,,,
null,,black_cross(without_color)4,1368307,,,,,,,,blue,,,null,object_15a.png,object_12b.png,,,,,,,,,,,,,,,,,,
489.5,,rt_plussign_withcolor4,1368808,,,,,,,,blue,,,49,object_15a.png,object_12b.png,,,,,,,,,,,,,,,,,,
null,,rt_thecrossant_black4,1370407,,,,,,,,black_plus_sign,,,null,,,,1,,,,,,0.9090909090909091,,,,,,,,,,
null,,color_black4,1370509,,,,,,,,black_plus_sign,,,null,,,,,,,,,,,,,,,,,,,,
null,,learn_phase(without_color)4,1374012,,,,,,,,black_plus_sign,,,null,object_02b.png,object_10b.png,,,,,,,,,,,,,,,,,,
null,,black_cross(without_color)4,1374659,,,,,,,,blue,,,null,object_02b.png,object_10b.png,,,,,,,,,,,,,,,,,,
null,,rt_plussign_withcolor4,1375169,,,,,,,,blue,,,null,object_02b.png,object_10b.png,,,,,,,,,,,,,,,,,,
616.9000000059605,,rt_thecrossant_black4,1376527,,,,,,,,black_plus_sign,,,49,,,,1,,,,,,0.9166666666666666,,,,,,,,,,
null,,color_black4,1376629,,,,,,,,black_plus_sign,,,null,,,,,,,,,,,,,,,,,,,,
null,,learn_phase(without_color)4,1380131,,,,,,,,black_plus_sign,,,null,object_10b.png,object_09c.png,,,,,,,,,,,,,,,,,,
null,,black_cross(without_color)4,1380558,,,,,,,,green,,,null,object_10b.png,object_09c.png,,,,,,,,,,,,,,,,,,
null,,rt_plussign_withcolor4,1381060,,,,,,,,green,,,null,object_10b.png,object_09c.png,,,,,,,,,,,,,,,,,,
960.6999999880791,,rt_thecrossant_black4,1382636,,,,,,,,black_plus_sign,,,50,,,,1,,,,,,0.9230769230769231,,,,,,,,,,
null,,color_black4,1382739,,,,,,,,black_plus_sign,,,null,,,,,,,,,,,,,,,,,,,,
null,,learn_phase(without_color)4,1386241,,,,,,,,black_plus_sign,,,null,object_12a.png,object_12c.png,,,,,,,,,,,,,,,,,,
null,,black_cross(without_color)4,1387252,,,,,,,,green,,,null,object_12a.png,object_12c.png,,,,,,,,,,,,,,,,,,
null,,rt_plussign_withcolor4,1387754,,,,,,,,green,,,null,object_12a.png,object_12c.png,,,,,,,,,,,,,,,,,,
717.7999999821186,,rt_thecrossant_black4,1388748,,,,,,,,black_plus_sign,,,50,,,,1,,,,,,0.9285714285714286,,,,,,,,,,
null,,color_black4,1388849,,,,,,,,black_plus_sign,,,null,,,,,,,,,,,,,,,,,,,,
null,,learn_phase(without_color)4,1392351,,,,,,,,black_plus_sign,,,null,object_04a.png,object_09a.png,,,,,,,,,,,,,,,,,,
null,,black_cross(without_color)4,1392861,,,,,,,,green,,,null,object_04a.png,object_09a.png,,,,,,,,,,,,,,,,,,
null,,rt_plussign_withcolor4,1393363,,,,,,,,green,,,null,object_04a.png,object_09a.png,,,,,,,,,,,,,,,,,,
1373.5,,rt_thecrossant_black4,1394857,,,,,,,,black_plus_sign,,,50,,,,1,,,,,,0.9333333333333333,,,,,,,,,,
null,,color_black4,1394958,,,,,,,,black_plus_sign,,,null,,,,,,,,,,,,,,,,,,,,
null,,learn_phase(without_color)4,1398461,,,,,,,,black_plus_sign,,,null,object_08a.png,object_01c.png,,,,,,,,,,,,,,,,,,
null,,black_cross(without_color)4,1399307,,,,,,,,blue,,,null,object_08a.png,object_01c.png,,,,,,,,,,,,,,,,,,
null,,rt_plussign_withcolor4,1399809,,,,,,,,blue,,,null,object_08a.png,object_01c.png,,,,,,,,,,,,,,,,,,
681.7000000178814,,rt_thecrossant_black4,1400967,,,,,,,,black_plus_sign,,,49,,,,1,,,,,,0.9375,,,,,,,,,,
null,,color_black4,1401070,,,,,,,,black_plus_sign,,,null,,,,,,,,,,,,,,,,,,,,
null,,learn_phase(without_color)4,1404572,,,,,,,,black_plus_sign,,,null,object_10a.png,object_03a.png,,,,,,,,,,,,,,,,,,
null,,black_cross(without_color)4,1405308,,,,,,,,blue,,,null,object_10a.png,object_03a.png,,,,,,,,,,,,,,,,,,
null,,rt_plussign_withcolor4,1405809,,,,,,,,blue,,,null,object_10a.png,object_03a.png,,,,,,,,,,,,,,,,,,
1123.300000011921,,rt_thecrossant_black4,1407090,,,,,,,,black_plus_sign,,,49,,,,1,,,,,,0.9411764705882353,,,,,,,,,,
null,,color_black4,1407192,,,,,,,,black_plus_sign,,,null,,,,,,,,,,,,,,,,,,,,
null,,learn_phase(without_color)4,1410695,,,,,,,,black_plus_sign,,,null,object_01c.png,object_01b.png,,,,,,,,,,,,,,,,,,
null,,black_cross(without_color)4,1411424,,,,,,,,green,,,null,object_01c.png,object_01b.png,,,,,,,,,,,,,,,,,,
null,,rt_plussign_withcolor4,1411926,,,,,,,,green,,,null,object_01c.png,object_01b.png,,,,,,,,,,,,,,,,,,
1015.3999999761581,,rt_thecrossant_black4,1413201,,,,,,,,black_plus_sign,,,50,,,,1,,,,,,0.9444444444444444,,,,,,,,,,
null,,color_black4,1413303,,,,,,,,black_plus_sign,,,null,,,,,,,,,,,,,,,,,,,,
null,,learn_phase(without_color)4,1416806,,,,,,,,black_plus_sign,,,null,object_12c.png,object_07a.png,,,,,,,,,,,,,,,,,,
null,,black_cross(without_color)4,1417768,,,,,,,,green,,,null,object_12c.png,object_07a.png,,,,,,,,,,,,,,,,,,
null,,rt_plussign_withcolor4,1418270,,,,,,,,green,,,null,object_12c.png,object_07a.png,,,,,,,,,,,,,,,,,,
1065,,rt_thecrossant_black4,1419312,,,,,,,,black_plus_sign,,,50,,,,1,,,,,,0.9473684210526315,,,,,,,,,,
null,,color_black4,1419414,,,,,,,,black_plus_sign,,,null,,,,,,,,,,,,,,,,,,,,
null,,learn_phase(without_color)4,1422917,,,,,,,,black_plus_sign,,,null,object_10c.png,object_13b.png,,,,,,,,,,,,,,,,,,
null,,black_cross(without_color)4,1423472,,,,,,,,green,,,null,object_10c.png,object_13b.png,,,,,,,,,,,,,,,,,,
null,,rt_plussign_withcolor4,1423974,,,,,,,,green,,,null,object_10c.png,object_13b.png,,,,,,,,,,,,,,,,,,
1226.4000000059605,,rt_thecrossant_black4,1425423,,,,,,,,black_plus_sign,,,50,,,,1,,,,,,0.95,,,,,,,,,,
null,,color_black4,1425526,,,,,,,,black_plus_sign,,,null,,,,,,,,,,,,,,,,,,,,
null,,learn_phase(without_color)4,1429028,,,,,,,,black_plus_sign,,,null,object_07c.png,object_11c.png,,,,,,,,,,,,,,,,,,
null,,black_cross(without_color)4,1430031,,,,,,,,blue,,,null,object_07c.png,object_11c.png,,,,,,,,,,,,,,,,,,
null,,rt_plussign_withcolor4,1430534,,,,,,,,blue,,,null,object_07c.png,object_11c.png,,,,,,,,,,,,,,,,,,
738.6999999880791,,rt_thecrossant_black4,1431535,,,,,,,,black_plus_sign,,,49,,,,1,,,,,,0.9523809523809523,,,,,,,,,,
null,,color_black4,1431638,,,,,,,,black_plus_sign,,,null,,,,,,,,,,,,,,,,,,,,
null,,learn_phase(without_color)4,1435140,,,,,,,,black_plus_sign,,,null,object_14a.png,object_11b.png,,,,,,,,,,,,,,,,,,
null,,black_cross(without_color)4,1436022,,,,,,,,green,,,null,object_14a.png,object_11b.png,,,,,,,,,,,,,,,,,,
null,,rt_plussign_withcolor4,1436535,,,,,,,,green,,,null,object_14a.png,object_11b.png,,,,,,,,,,,,,,,,,,
1576.300000011921,,rt_thecrossant_black4,1437658,,,,,,,,black_plus_sign,,,50,,,,1,,,,,,0.9545454545454546,,,,,,,,,,
null,,color_black4,1437759,,,,,,,,black_plus_sign,,,null,,,,,,,,,,,,,,,,,,,,
null,,learn_phase(without_color)4,1441262,,,,,,,,black_plus_sign,,,null,object_13c.png,object_03c.png,,,,,,,,,,,,,,,,,,
null,,black_cross(without_color)4,1441992,,,,,,,,blue,,,null,object_13c.png,object_03c.png,,,,,,,,,,,,,,,,,,
null,,rt_plussign_withcolor4,1442493,,,,,,,,blue,,,null,object_13c.png,object_03c.png,,,,,,,,,,,,,,,,,,
1473.7000000178814,,rt_thecrossant_black4,1443768,,,,,,,,black_plus_sign,,,49,,,,1,,,,,,0.9565217391304348,,,,,,,,,,
null,,color_black4,1443871,,,,,,,,black_plus_sign,,,null,,,,,,,,,,,,,,,,,,,,
null,,learn_phase(without_color)4,1447374,,,,,,,,black_plus_sign,,,null,object_02c.png,object_05b.png,,,,,,,,,,,,,,,,,,
null,,black_cross(without_color)4,1447951,,,,,,,,blue,,,null,object_02c.png,object_05b.png,,,,,,,,,,,,,,,,,,
null,,rt_plussign_withcolor4,1448453,,,,,,,,blue,,,null,object_02c.png,object_05b.png,,,,,,,,,,,,,,,,,,
1081.5,,rt_thecrossant_black4,1449879,,,,,,,,black_plus_sign,,,49,,,,1,,,,,,0.9583333333333334,,,,,,,,,,
null,,color_black4,1449981,,,,,,,,black_plus_sign,,,null,,,,,,,,,,,,,,,,,,,,
null,,learn_phase(without_color)4,1453484,,,,,,,,black_plus_sign,,,null,object_04b.png,object_14a.png,,,,,,,,,,,,,,,,,,
null,,black_cross(without_color)4,1454185,,,,,,,,green,,,null,object_04b.png,object_14a.png,,,,,,,,,,,,,,,,,,
null,,rt_plussign_withcolor4,1454688,,,,,,,,green,,,null,object_04b.png,object_14a.png,,,,,,,,,,,,,,,,,,
831.0999999940395,,rt_thecrossant_black4,1455992,,,,,,,,black_plus_sign,,,50,,,,1,,,,,,0.96,,,,,,,,,,
null,,color_black4,1456093,,,,,,,,black_plus_sign,,,null,,,,,,,,,,,,,,,,,,,,
null,,learn_phase(without_color)4,1459597,,,,,,,,black_plus_sign,,,null,object_06b.png,object_04a.png,,,,,,,,,,,,,,,,,,
null,,black_cross(without_color)4,1460032,,,,,,,,green,,,null,object_06b.png,object_04a.png,,,,,,,,,,,,,,,,,,
null,,rt_plussign_withcolor4,1460534,,,,,,,,green,,,null,object_06b.png,object_04a.png,,,,,,,,,,,,,,,,,,
1003.3000000119209,,rt_thecrossant_black4,1462105,,,,,,,,black_plus_sign,,,50,,,,1,,,,,,0.9615384615384616,,,,,,,,,,
null,,color_black4,1462208,,,,,,,,black_plus_sign,,,null,,,,,,,,,,,,,,,,,,,,
null,,learn_phase(without_color)4,1465710,,,,,,,,black_plus_sign,,,null,object_05c.png,object_07b.png,,,,,,,,,,,,,,,,,,
null,,black_cross(without_color)4,1466220,,,,,,,,blue,,,null,object_05c.png,object_07b.png,,,,,,,,,,,,,,,,,,
null,,rt_plussign_withcolor4,1466721,,,,,,,,blue,,,null,object_05c.png,object_07b.png,,,,,,,,,,,,,,,,,,
645.5,,rt_thecrossant_black4,1468216,,,,,,,,black_plus_sign,,,49,,,,1,,,,,,0.9629629629629629,,,,,,,,,,
null,,color_black4,1468319,,,,,,,,black_plus_sign,,,null,,,,,,,,,,,,,,,,,,,,
null,,learn_phase(without_color)4,1471821,,,,,,,,black_plus_sign,,,null,object_05a.png,object_08b.png,,,,,,,,,,,,,,,,,,
null,,black_cross(without_color)4,1472526,,,,,,,,green,,,null,object_05a.png,object_08b.png,,,,,,,,,,,,,,,,,,
421.30000001192093,,rt_plussign_withcolor4,1473028,,,,,,,,green,,,49,object_05a.png,object_08b.png,,,,,,,,,,,,,,,,,,
null,,rt_thecrossant_black4,1474327,,,,,,,,black_plus_sign,,,50,,,,0,,,,,,0.9285714285714286,,,,,,,,,,
null,,color_black4,1474429,,,,,,,,black_plus_sign,,,null,,,,,,,,,,,,,,,,,,,,
null,,learn_phase(without_color)4,1477931,,,,,,,,black_plus_sign,,,null,object_06a.png,object_02a.png,,,,,,,,,,,,,,,,,,
null,,black_cross(without_color)4,1478742,,,,,,,,green,,,null,object_06a.png,object_02a.png,,,,,,,,,,,,,,,,,,
null,,rt_plussign_withcolor4,1479243,,,,,,,,green,,,null,object_06a.png,object_02a.png,,,,,,,,,,,,,,,,,,
986.5,,rt_thecrossant_black4,1480436,,,,,,,,black_plus_sign,,,50,,,,1,,,,,,0.9310344827586207,,,,,,,,,,
null,,color_black4,1480538,,,,,,,,black_plus_sign,,,null,,,,,,,,,,,,,,,,,,,,
null,,learn_phase(without_color)4,1484041,,,,,,,,black_plus_sign,,,null,object_13a.png,object_06a.png,,,,,,,,,,,,,,,,,,
null,,black_cross(without_color)4,1484690,,,,,,,,green,,,null,object_13a.png,object_06a.png,,,,,,,,,,,,,,,,,,
null,,rt_plussign_withcolor4,1485192,,,,,,,,green,,,null,object_13a.png,object_06a.png,,,,,,,,,,,,,,,,,,
1103.4000000059605,,rt_thecrossant_black4,1486546,,,,,,,,black_plus_sign,,,50,,,,1,,,,,,0.9333333333333333,,,,,,,,,,
null,,color_black4,1486647,,,,,,,,black_plus_sign,,,null,,,,,,,,,,,,,,,,,,,,
null,,thebreak,1486750,,,,,,,,<p></p>,,,null,,,,,,,,,,,,,,,,,,,,
1781,,intro_0,1488532,,,,,,,,instruct,,,32,,,,,,,,,,,,,,,,,,,,
3246.800000011921,,directmemory_phase4,1491780,,,,,,,,object_04c.png,,,49,,,,0,object_03c.png,object_13b.png,object_07c.png,object_13b.png,,0.5604395604395604,,0,,,,,,,,
3253.800000011921,,directmemory_phase4,1495036,,,,,,,,object_04a.png,,,50,,,,0,object_08a.png,object_13c.png,object_06b.png,object_06b.png,,0.5543478260869565,,0,,,,,,,,
2126.0999999940395,,directmemory_phase4,1497164,,,,,,,,object_02a.png,,,51,,,,1,object_07c.png,object_01c.png,object_06a.png,object_06a.png,,0.5591397849462365,,1,,,,,,,,
1973.9000000059605,,directmemory_phase4,1499140,,,,,,,,object_05b.png,,,50,,,,1,object_13b.png,object_02c.png,object_06a.png,object_02c.png,,0.5638297872340425,,1,,,,,,,,
2134,,directmemory_phase4,1501276,,,,,,,,object_11a.png,,,51,,,,1,object_06a.png,object_07c.png,object_03c.png,object_03c.png,,0.5684210526315789,,1,,,,,,,,
1862,,directmemory_phase4,1503140,,,,,,,,object_11b.png,,,50,,,,1,object_05a.png,object_14a.png,object_01c.png,object_14a.png,,0.5729166666666666,,1,,,,,,,,
2269.9000000059605,,directmemory_phase4,1505412,,,,,,,,object_07c.png,,,49,,,,1,object_14c.png,object_08a.png,object_10c.png,object_14c.png,,0.5773195876288659,,1,,,,,,,,
1534,,directmemory_phase4,1506948,,,,,,,,object_12b.png,,,49,,,,1,object_15a.png,object_15c.png,object_06b.png,object_15a.png,,0.5816326530612245,,1,,,,,,,,
3085.7999999821186,,directmemory_phase4,1510036,,,,,,,,object_03c.png,,,51,,,,0,object_13c.png,object_08a.png,object_15b.png,object_13c.png,,0.5757575757575758,,0,,,,,,,,
2157.9000000059605,,directmemory_phase4,1512196,,,,,,,,object_09a.png,,,50,,,,0,object_04a.png,object_05a.png,object_14a.png,object_04a.png,,0.57,,0,,,,,,,,
2238.300000011921,,directmemory_phase4,1514436,,,,,,,,object_14b.png,,,50,,,,1,object_06c.png,object_01a.png,object_09b.png,object_01a.png,,0.5742574257425742,,1,,,,,,,,
3182,,directmemory_phase4,1517620,,,,,,,,object_14a.png,,,51,,,,1,object_02b.png,object_15a.png,object_04b.png,object_04b.png,,0.5784313725490197,,1,,,,,,,,
5157.699999988079,,directmemory_phase4,1522780,,,,,,,,object_12c.png,,,51,,,,1,object_13a.png,object_10c.png,object_12a.png,object_12a.png,,0.5825242718446602,,1,,,,,,,,
3894.199999988079,,directmemory_phase4,1526676,,,,,,,,object_08c.png,,,50,,,,1,object_01c.png,object_14b.png,object_10b.png,object_14b.png,,0.5865384615384616,,1,,,,,,,,
3174.0999999940395,,directmemory_phase4,1529852,,,,,,,,object_01b.png,,,49,,,,1,object_01c.png,object_04a.png,object_05a.png,object_01c.png,,0.5904761904761905,,1,,,,,,,,
2774.0999999940395,,directmemory_phase4,1532628,,,,,,,,object_10b.png,,,49,,,,1,object_02b.png,object_15a.png,object_14c.png,object_02b.png,,0.5943396226415094,,1,,,,,,,,
3637.7000000178814,,directmemory_phase4,1536268,,,,,,,,object_05a.png,,,49,,,,0,object_13c.png,object_14c.png,object_09b.png,object_09b.png,,0.5887850467289719,,0,,,,,,,,
2294.4000000059605,,directmemory_phase4,1538564,,,,,,,,object_11c.png,,,50,,,,1,object_06a.png,object_07c.png,object_02c.png,object_07c.png,,0.5925925925925926,,1,,,,,,,,
1462,,directmemory_phase4,1540028,,,,,,,,object_06a.png,,,49,,,,1,object_13a.png,object_06b.png,object_04b.png,object_13a.png,,0.5963302752293578,,1,,,,,,,,
2358,,directmemory_phase4,1542388,,,,,,,,object_13b.png,,,51,,,,1,object_15a.png,object_04b.png,object_10c.png,object_10c.png,,0.6,,1,,,,,,,,
3246,,directmemory_phase4,1545636,,,,,,,,object_09c.png,,,49,,,,1,object_10b.png,object_04a.png,object_05a.png,object_10b.png,,0.6036036036036037,,1,,,,,,,,
1934,,directmemory_phase4,1547572,,,,,,,,object_05c.png,,,51,,,,1,object_08a.png,object_13c.png,object_15c.png,object_15c.png,,0.6071428571428571,,1,,,,,,,,
2790,,directmemory_phase4,1550364,,,,,,,,object_02c.png,,,50,,,,0,object_06c.png,object_15c.png,object_13c.png,object_06c.png,,0.6017699115044248,,0,,,,,,,,
3565.7000000178814,,directmemory_phase4,1553931,,,,,,,,object_03b.png,,,51,,,,0,object_07c.png,object_12b.png,object_05a.png,object_12b.png,,0.5964912280701754,,0,,,,,,,,
1918.0999999940395,,directmemory_phase4,1555852,,,,,,,,object_03a.png,,,51,,,,0,object_10a.png,object_07c.png,object_14a.png,object_10a.png,,0.591304347826087,,0,,,,,,,,
3262.199999988079,,directmemory_phase4,1559116,,,,,,,,object_07a.png,,,49,,,,0,object_06a.png,object_03c.png,object_12c.png,object_12c.png,,0.5862068965517241,,0,,,,,,,,
2614.100000023842,,directmemory_phase4,1561732,,,,,,,,object_08b.png,,,50,,,,1,object_03c.png,object_05a.png,object_04a.png,object_05a.png,,0.5897435897435898,,1,,,,,,,,
2917.5999999940395,,directmemory_phase4,1564652,,,,,,,,object_10a.png,,,50,,,,0,object_12a.png,object_06b.png,object_15b.png,object_15b.png,,0.5847457627118644,,0,,,,,,,,
1414,,directmemory_phase4,1566068,,,,,,,,object_07b.png,,,50,,,,1,object_02c.png,object_05c.png,object_01c.png,object_05c.png,,0.5882352941176471,,1,,,,,,,,
1517.800000011921,,directmemory_phase4,1567588,,,,,,,,object_01c.png,,,50,,,,1,object_06c.png,object_08a.png,object_09b.png,object_08a.png,,0.5916666666666667,,1,,,,,,,,
null,,thebreak,1567691,,,,,,,,<p></p>,,,null,,,,,,,,,,,,,,,,,,,,
4694.699999988079,,intro_0,1572387,,,,,,,,instruct,,,32,,,,,,,,,,,,,,,,,,,,
23342.79999998212,,intro_1,1595731,,,,,,,,instruct,,,32,,,,,,,,,,,,,,,,,,,,
6614.5999999940395,,intro_2,1602347,,,,,,,,instruct,,,32,,,,,,,,,,,,,,,,,,,,
,,intro_3,1623140,,,,,,,,instruct,,,,,,,,,,,,,,,,,,,,,,,
6389.5999999940395,,intro_4,1629531,,,,,,,,instruct,,,32,,,,,,,,,,,,,,,,,,,,
null,,thebreak,1629632,,,,,,,,<p></p>,,,null,,,,,,,,,,,,,,,,,,,,
3664.899999976158,,intro_0,1633299,,,,,,,,instruct,,,32,,,,,,,,,,,,,,,,,,,,
4679.199999988079,,intro_1,1637979,,,,,,,,instruct,,,32,,,,,,,,,,,,,,,,,,,,
6350.9000000059605,,intro_2,1644331,,,,,,,,instruct,,,32,,,,,,,,,,,,,,,,,,,,
,,intro_3,1654741,,,,,,,,instruct,,,,,,,,,,,,,,,,,,,,,,,
4532.5,,intro_4,1659274,,,,,,,,instruct,,,32,,,,,,,,,,,,,,,,,,,,
2847.300000011921,,inference_phase,1662123,,,,,,,,object_03a.png,,,49,object_14c.png,object_06b.png,,0,,,,object_15b.png,,0,,,object_15b.png,,,,,,,
2373.600000023842,,inference_phase,1664499,,,,,,,,object_07a.png,,,50,object_12a.png,object_04b.png,,0,,,,object_12a.png,,0,,,object_06b.png,,,,,,,
2662.199999988079,,inference_phase,1667163,,,,,,,,object_11c.png,,,50,object_14c.png,object_15a.png,,0,,,,object_14c.png,,0,,,object_12a.png,,,,,,,
2213.7000000178814,,inference_phase,1669379,,,,,,,,object_03b.png,,,51,object_14c.png,object_06c.png,,0,,,,object_15a.png,,0,,,object_15a.png,,,,,,,
2926.100000023842,,inference_phase,1672307,,,,,,,,object_08c.png,,,50,object_10c.png,object_01a.png,,0,,,,object_01a.png,,0,,,object_04b.png,,,,,,,
1941.5999999940395,,inference_phase,1674251,,,,,,,,object_09c.png,,,49,object_09b.png,object_02b.png,,0,,,,object_02b.png,,0,,,object_12a.png,,,,,,,
2758.199999988079,,inference_phase,1677011,,,,,,,,object_05b.png,,,50,object_06c.png,object_15a.png,,0,,,,object_06c.png,,0,,,object_14c.png,,,,,,,
2566,,inference_phase,1679579,,,,,,,,object_11b.png,,,51,object_04b.png,object_13c.png,,0,,,,object_04b.png,,0,,,object_02b.png,,,,,,,
2253.600000023842,,inference_phase,1681834,,,,,,,,object_01b.png,,,51,object_08a.png,object_06b.png,,0,,,,object_08a.png,,0,,,object_15a.png,,,,,,,
2670.0999999940395,,inference_phase,1684507,,,,,,,,object_08b.png,,,50,object_06b.png,object_04b.png,,1,,,,object_09b.png,,0.1,,,object_09b.png,,,,,,,
2070,,inference_phase,1686579,,,,,,,,object_02a.png,,,50,object_06c.png,object_14c.png,,1,,,,object_13a.png,,0.18181818181818182,,,object_13a.png,,,,,,,
1461.9000000059605,,inference_phase,1688043,,,,,,,,object_07b.png,,,51,object_13c.png,object_15c.png,,1,,,,object_15c.png,,0.25,,,object_06c.png,,,,,,,
2494.300000011921,,inference_phase,1690539,,,,,,,,object_11a.png,,,49,object_06c.png,object_15c.png,,0,,,,object_13c.png,,0.23076923076923078,,,object_13c.png,,,,,,,
2277.699999988079,,inference_phase,1692819,,,,,,,,object_09a.png,,,50,object_10c.png,object_15a.png,,1,,,,object_06b.png,,0.2857142857142857,,,object_06b.png,,,,,,,
2390.2000000178814,,inference_phase,1695211,,,,,,,,object_04c.png,,,51,object_14c.png,object_06c.png,,0,,,,object_10c.png,,0.26666666666666666,,,object_10c.png,,,,,,,
,,survey,1859236,,,,,,,,survey-questions,,,,,,,,,,,,,,,,,none,high,I didn't have time to do anything else so I gave total concentration.,I tried to make up a situation or story but most of the time I didn't time.,I think they were all super challenging equally.,No.,It was anything but boring but it was very difficult. It would have had to be a little easier to be fun but that is probably just me! Thank you so much, it is a very unique and interesting study!
