rt,responses,trial_type,time_elapsed,identifier_a,identifier_b,identifier_c,tasktype,browser_type,local_time,UTC_time,stimulus,button_pressed,response,key_press,stimulus_left,stimulus_right,accuracy,practice_cumulative_accuracy,stimulus_down_left,stimulus_down_mid,stimulus_down_right,stimulus_correct,prac_weighted_accuracy,cumulative_accuracy,weighted_accuracy
10746.5,{worker_id:63782709326973c77adc3db8},id_enter,10750,object_06b.png; object_02c.png; object_08c.png; object_11a.png; object_13b.png; object_14c.png; object_10c.png; object_02a.png; object_13a.png; object_03c.png; object_15b.png; object_01c.png; object_05b.png; object_09b.png; object_06c.png,object_01a.png; object_01b.png; object_11c.png; object_15a.png; object_09c.png; object_10a.png; object_04b.png; object_07a.png; object_07b.png; object_12c.png; object_15c.png; object_05a.png; object_05c.png; object_13c.png; object_14a.png,object_03a.png; object_12a.png; object_09a.png; object_03b.png; object_12b.png; object_02b.png; object_08b.png; object_07c.png; object_11b.png; object_04a.png; object_14b.png; object_04c.png; object_10b.png; object_08a.png; object_06a.png,blocked,Mozilla/5.0 (Windows NT 10.0; Win64; x64) AppleWebKit/537.36 (KHTML, like Gecko) Chrome/136.0.0.0 Safari/537.36,5/8/2025, 1:53:08 PM,2025-05-08 18:53:08.471,,,,,,,,,,,,,,,
12895.89999999851,,make_fullscreen,23653,,,,,,,,fullscreen,0,,,,,,,,,,,,,
4318.599999997765,,instruct_1,27973,,,,,,,,instruct,0,Next,,,,,,,,,,,,
14567.199999999255,,instruct_2,42543,,,,,,,,instruct,1,Next,,,,,,,,,,,,
8375.900000002235,,instruct_3,50920,,,,,,,,instruct,1,Next,,,,,,,,,,,,
28831.400000002235,,instruct_4,79754,,,,,,,,instruct,1,Next,,,,,,,,,,,,
9876.699999999255,,instruct_5,89632,,,,,,,,instruct,1,Next,,,,,,,,,,,,
4073.300000000745,,instruct_6,93707,,,,,,,,instruct,1,Next,,,,,,,,,,,,
49815.699999999255,,instruct_7,143525,,,,,,,,instruct,1,Next,,,,,,,,,,,,
null,,prac_atten_color_black,143991,,,,,,,,black_plus_sign,,,null,,,,,,,,,,,
null,,prac_atten_color,144936,,,,,,,,<p style='position:absolute;top: 50%;right: 50%;transform: translate(50%, -50%);font-size: 125px;color: blue;'>+</p>,,,null,,,,,,,,,,,
844,,prac_atten_color_black,146943,,,,,,,,black_plus_sign,,,49,,,,,,,,,,,
null,,prac_atten_color_black,147409,,,,,,,,black_plus_sign,,,null,,,,,,,,,,,
786.1999999992549,,prac_atten_color,148275,,,,,,,,<p style='position:absolute;top: 50%;right: 50%;transform: translate(50%, -50%);font-size: 125px;color: green;'>+</p>,,,50,,,,,,,,,,,
null,,prac_atten_color_black,150277,,,,,,,,black_plus_sign,,,null,,,,,,,,,,,
null,,prac_atten_color_black,150821,,,,,,,,black_plus_sign,,,null,,,,,,,,,,,
429.9000000022352,,prac_atten_color,151410,,,,,,,,<p style='position:absolute;top: 50%;right: 50%;transform: translate(50%, -50%);font-size: 125px;color: green;'>+</p>,,,49,,,,,,,,,,,
null,,prac_atten_color_black,153415,,,,,,,,black_plus_sign,,,null,,,,,,,,,,,
6537.10000000149,,attentioncheck_help,159955,,,,,,,,instruct,,,32,,,,,,,,,,,
null,,prac_atten_color_black,160773,,,,,,,,black_plus_sign,,,null,,,,,,,,,,,
980.7000000029802,,prac_atten_color,161866,,,,,,,,<p style='position:absolute;top: 50%;right: 50%;transform: translate(50%, -50%);font-size: 125px;color: blue;'>+</p>,,,49,,,,,,,,,,,
null,,prac_atten_color_black,163870,,,,,,,,black_plus_sign,,,null,,,,,,,,,,,
null,,prac_atten_color_black,164190,,,,,,,,black_plus_sign,,,null,,,,,,,,,,,
829.6999999992549,,prac_atten_color,165245,,,,,,,,<p style='position:absolute;top: 50%;right: 50%;transform: translate(50%, -50%);font-size: 125px;color: green;'>+</p>,,,50,,,,,,,,,,,
null,,prac_atten_color_black,167249,,,,,,,,black_plus_sign,,,null,,,,,,,,,,,
null,,prac_atten_color_black,167603,,,,,,,,black_plus_sign,,,null,,,,,,,,,,,
null,,prac_atten_color,168037,,,,,,,,<p style='position:absolute;top: 50%;right: 50%;transform: translate(50%, -50%);font-size: 125px;color: green;'>+</p>,,,null,,,,,,,,,,,
455.79999999701977,,prac_atten_color_black,170041,,,,,,,,black_plus_sign,,,50,,,,,,,,,,,
null,,prac_atten_color_black,171020,,,,,,,,black_plus_sign,,,null,,,,,,,,,,,
null,,prac_atten_color,171771,,,,,,,,<p style='position:absolute;top: 50%;right: 50%;transform: translate(50%, -50%);font-size: 125px;color: blue;'>+</p>,,,null,,,,,,,,,,,
null,,prac_atten_color_black,173775,,,,,,,,black_plus_sign,,,null,,,,,,,,,,,
9654.199999999255,,attentioncheck_help,183431,,,,,,,,instruct,,,32,,,,,,,,,,,
null,,prac_atten_color_black,184088,,,,,,,,black_plus_sign,,,null,,,,,,,,,,,
null,,prac_atten_color,184526,,,,,,,,<p style='position:absolute;top: 50%;right: 50%;transform: translate(50%, -50%);font-size: 125px;color: green;'>+</p>,,,null,,,,,,,,,,,
40.80000000074506,,prac_atten_color_black,186531,,,,,,,,black_plus_sign,,,50,,,,,,,,,,,
null,,prac_atten_color_black,187506,,,,,,,,black_plus_sign,,,null,,,,,,,,,,,
738.4000000022352,,prac_atten_color,188467,,,,,,,,<p style='position:absolute;top: 50%;right: 50%;transform: translate(50%, -50%);font-size: 125px;color: blue;'>+</p>,,,49,,,,,,,,,,,
null,,prac_atten_color_black,190469,,,,,,,,black_plus_sign,,,null,,,,,,,,,,,
null,,prac_atten_color_black,190917,,,,,,,,black_plus_sign,,,null,,,,,,,,,,,
null,,prac_atten_color,191458,,,,,,,,<p style='position:absolute;top: 50%;right: 50%;transform: translate(50%, -50%);font-size: 125px;color: blue;'>+</p>,,,null,,,,,,,,,,,
199.20000000298023,,prac_atten_color_black,193461,,,,,,,,black_plus_sign,,,49,,,,,,,,,,,
6668.10000000149,,attentioncheck_feedback,200133,,,,,,,,cross_check_feedback,0,,,,,,,,,,,,,
10659.5,,last_instruct,210793,,,,,,,,instruct,,,32,,,,,,,,,,,
null,,prac_learn_phase(without_color),214297,,,,,,,,black_plus_sign,,,null,object_02a.png,object_07a.png,,,,,,,,,
null,,prac_black_cross(without_color),214705,,,,,,,,blue,,,null,object_02a.png,object_07a.png,,,,,,,,,
null,,prac_rt_plussign_withcolor,215211,,,,,,,,blue,,,null,object_02a.png,object_07a.png,,,,,,,,,
984.8999999985099,,prac_rt_thecrossant_black,216816,,,,,,,,black_plus_sign,,,49,,,1,1,,,,,,,
null,,prac_color_black,216919,,,,,,,,black_plus_sign,,,null,,,,,,,,,,,
null,,prac_learn_phase(without_color),220429,,,,,,,,black_plus_sign,,,null,object_15b.png,object_15c.png,,,,,,,,,
null,,black_cross(without_color)1,220911,,,,,,,,blue,,,null,object_02a.png,object_07a.png,,,,,,,,,
null,,prac_rt_plussign_withcolor,221413,,,,,,,,blue,,,null,object_15b.png,object_15c.png,,,,,,,,,
1634.6000000014901,,prac_rt_thecrossant_black,222934,,,,,,,,black_plus_sign,,,49,,,1,1,,,,,,,
null,,prac_color_black,223037,,,,,,,,black_plus_sign,,,null,,,,,,,,,,,
null,,prac_learn_phase(without_color),226540,,,,,,,,black_plus_sign,,,null,object_11a.png,object_15a.png,,,,,,,,,
null,,black_cross(without_color)1,227023,,,,,,,,blue,,,null,object_02a.png,object_07a.png,,,,,,,,,
null,,prac_rt_plussign_withcolor,227525,,,,,,,,blue,,,null,object_11a.png,object_15a.png,,,,,,,,,
873,,prac_rt_thecrossant_black,228439,,,,,,,,black_plus_sign,,,49,,,1,1,,,,,,,
null,,prac_color_black,228547,,,,,,,,black_plus_sign,,,null,,,,,,,,,,,
null,,prac_learn_phase(without_color),232050,,,,,,,,black_plus_sign,,,null,object_10c.png,object_04b.png,,,,,,,,,
null,,black_cross(without_color)1,232531,,,,,,,,blue,,,null,object_02a.png,object_07a.png,,,,,,,,,
null,,prac_rt_plussign_withcolor,233033,,,,,,,,blue,,,null,object_10c.png,object_04b.png,,,,,,,,,
1557.699999999255,,prac_rt_thecrossant_black,234161,,,,,,,,black_plus_sign,,,49,,,1,1,,,,,,,
null,,prac_color_black,234266,,,,,,,,black_plus_sign,,,null,,,,,,,,,,,
9037.10000000149,,instruct_dir_01,243306,,,,,,,,instruct,0,Next,,,,,,,,,,,,
7446.5,,instruct_dir_2,250754,,,,,,,,instruct,1,Next,,,,,,,,,,,,
7908.199999999255,,instruct_dir_3,258664,,,,,,,,instruct,1,Next,,,,,,,,,,,,
17884.699999999255,,instruct_dir_4,276550,,,,,,,,instruct,1,Start,,,,,,,,,,,,
null,,thebreak,276653,,,,,,,,<p></p>,,,null,,,,,,,,,,,
2689.199999999255,,intro_0,279343,,,,,,,,instruct,,,32,,,,,,,,,,,
8357.5,,prac_directmemory_phase,287702,,,,,,,,practice/object_03b.png,,,51,,,1,,practice/object_04a.png,practice/object_02a.png,practice/object_03a.png,practice/object_03a.png,1,1,
6044.70000000298,,prac_directmemory_phase,293750,,,,,,,,practice/object_01b.png,,,50,,,1,,practice/object_03a.png,practice/object_01a.png,practice/object_02a.png,practice/object_01a.png,1,1,
8455.800000000745,,prac_directmemory_phase,302208,,,,,,,,practice/object_04b.png,,,49,,,1,,practice/object_04a.png,practice/object_02a.png,practice/object_01a.png,practice/object_04a.png,1,1,
5130.199999999255,,prac_directmemory_phase,307340,,,,,,,,practice/object_02b.png,,,49,,,1,,practice/object_02a.png,practice/object_01a.png,practice/object_03a.png,practice/object_02a.png,1,1,
8529.60000000149,,practice_feedback,315872,,,,,,,,practice_feedback,1,,,,,,,,,,,,,
8123,,proceed_actualTask,323996,,,,,,,,proceed_actualTask,1,Continue,,,,,,,,,,,,
6753.5,,last_inst,330751,,,,,,,,last_inst,,,32,,,,,,,,,,,
null,,learn_phase(without_color)1,334253,,,,,,,,black_plus_sign,,,null,object_02a.png,object_07a.png,,,,,,,,,
null,,black_cross(without_color)1,334734,,,,,,,,blue,,,null,object_02a.png,object_07a.png,,,,,,,,,
null,,rt_plussign_withcolor1,335239,,,,,,,,blue,,,null,object_02a.png,object_07a.png,,,,,,,,,
1373.800000000745,,rt_thecrossant_black1,336772,,,,,,,,black_plus_sign,,,49,,,1,,,,,,,1,
null,,color_black1,336876,,,,,,,,black_plus_sign,,,null,,,,,,,,,,,
null,,learn_phase(without_color)1,340383,,,,,,,,black_plus_sign,,,null,object_15b.png,object_15c.png,,,,,,,,,
null,,black_cross(without_color)1,340825,,,,,,,,blue,,,null,object_15b.png,object_15c.png,,,,,,,,,
null,,rt_plussign_withcolor1,341328,,,,,,,,blue,,,null,object_15b.png,object_15c.png,,,,,,,,,
1281.699999999255,,rt_thecrossant_black1,342900,,,,,,,,black_plus_sign,,,49,,,1,,,,,,,1,
null,,color_black1,343003,,,,,,,,black_plus_sign,,,null,,,,,,,,,,,
null,,learn_phase(without_color)1,346509,,,,,,,,black_plus_sign,,,null,object_11a.png,object_15a.png,,,,,,,,,
null,,black_cross(without_color)1,346922,,,,,,,,green,,,null,object_11a.png,object_15a.png,,,,,,,,,
null,,rt_plussign_withcolor1,347424,,,,,,,,green,,,null,object_11a.png,object_15a.png,,,,,,,,,
1155,,rt_thecrossant_black1,349022,,,,,,,,black_plus_sign,,,50,,,1,,,,,,,1,
null,,color_black1,349126,,,,,,,,black_plus_sign,,,null,,,,,,,,,,,
null,,learn_phase(without_color)1,352632,,,,,,,,black_plus_sign,,,null,object_10c.png,object_04b.png,,,,,,,,,
null,,black_cross(without_color)1,353405,,,,,,,,blue,,,null,object_10c.png,object_04b.png,,,,,,,,,
null,,rt_plussign_withcolor1,353908,,,,,,,,blue,,,null,object_10c.png,object_04b.png,,,,,,,,,
611.5999999977648,,rt_thecrossant_black1,355147,,,,,,,,black_plus_sign,,,49,,,1,,,,,,,1,
null,,color_black1,355251,,,,,,,,black_plus_sign,,,null,,,,,,,,,,,
null,,learn_phase(without_color)1,358756,,,,,,,,black_plus_sign,,,null,object_05b.png,object_05c.png,,,,,,,,,
null,,black_cross(without_color)1,359371,,,,,,,,blue,,,null,object_05b.png,object_05c.png,,,,,,,,,
null,,rt_plussign_withcolor1,359877,,,,,,,,blue,,,null,object_05b.png,object_05c.png,,,,,,,,,
1109,,rt_thecrossant_black1,361277,,,,,,,,black_plus_sign,,,49,,,1,,,,,,,1,
null,,color_black1,361381,,,,,,,,black_plus_sign,,,null,,,,,,,,,,,
null,,learn_phase(without_color)1,364889,,,,,,,,black_plus_sign,,,null,object_09b.png,object_13c.png,,,,,,,,,
null,,black_cross(without_color)1,365987,,,,,,,,blue,,,null,object_09b.png,object_13c.png,,,,,,,,,
null,,rt_plussign_withcolor1,366493,,,,,,,,blue,,,null,object_09b.png,object_13c.png,,,,,,,,,
868.6000000014901,,rt_thecrossant_black1,367406,,,,,,,,black_plus_sign,,,49,,,1,,,,,,,1,
null,,color_black1,367508,,,,,,,,black_plus_sign,,,null,,,,,,,,,,,
null,,learn_phase(without_color)1,371014,,,,,,,,black_plus_sign,,,null,object_08c.png,object_11c.png,,,,,,,,,
null,,black_cross(without_color)1,371498,,,,,,,,blue,,,null,object_08c.png,object_11c.png,,,,,,,,,
null,,rt_plussign_withcolor1,371999,,,,,,,,blue,,,null,object_08c.png,object_11c.png,,,,,,,,,
1546.199999999255,,rt_thecrossant_black1,373528,,,,,,,,black_plus_sign,,,49,,,1,,,,,,,1,
null,,color_black1,373631,,,,,,,,black_plus_sign,,,null,,,,,,,,,,,
null,,learn_phase(without_color)1,377138,,,,,,,,black_plus_sign,,,null,object_03c.png,object_12c.png,,,,,,,,,
null,,black_cross(without_color)1,378171,,,,,,,,blue,,,null,object_03c.png,object_12c.png,,,,,,,,,
null,,rt_plussign_withcolor1,378675,,,,,,,,blue,,,null,object_03c.png,object_12c.png,,,,,,,,,
675.6999999992549,,rt_thecrossant_black1,379657,,,,,,,,black_plus_sign,,,49,,,1,,,,,,,1,
null,,color_black1,379763,,,,,,,,black_plus_sign,,,null,,,,,,,,,,,
null,,learn_phase(without_color)1,383265,,,,,,,,black_plus_sign,,,null,object_01c.png,object_05a.png,,,,,,,,,
null,,black_cross(without_color)1,383729,,,,,,,,blue,,,null,object_01c.png,object_05a.png,,,,,,,,,
null,,rt_plussign_withcolor1,384233,,,,,,,,blue,,,null,object_01c.png,object_05a.png,,,,,,,,,
1395,,rt_thecrossant_black1,385779,,,,,,,,black_plus_sign,,,49,,,1,,,,,,,1,
null,,color_black1,385881,,,,,,,,black_plus_sign,,,null,,,,,,,,,,,
null,,learn_phase(without_color)1,389389,,,,,,,,black_plus_sign,,,null,object_14c.png,object_10a.png,,,,,,,,,
null,,black_cross(without_color)1,389942,,,,,,,,blue,,,null,object_14c.png,object_10a.png,,,,,,,,,
null,,rt_plussign_withcolor1,390444,,,,,,,,blue,,,null,object_14c.png,object_10a.png,,,,,,,,,
771.5999999977648,,rt_thecrossant_black1,391907,,,,,,,,black_plus_sign,,,49,,,1,,,,,,,1,
null,,color_black1,392012,,,,,,,,black_plus_sign,,,null,,,,,,,,,,,
null,,learn_phase(without_color)1,395517,,,,,,,,black_plus_sign,,,null,object_13b.png,object_09c.png,,,,,,,,,
null,,black_cross(without_color)1,396616,,,,,,,,blue,,,null,object_13b.png,object_09c.png,,,,,,,,,
null,,rt_plussign_withcolor1,397121,,,,,,,,blue,,,null,object_13b.png,object_09c.png,,,,,,,,,
null,,rt_thecrossant_black1,398036,,,,,,,,black_plus_sign,,,null,,,,,,,,,,1,
null,,color_black1,398140,,,,,,,,black_plus_sign,,,null,,,,,,,,,,,
null,,learn_phase(without_color)1,401653,,,,,,,,black_plus_sign,,,null,object_13a.png,object_07b.png,,,,,,,,,
null,,black_cross(without_color)1,402277,,,,,,,,blue,,,null,object_13a.png,object_07b.png,,,,,,,,,
null,,rt_plussign_withcolor1,402781,,,,,,,,blue,,,null,object_13a.png,object_07b.png,,,,,,,,,
1358.199999999255,,rt_thecrossant_black1,404169,,,,,,,,black_plus_sign,,,49,,,1,,,,,,,1,
null,,color_black1,404273,,,,,,,,black_plus_sign,,,null,,,,,,,,,,,
null,,learn_phase(without_color)1,407780,,,,,,,,black_plus_sign,,,null,object_02c.png,object_01b.png,,,,,,,,,
null,,black_cross(without_color)1,408553,,,,,,,,blue,,,null,object_02c.png,object_01b.png,,,,,,,,,
null,,rt_plussign_withcolor1,409062,,,,,,,,blue,,,null,object_02c.png,object_01b.png,,,,,,,,,
796.3000000007451,,rt_thecrossant_black1,410306,,,,,,,,black_plus_sign,,,49,,,1,,,,,,,1,
null,,color_black1,410409,,,,,,,,black_plus_sign,,,null,,,,,,,,,,,
null,,learn_phase(without_color)1,413916,,,,,,,,black_plus_sign,,,null,object_06b.png,object_01a.png,,,,,,,,,
null,,black_cross(without_color)1,414436,,,,,,,,green,,,null,object_06b.png,object_01a.png,,,,,,,,,
null,,rt_plussign_withcolor1,414938,,,,,,,,green,,,null,object_06b.png,object_01a.png,,,,,,,,,
1254.5,,rt_thecrossant_black1,416429,,,,,,,,black_plus_sign,,,50,,,1,,,,,,,1,
null,,color_black1,416535,,,,,,,,black_plus_sign,,,null,,,,,,,,,,,
null,,learn_phase(without_color)1,420042,,,,,,,,black_plus_sign,,,null,object_06c.png,object_14a.png,,,,,,,,,
null,,black_cross(without_color)1,421002,,,,,,,,green,,,null,object_06c.png,object_14a.png,,,,,,,,,
null,,rt_plussign_withcolor1,421506,,,,,,,,green,,,null,object_06c.png,object_14a.png,,,,,,,,,
1081.300000000745,,rt_thecrossant_black1,422562,,,,,,,,black_plus_sign,,,50,,,1,,,,,,,1,
null,,color_black1,422665,,,,,,,,black_plus_sign,,,null,,,,,,,,,,,
null,,thebreak,422772,,,,,,,,<p></p>,,,null,,,,,,,,,,,
2150,,intro_0,424924,,,,,,,,instruct,,,32,,,,,,,,,,,
4488.199999999255,,directmemory_phase1,429413,,,,,,,,object_01a.png,,,50,,,1,,object_05b.png,object_06b.png,object_02c.png,object_06b.png,,1,1
4462.900000002235,,directmemory_phase1,433878,,,,,,,,object_01b.png,,,51,,,0,,object_03c.png,object_02c.png,object_08c.png,object_02c.png,,0.5,0
20,,directmemory_phase1,433901,,,,,,,,object_15a.png,,,49,,,1,,object_11a.png,object_02c.png,object_08c.png,object_11a.png,,0.6666666666666666,1
5215.5,,directmemory_phase1,439118,,,,,,,,object_14a.png,,,51,,,0,,object_06c.png,object_05b.png,object_06b.png,object_06c.png,,0.5,0
5652.39999999851,,directmemory_phase1,444773,,,,,,,,object_09c.png,,,50,,,0,,object_15b.png,object_01c.png,object_13b.png,object_13b.png,,0.4,0
9376.39999999851,,directmemory_phase1,454153,,,,,,,,object_12c.png,,,49,,,0,,object_14c.png,object_02c.png,object_03c.png,object_03c.png,,0.3333333333333333,0
6981.5,,directmemory_phase1,461137,,,,,,,,object_05a.png,,,50,,,1,,object_08c.png,object_01c.png,object_05b.png,object_01c.png,,0.42857142857142855,1
5351.5,,directmemory_phase1,466491,,,,,,,,object_04b.png,,,51,,,1,,object_15b.png,object_11a.png,object_10c.png,object_10c.png,,0.5,1
5290.900000002235,,directmemory_phase1,471784,,,,,,,,object_05c.png,,,49,,,0,,object_11a.png,object_02c.png,object_05b.png,object_05b.png,,0.4444444444444444,0
6034.199999999255,,directmemory_phase1,477821,,,,,,,,object_10a.png,,,49,,,0,,object_13a.png,object_15b.png,object_14c.png,object_14c.png,,0.4,0
2909.10000000149,,directmemory_phase1,480732,,,,,,,,object_07b.png,,,49,,,1,,object_13a.png,object_02a.png,object_01c.png,object_13a.png,,0.45454545454545453,1
4670,,directmemory_phase1,485405,,,,,,,,object_11c.png,,,50,,,1,,object_06b.png,object_08c.png,object_03c.png,object_08c.png,,0.5,1
4364.20000000298,,directmemory_phase1,489771,,,,,,,,object_13c.png,,,51,,,1,,object_01c.png,object_03c.png,object_09b.png,object_09b.png,,0.5384615384615384,1
6361.099999997765,,directmemory_phase1,496134,,,,,,,,object_15c.png,,,51,,,1,,object_02c.png,object_01c.png,object_15b.png,object_15b.png,,0.5714285714285714,1
6096.900000002235,,directmemory_phase1,502234,,,,,,,,object_07a.png,,,51,,,0,,object_08c.png,object_02a.png,object_14c.png,object_02a.png,,0.5333333333333333,0
null,,thebreak,502336,,,,,,,,<p></p>,,,null,,,,,,,,,,,
2500.699999999255,,intro_0,504838,,,,,,,,instruct,,,32,,,,,,,,,,,
null,,learn_phase(without_color)2,508340,,,,,,,,black_plus_sign,,,null,object_11a.png,object_15a.png,,,,,,,,,
null,,black_cross(without_color)2,508844,,,,,,,,green,,,null,object_11a.png,object_15a.png,,,,,,,,,
null,,rt_plussign_withcolor2,509346,,,,,,,,green,,,null,object_11a.png,object_15a.png,,,,,,,,,
null,,rt_thecrossant_black2,510855,,,,,,,,black_plus_sign,,,null,,,,,,,,,,NaN,
null,,color_black2,510957,,,,,,,,black_plus_sign,,,null,,,,,,,,,,,
null,,learn_phase(without_color)2,514471,,,,,,,,black_plus_sign,,,null,object_09b.png,object_13c.png,,,,,,,,,
null,,black_cross(without_color)2,515295,,,,,,,,green,,,null,object_09b.png,object_13c.png,,,,,,,,,
null,,rt_plussign_withcolor2,515800,,,,,,,,green,,,null,object_09b.png,object_13c.png,,,,,,,,,
null,,rt_thecrossant_black2,516988,,,,,,,,black_plus_sign,,,null,,,,,,,,,,NaN,
null,,warning_page,521997,,,,,,,,warning,,,null,,,,,,,,,,,
null,,color_black2,522099,,,,,,,,black_plus_sign,,,null,,,,,,,,,,,
null,,learn_phase(without_color)2,525608,,,,,,,,black_plus_sign,,,null,object_13a.png,object_07b.png,,,,,,,,,
null,,black_cross(without_color)2,526306,,,,,,,,blue,,,null,object_13a.png,object_07b.png,,,,,,,,,
null,,rt_plussign_withcolor2,526810,,,,,,,,blue,,,null,object_13a.png,object_07b.png,,,,,,,,,
1216,,rt_thecrossant_black2,528125,,,,,,,,black_plus_sign,,,49,,,1,,,,,,,1,
null,,color_black2,528230,,,,,,,,black_plus_sign,,,null,,,,,,,,,,,
null,,learn_phase(without_color)2,531735,,,,,,,,black_plus_sign,,,null,object_10c.png,object_04b.png,,,,,,,,,
null,,black_cross(without_color)2,532794,,,,,,,,green,,,null,object_10c.png,object_04b.png,,,,,,,,,
null,,rt_plussign_withcolor2,533301,,,,,,,,green,,,null,object_10c.png,object_04b.png,,,,,,,,,
1517.2000000029802,,rt_thecrossant_black2,534260,,,,,,,,black_plus_sign,,,49,,,0,,,,,,,0.5,
null,,color_black2,534366,,,,,,,,black_plus_sign,,,null,,,,,,,,,,,
null,,learn_phase(without_color)2,537870,,,,,,,,black_plus_sign,,,null,object_08c.png,object_11c.png,,,,,,,,,
null,,black_cross(without_color)2,538301,,,,,,,,blue,,,null,object_08c.png,object_11c.png,,,,,,,,,
null,,rt_plussign_withcolor2,538806,,,,,,,,blue,,,null,object_08c.png,object_11c.png,,,,,,,,,
1391.300000000745,,rt_thecrossant_black2,540386,,,,,,,,black_plus_sign,,,49,,,1,,,,,,,0.6666666666666666,
null,,color_black2,540495,,,,,,,,black_plus_sign,,,null,,,,,,,,,,,
null,,learn_phase(without_color)2,543998,,,,,,,,black_plus_sign,,,null,object_02c.png,object_01b.png,,,,,,,,,
null,,black_cross(without_color)2,544964,,,,,,,,green,,,null,object_02c.png,object_01b.png,,,,,,,,,
null,,rt_plussign_withcolor2,545469,,,,,,,,green,,,null,object_02c.png,object_01b.png,,,,,,,,,
974.3999999985099,,rt_thecrossant_black2,546511,,,,,,,,black_plus_sign,,,50,,,1,,,,,,,0.75,
null,,color_black2,546622,,,,,,,,black_plus_sign,,,null,,,,,,,,,,,
null,,learn_phase(without_color)2,550125,,,,,,,,black_plus_sign,,,null,object_02a.png,object_07a.png,,,,,,,,,
null,,black_cross(without_color)2,550623,,,,,,,,green,,,null,object_02a.png,object_07a.png,,,,,,,,,
null,,rt_plussign_withcolor2,551129,,,,,,,,green,,,null,object_02a.png,object_07a.png,,,,,,,,,
1605.4000000022352,,rt_thecrossant_black2,552642,,,,,,,,black_plus_sign,,,50,,,1,,,,,,,0.8,
null,,color_black2,552746,,,,,,,,black_plus_sign,,,null,,,,,,,,,,,
null,,learn_phase(without_color)2,556249,,,,,,,,black_plus_sign,,,null,object_15b.png,object_15c.png,,,,,,,,,
null,,black_cross(without_color)2,556889,,,,,,,,green,,,null,object_15b.png,object_15c.png,,,,,,,,,
null,,rt_plussign_withcolor2,557391,,,,,,,,green,,,null,object_15b.png,object_15c.png,,,,,,,,,
915.9000000022352,,rt_thecrossant_black2,558763,,,,,,,,black_plus_sign,,,50,,,1,,,,,,,0.8333333333333334,
null,,color_black2,558866,,,,,,,,black_plus_sign,,,null,,,,,,,,,,,
null,,learn_phase(without_color)2,562369,,,,,,,,black_plus_sign,,,null,object_14c.png,object_10a.png,,,,,,,,,
null,,black_cross(without_color)2,562936,,,,,,,,green,,,null,object_14c.png,object_10a.png,,,,,,,,,
null,,rt_plussign_withcolor2,563441,,,,,,,,green,,,null,object_14c.png,object_10a.png,,,,,,,,,
1192,,rt_thecrossant_black2,564884,,,,,,,,black_plus_sign,,,50,,,1,,,,,,,0.8571428571428571,
null,,color_black2,564987,,,,,,,,black_plus_sign,,,null,,,,,,,,,,,
null,,learn_phase(without_color)2,568495,,,,,,,,black_plus_sign,,,null,object_13b.png,object_09c.png,,,,,,,,,
null,,black_cross(without_color)2,569474,,,,,,,,green,,,null,object_13b.png,object_09c.png,,,,,,,,,
null,,rt_plussign_withcolor2,569986,,,,,,,,green,,,null,object_13b.png,object_09c.png,,,,,,,,,
1402.5,,rt_thecrossant_black2,571013,,,,,,,,black_plus_sign,,,50,,,1,,,,,,,0.875,
null,,color_black2,571117,,,,,,,,black_plus_sign,,,null,,,,,,,,,,,
null,,learn_phase(without_color)2,574620,,,,,,,,black_plus_sign,,,null,object_01c.png,object_05a.png,,,,,,,,,
null,,black_cross(without_color)2,575082,,,,,,,,blue,,,null,object_01c.png,object_05a.png,,,,,,,,,
null,,rt_plussign_withcolor2,575589,,,,,,,,blue,,,null,object_01c.png,object_05a.png,,,,,,,,,
1343,,rt_thecrossant_black2,577136,,,,,,,,black_plus_sign,,,49,,,1,,,,,,,0.8888888888888888,
null,,color_black2,577240,,,,,,,,black_plus_sign,,,null,,,,,,,,,,,
null,,learn_phase(without_color)2,580743,,,,,,,,black_plus_sign,,,null,object_06b.png,object_01a.png,,,,,,,,,
null,,black_cross(without_color)2,581485,,,,,,,,green,,,null,object_06b.png,object_01a.png,,,,,,,,,
null,,rt_plussign_withcolor2,581988,,,,,,,,green,,,null,object_06b.png,object_01a.png,,,,,,,,,
812.6999999992549,,rt_thecrossant_black2,583254,,,,,,,,black_plus_sign,,,50,,,1,,,,,,,0.9,
null,,color_black2,583356,,,,,,,,black_plus_sign,,,null,,,,,,,,,,,
null,,learn_phase(without_color)2,586865,,,,,,,,black_plus_sign,,,null,object_05b.png,object_05c.png,,,,,,,,,
null,,black_cross(without_color)2,587373,,,,,,,,blue,,,null,object_05b.png,object_05c.png,,,,,,,,,
null,,rt_plussign_withcolor2,587879,,,,,,,,blue,,,null,object_05b.png,object_05c.png,,,,,,,,,
1393.0999999977648,,rt_thecrossant_black2,589378,,,,,,,,black_plus_sign,,,49,,,1,,,,,,,0.9090909090909091,
null,,color_black2,589483,,,,,,,,black_plus_sign,,,null,,,,,,,,,,,
null,,learn_phase(without_color)2,592988,,,,,,,,black_plus_sign,,,null,object_06c.png,object_14a.png,,,,,,,,,
null,,black_cross(without_color)2,593510,,,,,,,,green,,,null,object_06c.png,object_14a.png,,,,,,,,,
null,,rt_plussign_withcolor2,594016,,,,,,,,green,,,null,object_06c.png,object_14a.png,,,,,,,,,
1041.300000000745,,rt_thecrossant_black2,595504,,,,,,,,black_plus_sign,,,50,,,1,,,,,,,0.9166666666666666,
null,,color_black2,595609,,,,,,,,black_plus_sign,,,null,,,,,,,,,,,
null,,learn_phase(without_color)2,599112,,,,,,,,black_plus_sign,,,null,object_03c.png,object_12c.png,,,,,,,,,
null,,black_cross(without_color)2,599619,,,,,,,,green,,,null,object_03c.png,object_12c.png,,,,,,,,,
null,,rt_plussign_withcolor2,600123,,,,,,,,green,,,null,object_03c.png,object_12c.png,,,,,,,,,
919.5999999977648,,rt_thecrossant_black2,601629,,,,,,,,black_plus_sign,,,50,,,1,,,,,,,0.9230769230769231,
null,,color_black2,601732,,,,,,,,black_plus_sign,,,null,,,,,,,,,,,
null,,thebreak,601836,,,,,,,,<p></p>,,,null,,,,,,,,,,,
2466.900000002235,,intro_0,604304,,,,,,,,instruct,,,32,,,,,,,,,,,
5375.199999999255,,directmemory_phase2,609680,,,,,,,,object_07b.png,,,51,,,1,,object_05b.png,object_14c.png,object_13a.png,object_13a.png,,0.5625,1
8007.5,,directmemory_phase2,617688,,,,,,,,object_04b.png,,,49,,,1,,object_10c.png,object_13b.png,object_09b.png,object_10c.png,,0.5882352941176471,1
7339,,directmemory_phase2,625030,,,,,,,,object_15c.png,,,51,,,0,,object_09b.png,object_15b.png,object_03c.png,object_15b.png,,0.5555555555555556,0
3736,,directmemory_phase2,628769,,,,,,,,object_01a.png,,,51,,,1,,object_09b.png,object_01c.png,object_06b.png,object_06b.png,,0.5789473684210527,1
3500.89999999851,,directmemory_phase2,632271,,,,,,,,object_13c.png,,,49,,,0,,object_14c.png,object_09b.png,object_06b.png,object_09b.png,,0.55,0
5303.89999999851,,directmemory_phase2,637578,,,,,,,,object_14a.png,,,51,,,1,,object_06b.png,object_01c.png,object_06c.png,object_06c.png,,0.5714285714285714,1
2751.5,,directmemory_phase2,640333,,,,,,,,object_05c.png,,,49,,,0,,object_13a.png,object_05b.png,object_03c.png,object_05b.png,,0.5454545454545454,0
8490.199999999255,,directmemory_phase2,648825,,,,,,,,object_10a.png,,,50,,,1,,object_13a.png,object_14c.png,object_10c.png,object_14c.png,,0.5652173913043478,1
6353.800000000745,,directmemory_phase2,655181,,,,,,,,object_09c.png,,,51,,,0,,object_13b.png,object_09b.png,object_15b.png,object_13b.png,,0.5416666666666666,0
6161.20000000298,,directmemory_phase2,661345,,,,,,,,object_11c.png,,,51,,,0,,object_02c.png,object_08c.png,object_11a.png,object_08c.png,,0.52,0
4308.300000000745,,directmemory_phase2,665656,,,,,,,,object_15a.png,,,51,,,1,,object_02c.png,object_13a.png,object_11a.png,object_11a.png,,0.5384615384615384,1
3844.5,,directmemory_phase2,669503,,,,,,,,object_05a.png,,,49,,,1,,object_01c.png,object_02a.png,object_08c.png,object_01c.png,,0.5555555555555556,1
6594.199999999255,,directmemory_phase2,676099,,,,,,,,object_01b.png,,,50,,,1,,object_08c.png,object_02c.png,object_06b.png,object_02c.png,,0.5714285714285714,1
4673.89999999851,,directmemory_phase2,680776,,,,,,,,object_12c.png,,,49,,,1,,object_03c.png,object_13b.png,object_05b.png,object_03c.png,,0.5862068965517241,1
3910.7999999970198,,directmemory_phase2,684690,,,,,,,,object_07a.png,,,49,,,0,,object_15b.png,object_02c.png,object_02a.png,object_02a.png,,0.5666666666666667,0
null,,thebreak,684794,,,,,,,,<p></p>,,,null,,,,,,,,,,,
3076.5,,intro_0,687872,,,,,,,,instruct,,,32,,,,,,,,,,,
null,,learn_phase(without_color)3,691377,,,,,,,,black_plus_sign,,,null,object_09b.png,object_13c.png,,,,,,,,,
null,,black_cross(without_color)3,691921,,,,,,,,green,,,null,object_09b.png,object_13c.png,,,,,,,,,
null,,rt_plussign_withcolor3,692426,,,,,,,,green,,,null,object_09b.png,object_13c.png,,,,,,,,,
null,,rt_thecrossant_black3,693895,,,,,,,,black_plus_sign,,,null,,,,,,,,,,NaN,
null,,color_black3,693998,,,,,,,,black_plus_sign,,,null,,,,,,,,,,,
null,,learn_phase(without_color)3,697506,,,,,,,,black_plus_sign,,,null,object_03c.png,object_12c.png,,,,,,,,,
null,,black_cross(without_color)3,698145,,,,,,,,blue,,,null,object_03c.png,object_12c.png,,,,,,,,,
null,,rt_plussign_withcolor3,698650,,,,,,,,blue,,,null,object_03c.png,object_12c.png,,,,,,,,,
null,,rt_thecrossant_black3,700022,,,,,,,,black_plus_sign,,,null,,,,,,,,,,NaN,
null,,warning_page,705029,,,,,,,,warning,,,null,,,,,,,,,,,
null,,color_black3,705131,,,,,,,,black_plus_sign,,,null,,,,,,,,,,,
null,,learn_phase(without_color)3,708639,,,,,,,,black_plus_sign,,,null,object_14c.png,object_10a.png,,,,,,,,,
null,,black_cross(without_color)3,709401,,,,,,,,blue,,,null,object_14c.png,object_10a.png,,,,,,,,,
null,,rt_plussign_withcolor3,709906,,,,,,,,blue,,,null,object_14c.png,object_10a.png,,,,,,,,,
1025.199999999255,,rt_thecrossant_black3,711151,,,,,,,,black_plus_sign,,,49,,,1,,,,,,,1,
null,,color_black3,711263,,,,,,,,black_plus_sign,,,null,,,,,,,,,,,
null,,learn_phase(without_color)3,714771,,,,,,,,black_plus_sign,,,null,object_13b.png,object_09c.png,,,,,,,,,
null,,black_cross(without_color)3,715326,,,,,,,,blue,,,null,object_13b.png,object_09c.png,,,,,,,,,
null,,rt_plussign_withcolor3,715828,,,,,,,,blue,,,null,object_13b.png,object_09c.png,,,,,,,,,
1207.800000000745,,rt_thecrossant_black3,717282,,,,,,,,black_plus_sign,,,49,,,1,,,,,,,1,
null,,color_black3,717387,,,,,,,,black_plus_sign,,,null,,,,,,,,,,,
null,,learn_phase(without_color)3,720894,,,,,,,,black_plus_sign,,,null,object_02a.png,object_07a.png,,,,,,,,,
null,,black_cross(without_color)3,721741,,,,,,,,blue,,,null,object_02a.png,object_07a.png,,,,,,,,,
null,,rt_plussign_withcolor3,722243,,,,,,,,blue,,,null,object_02a.png,object_07a.png,,,,,,,,,
873.8000000007451,,rt_thecrossant_black3,723406,,,,,,,,black_plus_sign,,,49,,,1,,,,,,,1,
null,,color_black3,723510,,,,,,,,black_plus_sign,,,null,,,,,,,,,,,
null,,learn_phase(without_color)3,727017,,,,,,,,black_plus_sign,,,null,object_05b.png,object_05c.png,,,,,,,,,
null,,black_cross(without_color)3,727937,,,,,,,,green,,,null,object_05b.png,object_05c.png,,,,,,,,,
null,,rt_plussign_withcolor3,728443,,,,,,,,green,,,null,object_05b.png,object_05c.png,,,,,,,,,
1470.5,,rt_thecrossant_black3,729538,,,,,,,,black_plus_sign,,,50,,,1,,,,,,,1,
null,,color_black3,729641,,,,,,,,black_plus_sign,,,null,,,,,,,,,,,
null,,learn_phase(without_color)3,733149,,,,,,,,black_plus_sign,,,null,object_10c.png,object_04b.png,,,,,,,,,
null,,black_cross(without_color)3,733738,,,,,,,,blue,,,null,object_10c.png,object_04b.png,,,,,,,,,
null,,rt_plussign_withcolor3,734242,,,,,,,,blue,,,null,object_10c.png,object_04b.png,,,,,,,,,
1072.699999999255,,rt_thecrossant_black3,735665,,,,,,,,black_plus_sign,,,49,,,1,,,,,,,1,
null,,color_black3,735770,,,,,,,,black_plus_sign,,,null,,,,,,,,,,,
null,,learn_phase(without_color)3,739276,,,,,,,,black_plus_sign,,,null,object_01c.png,object_05a.png,,,,,,,,,
null,,black_cross(without_color)3,740020,,,,,,,,green,,,null,object_01c.png,object_05a.png,,,,,,,,,
null,,rt_plussign_withcolor3,740522,,,,,,,,green,,,null,object_01c.png,object_05a.png,,,,,,,,,
1047.8999999985099,,rt_thecrossant_black3,741794,,,,,,,,black_plus_sign,,,50,,,1,,,,,,,1,
null,,color_black3,741897,,,,,,,,black_plus_sign,,,null,,,,,,,,,,,
null,,learn_phase(without_color)3,745406,,,,,,,,black_plus_sign,,,null,object_13a.png,object_07b.png,,,,,,,,,
null,,black_cross(without_color)3,746386,,,,,,,,green,,,null,object_13a.png,object_07b.png,,,,,,,,,
null,,rt_plussign_withcolor3,746891,,,,,,,,green,,,null,object_13a.png,object_07b.png,,,,,,,,,
1172.2000000029802,,rt_thecrossant_black3,747923,,,,,,,,black_plus_sign,,,50,,,1,,,,,,,1,
null,,color_black3,748026,,,,,,,,black_plus_sign,,,null,,,,,,,,,,,
null,,learn_phase(without_color)3,751533,,,,,,,,black_plus_sign,,,null,object_15b.png,object_15c.png,,,,,,,,,
null,,black_cross(without_color)3,752222,,,,,,,,blue,,,null,object_15b.png,object_15c.png,,,,,,,,,
null,,rt_plussign_withcolor3,752724,,,,,,,,blue,,,null,object_15b.png,object_15c.png,,,,,,,,,
1367.5,,rt_thecrossant_black3,754059,,,,,,,,black_plus_sign,,,49,,,1,,,,,,,1,
null,,color_black3,754168,,,,,,,,black_plus_sign,,,null,,,,,,,,,,,
null,,learn_phase(without_color)3,757675,,,,,,,,black_plus_sign,,,null,object_08c.png,object_11c.png,,,,,,,,,
null,,black_cross(without_color)3,758332,,,,,,,,green,,,null,object_08c.png,object_11c.png,,,,,,,,,
null,,rt_plussign_withcolor3,758835,,,,,,,,green,,,null,object_08c.png,object_11c.png,,,,,,,,,
867.8999999985099,,rt_thecrossant_black3,760189,,,,,,,,black_plus_sign,,,50,,,1,,,,,,,1,
null,,color_black3,760291,,,,,,,,black_plus_sign,,,null,,,,,,,,,,,
null,,learn_phase(without_color)3,763796,,,,,,,,black_plus_sign,,,null,object_11a.png,object_15a.png,,,,,,,,,
null,,black_cross(without_color)3,764437,,,,,,,,green,,,null,object_11a.png,object_15a.png,,,,,,,,,
null,,rt_plussign_withcolor3,764941,,,,,,,,green,,,null,object_11a.png,object_15a.png,,,,,,,,,
860.1999999992549,,rt_thecrossant_black3,766311,,,,,,,,black_plus_sign,,,50,,,1,,,,,,,1,
null,,color_black3,766415,,,,,,,,black_plus_sign,,,null,,,,,,,,,,,
null,,learn_phase(without_color)3,769920,,,,,,,,black_plus_sign,,,null,object_06b.png,object_01a.png,,,,,,,,,
null,,black_cross(without_color)3,770773,,,,,,,,blue,,,null,object_06b.png,object_01a.png,,,,,,,,,
null,,rt_plussign_withcolor3,771279,,,,,,,,blue,,,null,object_06b.png,object_01a.png,,,,,,,,,
986,,rt_thecrossant_black3,772440,,,,,,,,black_plus_sign,,,49,,,1,,,,,,,1,
null,,color_black3,772543,,,,,,,,black_plus_sign,,,null,,,,,,,,,,,
null,,learn_phase(without_color)3,776052,,,,,,,,black_plus_sign,,,null,object_02c.png,object_01b.png,,,,,,,,,
null,,black_cross(without_color)3,776765,,,,,,,,green,,,null,object_02c.png,object_01b.png,,,,,,,,,
null,,rt_plussign_withcolor3,777273,,,,,,,,green,,,null,object_02c.png,object_01b.png,,,,,,,,,
1105.1000000014901,,rt_thecrossant_black3,778572,,,,,,,,black_plus_sign,,,50,,,1,,,,,,,1,
null,,color_black3,778676,,,,,,,,black_plus_sign,,,null,,,,,,,,,,,
null,,learn_phase(without_color)3,782184,,,,,,,,black_plus_sign,,,null,object_06c.png,object_14a.png,,,,,,,,,
null,,black_cross(without_color)3,782699,,,,,,,,green,,,null,object_06c.png,object_14a.png,,,,,,,,,
null,,rt_plussign_withcolor3,783203,,,,,,,,green,,,null,object_06c.png,object_14a.png,,,,,,,,,
1064.800000000745,,rt_thecrossant_black3,784705,,,,,,,,black_plus_sign,,,50,,,1,,,,,,,1,
null,,color_black3,784809,,,,,,,,black_plus_sign,,,null,,,,,,,,,,,
null,,thebreak,784913,,,,,,,,<p></p>,,,null,,,,,,,,,,,
1904.0999999977648,,intro_0,786818,,,,,,,,instruct,,,32,,,,,,,,,,,
7596.300000000745,,directmemory_phase3,794415,,,,,,,,object_09c.png,,,50,,,1,,object_06b.png,object_13b.png,object_02a.png,object_13b.png,,0.5806451612903226,1
6586.29999999702,,directmemory_phase3,801004,,,,,,,,object_10a.png,,,49,,,1,,object_14c.png,object_13b.png,object_05b.png,object_14c.png,,0.59375,1
8003.199999999255,,directmemory_phase3,809010,,,,,,,,object_07a.png,,,51,,,0,,object_06b.png,object_02a.png,object_14c.png,object_02a.png,,0.5757575757575758,0
3398.2000000029802,,directmemory_phase3,812412,,,,,,,,object_07b.png,,,51,,,1,,object_13b.png,object_03c.png,object_13a.png,object_13a.png,,0.5882352941176471,1
3346.800000000745,,directmemory_phase3,815761,,,,,,,,object_01a.png,,,50,,,1,,object_10c.png,object_06b.png,object_14c.png,object_06b.png,,0.6,1
3407.2999999970198,,directmemory_phase3,819171,,,,,,,,object_05a.png,,,51,,,0,,object_01c.png,object_11a.png,object_02c.png,object_01c.png,,0.5833333333333334,0
3214.800000000745,,directmemory_phase3,822388,,,,,,,,object_13c.png,,,50,,,0,,object_09b.png,object_02c.png,object_06b.png,object_09b.png,,0.5675675675675675,0
8342.800000000745,,directmemory_phase3,830733,,,,,,,,object_15a.png,,,50,,,0,,object_11a.png,object_06b.png,object_08c.png,object_11a.png,,0.5526315789473685,0
5196.300000000745,,directmemory_phase3,835932,,,,,,,,object_01b.png,,,51,,,0,,object_02c.png,object_05b.png,object_11a.png,object_02c.png,,0.5384615384615384,0
6395.199999999255,,directmemory_phase3,842330,,,,,,,,object_11c.png,,,49,,,1,,object_08c.png,object_13a.png,object_11a.png,object_08c.png,,0.55,1
4823.5,,directmemory_phase3,847156,,,,,,,,object_15c.png,,,51,,,1,,object_11a.png,object_08c.png,object_15b.png,object_15b.png,,0.5609756097560976,1
9170,,directmemory_phase3,856328,,,,,,,,object_05c.png,,,51,,,0,,object_08c.png,object_05b.png,object_15b.png,object_05b.png,,0.5476190476190477,0
5774.699999999255,,directmemory_phase3,862105,,,,,,,,object_12c.png,,,49,,,0,,object_14c.png,object_08c.png,object_03c.png,object_03c.png,,0.5348837209302325,0
3460.300000000745,,directmemory_phase3,865568,,,,,,,,object_04b.png,,,50,,,1,,object_03c.png,object_10c.png,object_14c.png,object_10c.png,,0.5454545454545454,1
6622.79999999702,,directmemory_phase3,872193,,,,,,,,object_14a.png,,,49,,,0,,object_13b.png,object_06c.png,object_13a.png,object_06c.png,,0.5333333333333333,0
null,,thebreak,872298,,,,,,,,<p></p>,,,null,,,,,,,,,,,
2402.2000000029802,,intro_0,874701,,,,,,,,instruct,,,32,,,,,,,,,,,
null,,learn_phase(without_color)4,878202,,,,,,,,black_plus_sign,,,null,object_11a.png,object_15a.png,,,,,,,,,
null,,black_cross(without_color)4,878718,,,,,,,,blue,,,null,object_11a.png,object_15a.png,,,,,,,,,
null,,rt_plussign_withcolor4,879222,,,,,,,,blue,,,null,object_11a.png,object_15a.png,,,,,,,,,
1025.7000000029802,,rt_thecrossant_black4,880716,,,,,,,,black_plus_sign,,,49,,,1,,,,,,,1,
null,,color_black4,880819,,,,,,,,black_plus_sign,,,null,,,,,,,,,,,
null,,learn_phase(without_color)4,884326,,,,,,,,black_plus_sign,,,null,object_14c.png,object_10a.png,,,,,,,,,
null,,black_cross(without_color)4,885406,,,,,,,,blue,,,null,object_14c.png,object_10a.png,,,,,,,,,
null,,rt_plussign_withcolor4,885910,,,,,,,,blue,,,null,object_14c.png,object_10a.png,,,,,,,,,
929.8999999985099,,rt_thecrossant_black4,886839,,,,,,,,black_plus_sign,,,49,,,1,,,,,,,1,
null,,color_black4,886949,,,,,,,,black_plus_sign,,,null,,,,,,,,,,,
null,,learn_phase(without_color)4,890457,,,,,,,,black_plus_sign,,,null,object_02c.png,object_01b.png,,,,,,,,,
null,,black_cross(without_color)4,891190,,,,,,,,blue,,,null,object_02c.png,object_01b.png,,,,,,,,,
null,,rt_plussign_withcolor4,891697,,,,,,,,blue,,,null,object_02c.png,object_01b.png,,,,,,,,,
1789.1000000014901,,rt_thecrossant_black4,892972,,,,,,,,black_plus_sign,,,49,,,1,,,,,,,1,
null,,color_black4,893075,,,,,,,,black_plus_sign,,,null,,,,,,,,,,,
null,,learn_phase(without_color)4,896583,,,,,,,,black_plus_sign,,,null,object_15b.png,object_15c.png,,,,,,,,,
null,,black_cross(without_color)4,897001,,,,,,,,green,,,null,object_15b.png,object_15c.png,,,,,,,,,
null,,rt_plussign_withcolor4,897505,,,,,,,,green,,,null,object_15b.png,object_15c.png,,,,,,,,,
1520,,rt_thecrossant_black4,899100,,,,,,,,black_plus_sign,,,50,,,1,,,,,,,1,
null,,color_black4,899203,,,,,,,,black_plus_sign,,,null,,,,,,,,,,,
null,,learn_phase(without_color)4,902709,,,,,,,,black_plus_sign,,,null,object_10c.png,object_04b.png,,,,,,,,,
null,,black_cross(without_color)4,903217,,,,,,,,green,,,null,object_10c.png,object_04b.png,,,,,,,,,
null,,rt_plussign_withcolor4,903722,,,,,,,,green,,,null,object_10c.png,object_04b.png,,,,,,,,,
789.1999999992549,,rt_thecrossant_black4,905230,,,,,,,,black_plus_sign,,,50,,,1,,,,,,,1,
null,,color_black4,905336,,,,,,,,black_plus_sign,,,null,,,,,,,,,,,
null,,learn_phase(without_color)4,908842,,,,,,,,black_plus_sign,,,null,object_08c.png,object_11c.png,,,,,,,,,
null,,black_cross(without_color)4,909518,,,,,,,,blue,,,null,object_08c.png,object_11c.png,,,,,,,,,
null,,rt_plussign_withcolor4,910024,,,,,,,,blue,,,null,object_08c.png,object_11c.png,,,,,,,,,
945,,rt_thecrossant_black4,911357,,,,,,,,black_plus_sign,,,49,,,1,,,,,,,1,
null,,color_black4,911461,,,,,,,,black_plus_sign,,,null,,,,,,,,,,,
null,,learn_phase(without_color)4,914965,,,,,,,,black_plus_sign,,,null,object_01c.png,object_05a.png,,,,,,,,,
null,,black_cross(without_color)4,915518,,,,,,,,green,,,null,object_01c.png,object_05a.png,,,,,,,,,
null,,rt_plussign_withcolor4,916022,,,,,,,,green,,,null,object_01c.png,object_05a.png,,,,,,,,,
980.5999999977648,,rt_thecrossant_black4,917481,,,,,,,,black_plus_sign,,,50,,,1,,,,,,,1,
null,,color_black4,917585,,,,,,,,black_plus_sign,,,null,,,,,,,,,,,
null,,learn_phase(without_color)4,921093,,,,,,,,black_plus_sign,,,null,object_13a.png,object_07b.png,,,,,,,,,
null,,black_cross(without_color)4,921601,,,,,,,,blue,,,null,object_13a.png,object_07b.png,,,,,,,,,
null,,rt_plussign_withcolor4,922107,,,,,,,,blue,,,null,object_13a.png,object_07b.png,,,,,,,,,
795.6000000014901,,rt_thecrossant_black4,923619,,,,,,,,black_plus_sign,,,49,,,1,,,,,,,1,
null,,color_black4,923722,,,,,,,,black_plus_sign,,,null,,,,,,,,,,,
null,,learn_phase(without_color)4,927225,,,,,,,,black_plus_sign,,,null,object_06c.png,object_14a.png,,,,,,,,,
null,,black_cross(without_color)4,927846,,,,,,,,blue,,,null,object_06c.png,object_14a.png,,,,,,,,,
null,,rt_plussign_withcolor4,928349,,,,,,,,blue,,,null,object_06c.png,object_14a.png,,,,,,,,,
905.3999999985099,,rt_thecrossant_black4,929739,,,,,,,,black_plus_sign,,,49,,,1,,,,,,,1,
null,,color_black4,929844,,,,,,,,black_plus_sign,,,null,,,,,,,,,,,
null,,learn_phase(without_color)4,933347,,,,,,,,black_plus_sign,,,null,object_02a.png,object_07a.png,,,,,,,,,
null,,black_cross(without_color)4,934070,,,,,,,,green,,,null,object_02a.png,object_07a.png,,,,,,,,,
null,,rt_plussign_withcolor4,934574,,,,,,,,green,,,null,object_02a.png,object_07a.png,,,,,,,,,
960.6000000014901,,rt_thecrossant_black4,935866,,,,,,,,black_plus_sign,,,50,,,1,,,,,,,1,
null,,color_black4,935969,,,,,,,,black_plus_sign,,,null,,,,,,,,,,,
null,,learn_phase(without_color)4,939480,,,,,,,,black_plus_sign,,,null,object_05b.png,object_05c.png,,,,,,,,,
null,,black_cross(without_color)4,940186,,,,,,,,blue,,,null,object_05b.png,object_05c.png,,,,,,,,,
null,,rt_plussign_withcolor4,940691,,,,,,,,blue,,,null,object_05b.png,object_05c.png,,,,,,,,,
1080.199999999255,,rt_thecrossant_black4,941997,,,,,,,,black_plus_sign,,,49,,,1,,,,,,,1,
null,,color_black4,942108,,,,,,,,black_plus_sign,,,null,,,,,,,,,,,
null,,learn_phase(without_color)4,945614,,,,,,,,black_plus_sign,,,null,object_13b.png,object_09c.png,,,,,,,,,
null,,black_cross(without_color)4,946163,,,,,,,,blue,,,null,object_13b.png,object_09c.png,,,,,,,,,
null,,rt_plussign_withcolor4,946665,,,,,,,,blue,,,null,object_13b.png,object_09c.png,,,,,,,,,
1168.800000000745,,rt_thecrossant_black4,948122,,,,,,,,black_plus_sign,,,49,,,1,,,,,,,1,
null,,color_black4,948225,,,,,,,,black_plus_sign,,,null,,,,,,,,,,,
null,,learn_phase(without_color)4,951732,,,,,,,,black_plus_sign,,,null,object_09b.png,object_13c.png,,,,,,,,,
null,,black_cross(without_color)4,952265,,,,,,,,blue,,,null,object_09b.png,object_13c.png,,,,,,,,,
null,,rt_plussign_withcolor4,952770,,,,,,,,blue,,,null,object_09b.png,object_13c.png,,,,,,,,,
1034.5,,rt_thecrossant_black4,954245,,,,,,,,black_plus_sign,,,49,,,1,,,,,,,1,
null,,color_black4,954349,,,,,,,,black_plus_sign,,,null,,,,,,,,,,,
null,,learn_phase(without_color)4,957852,,,,,,,,black_plus_sign,,,null,object_03c.png,object_12c.png,,,,,,,,,
null,,black_cross(without_color)4,958581,,,,,,,,blue,,,null,object_03c.png,object_12c.png,,,,,,,,,
null,,rt_plussign_withcolor4,959086,,,,,,,,blue,,,null,object_03c.png,object_12c.png,,,,,,,,,
799.8999999985099,,rt_thecrossant_black4,960370,,,,,,,,black_plus_sign,,,49,,,1,,,,,,,1,
null,,color_black4,960473,,,,,,,,black_plus_sign,,,null,,,,,,,,,,,
null,,learn_phase(without_color)4,963977,,,,,,,,black_plus_sign,,,null,object_06b.png,object_01a.png,,,,,,,,,
null,,black_cross(without_color)4,964555,,,,,,,,green,,,null,object_06b.png,object_01a.png,,,,,,,,,
null,,rt_plussign_withcolor4,965061,,,,,,,,green,,,null,object_06b.png,object_01a.png,,,,,,,,,
1050.3999999985099,,rt_thecrossant_black4,966494,,,,,,,,black_plus_sign,,,50,,,1,,,,,,,1,
null,,color_black4,966596,,,,,,,,black_plus_sign,,,null,,,,,,,,,,,
null,,thebreak,966699,,,,,,,,<p></p>,,,null,,,,,,,,,,,
1966.6000000014901,,intro_0,968667,,,,,,,,instruct,,,32,,,,,,,,,,,
3506.300000000745,,directmemory_phase4,972174,,,,,,,,object_13c.png,,,49,,,0,,object_14c.png,object_06b.png,object_09b.png,object_09b.png,,0.5217391304347826,0
5461.699999999255,,directmemory_phase4,977638,,,,,,,,object_01b.png,,,51,,,1,,object_05b.png,object_06b.png,object_02c.png,object_02c.png,,0.5319148936170213,1
4513.400000002235,,directmemory_phase4,982155,,,,,,,,object_12c.png,,,49,,,0,,object_13a.png,object_03c.png,object_02c.png,object_03c.png,,0.5208333333333334,0
6464.39999999851,,directmemory_phase4,988623,,,,,,,,object_14a.png,,,50,,,0,,object_06c.png,object_10c.png,object_05b.png,object_06c.png,,0.5102040816326531,0
6436.79999999702,,directmemory_phase4,995063,,,,,,,,object_07a.png,,,49,,,0,,object_15b.png,object_13b.png,object_02a.png,object_02a.png,,0.5,0
5894.300000000745,,directmemory_phase4,1000959,,,,,,,,object_01a.png,,,51,,,1,,object_14c.png,object_03c.png,object_06b.png,object_06b.png,,0.5098039215686274,1
7501.60000000149,,directmemory_phase4,1008464,,,,,,,,object_11c.png,,,50,,,0,,object_08c.png,object_13a.png,object_10c.png,object_08c.png,,0.5,0
3296.900000002235,,directmemory_phase4,1011763,,,,,,,,object_10a.png,,,49,,,1,,object_14c.png,object_09b.png,object_02c.png,object_14c.png,,0.5094339622641509,1
7913.89999999851,,directmemory_phase4,1019679,,,,,,,,object_15c.png,,,51,,,0,,object_15b.png,object_06b.png,object_14c.png,object_15b.png,,0.5,0
5404.199999999255,,directmemory_phase4,1025086,,,,,,,,object_15a.png,,,50,,,1,,object_02c.png,object_11a.png,object_10c.png,object_11a.png,,0.509090909090909,1
5517.900000002235,,directmemory_phase4,1030606,,,,,,,,object_05c.png,,,51,,,0,,object_05b.png,object_09b.png,object_13b.png,object_05b.png,,0.5,0
2630.800000000745,,directmemory_phase4,1033240,,,,,,,,object_07b.png,,,49,,,1,,object_13a.png,object_14c.png,object_03c.png,object_13a.png,,0.5087719298245614,1
5268.400000002235,,directmemory_phase4,1038512,,,,,,,,object_05a.png,,,50,,,1,,object_11a.png,object_01c.png,object_03c.png,object_01c.png,,0.5172413793103449,1
5511.70000000298,,directmemory_phase4,1044026,,,,,,,,object_04b.png,,,51,,,1,,object_06b.png,object_03c.png,object_10c.png,object_10c.png,,0.5254237288135594,1
4392.5,,directmemory_phase4,1048421,,,,,,,,object_09c.png,,,50,,,0,,object_13b.png,object_14c.png,object_08c.png,object_13b.png,,0.5166666666666667,0
null,,thebreak,1048523,,,,,,,,<p></p>,,,null,,,,,,,,,,,
2843.599999997765,,intro_0,1051369,,,,,,,,instruct,,,32,,,,,,,,,,,
null,,learn_phase(without_color)5,1054876,,,,,,,,black_plus_sign,,,null,object_13c.png,object_08a.png,,,,,,,,,
null,,black_cross(without_color)5,1055947,,,,,,,,blue,,,null,object_13c.png,object_08a.png,,,,,,,,,
null,,rt_plussign_withcolor5,1056458,,,,,,,,blue,,,null,object_13c.png,object_08a.png,,,,,,,,,
1395.800000000745,,rt_thecrossant_black5,1057412,,,,,,,,black_plus_sign,,,49,,,1,,,,,,,1,
null,,color_black5,1057516,,,,,,,,black_plus_sign,,,null,,,,,,,,,,,
null,,learn_phase(without_color)5,1061024,,,,,,,,black_plus_sign,,,null,object_12c.png,object_04a.png,,,,,,,,,
null,,black_cross(without_color)5,1061501,,,,,,,,green,,,null,object_12c.png,object_04a.png,,,,,,,,,
null,,rt_plussign_withcolor5,1062002,,,,,,,,green,,,null,object_12c.png,object_04a.png,,,,,,,,,
null,,rt_thecrossant_black5,1063535,,,,,,,,black_plus_sign,,,null,,,,,,,,,,1,
null,,color_black5,1063638,,,,,,,,black_plus_sign,,,null,,,,,,,,,,,
null,,learn_phase(without_color)5,1067142,,,,,,,,black_plus_sign,,,null,object_04b.png,object_08b.png,,,,,,,,,
null,,black_cross(without_color)5,1067866,,,,,,,,blue,,,null,object_04b.png,object_08b.png,,,,,,,,,
null,,rt_plussign_withcolor5,1068368,,,,,,,,blue,,,null,object_04b.png,object_08b.png,,,,,,,,,
null,,rt_thecrossant_black5,1069661,,,,,,,,black_plus_sign,,,null,,,,,,,,,,1,
null,,warning_page,1074671,,,,,,,,warning,,,null,,,,,,,,,,,
null,,color_black5,1074774,,,,,,,,black_plus_sign,,,null,,,,,,,,,,,
null,,learn_phase(without_color)5,1078280,,,,,,,,black_plus_sign,,,null,object_07b.png,object_11b.png,,,,,,,,,
null,,black_cross(without_color)5,1078872,,,,,,,,green,,,null,object_07b.png,object_11b.png,,,,,,,,,
null,,rt_plussign_withcolor5,1079374,,,,,,,,green,,,null,object_07b.png,object_11b.png,,,,,,,,,
null,,rt_thecrossant_black5,1080796,,,,,,,,black_plus_sign,,,null,,,,,,,,,,1,
null,,warning_page,1085802,,,,,,,,warning,,,null,,,,,,,,,,,
null,,color_black5,1085905,,,,,,,,black_plus_sign,,,null,,,,,,,,,,,
null,,learn_phase(without_color)5,1089411,,,,,,,,black_plus_sign,,,null,object_09c.png,object_12b.png,,,,,,,,,
null,,black_cross(without_color)5,1090193,,,,,,,,green,,,null,object_09c.png,object_12b.png,,,,,,,,,
null,,rt_plussign_withcolor5,1090698,,,,,,,,green,,,null,object_09c.png,object_12b.png,,,,,,,,,
1506.300000000745,,rt_thecrossant_black5,1091930,,,,,,,,black_plus_sign,,,49,,,0,,,,,,,0.5,
null,,warning_page,1096938,,,,,,,,warning,,,null,,,,,,,,,,,
null,,color_black5,1097041,,,,,,,,black_plus_sign,,,null,,,,,,,,,,,
null,,learn_phase(without_color)5,1100549,,,,,,,,black_plus_sign,,,null,object_15c.png,object_14b.png,,,,,,,,,
null,,black_cross(without_color)5,1101413,,,,,,,,blue,,,null,object_15c.png,object_14b.png,,,,,,,,,
null,,rt_plussign_withcolor5,1101919,,,,,,,,blue,,,null,object_15c.png,object_14b.png,,,,,,,,,
989.5,,rt_thecrossant_black5,1103070,,,,,,,,black_plus_sign,,,49,,,1,,,,,,,0.6666666666666666,
null,,color_black5,1103173,,,,,,,,black_plus_sign,,,null,,,,,,,,,,,
null,,learn_phase(without_color)5,1106676,,,,,,,,black_plus_sign,,,null,object_05a.png,object_04c.png,,,,,,,,,
null,,black_cross(without_color)5,1107315,,,,,,,,blue,,,null,object_05a.png,object_04c.png,,,,,,,,,
null,,rt_plussign_withcolor5,1107820,,,,,,,,blue,,,null,object_05a.png,object_04c.png,,,,,,,,,
1359.6000000014901,,rt_thecrossant_black5,1109192,,,,,,,,black_plus_sign,,,49,,,1,,,,,,,0.75,
null,,color_black5,1109295,,,,,,,,black_plus_sign,,,null,,,,,,,,,,,
null,,learn_phase(without_color)5,1112801,,,,,,,,black_plus_sign,,,null,object_10a.png,object_02b.png,,,,,,,,,
null,,black_cross(without_color)5,1113458,,,,,,,,green,,,null,object_10a.png,object_02b.png,,,,,,,,,
null,,rt_plussign_withcolor5,1113960,,,,,,,,green,,,null,object_10a.png,object_02b.png,,,,,,,,,
1023.0999999977648,,rt_thecrossant_black5,1115316,,,,,,,,black_plus_sign,,,50,,,1,,,,,,,0.8,
null,,color_black5,1115423,,,,,,,,black_plus_sign,,,null,,,,,,,,,,,
null,,learn_phase(without_color)5,1118926,,,,,,,,black_plus_sign,,,null,object_05c.png,object_10b.png,,,,,,,,,
null,,black_cross(without_color)5,1119755,,,,,,,,green,,,null,object_05c.png,object_10b.png,,,,,,,,,
null,,rt_plussign_withcolor5,1120257,,,,,,,,green,,,null,object_05c.png,object_10b.png,,,,,,,,,
1321.800000000745,,rt_thecrossant_black5,1121438,,,,,,,,black_plus_sign,,,50,,,1,,,,,,,0.8333333333333334,
null,,color_black5,1121542,,,,,,,,black_plus_sign,,,null,,,,,,,,,,,
null,,learn_phase(without_color)5,1125047,,,,,,,,black_plus_sign,,,null,object_14a.png,object_06a.png,,,,,,,,,
null,,black_cross(without_color)5,1125912,,,,,,,,blue,,,null,object_14a.png,object_06a.png,,,,,,,,,
null,,rt_plussign_withcolor5,1126428,,,,,,,,blue,,,null,object_14a.png,object_06a.png,,,,,,,,,
1224.7999999970198,,rt_thecrossant_black5,1127575,,,,,,,,black_plus_sign,,,49,,,1,,,,,,,0.8571428571428571,
null,,color_black5,1127679,,,,,,,,black_plus_sign,,,null,,,,,,,,,,,
null,,learn_phase(without_color)5,1131183,,,,,,,,black_plus_sign,,,null,object_15a.png,object_03b.png,,,,,,,,,
null,,black_cross(without_color)5,1132094,,,,,,,,blue,,,null,object_15a.png,object_03b.png,,,,,,,,,
null,,rt_plussign_withcolor5,1132595,,,,,,,,blue,,,null,object_15a.png,object_03b.png,,,,,,,,,
1208.5999999977648,,rt_thecrossant_black5,1133697,,,,,,,,black_plus_sign,,,49,,,1,,,,,,,0.875,
null,,color_black5,1133800,,,,,,,,black_plus_sign,,,null,,,,,,,,,,,
null,,learn_phase(without_color)5,1137303,,,,,,,,black_plus_sign,,,null,object_01a.png,object_03a.png,,,,,,,,,
null,,black_cross(without_color)5,1138227,,,,,,,,blue,,,null,object_01a.png,object_03a.png,,,,,,,,,
null,,rt_plussign_withcolor5,1138729,,,,,,,,blue,,,null,object_01a.png,object_03a.png,,,,,,,,,
1297,,rt_thecrossant_black5,1139816,,,,,,,,black_plus_sign,,,49,,,1,,,,,,,0.8888888888888888,
null,,color_black5,1139921,,,,,,,,black_plus_sign,,,null,,,,,,,,,,,
null,,learn_phase(without_color)5,1143425,,,,,,,,black_plus_sign,,,null,object_01b.png,object_12a.png,,,,,,,,,
null,,black_cross(without_color)5,1144391,,,,,,,,green,,,null,object_01b.png,object_12a.png,,,,,,,,,
null,,rt_plussign_withcolor5,1144893,,,,,,,,green,,,null,object_01b.png,object_12a.png,,,,,,,,,
1964.300000000745,,rt_thecrossant_black5,1145933,,,,,,,,black_plus_sign,,,50,,,1,,,,,,,0.9,
null,,color_black5,1146036,,,,,,,,black_plus_sign,,,null,,,,,,,,,,,
null,,learn_phase(without_color)5,1149542,,,,,,,,black_plus_sign,,,null,object_11c.png,object_09a.png,,,,,,,,,
null,,black_cross(without_color)5,1150364,,,,,,,,green,,,null,object_11c.png,object_09a.png,,,,,,,,,
null,,rt_plussign_withcolor5,1150869,,,,,,,,green,,,null,object_11c.png,object_09a.png,,,,,,,,,
1333.5,,rt_thecrossant_black5,1152061,,,,,,,,black_plus_sign,,,49,,,0,,,,,,,0.8181818181818182,
null,,warning_page,1157069,,,,,,,,warning,,,null,,,,,,,,,,,
null,,color_black5,1157171,,,,,,,,black_plus_sign,,,null,,,,,,,,,,,
null,,learn_phase(without_color)5,1160681,,,,,,,,black_plus_sign,,,null,object_07a.png,object_07c.png,,,,,,,,,
null,,black_cross(without_color)5,1161175,,,,,,,,blue,,,null,object_07a.png,object_07c.png,,,,,,,,,
null,,rt_plussign_withcolor5,1161677,,,,,,,,blue,,,null,object_07a.png,object_07c.png,,,,,,,,,
1106.8999999985099,,rt_thecrossant_black5,1163211,,,,,,,,black_plus_sign,,,49,,,1,,,,,,,0.8333333333333334,
null,,color_black5,1163314,,,,,,,,black_plus_sign,,,null,,,,,,,,,,,
null,,thebreak,1163420,,,,,,,,<p></p>,,,null,,,,,,,,,,,
2730.10000000149,,intro_0,1166152,,,,,,,,instruct,,,32,,,,,,,,,,,
4243.400000002235,,directmemory_phase5,1170396,,,,,,,,object_12b.png,,,51,,,0,,object_11c.png,object_09c.png,object_12c.png,object_09c.png,,0.5081967213114754,0
6623.89999999851,,directmemory_phase5,1177023,,,,,,,,object_06a.png,,,49,,,0,,object_15a.png,object_14a.png,object_10a.png,object_14a.png,,0.5,0
5515.699999999255,,directmemory_phase5,1182542,,,,,,,,object_03b.png,,,50,,,0,,object_13c.png,object_04b.png,object_15a.png,object_15a.png,,0.49206349206349204,0
5848.300000000745,,directmemory_phase5,1188393,,,,,,,,object_14b.png,,,50,,,0,,object_15c.png,object_05c.png,object_07a.png,object_15c.png,,0.484375,0
4963.800000000745,,directmemory_phase5,1193359,,,,,,,,object_04a.png,,,51,,,0,,object_12c.png,object_09c.png,object_04b.png,object_12c.png,,0.47692307692307695,0
5628.300000000745,,directmemory_phase5,1198991,,,,,,,,object_02b.png,,,49,,,0,,object_11c.png,object_10a.png,object_01b.png,object_10a.png,,0.4696969696969697,0
3950.89999999851,,directmemory_phase5,1202944,,,,,,,,object_08b.png,,,49,,,0,,object_09c.png,object_04b.png,object_11c.png,object_04b.png,,0.4626865671641791,0
5645.89999999851,,directmemory_phase5,1208591,,,,,,,,object_10b.png,,,50,,,0,,object_05c.png,object_01b.png,object_11c.png,object_05c.png,,0.45588235294117646,0
5093,,directmemory_phase5,1213687,,,,,,,,object_09a.png,,,50,,,0,,object_07a.png,object_09c.png,object_11c.png,object_11c.png,,0.4492753623188406,0
7376.89999999851,,directmemory_phase5,1221067,,,,,,,,object_11b.png,,,51,,,1,,object_07a.png,object_01b.png,object_07b.png,object_07b.png,,0.45714285714285713,1
4374.199999999255,,directmemory_phase5,1225444,,,,,,,,object_03a.png,,,50,,,0,,object_07b.png,object_05c.png,object_01a.png,object_01a.png,,0.4507042253521127,0
8151.699999999255,,directmemory_phase5,1233599,,,,,,,,object_12a.png,,,51,,,1,,object_01a.png,object_09c.png,object_01b.png,object_01b.png,,0.4583333333333333,1
3690.60000000149,,directmemory_phase5,1237291,,,,,,,,object_08a.png,,,51,,,1,,object_01a.png,object_12c.png,object_13c.png,object_13c.png,,0.4657534246575342,1
4077.7999999970198,,directmemory_phase5,1241371,,,,,,,,object_04c.png,,,51,,,0,,object_05a.png,object_04b.png,object_13c.png,object_05a.png,,0.4594594594594595,0
5703.300000000745,,directmemory_phase5,1247076,,,,,,,,object_07c.png,,,49,,,0,,object_15a.png,object_05a.png,object_07a.png,object_07a.png,,0.4533333333333333,0
null,,thebreak,1247180,,,,,,,,<p></p>,,,null,,,,,,,,,,,
2237.10000000149,,intro_0,1249418,,,,,,,,instruct,,,32,,,,,,,,,,,
null,,learn_phase(without_color)6,1252924,,,,,,,,black_plus_sign,,,null,object_05a.png,object_04c.png,,,,,,,,,
null,,black_cross(without_color)6,1253650,,,,,,,,blue,,,null,object_05a.png,object_04c.png,,,,,,,,,
null,,rt_plussign_withcolor6,1254154,,,,,,,,blue,,,null,object_05a.png,object_04c.png,,,,,,,,,
1116.1000000014901,,rt_thecrossant_black6,1255441,,,,,,,,black_plus_sign,,,49,,,1,,,,,,,1,
null,,color_black6,1255546,,,,,,,,black_plus_sign,,,null,,,,,,,,,,,
null,,learn_phase(without_color)6,1259049,,,,,,,,black_plus_sign,,,null,object_11c.png,object_09a.png,,,,,,,,,
null,,black_cross(without_color)6,1259538,,,,,,,,blue,,,null,object_11c.png,object_09a.png,,,,,,,,,
null,,rt_plussign_withcolor6,1260040,,,,,,,,blue,,,null,object_11c.png,object_09a.png,,,,,,,,,
null,,rt_thecrossant_black6,1261561,,,,,,,,black_plus_sign,,,null,,,,,,,,,,1,
null,,warning_page,1266568,,,,,,,,warning,,,null,,,,,,,,,,,
null,,color_black6,1266670,,,,,,,,black_plus_sign,,,null,,,,,,,,,,,
null,,learn_phase(without_color)6,1270179,,,,,,,,black_plus_sign,,,null,object_09c.png,object_12b.png,,,,,,,,,
null,,black_cross(without_color)6,1271119,,,,,,,,blue,,,null,object_09c.png,object_12b.png,,,,,,,,,
null,,rt_plussign_withcolor6,1271622,,,,,,,,blue,,,null,object_09c.png,object_12b.png,,,,,,,,,
736.2000000029802,,rt_thecrossant_black6,1272698,,,,,,,,black_plus_sign,,,49,,,1,,,,,,,1,
null,,color_black6,1272801,,,,,,,,black_plus_sign,,,null,,,,,,,,,,,
null,,learn_phase(without_color)6,1276308,,,,,,,,black_plus_sign,,,null,object_01a.png,object_03a.png,,,,,,,,,
null,,black_cross(without_color)6,1277237,,,,,,,,blue,,,null,object_01a.png,object_03a.png,,,,,,,,,
null,,rt_plussign_withcolor6,1277739,,,,,,,,blue,,,null,object_01a.png,object_03a.png,,,,,,,,,
1218.4000000022352,,rt_thecrossant_black6,1278828,,,,,,,,black_plus_sign,,,49,,,1,,,,,,,1,
null,,color_black6,1278931,,,,,,,,black_plus_sign,,,null,,,,,,,,,,,
null,,learn_phase(without_color)6,1282439,,,,,,,,black_plus_sign,,,null,object_12c.png,object_04a.png,,,,,,,,,
null,,black_cross(without_color)6,1282904,,,,,,,,green,,,null,object_12c.png,object_04a.png,,,,,,,,,
null,,rt_plussign_withcolor6,1283409,,,,,,,,green,,,null,object_12c.png,object_04a.png,,,,,,,,,
1382.7999999970198,,rt_thecrossant_black6,1284961,,,,,,,,black_plus_sign,,,50,,,1,,,,,,,1,
null,,color_black6,1285065,,,,,,,,black_plus_sign,,,null,,,,,,,,,,,
null,,learn_phase(without_color)6,1288574,,,,,,,,black_plus_sign,,,null,object_04b.png,object_08b.png,,,,,,,,,
null,,black_cross(without_color)6,1289405,,,,,,,,blue,,,null,object_04b.png,object_08b.png,,,,,,,,,
null,,rt_plussign_withcolor6,1289907,,,,,,,,blue,,,null,object_04b.png,object_08b.png,,,,,,,,,
719.5,,rt_thecrossant_black6,1291087,,,,,,,,black_plus_sign,,,49,,,1,,,,,,,1,
null,,color_black6,1291191,,,,,,,,black_plus_sign,,,null,,,,,,,,,,,
null,,learn_phase(without_color)6,1294699,,,,,,,,black_plus_sign,,,null,object_15c.png,object_14b.png,,,,,,,,,
null,,black_cross(without_color)6,1295519,,,,,,,,blue,,,null,object_15c.png,object_14b.png,,,,,,,,,
null,,rt_plussign_withcolor6,1296024,,,,,,,,blue,,,null,object_15c.png,object_14b.png,,,,,,,,,
1137.699999999255,,rt_thecrossant_black6,1297218,,,,,,,,black_plus_sign,,,49,,,1,,,,,,,1,
null,,color_black6,1297321,,,,,,,,black_plus_sign,,,null,,,,,,,,,,,
null,,learn_phase(without_color)6,1300831,,,,,,,,black_plus_sign,,,null,object_07b.png,object_11b.png,,,,,,,,,
null,,black_cross(without_color)6,1301584,,,,,,,,blue,,,null,object_07b.png,object_11b.png,,,,,,,,,
null,,rt_plussign_withcolor6,1302087,,,,,,,,blue,,,null,object_07b.png,object_11b.png,,,,,,,,,
1093.199999999255,,rt_thecrossant_black6,1303350,,,,,,,,black_plus_sign,,,49,,,1,,,,,,,1,
null,,color_black6,1303453,,,,,,,,black_plus_sign,,,null,,,,,,,,,,,
null,,learn_phase(without_color)6,1306960,,,,,,,,black_plus_sign,,,null,object_07a.png,object_07c.png,,,,,,,,,
null,,black_cross(without_color)6,1307368,,,,,,,,blue,,,null,object_07a.png,object_07c.png,,,,,,,,,
null,,rt_plussign_withcolor6,1307872,,,,,,,,blue,,,null,object_07a.png,object_07c.png,,,,,,,,,
965.1000000014901,,rt_thecrossant_black6,1309479,,,,,,,,black_plus_sign,,,49,,,1,,,,,,,1,
null,,color_black6,1309583,,,,,,,,black_plus_sign,,,null,,,,,,,,,,,
null,,learn_phase(without_color)6,1313091,,,,,,,,black_plus_sign,,,null,object_13c.png,object_08a.png,,,,,,,,,
null,,black_cross(without_color)6,1313578,,,,,,,,green,,,null,object_13c.png,object_08a.png,,,,,,,,,
null,,rt_plussign_withcolor6,1314082,,,,,,,,green,,,null,object_13c.png,object_08a.png,,,,,,,,,
983.5,,rt_thecrossant_black6,1315610,,,,,,,,black_plus_sign,,,49,,,0,,,,,,,0.8888888888888888,
null,,warning_page,1320616,,,,,,,,warning,,,null,,,,,,,,,,,
null,,color_black6,1320718,,,,,,,,black_plus_sign,,,null,,,,,,,,,,,
null,,learn_phase(without_color)6,1324223,,,,,,,,black_plus_sign,,,null,object_10a.png,object_02b.png,,,,,,,,,
null,,black_cross(without_color)6,1324898,,,,,,,,blue,,,null,object_10a.png,object_02b.png,,,,,,,,,
null,,rt_plussign_withcolor6,1325401,,,,,,,,blue,,,null,object_10a.png,object_02b.png,,,,,,,,,
758.1999999992549,,rt_thecrossant_black6,1326739,,,,,,,,black_plus_sign,,,49,,,1,,,,,,,0.9,
null,,color_black6,1326844,,,,,,,,black_plus_sign,,,null,,,,,,,,,,,
null,,learn_phase(without_color)6,1330351,,,,,,,,black_plus_sign,,,null,object_15a.png,object_03b.png,,,,,,,,,
null,,black_cross(without_color)6,1331407,,,,,,,,blue,,,null,object_15a.png,object_03b.png,,,,,,,,,
null,,rt_plussign_withcolor6,1331921,,,,,,,,blue,,,null,object_15a.png,object_03b.png,,,,,,,,,
952.1999999992549,,rt_thecrossant_black6,1332878,,,,,,,,black_plus_sign,,,49,,,1,,,,,,,0.9090909090909091,
null,,color_black6,1332981,,,,,,,,black_plus_sign,,,null,,,,,,,,,,,
null,,learn_phase(without_color)6,1336487,,,,,,,,black_plus_sign,,,null,object_05c.png,object_10b.png,,,,,,,,,
null,,black_cross(without_color)6,1337340,,,,,,,,green,,,null,object_05c.png,object_10b.png,,,,,,,,,
null,,rt_plussign_withcolor6,1337842,,,,,,,,green,,,null,object_05c.png,object_10b.png,,,,,,,,,
1467.2000000029802,,rt_thecrossant_black6,1339002,,,,,,,,black_plus_sign,,,50,,,1,,,,,,,0.9166666666666666,
null,,color_black6,1339105,,,,,,,,black_plus_sign,,,null,,,,,,,,,,,
null,,learn_phase(without_color)6,1342611,,,,,,,,black_plus_sign,,,null,object_14a.png,object_06a.png,,,,,,,,,
null,,black_cross(without_color)6,1343056,,,,,,,,green,,,null,object_14a.png,object_06a.png,,,,,,,,,
null,,rt_plussign_withcolor6,1343561,,,,,,,,green,,,null,object_14a.png,object_06a.png,,,,,,,,,
1244.800000000745,,rt_thecrossant_black6,1345131,,,,,,,,black_plus_sign,,,50,,,1,,,,,,,0.9230769230769231,
null,,color_black6,1345235,,,,,,,,black_plus_sign,,,null,,,,,,,,,,,
null,,learn_phase(without_color)6,1348739,,,,,,,,black_plus_sign,,,null,object_01b.png,object_12a.png,,,,,,,,,
null,,black_cross(without_color)6,1349512,,,,,,,,green,,,null,object_01b.png,object_12a.png,,,,,,,,,
null,,rt_plussign_withcolor6,1350016,,,,,,,,green,,,null,object_01b.png,object_12a.png,,,,,,,,,
null,,rt_thecrossant_black6,1351256,,,,,,,,black_plus_sign,,,null,,,,,,,,,,0.9230769230769231,
null,,warning_page,1356264,,,,,,,,warning,,,null,,,,,,,,,,,
null,,color_black6,1356366,,,,,,,,black_plus_sign,,,null,,,,,,,,,,,
null,,thebreak,1356469,,,,,,,,<p></p>,,,null,,,,,,,,,,,
1768,,intro_0,1358238,,,,,,,,instruct,,,32,,,,,,,,,,,
3981,,directmemory_phase6,1362221,,,,,,,,object_06a.png,,,51,,,0,,object_12c.png,object_14a.png,object_13c.png,object_14a.png,,0.4473684210526316,0
4003.400000002235,,directmemory_phase6,1366228,,,,,,,,object_12a.png,,,49,,,1,,object_01b.png,object_13c.png,object_10a.png,object_01b.png,,0.45454545454545453,1
7795.199999999255,,directmemory_phase6,1374026,,,,,,,,object_12b.png,,,49,,,0,,object_12c.png,object_15a.png,object_09c.png,object_09c.png,,0.44871794871794873,0
4470.5,,directmemory_phase6,1378499,,,,,,,,object_08a.png,,,51,,,1,,object_15c.png,object_11c.png,object_13c.png,object_13c.png,,0.45569620253164556,1
6572.10000000149,,directmemory_phase6,1385074,,,,,,,,object_04c.png,,,51,,,1,,object_15c.png,object_09c.png,object_05a.png,object_05a.png,,0.4625,1
2652.300000000745,,directmemory_phase6,1387728,,,,,,,,object_03b.png,,,50,,,0,,object_09c.png,object_05c.png,object_15a.png,object_15a.png,,0.4567901234567901,0
3584.800000000745,,directmemory_phase6,1391315,,,,,,,,object_04a.png,,,50,,,0,,object_12c.png,object_15a.png,object_10a.png,object_12c.png,,0.45121951219512196,0
5531.400000002235,,directmemory_phase6,1396848,,,,,,,,object_02b.png,,,49,,,1,,object_10a.png,object_13c.png,object_15a.png,object_10a.png,,0.4578313253012048,1
3254.599999997765,,directmemory_phase6,1400106,,,,,,,,object_11b.png,,,50,,,0,,object_11c.png,object_10a.png,object_07b.png,object_07b.png,,0.4523809523809524,0
4137.60000000149,,directmemory_phase6,1404246,,,,,,,,object_10b.png,,,50,,,0,,object_05a.png,object_12c.png,object_05c.png,object_05c.png,,0.4470588235294118,0
4560.800000000745,,directmemory_phase6,1408809,,,,,,,,object_09a.png,,,51,,,1,,object_09c.png,object_05c.png,object_11c.png,object_11c.png,,0.45348837209302323,1
6315.5,,directmemory_phase6,1415128,,,,,,,,object_14b.png,,,51,,,1,,object_12c.png,object_15a.png,object_15c.png,object_15c.png,,0.45977011494252873,1
6371.5,,directmemory_phase6,1421502,,,,,,,,object_08b.png,,,51,,,1,,object_01a.png,object_09c.png,object_04b.png,object_04b.png,,0.4659090909090909,1
2770.39999999851,,directmemory_phase6,1424275,,,,,,,,object_03a.png,,,50,,,0,,object_01a.png,object_13c.png,object_05a.png,object_01a.png,,0.4606741573033708,0
3403.300000000745,,directmemory_phase6,1427682,,,,,,,,object_07c.png,,,49,,,1,,object_07a.png,object_09c.png,object_07b.png,object_07a.png,,0.4666666666666667,1
null,,thebreak,1427785,,,,,,,,<p></p>,,,null,,,,,,,,,,,
1876.300000000745,,intro_0,1429663,,,,,,,,instruct,,,32,,,,,,,,,,,
null,,learn_phase(without_color)7,1433165,,,,,,,,black_plus_sign,,,null,object_01a.png,object_03a.png,,,,,,,,,
null,,black_cross(without_color)7,1434057,,,,,,,,green,,,null,object_01a.png,object_03a.png,,,,,,,,,
null,,rt_plussign_withcolor7,1434563,,,,,,,,green,,,null,object_01a.png,object_03a.png,,,,,,,,,
1513.300000000745,,rt_thecrossant_black7,1435687,,,,,,,,black_plus_sign,,,50,,,1,,,,,,,1,
null,,color_black7,1435791,,,,,,,,black_plus_sign,,,null,,,,,,,,,,,
null,,learn_phase(without_color)7,1439296,,,,,,,,black_plus_sign,,,null,object_15a.png,object_03b.png,,,,,,,,,
null,,black_cross(without_color)7,1440156,,,,,,,,blue,,,null,object_15a.png,object_03b.png,,,,,,,,,
null,,rt_plussign_withcolor7,1440661,,,,,,,,blue,,,null,object_15a.png,object_03b.png,,,,,,,,,
1619.800000000745,,rt_thecrossant_black7,1441817,,,,,,,,black_plus_sign,,,49,,,1,,,,,,,1,
null,,color_black7,1441921,,,,,,,,black_plus_sign,,,null,,,,,,,,,,,
null,,learn_phase(without_color)7,1445427,,,,,,,,black_plus_sign,,,null,object_14a.png,object_06a.png,,,,,,,,,
null,,black_cross(without_color)7,1446522,,,,,,,,green,,,null,object_14a.png,object_06a.png,,,,,,,,,
null,,rt_plussign_withcolor7,1447026,,,,,,,,green,,,null,object_14a.png,object_06a.png,,,,,,,,,
null,,rt_thecrossant_black7,1447947,,,,,,,,black_plus_sign,,,null,,,,,,,,,,1,
