rt,responses,trial_type,time_elapsed,identifier_a,identifier_b,identifier_c,tasktype,browser_type,local_time,UTC_time,stimulus,button_pressed,response,key_press,stimulus_left,stimulus_right,accuracy,practice_cumulative_accuracy,stimulus_down_left,stimulus_down_mid,stimulus_down_right,stimulus_correct,prac_weighted_accuracy,cumulative_accuracy,failed_practice,weighted_accuracy,stimulus_middle,problems,smooth,distraction,strategies,easier,similar,comments
28973.200000047684,{worker_id:66ac145b55e2055063cd4079},id_enter,28977,object_07a.png; object_02b.png; object_15c.png; object_12c.png; object_09b.png; object_02c.png; object_10a.png; object_01c.png; object_01b.png; object_08a.png; object_12a.png; object_06a.png; object_11b.png; object_01a.png; object_04b.png,object_07b.png; object_13a.png; object_02a.png; object_13c.png; object_03b.png; object_06b.png; object_10b.png; object_05b.png; object_10c.png; object_14b.png; object_05a.png; object_04a.png; object_04c.png; object_14a.png; object_08b.png,object_05c.png; object_08c.png; object_03c.png; object_13b.png; object_06c.png; object_12b.png; object_07c.png; object_11a.png; object_15b.png; object_09c.png; object_15a.png; object_11c.png; object_09a.png; object_03a.png; object_14c.png,blocked,Mozilla/5.0 (Windows NT 10.0; Win64; x64) AppleWebKit/537.36 (KHTML, like Gecko) Chrome/136.0.0.0 Safari/537.36,5/8/2025, 5:35:09 PM,2025-05-08 21:35:09.407,,,,,,,,,,,,,,,,,,,,,,,,
16384.600000023842,,make_fullscreen,45393,,,,,,,,fullscreen,0,,,,,,,,,,,,,,,,,,,,,,
7178.700000047684,,instruct_1,52577,,,,,,,,instruct,0,Next,,,,,,,,,,,,,,,,,,,,,
12592.600000023842,,instruct_2,65172,,,,,,,,instruct,1,Next,,,,,,,,,,,,,,,,,,,,,
9512.200000047684,,instruct_3,74686,,,,,,,,instruct,1,Next,,,,,,,,,,,,,,,,,,,,,
26807.399999976158,,instruct_4,101495,,,,,,,,instruct,1,Next,,,,,,,,,,,,,,,,,,,,,
11415.899999976158,,instruct_5,112914,,,,,,,,instruct,1,Next,,,,,,,,,,,,,,,,,,,,,
4123.199999928474,,instruct_6,117038,,,,,,,,instruct,1,Next,,,,,,,,,,,,,,,,,,,,,
27547.899999976158,,instruct_7,144588,,,,,,,,instruct,1,Next,,,,,,,,,,,,,,,,,,,,,
null,,prac_atten_color_black,145469,,,,,,,,black_plus_sign,,,null,,,,,,,,,,,,,,,,,,,,
null,,prac_atten_color,145996,,,,,,,,<p style='position:absolute;top: 50%;right: 50%;transform: translate(50%, -50%);font-size: 125px;color: blue;'>+</p>,,,null,,,,,,,,,,,,,,,,,,,,
27.5,,prac_atten_color_black,147998,,,,,,,,black_plus_sign,,,49,,,,,,,,,,,,,,,,,,,,
null,,prac_atten_color_black,148877,,,,,,,,black_plus_sign,,,null,,,,,,,,,,,,,,,,,,,,
null,,prac_atten_color,149626,,,,,,,,<p style='position:absolute;top: 50%;right: 50%;transform: translate(50%, -50%);font-size: 125px;color: green;'>+</p>,,,null,,,,,,,,,,,,,,,,,,,,
115,,prac_atten_color_black,151627,,,,,,,,black_plus_sign,,,50,,,,,,,,,,,,,,,,,,,,
null,,prac_atten_color_black,152282,,,,,,,,black_plus_sign,,,null,,,,,,,,,,,,,,,,,,,,
558.3999999761581,,prac_atten_color,153014,,,,,,,,<p style='position:absolute;top: 50%;right: 50%;transform: translate(50%, -50%);font-size: 125px;color: green;'>+</p>,,,50,,,,,,,,,,,,,,,,,,,,
null,,prac_atten_color_black,155015,,,,,,,,black_plus_sign,,,null,,,,,,,,,,,,,,,,,,,,
null,,prac_atten_color_black,155689,,,,,,,,black_plus_sign,,,null,,,,,,,,,,,,,,,,,,,,
421.60000002384186,,prac_atten_color,156347,,,,,,,,<p style='position:absolute;top: 50%;right: 50%;transform: translate(50%, -50%);font-size: 125px;color: blue;'>+</p>,,,49,,,,,,,,,,,,,,,,,,,,
null,,prac_atten_color_black,158349,,,,,,,,black_plus_sign,,,null,,,,,,,,,,,,,,,,,,,,
null,,prac_atten_color_black,159096,,,,,,,,black_plus_sign,,,null,,,,,,,,,,,,,,,,,,,,
412.5,,prac_atten_color,160164,,,,,,,,<p style='position:absolute;top: 50%;right: 50%;transform: translate(50%, -50%);font-size: 125px;color: green;'>+</p>,,,50,,,,,,,,,,,,,,,,,,,,
null,,prac_atten_color_black,162166,,,,,,,,black_plus_sign,,,null,,,,,,,,,,,,,,,,,,,,
null,,prac_atten_color_black,162502,,,,,,,,black_plus_sign,,,null,,,,,,,,,,,,,,,,,,,,
515.7999999523163,,prac_atten_color,163604,,,,,,,,<p style='position:absolute;top: 50%;right: 50%;transform: translate(50%, -50%);font-size: 125px;color: green;'>+</p>,,,50,,,,,,,,,,,,,,,,,,,,
null,,prac_atten_color_black,165605,,,,,,,,black_plus_sign,,,null,,,,,,,,,,,,,,,,,,,,
null,,prac_atten_color_black,165910,,,,,,,,black_plus_sign,,,null,,,,,,,,,,,,,,,,,,,,
349.10000002384186,,prac_atten_color,166936,,,,,,,,<p style='position:absolute;top: 50%;right: 50%;transform: translate(50%, -50%);font-size: 125px;color: blue;'>+</p>,,,49,,,,,,,,,,,,,,,,,,,,
null,,prac_atten_color_black,168938,,,,,,,,black_plus_sign,,,null,,,,,,,,,,,,,,,,,,,,
null,,prac_atten_color_black,169315,,,,,,,,black_plus_sign,,,null,,,,,,,,,,,,,,,,,,,,
423.2000000476837,,prac_atten_color,169829,,,,,,,,<p style='position:absolute;top: 50%;right: 50%;transform: translate(50%, -50%);font-size: 125px;color: green;'>+</p>,,,50,,,,,,,,,,,,,,,,,,,,
null,,prac_atten_color_black,171830,,,,,,,,black_plus_sign,,,null,,,,,,,,,,,,,,,,,,,,
null,,prac_atten_color_black,172721,,,,,,,,black_plus_sign,,,null,,,,,,,,,,,,,,,,,,,,
721.7999999523163,,prac_atten_color,173762,,,,,,,,<p style='position:absolute;top: 50%;right: 50%;transform: translate(50%, -50%);font-size: 125px;color: blue;'>+</p>,,,49,,,,,,,,,,,,,,,,,,,,
null,,prac_atten_color_black,175765,,,,,,,,black_plus_sign,,,null,,,,,,,,,,,,,,,,,,,,
null,,prac_atten_color_black,176128,,,,,,,,black_plus_sign,,,null,,,,,,,,,,,,,,,,,,,,
567.5999999046326,,prac_atten_color,177148,,,,,,,,<p style='position:absolute;top: 50%;right: 50%;transform: translate(50%, -50%);font-size: 125px;color: blue;'>+</p>,,,49,,,,,,,,,,,,,,,,,,,,
null,,prac_atten_color_black,179150,,,,,,,,black_plus_sign,,,null,,,,,,,,,,,,,,,,,,,,
6161.799999952316,,attentioncheck_feedback,185314,,,,,,,,cross_check_feedback,0,,,,,,,,,,,,,,,,,,,,,,
9442.600000023842,,last_instruct,194758,,,,,,,,instruct,,,32,,,,,,,,,,,,,,,,,,,,
null,,prac_learn_phase(without_color),198259,,,,,,,,black_plus_sign,,,null,object_04b.png,object_08b.png,,,,,,,,,,,,,,,,,,
null,,prac_black_cross(without_color),199014,,,,,,,,green,,,null,object_04b.png,object_08b.png,,,,,,,,,,,,,,,,,,
null,,prac_rt_plussign_withcolor,199515,,,,,,,,green,,,null,object_04b.png,object_08b.png,,,,,,,,,,,,,,,,,,
1010.3999999761581,,prac_rt_thecrossant_black,200766,,,,,,,,black_plus_sign,,,50,,,1,1,,,,,,,,,,,,,,,,
null,,prac_color_black,200870,,,,,,,,black_plus_sign,,,null,,,,,,,,,,,,,,,,,,,,
null,,prac_learn_phase(without_color),204374,,,,,,,,black_plus_sign,,,null,object_02b.png,object_13a.png,,,,,,,,,,,,,,,,,,
null,,black_cross(without_color)1,205163,,,,,,,,blue,,,null,object_04b.png,object_08b.png,,,,,,,,,,,,,,,,,,
null,,prac_rt_plussign_withcolor,205664,,,,,,,,blue,,,null,object_02b.png,object_13a.png,,,,,,,,,,,,,,,,,,
805.4000000953674,,prac_rt_thecrossant_black,206884,,,,,,,,black_plus_sign,,,49,,,1,1,,,,,,,,,,,,,,,,
null,,prac_color_black,206986,,,,,,,,black_plus_sign,,,null,,,,,,,,,,,,,,,,,,,,
null,,prac_learn_phase(without_color),210497,,,,,,,,black_plus_sign,,,null,object_02c.png,object_06b.png,,,,,,,,,,,,,,,,,,
null,,black_cross(without_color)1,211271,,,,,,,,blue,,,null,object_04b.png,object_08b.png,,,,,,,,,,,,,,,,,,
436.1999999284744,,prac_rt_plussign_withcolor,211775,,,,,,,,green,,,50,object_02c.png,object_06b.png,,,,,,,,,,,,,,,,,,
null,,prac_rt_thecrossant_black,213253,,,,,,,,black_plus_sign,,,null,,,1,1,,,,,,,,,,,,,,,,
null,,prac_color_black,213355,,,,,,,,black_plus_sign,,,null,,,,,,,,,,,,,,,,,,,,
null,,prac_learn_phase(without_color),216858,,,,,,,,black_plus_sign,,,null,object_07a.png,object_07b.png,,,,,,,,,,,,,,,,,,
null,,black_cross(without_color)1,217634,,,,,,,,blue,,,null,object_04b.png,object_08b.png,,,,,,,,,,,,,,,,,,
null,,prac_rt_plussign_withcolor,218136,,,,,,,,green,,,null,object_07a.png,object_07b.png,,,,,,,,,,,,,,,,,,
835,,prac_rt_thecrossant_black,219182,,,,,,,,black_plus_sign,,,50,,,1,1,,,,,,,,,,,,,,,,
null,,prac_color_black,219284,,,,,,,,black_plus_sign,,,null,,,,,,,,,,,,,,,,,,,,
8750.5,,instruct_dir_01,228041,,,,,,,,instruct,0,Next,,,,,,,,,,,,,,,,,,,,,
8716.600000023842,,instruct_dir_2,236760,,,,,,,,instruct,1,Next,,,,,,,,,,,,,,,,,,,,,
6093.600000023842,,instruct_dir_3,242854,,,,,,,,instruct,1,Next,,,,,,,,,,,,,,,,,,,,,
11866.900000095367,,instruct_dir_4,254723,,,,,,,,instruct,1,Start,,,,,,,,,,,,,,,,,,,,,
null,,thebreak,254825,,,,,,,,<p></p>,,,null,,,,,,,,,,,,,,,,,,,,
1723.3999999761581,,intro_0,256551,,,,,,,,instruct,,,32,,,,,,,,,,,,,,,,,,,,
2241.100000023842,,prac_directmemory_phase,258794,,,,,,,,practice/object_04b.png,,,49,,,0,,practice/object_01a.png,practice/object_02a.png,practice/object_04a.png,practice/object_04a.png,0,0,,,,,,,,,,
2429.7000000476837,,prac_directmemory_phase,261225,,,,,,,,practice/object_03b.png,,,50,,,0,,practice/object_03a.png,practice/object_02a.png,practice/object_01a.png,practice/object_03a.png,0,0,,,,,,,,,,
2783.399999976158,,prac_directmemory_phase,264010,,,,,,,,practice/object_02b.png,,,50,,,1,,practice/object_04a.png,practice/object_02a.png,practice/object_03a.png,practice/object_02a.png,1,0.3333333333333333,,,,,,,,,,
2021.1000000238419,,prac_directmemory_phase,266037,,,,,,,,practice/object_01b.png,,,51,,,1,,practice/object_03a.png,practice/object_04a.png,practice/object_01a.png,practice/object_01a.png,1,0.5,,,,,,,,,,
5947.799999952316,,practice_feedback_force_restart,271987,,,,,,,,practice_feedback,0,,,,,,,,,,,,,1,,,,,,,,,
1635.2999999523163,,last_instruct,273623,,,,,,,,instruct,,,32,,,,,,,,,,,,,,,,,,,,
null,,prac_learn_phase(without_color),277124,,,,,,,,black_plus_sign,,,null,object_04b.png,object_08b.png,,,,,,,,,,,,,,,,,,
null,,prac_black_cross(without_color),278001,,,,,,,,green,,,null,object_04b.png,object_08b.png,,,,,,,,,,,,,,,,,,
486,,prac_rt_plussign_withcolor,278503,,,,,,,,green,,,50,object_04b.png,object_08b.png,,,,,,,,,,,,,,,,,,
null,,prac_rt_thecrossant_black,279631,,,,,,,,black_plus_sign,,,null,,,1,1,,,,,,,,,,,,,,,,
null,,prac_color_black,279733,,,,,,,,black_plus_sign,,,null,,,,,,,,,,,,,,,,,,,,
null,,prac_learn_phase(without_color),283236,,,,,,,,black_plus_sign,,,null,object_02b.png,object_13a.png,,,,,,,,,,,,,,,,,,
null,,black_cross(without_color)1,284012,,,,,,,,blue,,,null,object_04b.png,object_08b.png,,,,,,,,,,,,,,,,,,
468.60000002384186,,prac_rt_plussign_withcolor,284513,,,,,,,,blue,,,49,object_02b.png,object_13a.png,,,,,,,,,,,,,,,,,,
null,,prac_rt_thecrossant_black,285747,,,,,,,,black_plus_sign,,,null,,,1,1,,,,,,,,,,,,,,,,
null,,prac_color_black,285848,,,,,,,,black_plus_sign,,,null,,,,,,,,,,,,,,,,,,,,
null,,prac_learn_phase(without_color),289351,,,,,,,,black_plus_sign,,,null,object_02c.png,object_06b.png,,,,,,,,,,,,,,,,,,
null,,black_cross(without_color)1,290125,,,,,,,,blue,,,null,object_04b.png,object_08b.png,,,,,,,,,,,,,,,,,,
488.2000000476837,,prac_rt_plussign_withcolor,290631,,,,,,,,green,,,50,object_02c.png,object_06b.png,,,,,,,,,,,,,,,,,,
null,,prac_rt_thecrossant_black,291904,,,,,,,,black_plus_sign,,,null,,,1,1,,,,,,,,,,,,,,,,
null,,prac_color_black,292007,,,,,,,,black_plus_sign,,,null,,,,,,,,,,,,,,,,,,,,
null,,prac_learn_phase(without_color),295509,,,,,,,,black_plus_sign,,,null,object_07a.png,object_07b.png,,,,,,,,,,,,,,,,,,
null,,black_cross(without_color)1,296284,,,,,,,,blue,,,null,object_04b.png,object_08b.png,,,,,,,,,,,,,,,,,,
null,,prac_rt_plussign_withcolor,296786,,,,,,,,green,,,null,object_07a.png,object_07b.png,,,,,,,,,,,,,,,,,,
864.2999999523163,,prac_rt_thecrossant_black,297744,,,,,,,,black_plus_sign,,,50,,,1,1,,,,,,,,,,,,,,,,
null,,prac_color_black,297846,,,,,,,,black_plus_sign,,,null,,,,,,,,,,,,,,,,,,,,
2319.600000023842,,instruct_dir_01,300167,,,,,,,,instruct,0,Next,,,,,,,,,,,,,,,,,,,,,
1676.7999999523163,,instruct_dir_2,301845,,,,,,,,instruct,1,Next,,,,,,,,,,,,,,,,,,,,,
1408.6999999284744,,instruct_dir_3,303255,,,,,,,,instruct,1,Next,,,,,,,,,,,,,,,,,,,,,
1887.2999999523163,,instruct_dir_4,305144,,,,,,,,instruct,1,Start,,,,,,,,,,,,,,,,,,,,,
null,,thebreak,305246,,,,,,,,<p></p>,,,null,,,,,,,,,,,,,,,,,,,,
1053.8000000715256,,intro_0,306300,,,,,,,,instruct,,,32,,,,,,,,,,,,,,,,,,,,
2465.2999999523163,,prac_directmemory_phase,308766,,,,,,,,practice/object_04b.png,,,51,,,1,,practice/object_01a.png,practice/object_02a.png,practice/object_04a.png,practice/object_04a.png,1,1,,,,,,,,,,
1271,,prac_directmemory_phase,310039,,,,,,,,practice/object_03b.png,,,49,,,1,,practice/object_03a.png,practice/object_02a.png,practice/object_01a.png,practice/object_03a.png,1,1,,,,,,,,,,
1686.2999999523163,,prac_directmemory_phase,311726,,,,,,,,practice/object_02b.png,,,50,,,1,,practice/object_04a.png,practice/object_02a.png,practice/object_03a.png,practice/object_02a.png,1,1,,,,,,,,,,
2466.2999999523163,,prac_directmemory_phase,314194,,,,,,,,practice/object_01b.png,,,49,,,0,,practice/object_03a.png,practice/object_04a.png,practice/object_01a.png,practice/object_01a.png,0,0.75,,,,,,,,,,
8918.199999928474,,practice_feedback,323119,,,,,,,,practice_feedback,1,,,,,,,,,,,,,,,,,,,,,,
8920.799999952316,,proceed_actualTask,332041,,,,,,,,proceed_actualTask,1,Continue,,,,,,,,,,,,,,,,,,,,,
9259.5,,last_inst,341303,,,,,,,,last_inst,,,32,,,,,,,,,,,,,,,,,,,,
null,,learn_phase(without_color)1,344804,,,,,,,,black_plus_sign,,,null,object_04b.png,object_08b.png,,,,,,,,,,,,,,,,,,
null,,black_cross(without_color)1,345580,,,,,,,,blue,,,null,object_04b.png,object_08b.png,,,,,,,,,,,,,,,,,,
null,,rt_plussign_withcolor1,346082,,,,,,,,blue,,,null,object_04b.png,object_08b.png,,,,,,,,,,,,,,,,,,
1246.1000000238419,,rt_thecrossant_black1,347316,,,,,,,,black_plus_sign,,,49,,,1,,,,,,,1,,,,,,,,,,
null,,color_black1,347419,,,,,,,,black_plus_sign,,,null,,,,,,,,,,,,,,,,,,,,
null,,learn_phase(without_color)1,350922,,,,,,,,black_plus_sign,,,null,object_02b.png,object_13a.png,,,,,,,,,,,,,,,,,,
null,,black_cross(without_color)1,351505,,,,,,,,blue,,,null,object_02b.png,object_13a.png,,,,,,,,,,,,,,,,,,
null,,rt_plussign_withcolor1,352006,,,,,,,,blue,,,null,object_02b.png,object_13a.png,,,,,,,,,,,,,,,,,,
910.6000000238419,,rt_thecrossant_black1,353429,,,,,,,,black_plus_sign,,,49,,,1,,,,,,,1,,,,,,,,,,
null,,color_black1,353531,,,,,,,,black_plus_sign,,,null,,,,,,,,,,,,,,,,,,,,
null,,learn_phase(without_color)1,357034,,,,,,,,black_plus_sign,,,null,object_02c.png,object_06b.png,,,,,,,,,,,,,,,,,,
null,,black_cross(without_color)1,357617,,,,,,,,green,,,null,object_02c.png,object_06b.png,,,,,,,,,,,,,,,,,,
null,,rt_plussign_withcolor1,358119,,,,,,,,green,,,null,object_02c.png,object_06b.png,,,,,,,,,,,,,,,,,,
721.6000000238419,,rt_thecrossant_black1,359541,,,,,,,,black_plus_sign,,,50,,,1,,,,,,,1,,,,,,,,,,
null,,color_black1,359643,,,,,,,,black_plus_sign,,,null,,,,,,,,,,,,,,,,,,,,
null,,learn_phase(without_color)1,363145,,,,,,,,black_plus_sign,,,null,object_07a.png,object_07b.png,,,,,,,,,,,,,,,,,,
null,,black_cross(without_color)1,364036,,,,,,,,green,,,null,object_07a.png,object_07b.png,,,,,,,,,,,,,,,,,,
380,,rt_plussign_withcolor1,364538,,,,,,,,green,,,50,object_07a.png,object_07b.png,,,,,,,,,,,,,,,,,,
null,,rt_thecrossant_black1,365651,,,,,,,,black_plus_sign,,,null,,,1,,,,,,,1,,,,,,,,,,
null,,color_black1,365752,,,,,,,,black_plus_sign,,,null,,,,,,,,,,,,,,,,,,,,
null,,learn_phase(without_color)1,369255,,,,,,,,black_plus_sign,,,null,object_06a.png,object_04a.png,,,,,,,,,,,,,,,,,,
null,,black_cross(without_color)1,370303,,,,,,,,blue,,,null,object_06a.png,object_04a.png,,,,,,,,,,,,,,,,,,
null,,rt_plussign_withcolor1,370806,,,,,,,,blue,,,null,object_06a.png,object_04a.png,,,,,,,,,,,,,,,,,,
1117.5,,rt_thecrossant_black1,371761,,,,,,,,black_plus_sign,,,49,,,1,,,,,,,1,,,,,,,,,,
null,,color_black1,371863,,,,,,,,black_plus_sign,,,null,,,,,,,,,,,,,,,,,,,,
null,,learn_phase(without_color)1,375366,,,,,,,,black_plus_sign,,,null,object_01a.png,object_14a.png,,,,,,,,,,,,,,,,,,
null,,black_cross(without_color)1,376056,,,,,,,,green,,,null,object_01a.png,object_14a.png,,,,,,,,,,,,,,,,,,
null,,rt_plussign_withcolor1,376562,,,,,,,,green,,,null,object_01a.png,object_14a.png,,,,,,,,,,,,,,,,,,
1310.4000000953674,,rt_thecrossant_black1,377877,,,,,,,,black_plus_sign,,,50,,,1,,,,,,,1,,,,,,,,,,
null,,color_black1,377984,,,,,,,,black_plus_sign,,,null,,,,,,,,,,,,,,,,,,,,
null,,learn_phase(without_color)1,381486,,,,,,,,black_plus_sign,,,null,object_15c.png,object_02a.png,,,,,,,,,,,,,,,,,,
null,,black_cross(without_color)1,381888,,,,,,,,green,,,null,object_15c.png,object_02a.png,,,,,,,,,,,,,,,,,,
null,,rt_plussign_withcolor1,382391,,,,,,,,green,,,null,object_15c.png,object_02a.png,,,,,,,,,,,,,,,,,,
895.7000000476837,,rt_thecrossant_black1,383994,,,,,,,,black_plus_sign,,,50,,,1,,,,,,,1,,,,,,,,,,
null,,color_black1,384096,,,,,,,,black_plus_sign,,,null,,,,,,,,,,,,,,,,,,,,
null,,learn_phase(without_color)1,387598,,,,,,,,black_plus_sign,,,null,object_12c.png,object_13c.png,,,,,,,,,,,,,,,,,,
null,,black_cross(without_color)1,388227,,,,,,,,green,,,null,object_12c.png,object_13c.png,,,,,,,,,,,,,,,,,,
473.89999997615814,,rt_plussign_withcolor1,388729,,,,,,,,green,,,50,object_12c.png,object_13c.png,,,,,,,,,,,,,,,,,,
null,,rt_thecrossant_black1,390105,,,,,,,,black_plus_sign,,,null,,,1,,,,,,,1,,,,,,,,,,
null,,color_black1,390207,,,,,,,,black_plus_sign,,,null,,,,,,,,,,,,,,,,,,,,
null,,learn_phase(without_color)1,393710,,,,,,,,black_plus_sign,,,null,object_01b.png,object_10c.png,,,,,,,,,,,,,,,,,,
null,,black_cross(without_color)1,394698,,,,,,,,green,,,null,object_01b.png,object_10c.png,,,,,,,,,,,,,,,,,,
434.59999990463257,,rt_plussign_withcolor1,395200,,,,,,,,green,,,50,object_01b.png,object_10c.png,,,,,,,,,,,,,,,,,,
null,,rt_thecrossant_black1,396215,,,,,,,,black_plus_sign,,,null,,,1,,,,,,,1,,,,,,,,,,
null,,color_black1,396317,,,,,,,,black_plus_sign,,,null,,,,,,,,,,,,,,,,,,,,
null,,learn_phase(without_color)1,399820,,,,,,,,black_plus_sign,,,null,object_11b.png,object_04c.png,,,,,,,,,,,,,,,,,,
null,,black_cross(without_color)1,400436,,,,,,,,blue,,,null,object_11b.png,object_04c.png,,,,,,,,,,,,,,,,,,
null,,rt_plussign_withcolor1,400937,,,,,,,,blue,,,null,object_11b.png,object_04c.png,,,,,,,,,,,,,,,,,,
1314,,rt_thecrossant_black1,402324,,,,,,,,black_plus_sign,,,49,,,1,,,,,,,1,,,,,,,,,,
null,,color_black1,402426,,,,,,,,black_plus_sign,,,null,,,,,,,,,,,,,,,,,,,,
null,,learn_phase(without_color)1,405928,,,,,,,,black_plus_sign,,,null,object_01c.png,object_05b.png,,,,,,,,,,,,,,,,,,
null,,black_cross(without_color)1,406484,,,,,,,,blue,,,null,object_01c.png,object_05b.png,,,,,,,,,,,,,,,,,,
null,,rt_plussign_withcolor1,406987,,,,,,,,blue,,,null,object_01c.png,object_05b.png,,,,,,,,,,,,,,,,,,
799.6000000238419,,rt_thecrossant_black1,408436,,,,,,,,black_plus_sign,,,49,,,1,,,,,,,1,,,,,,,,,,
null,,color_black1,408546,,,,,,,,black_plus_sign,,,null,,,,,,,,,,,,,,,,,,,,
null,,learn_phase(without_color)1,412049,,,,,,,,black_plus_sign,,,null,object_08a.png,object_14b.png,,,,,,,,,,,,,,,,,,
null,,black_cross(without_color)1,412636,,,,,,,,green,,,null,object_08a.png,object_14b.png,,,,,,,,,,,,,,,,,,
null,,rt_plussign_withcolor1,413138,,,,,,,,green,,,null,object_08a.png,object_14b.png,,,,,,,,,,,,,,,,,,
662.7999999523163,,rt_thecrossant_black1,414554,,,,,,,,black_plus_sign,,,50,,,1,,,,,,,1,,,,,,,,,,
null,,color_black1,414656,,,,,,,,black_plus_sign,,,null,,,,,,,,,,,,,,,,,,,,
null,,learn_phase(without_color)1,418158,,,,,,,,black_plus_sign,,,null,object_12a.png,object_05a.png,,,,,,,,,,,,,,,,,,
null,,black_cross(without_color)1,419042,,,,,,,,blue,,,null,object_12a.png,object_05a.png,,,,,,,,,,,,,,,,,,
null,,rt_plussign_withcolor1,419544,,,,,,,,blue,,,null,object_12a.png,object_05a.png,,,,,,,,,,,,,,,,,,
805.6000000238419,,rt_thecrossant_black1,420665,,,,,,,,black_plus_sign,,,49,,,1,,,,,,,1,,,,,,,,,,
null,,color_black1,420767,,,,,,,,black_plus_sign,,,null,,,,,,,,,,,,,,,,,,,,
null,,learn_phase(without_color)1,424271,,,,,,,,black_plus_sign,,,null,object_10a.png,object_10b.png,,,,,,,,,,,,,,,,,,
null,,black_cross(without_color)1,424774,,,,,,,,blue,,,null,object_10a.png,object_10b.png,,,,,,,,,,,,,,,,,,
null,,rt_plussign_withcolor1,425276,,,,,,,,blue,,,null,object_10a.png,object_10b.png,,,,,,,,,,,,,,,,,,
1024.8999999761581,,rt_thecrossant_black1,426777,,,,,,,,black_plus_sign,,,49,,,1,,,,,,,1,,,,,,,,,,
null,,color_black1,426887,,,,,,,,black_plus_sign,,,null,,,,,,,,,,,,,,,,,,,,
null,,learn_phase(without_color)1,430390,,,,,,,,black_plus_sign,,,null,object_09b.png,object_03b.png,,,,,,,,,,,,,,,,,,
null,,black_cross(without_color)1,431364,,,,,,,,blue,,,null,object_09b.png,object_03b.png,,,,,,,,,,,,,,,,,,
435,,rt_plussign_withcolor1,431867,,,,,,,,blue,,,49,object_09b.png,object_03b.png,,,,,,,,,,,,,,,,,,
null,,rt_thecrossant_black1,432896,,,,,,,,black_plus_sign,,,null,,,1,,,,,,,1,,,,,,,,,,
null,,color_black1,432998,,,,,,,,black_plus_sign,,,null,,,,,,,,,,,,,,,,,,,,
null,,thebreak,433103,,,,,,,,<p></p>,,,null,,,,,,,,,,,,,,,,,,,,
1886.5,,intro_0,434990,,,,,,,,instruct,,,32,,,,,,,,,,,,,,,,,,,,
1723.8999999761581,,directmemory_phase1,436715,,,,,,,,object_13a.png,,,50,,,1,,object_06a.png,object_02b.png,object_08a.png,object_02b.png,,1,,1,,,,,,,,
2701.7000000476837,,directmemory_phase1,439418,,,,,,,,object_04a.png,,,51,,,1,,object_01c.png,object_15c.png,object_06a.png,object_06a.png,,1,,1,,,,,,,,
1949.2999999523163,,directmemory_phase1,441369,,,,,,,,object_05a.png,,,49,,,1,,object_12a.png,object_15c.png,object_12c.png,object_12a.png,,1,,1,,,,,,,,
3055.100000023842,,directmemory_phase1,444426,,,,,,,,object_08b.png,,,51,,,1,,object_12c.png,object_09b.png,object_04b.png,object_04b.png,,1,,1,,,,,,,,
1886.6000000238419,,directmemory_phase1,446314,,,,,,,,object_10b.png,,,49,,,0,,object_11b.png,object_10a.png,object_07a.png,object_10a.png,,0.8,,0,,,,,,,,
2113.6999999284744,,directmemory_phase1,448429,,,,,,,,object_06b.png,,,50,,,1,,object_08a.png,object_02c.png,object_12a.png,object_02c.png,,0.8333333333333334,,1,,,,,,,,
2625.899999976158,,directmemory_phase1,451057,,,,,,,,object_10c.png,,,49,,,1,,object_01b.png,object_15c.png,object_06a.png,object_01b.png,,0.8571428571428571,,1,,,,,,,,
2442,,directmemory_phase1,453500,,,,,,,,object_02a.png,,,50,,,1,,object_06a.png,object_15c.png,object_07a.png,object_15c.png,,0.875,,1,,,,,,,,
2582.899999976158,,directmemory_phase1,456084,,,,,,,,object_14a.png,,,49,,,1,,object_01a.png,object_15c.png,object_01c.png,object_01a.png,,0.8888888888888888,,1,,,,,,,,
2213,,directmemory_phase1,458299,,,,,,,,object_07b.png,,,51,,,0,,object_02b.png,object_07a.png,object_08a.png,object_07a.png,,0.8,,0,,,,,,,,
2386,,directmemory_phase1,460688,,,,,,,,object_04c.png,,,51,,,0,,object_11b.png,object_06a.png,object_15c.png,object_11b.png,,0.7272727272727273,,0,,,,,,,,
2257.7000000476837,,directmemory_phase1,462947,,,,,,,,object_05b.png,,,49,,,0,,object_11b.png,object_01c.png,object_12c.png,object_01c.png,,0.6666666666666666,,0,,,,,,,,
1672.5,,directmemory_phase1,464621,,,,,,,,object_13c.png,,,50,,,1,,object_09b.png,object_12c.png,object_11b.png,object_12c.png,,0.6923076923076923,,1,,,,,,,,
1416.3999999761581,,directmemory_phase1,466039,,,,,,,,object_03b.png,,,51,,,1,,object_02c.png,object_06a.png,object_09b.png,object_09b.png,,0.7142857142857143,,1,,,,,,,,
2677.1999999284744,,directmemory_phase1,468718,,,,,,,,object_14b.png,,,50,,,0,,object_11b.png,object_01c.png,object_08a.png,object_08a.png,,0.6666666666666666,,0,,,,,,,,
null,,thebreak,468821,,,,,,,,<p></p>,,,null,,,,,,,,,,,,,,,,,,,,
2170.100000023842,,intro_0,470992,,,,,,,,instruct,,,32,,,,,,,,,,,,,,,,,,,,
null,,learn_phase(without_color)2,474494,,,,,,,,black_plus_sign,,,null,object_08a.png,object_14b.png,,,,,,,,,,,,,,,,,,
null,,black_cross(without_color)2,475130,,,,,,,,blue,,,null,object_08a.png,object_14b.png,,,,,,,,,,,,,,,,,,
null,,rt_plussign_withcolor2,475631,,,,,,,,blue,,,null,object_08a.png,object_14b.png,,,,,,,,,,,,,,,,,,
741.8999999761581,,rt_thecrossant_black2,477001,,,,,,,,black_plus_sign,,,49,,,1,,,,,,,1,,,,,,,,,,
null,,color_black2,477103,,,,,,,,black_plus_sign,,,null,,,,,,,,,,,,,,,,,,,,
null,,learn_phase(without_color)2,480606,,,,,,,,black_plus_sign,,,null,object_15c.png,object_02a.png,,,,,,,,,,,,,,,,,,
null,,black_cross(without_color)2,481298,,,,,,,,green,,,null,object_15c.png,object_02a.png,,,,,,,,,,,,,,,,,,
null,,rt_plussign_withcolor2,481800,,,,,,,,green,,,null,object_15c.png,object_02a.png,,,,,,,,,,,,,,,,,,
734.4000000953674,,rt_thecrossant_black2,483113,,,,,,,,black_plus_sign,,,50,,,1,,,,,,,1,,,,,,,,,,
null,,color_black2,483215,,,,,,,,black_plus_sign,,,null,,,,,,,,,,,,,,,,,,,,
null,,learn_phase(without_color)2,486718,,,,,,,,black_plus_sign,,,null,object_01a.png,object_14a.png,,,,,,,,,,,,,,,,,,
null,,black_cross(without_color)2,487243,,,,,,,,blue,,,null,object_01a.png,object_14a.png,,,,,,,,,,,,,,,,,,
384.5,,rt_plussign_withcolor2,487744,,,,,,,,blue,,,49,object_01a.png,object_14a.png,,,,,,,,,,,,,,,,,,
null,,rt_thecrossant_black2,489224,,,,,,,,black_plus_sign,,,null,,,1,,,,,,,1,,,,,,,,,,
null,,color_black2,489328,,,,,,,,black_plus_sign,,,null,,,,,,,,,,,,,,,,,,,,
null,,learn_phase(without_color)2,492831,,,,,,,,black_plus_sign,,,null,object_09b.png,object_03b.png,,,,,,,,,,,,,,,,,,
null,,black_cross(without_color)2,493415,,,,,,,,green,,,null,object_09b.png,object_03b.png,,,,,,,,,,,,,,,,,,
434.60000002384186,,rt_plussign_withcolor2,493917,,,,,,,,green,,,50,object_09b.png,object_03b.png,,,,,,,,,,,,,,,,,,
null,,rt_thecrossant_black2,495338,,,,,,,,black_plus_sign,,,null,,,1,,,,,,,1,,,,,,,,,,
null,,color_black2,495441,,,,,,,,black_plus_sign,,,null,,,,,,,,,,,,,,,,,,,,
null,,learn_phase(without_color)2,498943,,,,,,,,black_plus_sign,,,null,object_01c.png,object_05b.png,,,,,,,,,,,,,,,,,,
null,,black_cross(without_color)2,499369,,,,,,,,blue,,,null,object_01c.png,object_05b.png,,,,,,,,,,,,,,,,,,
null,,rt_plussign_withcolor2,499871,,,,,,,,blue,,,null,object_01c.png,object_05b.png,,,,,,,,,,,,,,,,,,
713.3999999761581,,rt_thecrossant_black2,501449,,,,,,,,black_plus_sign,,,49,,,1,,,,,,,1,,,,,,,,,,
null,,color_black2,501552,,,,,,,,black_plus_sign,,,null,,,,,,,,,,,,,,,,,,,,
null,,learn_phase(without_color)2,505054,,,,,,,,black_plus_sign,,,null,object_01b.png,object_10c.png,,,,,,,,,,,,,,,,,,
null,,black_cross(without_color)2,506058,,,,,,,,blue,,,null,object_01b.png,object_10c.png,,,,,,,,,,,,,,,,,,
481.7999999523163,,rt_plussign_withcolor2,506559,,,,,,,,blue,,,49,object_01b.png,object_10c.png,,,,,,,,,,,,,,,,,,
null,,rt_thecrossant_black2,507560,,,,,,,,black_plus_sign,,,null,,,1,,,,,,,1,,,,,,,,,,
null,,color_black2,507662,,,,,,,,black_plus_sign,,,null,,,,,,,,,,,,,,,,,,,,
null,,learn_phase(without_color)2,511164,,,,,,,,black_plus_sign,,,null,object_02c.png,object_06b.png,,,,,,,,,,,,,,,,,,
null,,black_cross(without_color)2,511759,,,,,,,,green,,,null,object_02c.png,object_06b.png,,,,,,,,,,,,,,,,,,
null,,rt_plussign_withcolor2,512260,,,,,,,,green,,,null,object_02c.png,object_06b.png,,,,,,,,,,,,,,,,,,
1137.7999999523163,,rt_thecrossant_black2,513669,,,,,,,,black_plus_sign,,,50,,,1,,,,,,,1,,,,,,,,,,
null,,color_black2,513772,,,,,,,,black_plus_sign,,,null,,,,,,,,,,,,,,,,,,,,
null,,learn_phase(without_color)2,517275,,,,,,,,black_plus_sign,,,null,object_11b.png,object_04c.png,,,,,,,,,,,,,,,,,,
null,,black_cross(without_color)2,517940,,,,,,,,green,,,null,object_11b.png,object_04c.png,,,,,,,,,,,,,,,,,,
null,,rt_plussign_withcolor2,518442,,,,,,,,green,,,null,object_11b.png,object_04c.png,,,,,,,,,,,,,,,,,,
697.7000000476837,,rt_thecrossant_black2,519782,,,,,,,,black_plus_sign,,,50,,,1,,,,,,,1,,,,,,,,,,
null,,color_black2,519884,,,,,,,,black_plus_sign,,,null,,,,,,,,,,,,,,,,,,,,
null,,learn_phase(without_color)2,523387,,,,,,,,black_plus_sign,,,null,object_12c.png,object_13c.png,,,,,,,,,,,,,,,,,,
null,,black_cross(without_color)2,523929,,,,,,,,blue,,,null,object_12c.png,object_13c.png,,,,,,,,,,,,,,,,,,
417.8000000715256,,rt_plussign_withcolor2,524431,,,,,,,,blue,,,49,object_12c.png,object_13c.png,,,,,,,,,,,,,,,,,,
null,,rt_thecrossant_black2,525895,,,,,,,,black_plus_sign,,,null,,,1,,,,,,,1,,,,,,,,,,
null,,color_black2,525997,,,,,,,,black_plus_sign,,,null,,,,,,,,,,,,,,,,,,,,
null,,learn_phase(without_color)2,529500,,,,,,,,black_plus_sign,,,null,object_02b.png,object_13a.png,,,,,,,,,,,,,,,,,,
null,,black_cross(without_color)2,530365,,,,,,,,green,,,null,object_02b.png,object_13a.png,,,,,,,,,,,,,,,,,,
454,,rt_plussign_withcolor2,530866,,,,,,,,green,,,50,object_02b.png,object_13a.png,,,,,,,,,,,,,,,,,,
null,,rt_thecrossant_black2,532005,,,,,,,,black_plus_sign,,,null,,,1,,,,,,,1,,,,,,,,,,
null,,color_black2,532107,,,,,,,,black_plus_sign,,,null,,,,,,,,,,,,,,,,,,,,
null,,learn_phase(without_color)2,535610,,,,,,,,black_plus_sign,,,null,object_07a.png,object_07b.png,,,,,,,,,,,,,,,,,,
null,,black_cross(without_color)2,536223,,,,,,,,blue,,,null,object_07a.png,object_07b.png,,,,,,,,,,,,,,,,,,
486.39999997615814,,rt_plussign_withcolor2,536724,,,,,,,,blue,,,49,object_07a.png,object_07b.png,,,,,,,,,,,,,,,,,,
null,,rt_thecrossant_black2,538116,,,,,,,,black_plus_sign,,,null,,,1,,,,,,,1,,,,,,,,,,
null,,color_black2,538218,,,,,,,,black_plus_sign,,,null,,,,,,,,,,,,,,,,,,,,
null,,learn_phase(without_color)2,541722,,,,,,,,black_plus_sign,,,null,object_10a.png,object_10b.png,,,,,,,,,,,,,,,,,,
null,,black_cross(without_color)2,542614,,,,,,,,green,,,null,object_10a.png,object_10b.png,,,,,,,,,,,,,,,,,,
null,,rt_plussign_withcolor2,543116,,,,,,,,green,,,null,object_10a.png,object_10b.png,,,,,,,,,,,,,,,,,,
null,,rt_thecrossant_black2,544228,,,,,,,,black_plus_sign,,,null,,,,,,,,,,1,,,,,,,,,,
null,,color_black2,544331,,,,,,,,black_plus_sign,,,null,,,,,,,,,,,,,,,,,,,,
null,,learn_phase(without_color)2,547833,,,,,,,,black_plus_sign,,,null,object_04b.png,object_08b.png,,,,,,,,,,,,,,,,,,
null,,black_cross(without_color)2,548775,,,,,,,,blue,,,null,object_04b.png,object_08b.png,,,,,,,,,,,,,,,,,,
null,,rt_plussign_withcolor2,549277,,,,,,,,blue,,,null,object_04b.png,object_08b.png,,,,,,,,,,,,,,,,,,
1026.7999999523163,,rt_thecrossant_black2,550340,,,,,,,,black_plus_sign,,,49,,,1,,,,,,,1,,,,,,,,,,
null,,color_black2,550442,,,,,,,,black_plus_sign,,,null,,,,,,,,,,,,,,,,,,,,
null,,learn_phase(without_color)2,553944,,,,,,,,black_plus_sign,,,null,object_06a.png,object_04a.png,,,,,,,,,,,,,,,,,,
null,,black_cross(without_color)2,554977,,,,,,,,green,,,null,object_06a.png,object_04a.png,,,,,,,,,,,,,,,,,,
null,,rt_plussign_withcolor2,555479,,,,,,,,green,,,null,object_06a.png,object_04a.png,,,,,,,,,,,,,,,,,,
1262.1000000238419,,rt_thecrossant_black2,556451,,,,,,,,black_plus_sign,,,50,,,1,,,,,,,1,,,,,,,,,,
null,,color_black2,556568,,,,,,,,black_plus_sign,,,null,,,,,,,,,,,,,,,,,,,,
null,,learn_phase(without_color)2,560070,,,,,,,,black_plus_sign,,,null,object_12a.png,object_05a.png,,,,,,,,,,,,,,,,,,
null,,black_cross(without_color)2,560774,,,,,,,,green,,,null,object_12a.png,object_05a.png,,,,,,,,,,,,,,,,,,
null,,rt_plussign_withcolor2,561276,,,,,,,,green,,,null,object_12a.png,object_05a.png,,,,,,,,,,,,,,,,,,
1318.2999999523163,,rt_thecrossant_black2,562577,,,,,,,,black_plus_sign,,,50,,,1,,,,,,,1,,,,,,,,,,
null,,color_black2,562679,,,,,,,,black_plus_sign,,,null,,,,,,,,,,,,,,,,,,,,
null,,thebreak,562781,,,,,,,,<p></p>,,,null,,,,,,,,,,,,,,,,,,,,
1482.6000000238419,,intro_0,564264,,,,,,,,instruct,,,32,,,,,,,,,,,,,,,,,,,,
2606.600000023842,,directmemory_phase2,566872,,,,,,,,object_07b.png,,,50,,,1,,object_08a.png,object_07a.png,object_09b.png,object_07a.png,,0.6875,,1,,,,,,,,
2697.7999999523163,,directmemory_phase2,569572,,,,,,,,object_02a.png,,,50,,,1,,object_07a.png,object_15c.png,object_12a.png,object_15c.png,,0.7058823529411765,,1,,,,,,,,
3841,,directmemory_phase2,573414,,,,,,,,object_14b.png,,,50,,,0,,object_08a.png,object_12c.png,object_11b.png,object_08a.png,,0.6666666666666666,,0,,,,,,,,
2462.3000000715256,,directmemory_phase2,575878,,,,,,,,object_04c.png,,,51,,,1,,object_07a.png,object_15c.png,object_11b.png,object_11b.png,,0.6842105263157895,,1,,,,,,,,
3161.7000000476837,,directmemory_phase2,579041,,,,,,,,object_06b.png,,,51,,,1,,object_01a.png,object_10a.png,object_02c.png,object_02c.png,,0.7,,1,,,,,,,,
1567,,directmemory_phase2,580610,,,,,,,,object_04a.png,,,49,,,1,,object_06a.png,object_08a.png,object_01a.png,object_06a.png,,0.7142857142857143,,1,,,,,,,,
1149.0999999046326,,directmemory_phase2,581761,,,,,,,,object_03b.png,,,49,,,1,,object_09b.png,object_10a.png,object_01c.png,object_09b.png,,0.7272727272727273,,1,,,,,,,,
2995.2000000476837,,directmemory_phase2,584758,,,,,,,,object_13c.png,,,51,,,0,,object_12c.png,object_01b.png,object_06a.png,object_12c.png,,0.6956521739130435,,0,,,,,,,,
1856.1999999284744,,directmemory_phase2,586616,,,,,,,,object_10c.png,,,51,,,1,,object_09b.png,object_06a.png,object_01b.png,object_01b.png,,0.7083333333333334,,1,,,,,,,,
2300.100000023842,,directmemory_phase2,588918,,,,,,,,object_13a.png,,,50,,,1,,object_07a.png,object_02b.png,object_09b.png,object_02b.png,,0.72,,1,,,,,,,,
2220.5,,directmemory_phase2,591140,,,,,,,,object_08b.png,,,51,,,0,,object_04b.png,object_12a.png,object_10a.png,object_04b.png,,0.6923076923076923,,0,,,,,,,,
2797,,directmemory_phase2,593939,,,,,,,,object_05a.png,,,49,,,0,,object_02c.png,object_12a.png,object_12c.png,object_12a.png,,0.6666666666666666,,0,,,,,,,,
1586.8999999761581,,directmemory_phase2,595527,,,,,,,,object_05b.png,,,51,,,1,,object_08a.png,object_10a.png,object_01c.png,object_01c.png,,0.6785714285714286,,1,,,,,,,,
2315.8000000715256,,directmemory_phase2,597844,,,,,,,,object_14a.png,,,49,,,1,,object_01a.png,object_02b.png,object_08a.png,object_01a.png,,0.6896551724137931,,1,,,,,,,,
1758.1000000238419,,directmemory_phase2,599605,,,,,,,,object_10b.png,,,51,,,0,,object_10a.png,object_07a.png,object_15c.png,object_10a.png,,0.6666666666666666,,0,,,,,,,,
null,,thebreak,599708,,,,,,,,<p></p>,,,null,,,,,,,,,,,,,,,,,,,,
1640.6000000238419,,intro_0,601349,,,,,,,,instruct,,,32,,,,,,,,,,,,,,,,,,,,
null,,learn_phase(without_color)3,604852,,,,,,,,black_plus_sign,,,null,object_02c.png,object_06b.png,,,,,,,,,,,,,,,,,,
null,,black_cross(without_color)3,605582,,,,,,,,blue,,,null,object_02c.png,object_06b.png,,,,,,,,,,,,,,,,,,
null,,rt_plussign_withcolor3,606083,,,,,,,,blue,,,null,object_02c.png,object_06b.png,,,,,,,,,,,,,,,,,,
1078.3000000715256,,rt_thecrossant_black3,607358,,,,,,,,black_plus_sign,,,49,,,1,,,,,,,1,,,,,,,,,,
null,,color_black3,607461,,,,,,,,black_plus_sign,,,null,,,,,,,,,,,,,,,,,,,,
null,,learn_phase(without_color)3,610968,,,,,,,,black_plus_sign,,,null,object_01b.png,object_10c.png,,,,,,,,,,,,,,,,,,
null,,black_cross(without_color)3,611926,,,,,,,,blue,,,null,object_01b.png,object_10c.png,,,,,,,,,,,,,,,,,,
null,,rt_plussign_withcolor3,612427,,,,,,,,blue,,,null,object_01b.png,object_10c.png,,,,,,,,,,,,,,,,,,
860.2000000476837,,rt_thecrossant_black3,613474,,,,,,,,black_plus_sign,,,49,,,1,,,,,,,1,,,,,,,,,,
null,,color_black3,613577,,,,,,,,black_plus_sign,,,null,,,,,,,,,,,,,,,,,,,,
null,,learn_phase(without_color)3,617082,,,,,,,,black_plus_sign,,,null,object_09b.png,object_03b.png,,,,,,,,,,,,,,,,,,
null,,black_cross(without_color)3,618018,,,,,,,,blue,,,null,object_09b.png,object_03b.png,,,,,,,,,,,,,,,,,,
null,,rt_plussign_withcolor3,618524,,,,,,,,blue,,,null,object_09b.png,object_03b.png,,,,,,,,,,,,,,,,,,
1067,,rt_thecrossant_black3,619593,,,,,,,,black_plus_sign,,,49,,,1,,,,,,,1,,,,,,,,,,
null,,color_black3,619696,,,,,,,,black_plus_sign,,,null,,,,,,,,,,,,,,,,,,,,
null,,learn_phase(without_color)3,623198,,,,,,,,black_plus_sign,,,null,object_10a.png,object_10b.png,,,,,,,,,,,,,,,,,,
null,,black_cross(without_color)3,623968,,,,,,,,blue,,,null,object_10a.png,object_10b.png,,,,,,,,,,,,,,,,,,
null,,rt_plussign_withcolor3,624469,,,,,,,,blue,,,null,object_10a.png,object_10b.png,,,,,,,,,,,,,,,,,,
1063.8999999761581,,rt_thecrossant_black3,625703,,,,,,,,black_plus_sign,,,49,,,1,,,,,,,1,,,,,,,,,,
null,,color_black3,625806,,,,,,,,black_plus_sign,,,null,,,,,,,,,,,,,,,,,,,,
null,,learn_phase(without_color)3,629309,,,,,,,,black_plus_sign,,,null,object_12c.png,object_13c.png,,,,,,,,,,,,,,,,,,
null,,black_cross(without_color)3,629921,,,,,,,,green,,,null,object_12c.png,object_13c.png,,,,,,,,,,,,,,,,,,
null,,rt_plussign_withcolor3,630422,,,,,,,,green,,,null,object_12c.png,object_13c.png,,,,,,,,,,,,,,,,,,
1022.8999999761581,,rt_thecrossant_black3,631815,,,,,,,,black_plus_sign,,,50,,,1,,,,,,,1,,,,,,,,,,
null,,color_black3,631917,,,,,,,,black_plus_sign,,,null,,,,,,,,,,,,,,,,,,,,
null,,learn_phase(without_color)3,635420,,,,,,,,black_plus_sign,,,null,object_11b.png,object_04c.png,,,,,,,,,,,,,,,,,,
null,,black_cross(without_color)3,636354,,,,,,,,blue,,,null,object_11b.png,object_04c.png,,,,,,,,,,,,,,,,,,
358.7999999523163,,rt_plussign_withcolor3,636855,,,,,,,,blue,,,49,object_11b.png,object_04c.png,,,,,,,,,,,,,,,,,,
null,,rt_thecrossant_black3,637926,,,,,,,,black_plus_sign,,,null,,,1,,,,,,,1,,,,,,,,,,
null,,color_black3,638029,,,,,,,,black_plus_sign,,,null,,,,,,,,,,,,,,,,,,,,
null,,learn_phase(without_color)3,641531,,,,,,,,black_plus_sign,,,null,object_07a.png,object_07b.png,,,,,,,,,,,,,,,,,,
null,,black_cross(without_color)3,642259,,,,,,,,green,,,null,object_07a.png,object_07b.png,,,,,,,,,,,,,,,,,,
null,,rt_plussign_withcolor3,642761,,,,,,,,green,,,null,object_07a.png,object_07b.png,,,,,,,,,,,,,,,,,,
1088.1000000238419,,rt_thecrossant_black3,644037,,,,,,,,black_plus_sign,,,50,,,1,,,,,,,1,,,,,,,,,,
null,,color_black3,644139,,,,,,,,black_plus_sign,,,null,,,,,,,,,,,,,,,,,,,,
null,,learn_phase(without_color)3,647642,,,,,,,,black_plus_sign,,,null,object_06a.png,object_04a.png,,,,,,,,,,,,,,,,,,
null,,black_cross(without_color)3,648460,,,,,,,,green,,,null,object_06a.png,object_04a.png,,,,,,,,,,,,,,,,,,
null,,rt_plussign_withcolor3,648961,,,,,,,,green,,,null,object_06a.png,object_04a.png,,,,,,,,,,,,,,,,,,
921.1000000238419,,rt_thecrossant_black3,650148,,,,,,,,black_plus_sign,,,50,,,1,,,,,,,1,,,,,,,,,,
null,,color_black3,650251,,,,,,,,black_plus_sign,,,null,,,,,,,,,,,,,,,,,,,,
null,,learn_phase(without_color)3,653754,,,,,,,,black_plus_sign,,,null,object_01a.png,object_14a.png,,,,,,,,,,,,,,,,,,
null,,black_cross(without_color)3,654225,,,,,,,,green,,,null,object_01a.png,object_14a.png,,,,,,,,,,,,,,,,,,
null,,rt_plussign_withcolor3,654727,,,,,,,,green,,,null,object_01a.png,object_14a.png,,,,,,,,,,,,,,,,,,
1138.8999999761581,,rt_thecrossant_black3,656260,,,,,,,,black_plus_sign,,,50,,,1,,,,,,,1,,,,,,,,,,
null,,color_black3,656362,,,,,,,,black_plus_sign,,,null,,,,,,,,,,,,,,,,,,,,
null,,learn_phase(without_color)3,659866,,,,,,,,black_plus_sign,,,null,object_02b.png,object_13a.png,,,,,,,,,,,,,,,,,,
null,,black_cross(without_color)3,660447,,,,,,,,green,,,null,object_02b.png,object_13a.png,,,,,,,,,,,,,,,,,,
null,,rt_plussign_withcolor3,660950,,,,,,,,green,,,null,object_02b.png,object_13a.png,,,,,,,,,,,,,,,,,,
585.5,,rt_thecrossant_black3,662373,,,,,,,,black_plus_sign,,,50,,,1,,,,,,,1,,,,,,,,,,
null,,color_black3,662475,,,,,,,,black_plus_sign,,,null,,,,,,,,,,,,,,,,,,,,
null,,learn_phase(without_color)3,665979,,,,,,,,black_plus_sign,,,null,object_01c.png,object_05b.png,,,,,,,,,,,,,,,,,,
null,,black_cross(without_color)3,667009,,,,,,,,blue,,,null,object_01c.png,object_05b.png,,,,,,,,,,,,,,,,,,
null,,rt_plussign_withcolor3,667511,,,,,,,,blue,,,null,object_01c.png,object_05b.png,,,,,,,,,,,,,,,,,,
680.8999999761581,,rt_thecrossant_black3,668485,,,,,,,,black_plus_sign,,,49,,,1,,,,,,,1,,,,,,,,,,
null,,color_black3,668588,,,,,,,,black_plus_sign,,,null,,,,,,,,,,,,,,,,,,,,
null,,learn_phase(without_color)3,672090,,,,,,,,black_plus_sign,,,null,object_04b.png,object_08b.png,,,,,,,,,,,,,,,,,,
null,,black_cross(without_color)3,672509,,,,,,,,blue,,,null,object_04b.png,object_08b.png,,,,,,,,,,,,,,,,,,
null,,rt_plussign_withcolor3,673011,,,,,,,,blue,,,null,object_04b.png,object_08b.png,,,,,,,,,,,,,,,,,,
1202.7999999523163,,rt_thecrossant_black3,674597,,,,,,,,black_plus_sign,,,49,,,1,,,,,,,1,,,,,,,,,,
null,,color_black3,674707,,,,,,,,black_plus_sign,,,null,,,,,,,,,,,,,,,,,,,,
null,,learn_phase(without_color)3,678209,,,,,,,,black_plus_sign,,,null,object_08a.png,object_14b.png,,,,,,,,,,,,,,,,,,
null,,black_cross(without_color)3,679068,,,,,,,,blue,,,null,object_08a.png,object_14b.png,,,,,,,,,,,,,,,,,,
null,,rt_plussign_withcolor3,679570,,,,,,,,blue,,,null,object_08a.png,object_14b.png,,,,,,,,,,,,,,,,,,
541,,rt_thecrossant_black3,680716,,,,,,,,black_plus_sign,,,49,,,1,,,,,,,1,,,,,,,,,,
null,,color_black3,680818,,,,,,,,black_plus_sign,,,null,,,,,,,,,,,,,,,,,,,,
null,,learn_phase(without_color)3,684321,,,,,,,,black_plus_sign,,,null,object_12a.png,object_05a.png,,,,,,,,,,,,,,,,,,
null,,black_cross(without_color)3,685151,,,,,,,,blue,,,null,object_12a.png,object_05a.png,,,,,,,,,,,,,,,,,,
null,,rt_plussign_withcolor3,685653,,,,,,,,blue,,,null,object_12a.png,object_05a.png,,,,,,,,,,,,,,,,,,
972.1999999284744,,rt_thecrossant_black3,686828,,,,,,,,black_plus_sign,,,49,,,1,,,,,,,1,,,,,,,,,,
null,,color_black3,686930,,,,,,,,black_plus_sign,,,null,,,,,,,,,,,,,,,,,,,,
null,,learn_phase(without_color)3,690432,,,,,,,,black_plus_sign,,,null,object_15c.png,object_02a.png,,,,,,,,,,,,,,,,,,
null,,black_cross(without_color)3,691020,,,,,,,,green,,,null,object_15c.png,object_02a.png,,,,,,,,,,,,,,,,,,
null,,rt_plussign_withcolor3,691522,,,,,,,,green,,,null,object_15c.png,object_02a.png,,,,,,,,,,,,,,,,,,
1042.6000000238419,,rt_thecrossant_black3,692939,,,,,,,,black_plus_sign,,,50,,,1,,,,,,,1,,,,,,,,,,
null,,color_black3,693042,,,,,,,,black_plus_sign,,,null,,,,,,,,,,,,,,,,,,,,
null,,thebreak,693144,,,,,,,,<p></p>,,,null,,,,,,,,,,,,,,,,,,,,
1336.6000000238419,,intro_0,694483,,,,,,,,instruct,,,32,,,,,,,,,,,,,,,,,,,,
2657.2000000476837,,directmemory_phase3,697141,,,,,,,,object_10c.png,,,49,,,1,,object_01b.png,object_12c.png,object_12a.png,object_01b.png,,0.6774193548387096,,1,,,,,,,,
3044.8000000715256,,directmemory_phase3,700187,,,,,,,,object_14b.png,,,51,,,0,,object_10a.png,object_08a.png,object_06a.png,object_08a.png,,0.65625,,0,,,,,,,,
2832.899999976158,,directmemory_phase3,703022,,,,,,,,object_05a.png,,,49,,,1,,object_12a.png,object_06a.png,object_01c.png,object_12a.png,,0.6666666666666666,,1,,,,,,,,
1836.7999999523163,,directmemory_phase3,704861,,,,,,,,object_08b.png,,,51,,,0,,object_10a.png,object_04b.png,object_01c.png,object_04b.png,,0.6470588235294118,,0,,,,,,,,
2535.8000000715256,,directmemory_phase3,707398,,,,,,,,object_04c.png,,,49,,,1,,object_11b.png,object_07a.png,object_15c.png,object_11b.png,,0.6571428571428571,,1,,,,,,,,
3396.5,,directmemory_phase3,710796,,,,,,,,object_04a.png,,,51,,,1,,object_02c.png,object_12a.png,object_06a.png,object_06a.png,,0.6666666666666666,,1,,,,,,,,
2123.2999999523163,,directmemory_phase3,712921,,,,,,,,object_13c.png,,,49,,,1,,object_12c.png,object_01c.png,object_07a.png,object_12c.png,,0.6756756756756757,,1,,,,,,,,
2512.5,,directmemory_phase3,715435,,,,,,,,object_06b.png,,,49,,,1,,object_02c.png,object_07a.png,object_11b.png,object_02c.png,,0.6842105263157895,,1,,,,,,,,
3853.899999976158,,directmemory_phase3,719290,,,,,,,,object_14a.png,,,51,,,1,,object_07a.png,object_12c.png,object_01a.png,object_01a.png,,0.6923076923076923,,1,,,,,,,,
3957.7999999523163,,directmemory_phase3,723250,,,,,,,,object_10b.png,,,49,,,1,,object_10a.png,object_09b.png,object_01b.png,object_10a.png,,0.7,,1,,,,,,,,
4154.599999904633,,directmemory_phase3,727406,,,,,,,,object_13a.png,,,49,,,1,,object_02b.png,object_15c.png,object_10a.png,object_02b.png,,0.7073170731707317,,1,,,,,,,,
4130.600000023842,,directmemory_phase3,731538,,,,,,,,object_02a.png,,,50,,,1,,object_09b.png,object_15c.png,object_01c.png,object_15c.png,,0.7142857142857143,,1,,,,,,,,
2819.5,,directmemory_phase3,734360,,,,,,,,object_07b.png,,,49,,,1,,object_07a.png,object_12a.png,object_08a.png,object_07a.png,,0.7209302325581395,,1,,,,,,,,
3273.2000000476837,,directmemory_phase3,737634,,,,,,,,object_05b.png,,,49,,,0,,object_08a.png,object_09b.png,object_01c.png,object_01c.png,,0.7045454545454546,,0,,,,,,,,
2159.5,,directmemory_phase3,739795,,,,,,,,object_03b.png,,,50,,,1,,object_11b.png,object_09b.png,object_01a.png,object_09b.png,,0.7111111111111111,,1,,,,,,,,
null,,thebreak,739897,,,,,,,,<p></p>,,,null,,,,,,,,,,,,,,,,,,,,
4572.399999976158,,intro_0,744471,,,,,,,,instruct,,,32,,,,,,,,,,,,,,,,,,,,
null,,learn_phase(without_color)4,747973,,,,,,,,black_plus_sign,,,null,object_01a.png,object_14a.png,,,,,,,,,,,,,,,,,,
null,,black_cross(without_color)4,749044,,,,,,,,blue,,,null,object_01a.png,object_14a.png,,,,,,,,,,,,,,,,,,
null,,rt_plussign_withcolor4,749546,,,,,,,,blue,,,null,object_01a.png,object_14a.png,,,,,,,,,,,,,,,,,,
1175.1000000238419,,rt_thecrossant_black4,750478,,,,,,,,black_plus_sign,,,49,,,1,,,,,,,1,,,,,,,,,,
null,,color_black4,750581,,,,,,,,black_plus_sign,,,null,,,,,,,,,,,,,,,,,,,,
null,,learn_phase(without_color)4,754084,,,,,,,,black_plus_sign,,,null,object_09b.png,object_03b.png,,,,,,,,,,,,,,,,,,
null,,black_cross(without_color)4,754576,,,,,,,,blue,,,null,object_09b.png,object_03b.png,,,,,,,,,,,,,,,,,,
null,,rt_plussign_withcolor4,755093,,,,,,,,blue,,,null,object_09b.png,object_03b.png,,,,,,,,,,,,,,,,,,
1372.5,,rt_thecrossant_black4,756607,,,,,,,,black_plus_sign,,,49,,,1,,,,,,,1,,,,,,,,,,
null,,color_black4,756710,,,,,,,,black_plus_sign,,,null,,,,,,,,,,,,,,,,,,,,
null,,learn_phase(without_color)4,760213,,,,,,,,black_plus_sign,,,null,object_15c.png,object_02a.png,,,,,,,,,,,,,,,,,,
null,,black_cross(without_color)4,761275,,,,,,,,green,,,null,object_15c.png,object_02a.png,,,,,,,,,,,,,,,,,,
343.7999999523163,,rt_plussign_withcolor4,761777,,,,,,,,green,,,50,object_15c.png,object_02a.png,,,,,,,,,,,,,,,,,,
null,,rt_thecrossant_black4,762719,,,,,,,,black_plus_sign,,,null,,,1,,,,,,,1,,,,,,,,,,
null,,color_black4,762822,,,,,,,,black_plus_sign,,,null,,,,,,,,,,,,,,,,,,,,
null,,learn_phase(without_color)4,766325,,,,,,,,black_plus_sign,,,null,object_11b.png,object_04c.png,,,,,,,,,,,,,,,,,,
null,,black_cross(without_color)4,767397,,,,,,,,blue,,,null,object_11b.png,object_04c.png,,,,,,,,,,,,,,,,,,
null,,rt_plussign_withcolor4,767898,,,,,,,,blue,,,null,object_11b.png,object_04c.png,,,,,,,,,,,,,,,,,,
1224.1000000238419,,rt_thecrossant_black4,768832,,,,,,,,black_plus_sign,,,50,,,0,,,,,,,0.75,,,,,,,,,,
null,,color_black4,768935,,,,,,,,black_plus_sign,,,null,,,,,,,,,,,,,,,,,,,,
null,,learn_phase(without_color)4,772437,,,,,,,,black_plus_sign,,,null,object_10a.png,object_10b.png,,,,,,,,,,,,,,,,,,
null,,black_cross(without_color)4,773469,,,,,,,,blue,,,null,object_10a.png,object_10b.png,,,,,,,,,,,,,,,,,,
null,,rt_plussign_withcolor4,773971,,,,,,,,blue,,,null,object_10a.png,object_10b.png,,,,,,,,,,,,,,,,,,
1224.8999999761581,,rt_thecrossant_black4,774943,,,,,,,,black_plus_sign,,,49,,,1,,,,,,,0.8,,,,,,,,,,
null,,color_black4,775045,,,,,,,,black_plus_sign,,,null,,,,,,,,,,,,,,,,,,,,
null,,learn_phase(without_color)4,778547,,,,,,,,black_plus_sign,,,null,object_06a.png,object_04a.png,,,,,,,,,,,,,,,,,,
null,,black_cross(without_color)4,779533,,,,,,,,blue,,,null,object_06a.png,object_04a.png,,,,,,,,,,,,,,,,,,
null,,rt_plussign_withcolor4,780035,,,,,,,,blue,,,null,object_06a.png,object_04a.png,,,,,,,,,,,,,,,,,,
1279.8999999761581,,rt_thecrossant_black4,781053,,,,,,,,black_plus_sign,,,49,,,1,,,,,,,0.8333333333333334,,,,,,,,,,
null,,color_black4,781155,,,,,,,,black_plus_sign,,,null,,,,,,,,,,,,,,,,,,,,
null,,learn_phase(without_color)4,784658,,,,,,,,black_plus_sign,,,null,object_01c.png,object_05b.png,,,,,,,,,,,,,,,,,,
null,,black_cross(without_color)4,785289,,,,,,,,blue,,,null,object_01c.png,object_05b.png,,,,,,,,,,,,,,,,,,
null,,rt_plussign_withcolor4,785791,,,,,,,,blue,,,null,object_01c.png,object_05b.png,,,,,,,,,,,,,,,,,,
1143.2000000476837,,rt_thecrossant_black4,787166,,,,,,,,black_plus_sign,,,49,,,1,,,,,,,0.8571428571428571,,,,,,,,,,
null,,color_black4,787268,,,,,,,,black_plus_sign,,,null,,,,,,,,,,,,,,,,,,,,
null,,learn_phase(without_color)4,790770,,,,,,,,black_plus_sign,,,null,object_07a.png,object_07b.png,,,,,,,,,,,,,,,,,,
null,,black_cross(without_color)4,791788,,,,,,,,blue,,,null,object_07a.png,object_07b.png,,,,,,,,,,,,,,,,,,
null,,rt_plussign_withcolor4,792290,,,,,,,,blue,,,null,object_07a.png,object_07b.png,,,,,,,,,,,,,,,,,,
785.8999999761581,,rt_thecrossant_black4,793276,,,,,,,,black_plus_sign,,,49,,,1,,,,,,,0.875,,,,,,,,,,
null,,color_black4,793379,,,,,,,,black_plus_sign,,,null,,,,,,,,,,,,,,,,,,,,
null,,learn_phase(without_color)4,796882,,,,,,,,black_plus_sign,,,null,object_02c.png,object_06b.png,,,,,,,,,,,,,,,,,,
null,,black_cross(without_color)4,797949,,,,,,,,blue,,,null,object_02c.png,object_06b.png,,,,,,,,,,,,,,,,,,
null,,rt_plussign_withcolor4,798452,,,,,,,,blue,,,null,object_02c.png,object_06b.png,,,,,,,,,,,,,,,,,,
1185,,rt_thecrossant_black4,799391,,,,,,,,black_plus_sign,,,49,,,1,,,,,,,0.8888888888888888,,,,,,,,,,
null,,color_black4,799494,,,,,,,,black_plus_sign,,,null,,,,,,,,,,,,,,,,,,,,
null,,learn_phase(without_color)4,802996,,,,,,,,black_plus_sign,,,null,object_12a.png,object_05a.png,,,,,,,,,,,,,,,,,,
null,,black_cross(without_color)4,803453,,,,,,,,green,,,null,object_12a.png,object_05a.png,,,,,,,,,,,,,,,,,,
null,,rt_plussign_withcolor4,803955,,,,,,,,green,,,null,object_12a.png,object_05a.png,,,,,,,,,,,,,,,,,,
1409.5,,rt_thecrossant_black4,805503,,,,,,,,black_plus_sign,,,50,,,1,,,,,,,0.9,,,,,,,,,,
null,,color_black4,805607,,,,,,,,black_plus_sign,,,null,,,,,,,,,,,,,,,,,,,,
null,,learn_phase(without_color)4,809110,,,,,,,,black_plus_sign,,,null,object_12c.png,object_13c.png,,,,,,,,,,,,,,,,,,
null,,black_cross(without_color)4,809877,,,,,,,,blue,,,null,object_12c.png,object_13c.png,,,,,,,,,,,,,,,,,,
null,,rt_plussign_withcolor4,810379,,,,,,,,blue,,,null,object_12c.png,object_13c.png,,,,,,,,,,,,,,,,,,
697.2000000476837,,rt_thecrossant_black4,811618,,,,,,,,black_plus_sign,,,49,,,1,,,,,,,0.9090909090909091,,,,,,,,,,
null,,color_black4,811721,,,,,,,,black_plus_sign,,,null,,,,,,,,,,,,,,,,,,,,
null,,learn_phase(without_color)4,815223,,,,,,,,black_plus_sign,,,null,object_02b.png,object_13a.png,,,,,,,,,,,,,,,,,,
null,,black_cross(without_color)4,816295,,,,,,,,green,,,null,object_02b.png,object_13a.png,,,,,,,,,,,,,,,,,,
null,,rt_plussign_withcolor4,816800,,,,,,,,green,,,null,object_02b.png,object_13a.png,,,,,,,,,,,,,,,,,,
960.6000000238419,,rt_thecrossant_black4,817735,,,,,,,,black_plus_sign,,,50,,,1,,,,,,,0.9166666666666666,,,,,,,,,,
null,,color_black4,817838,,,,,,,,black_plus_sign,,,null,,,,,,,,,,,,,,,,,,,,
null,,learn_phase(without_color)4,821341,,,,,,,,black_plus_sign,,,null,object_08a.png,object_14b.png,,,,,,,,,,,,,,,,,,
null,,black_cross(without_color)4,822401,,,,,,,,blue,,,null,object_08a.png,object_14b.png,,,,,,,,,,,,,,,,,,
null,,rt_plussign_withcolor4,822911,,,,,,,,blue,,,null,object_08a.png,object_14b.png,,,,,,,,,,,,,,,,,,
1345.7000000476837,,rt_thecrossant_black4,823857,,,,,,,,black_plus_sign,,,49,,,1,,,,,,,0.9230769230769231,,,,,,,,,,
null,,color_black4,823961,,,,,,,,black_plus_sign,,,null,,,,,,,,,,,,,,,,,,,,
null,,learn_phase(without_color)4,827464,,,,,,,,black_plus_sign,,,null,object_04b.png,object_08b.png,,,,,,,,,,,,,,,,,,
null,,black_cross(without_color)4,828441,,,,,,,,blue,,,null,object_04b.png,object_08b.png,,,,,,,,,,,,,,,,,,
null,,rt_plussign_withcolor4,828942,,,,,,,,blue,,,null,object_04b.png,object_08b.png,,,,,,,,,,,,,,,,,,
1181.5999999046326,,rt_thecrossant_black4,829971,,,,,,,,black_plus_sign,,,49,,,1,,,,,,,0.9285714285714286,,,,,,,,,,
null,,color_black4,830072,,,,,,,,black_plus_sign,,,null,,,,,,,,,,,,,,,,,,,,
null,,learn_phase(without_color)4,833575,,,,,,,,black_plus_sign,,,null,object_01b.png,object_10c.png,,,,,,,,,,,,,,,,,,
null,,black_cross(without_color)4,834358,,,,,,,,blue,,,null,object_01b.png,object_10c.png,,,,,,,,,,,,,,,,,,
449.89999997615814,,rt_plussign_withcolor4,834860,,,,,,,,blue,,,49,object_01b.png,object_10c.png,,,,,,,,,,,,,,,,,,
null,,rt_thecrossant_black4,836082,,,,,,,,black_plus_sign,,,null,,,1,,,,,,,0.9333333333333333,,,,,,,,,,
null,,color_black4,836184,,,,,,,,black_plus_sign,,,null,,,,,,,,,,,,,,,,,,,,
null,,thebreak,836286,,,,,,,,<p></p>,,,null,,,,,,,,,,,,,,,,,,,,
2031.2000000476837,,intro_0,838319,,,,,,,,instruct,,,32,,,,,,,,,,,,,,,,,,,,
2112.6999999284744,,directmemory_phase4,840433,,,,,,,,object_06b.png,,,51,,,1,,object_12a.png,object_01c.png,object_02c.png,object_02c.png,,0.717391304347826,,1,,,,,,,,
2314.100000023842,,directmemory_phase4,842748,,,,,,,,object_13c.png,,,50,,,1,,object_01c.png,object_12c.png,object_12a.png,object_12c.png,,0.723404255319149,,1,,,,,,,,
1817,,directmemory_phase4,844567,,,,,,,,object_13a.png,,,50,,,1,,object_12a.png,object_02b.png,object_12c.png,object_02b.png,,0.7291666666666666,,1,,,,,,,,
3147.399999976158,,directmemory_phase4,847716,,,,,,,,object_14a.png,,,49,,,1,,object_01a.png,object_11b.png,object_15c.png,object_01a.png,,0.7346938775510204,,1,,,,,,,,
2131.6999999284744,,directmemory_phase4,849850,,,,,,,,object_02a.png,,,50,,,1,,object_01a.png,object_15c.png,object_06a.png,object_15c.png,,0.74,,1,,,,,,,,
1671.8999999761581,,directmemory_phase4,851524,,,,,,,,object_03b.png,,,51,,,1,,object_02b.png,object_08a.png,object_09b.png,object_09b.png,,0.7450980392156863,,1,,,,,,,,
4691.299999952316,,directmemory_phase4,856217,,,,,,,,object_05a.png,,,50,,,0,,object_12a.png,object_07a.png,object_02c.png,object_12a.png,,0.7307692307692307,,0,,,,,,,,
2919.1999999284744,,directmemory_phase4,859138,,,,,,,,object_10b.png,,,51,,,0,,object_02c.png,object_10a.png,object_01a.png,object_10a.png,,0.7169811320754716,,0,,,,,,,,
2743.2000000476837,,directmemory_phase4,861883,,,,,,,,object_14b.png,,,51,,,1,,object_01c.png,object_07a.png,object_08a.png,object_08a.png,,0.7222222222222222,,1,,,,,,,,
1380.1000000238419,,directmemory_phase4,863265,,,,,,,,object_10c.png,,,51,,,1,,object_07a.png,object_15c.png,object_01b.png,object_01b.png,,0.7272727272727273,,1,,,,,,,,
2237.7999999523163,,directmemory_phase4,865504,,,,,,,,object_08b.png,,,50,,,1,,object_12a.png,object_04b.png,object_02c.png,object_04b.png,,0.7321428571428571,,1,,,,,,,,
1778.5,,directmemory_phase4,867284,,,,,,,,object_05b.png,,,50,,,1,,object_02c.png,object_01c.png,object_08a.png,object_01c.png,,0.7368421052631579,,1,,,,,,,,
1916.3000000715256,,directmemory_phase4,869202,,,,,,,,object_07b.png,,,50,,,1,,object_12a.png,object_07a.png,object_12c.png,object_07a.png,,0.7413793103448276,,1,,,,,,,,
null,,directmemory_phase4,884205,,,,,,,,object_04a.png,,,null,,,0,,object_09b.png,object_12a.png,object_06a.png,object_06a.png,,0.7288135593220338,,0,,,,,,,,
null,,warning_page,889213,,,,,,,,warning,,,null,,,,,,,,,,,,,,,,,,,,
2038,,directmemory_phase4,891252,,,,,,,,object_04c.png,,,50,,,0,,object_11b.png,object_02b.png,object_08a.png,object_11b.png,,0.7166666666666667,,0,,,,,,,,
null,,thebreak,891356,,,,,,,,<p></p>,,,null,,,,,,,,,,,,,,,,,,,,
2352.899999976158,,intro_0,893711,,,,,,,,instruct,,,32,,,,,,,,,,,,,,,,,,,,
null,,learn_phase(without_color)5,897212,,,,,,,,black_plus_sign,,,null,object_05b.png,object_11a.png,,,,,,,,,,,,,,,,,,
null,,black_cross(without_color)5,898169,,,,,,,,green,,,null,object_05b.png,object_11a.png,,,,,,,,,,,,,,,,,,
495.60000002384186,,rt_plussign_withcolor5,898670,,,,,,,,green,,,50,object_05b.png,object_11a.png,,,,,,,,,,,,,,,,,,
null,,rt_thecrossant_black5,899719,,,,,,,,black_plus_sign,,,null,,,1,,,,,,,1,,,,,,,,,,
null,,color_black5,899821,,,,,,,,black_plus_sign,,,null,,,,,,,,,,,,,,,,,,,,
null,,learn_phase(without_color)5,903323,,,,,,,,black_plus_sign,,,null,object_10b.png,object_07c.png,,,,,,,,,,,,,,,,,,
null,,black_cross(without_color)5,904022,,,,,,,,blue,,,null,object_10b.png,object_07c.png,,,,,,,,,,,,,,,,,,
426.7000000476837,,rt_plussign_withcolor5,904524,,,,,,,,blue,,,49,object_10b.png,object_07c.png,,,,,,,,,,,,,,,,,,
null,,rt_thecrossant_black5,905830,,,,,,,,black_plus_sign,,,null,,,1,,,,,,,1,,,,,,,,,,
null,,color_black5,905933,,,,,,,,black_plus_sign,,,null,,,,,,,,,,,,,,,,,,,,
null,,learn_phase(without_color)5,909436,,,,,,,,black_plus_sign,,,null,object_14b.png,object_09c.png,,,,,,,,,,,,,,,,,,
null,,black_cross(without_color)5,909850,,,,,,,,green,,,null,object_14b.png,object_09c.png,,,,,,,,,,,,,,,,,,
null,,rt_plussign_withcolor5,910353,,,,,,,,green,,,null,object_14b.png,object_09c.png,,,,,,,,,,,,,,,,,,
816.1999999284744,,rt_thecrossant_black5,911944,,,,,,,,black_plus_sign,,,50,,,1,,,,,,,1,,,,,,,,,,
null,,color_black5,912047,,,,,,,,black_plus_sign,,,null,,,,,,,,,,,,,,,,,,,,
null,,learn_phase(without_color)5,915554,,,,,,,,black_plus_sign,,,null,object_08b.png,object_14c.png,,,,,,,,,,,,,,,,,,
null,,black_cross(without_color)5,916283,,,,,,,,blue,,,null,object_08b.png,object_14c.png,,,,,,,,,,,,,,,,,,
null,,rt_plussign_withcolor5,916789,,,,,,,,blue,,,null,object_08b.png,object_14c.png,,,,,,,,,,,,,,,,,,
535.7000000476837,,rt_thecrossant_black5,918063,,,,,,,,black_plus_sign,,,49,,,1,,,,,,,1,,,,,,,,,,
null,,color_black5,918165,,,,,,,,black_plus_sign,,,null,,,,,,,,,,,,,,,,,,,,
null,,learn_phase(without_color)5,921668,,,,,,,,black_plus_sign,,,null,object_05a.png,object_15a.png,,,,,,,,,,,,,,,,,,
null,,black_cross(without_color)5,922374,,,,,,,,green,,,null,object_05a.png,object_15a.png,,,,,,,,,,,,,,,,,,
null,,rt_plussign_withcolor5,922876,,,,,,,,green,,,null,object_05a.png,object_15a.png,,,,,,,,,,,,,,,,,,
1022.6000000238419,,rt_thecrossant_black5,924175,,,,,,,,black_plus_sign,,,50,,,1,,,,,,,1,,,,,,,,,,
null,,color_black5,924278,,,,,,,,black_plus_sign,,,null,,,,,,,,,,,,,,,,,,,,
null,,learn_phase(without_color)5,927787,,,,,,,,black_plus_sign,,,null,object_13a.png,object_08c.png,,,,,,,,,,,,,,,,,,
null,,black_cross(without_color)5,928293,,,,,,,,blue,,,null,object_13a.png,object_08c.png,,,,,,,,,,,,,,,,,,
null,,rt_plussign_withcolor5,928794,,,,,,,,blue,,,null,object_13a.png,object_08c.png,,,,,,,,,,,,,,,,,,
null,,rt_thecrossant_black5,930292,,,,,,,,black_plus_sign,,,null,,,,,,,,,,1,,,,,,,,,,
null,,color_black5,930395,,,,,,,,black_plus_sign,,,null,,,,,,,,,,,,,,,,,,,,
null,,learn_phase(without_color)5,933898,,,,,,,,black_plus_sign,,,null,object_06b.png,object_12b.png,,,,,,,,,,,,,,,,,,
null,,black_cross(without_color)5,934957,,,,,,,,blue,,,null,object_06b.png,object_12b.png,,,,,,,,,,,,,,,,,,
null,,rt_plussign_withcolor5,935458,,,,,,,,blue,,,null,object_06b.png,object_12b.png,,,,,,,,,,,,,,,,,,
985.8999999761581,,rt_thecrossant_black5,936404,,,,,,,,black_plus_sign,,,49,,,1,,,,,,,1,,,,,,,,,,
null,,color_black5,936507,,,,,,,,black_plus_sign,,,null,,,,,,,,,,,,,,,,,,,,
null,,learn_phase(without_color)5,940010,,,,,,,,black_plus_sign,,,null,object_07b.png,object_05c.png,,,,,,,,,,,,,,,,,,
null,,black_cross(without_color)5,940528,,,,,,,,blue,,,null,object_07b.png,object_05c.png,,,,,,,,,,,,,,,,,,
null,,rt_plussign_withcolor5,941030,,,,,,,,blue,,,null,object_07b.png,object_05c.png,,,,,,,,,,,,,,,,,,
1179.5,,rt_thecrossant_black5,942517,,,,,,,,black_plus_sign,,,49,,,1,,,,,,,1,,,,,,,,,,
null,,color_black5,942619,,,,,,,,black_plus_sign,,,null,,,,,,,,,,,,,,,,,,,,
null,,learn_phase(without_color)5,946121,,,,,,,,black_plus_sign,,,null,object_10c.png,object_15b.png,,,,,,,,,,,,,,,,,,
null,,black_cross(without_color)5,947166,,,,,,,,blue,,,null,object_10c.png,object_15b.png,,,,,,,,,,,,,,,,,,
449.7000000476837,,rt_plussign_withcolor5,947668,,,,,,,,blue,,,49,object_10c.png,object_15b.png,,,,,,,,,,,,,,,,,,
null,,rt_thecrossant_black5,948626,,,,,,,,black_plus_sign,,,null,,,1,,,,,,,1,,,,,,,,,,
null,,color_black5,948728,,,,,,,,black_plus_sign,,,null,,,,,,,,,,,,,,,,,,,,
null,,learn_phase(without_color)5,952231,,,,,,,,black_plus_sign,,,null,object_04a.png,object_11c.png,,,,,,,,,,,,,,,,,,
null,,black_cross(without_color)5,952739,,,,,,,,green,,,null,object_04a.png,object_11c.png,,,,,,,,,,,,,,,,,,
364.89999997615814,,rt_plussign_withcolor5,953241,,,,,,,,green,,,50,object_04a.png,object_11c.png,,,,,,,,,,,,,,,,,,
null,,rt_thecrossant_black5,954737,,,,,,,,black_plus_sign,,,null,,,1,,,,,,,1,,,,,,,,,,
null,,color_black5,954840,,,,,,,,black_plus_sign,,,null,,,,,,,,,,,,,,,,,,,,
null,,learn_phase(without_color)5,958342,,,,,,,,black_plus_sign,,,null,object_02a.png,object_03c.png,,,,,,,,,,,,,,,,,,
null,,black_cross(without_color)5,958827,,,,,,,,blue,,,null,object_02a.png,object_03c.png,,,,,,,,,,,,,,,,,,
null,,rt_plussign_withcolor5,959343,,,,,,,,blue,,,null,object_02a.png,object_03c.png,,,,,,,,,,,,,,,,,,
608.7000000476837,,rt_thecrossant_black5,960862,,,,,,,,black_plus_sign,,,49,,,1,,,,,,,1,,,,,,,,,,
null,,color_black5,960964,,,,,,,,black_plus_sign,,,null,,,,,,,,,,,,,,,,,,,,
null,,learn_phase(without_color)5,964467,,,,,,,,black_plus_sign,,,null,object_14a.png,object_03a.png,,,,,,,,,,,,,,,,,,
null,,black_cross(without_color)5,965338,,,,,,,,blue,,,null,object_14a.png,object_03a.png,,,,,,,,,,,,,,,,,,
null,,rt_plussign_withcolor5,965839,,,,,,,,blue,,,null,object_14a.png,object_03a.png,,,,,,,,,,,,,,,,,,
883.2000000476837,,rt_thecrossant_black5,966974,,,,,,,,black_plus_sign,,,49,,,1,,,,,,,1,,,,,,,,,,
null,,color_black5,967076,,,,,,,,black_plus_sign,,,null,,,,,,,,,,,,,,,,,,,,
null,,learn_phase(without_color)5,970579,,,,,,,,black_plus_sign,,,null,object_03b.png,object_06c.png,,,,,,,,,,,,,,,,,,
null,,black_cross(without_color)5,971223,,,,,,,,green,,,null,object_03b.png,object_06c.png,,,,,,,,,,,,,,,,,,
null,,rt_plussign_withcolor5,971724,,,,,,,,green,,,null,object_03b.png,object_06c.png,,,,,,,,,,,,,,,,,,
1062.3000000715256,,rt_thecrossant_black5,973087,,,,,,,,black_plus_sign,,,50,,,1,,,,,,,1,,,,,,,,,,
null,,color_black5,973189,,,,,,,,black_plus_sign,,,null,,,,,,,,,,,,,,,,,,,,
null,,learn_phase(without_color)5,976692,,,,,,,,black_plus_sign,,,null,object_04c.png,object_09a.png,,,,,,,,,,,,,,,,,,
null,,black_cross(without_color)5,977677,,,,,,,,green,,,null,object_04c.png,object_09a.png,,,,,,,,,,,,,,,,,,
434.89999997615814,,rt_plussign_withcolor5,978179,,,,,,,,green,,,50,object_04c.png,object_09a.png,,,,,,,,,,,,,,,,,,
null,,rt_thecrossant_black5,979198,,,,,,,,black_plus_sign,,,null,,,1,,,,,,,1,,,,,,,,,,
null,,color_black5,979302,,,,,,,,black_plus_sign,,,null,,,,,,,,,,,,,,,,,,,,
null,,learn_phase(without_color)5,982804,,,,,,,,black_plus_sign,,,null,object_13c.png,object_13b.png,,,,,,,,,,,,,,,,,,
null,,black_cross(without_color)5,983239,,,,,,,,blue,,,null,object_13c.png,object_13b.png,,,,,,,,,,,,,,,,,,
null,,rt_plussign_withcolor5,983741,,,,,,,,blue,,,null,object_13c.png,object_13b.png,,,,,,,,,,,,,,,,,,
1141.5,,rt_thecrossant_black5,985311,,,,,,,,black_plus_sign,,,49,,,1,,,,,,,1,,,,,,,,,,
null,,color_black5,985413,,,,,,,,black_plus_sign,,,null,,,,,,,,,,,,,,,,,,,,
null,,thebreak,985516,,,,,,,,<p></p>,,,null,,,,,,,,,,,,,,,,,,,,
2114.5,,intro_0,987632,,,,,,,,instruct,,,32,,,,,,,,,,,,,,,,,,,,
2194.3000000715256,,directmemory_phase5,989827,,,,,,,,object_05c.png,,,51,,,0,,object_05a.png,object_07b.png,object_04c.png,object_07b.png,,0.7049180327868853,,0,,,,,,,,
2302.399999976158,,directmemory_phase5,992131,,,,,,,,object_08c.png,,,50,,,0,,object_05a.png,object_07b.png,object_13a.png,object_13a.png,,0.6935483870967742,,0,,,,,,,,
2340.6999999284744,,directmemory_phase5,994475,,,,,,,,object_15b.png,,,51,,,1,,object_06b.png,object_07b.png,object_10c.png,object_10c.png,,0.6984126984126984,,1,,,,,,,,
2086.899999976158,,directmemory_phase5,996563,,,,,,,,object_07c.png,,,49,,,1,,object_10b.png,object_13c.png,object_05b.png,object_10b.png,,0.703125,,1,,,,,,,,
1789.7000000476837,,directmemory_phase5,998354,,,,,,,,object_13b.png,,,50,,,1,,object_10c.png,object_13c.png,object_05b.png,object_13c.png,,0.7076923076923077,,1,,,,,,,,
2281.899999976158,,directmemory_phase5,1000638,,,,,,,,object_11a.png,,,51,,,0,,object_14a.png,object_05b.png,object_06b.png,object_05b.png,,0.696969696969697,,0,,,,,,,,
1748.3999999761581,,directmemory_phase5,1002389,,,,,,,,object_06c.png,,,49,,,1,,object_03b.png,object_14a.png,object_07b.png,object_03b.png,,0.7014925373134329,,1,,,,,,,,
1199.1000000238419,,directmemory_phase5,1003590,,,,,,,,object_09a.png,,,50,,,0,,object_04c.png,object_05b.png,object_06b.png,object_04c.png,,0.6911764705882353,,0,,,,,,,,
1790.1000000238419,,directmemory_phase5,1005382,,,,,,,,object_14c.png,,,51,,,0,,object_08b.png,object_03b.png,object_13a.png,object_08b.png,,0.6811594202898551,,0,,,,,,,,
2548.5,,directmemory_phase5,1007932,,,,,,,,object_12b.png,,,50,,,0,,object_14a.png,object_14b.png,object_06b.png,object_06b.png,,0.6714285714285714,,0,,,,,,,,
2197.5,,directmemory_phase5,1010132,,,,,,,,object_11c.png,,,50,,,0,,object_04a.png,object_10b.png,object_10c.png,object_04a.png,,0.6619718309859155,,0,,,,,,,,
1620.6000000238419,,directmemory_phase5,1011754,,,,,,,,object_03c.png,,,49,,,1,,object_02a.png,object_13c.png,object_10c.png,object_02a.png,,0.6666666666666666,,1,,,,,,,,
1934.7000000476837,,directmemory_phase5,1013691,,,,,,,,object_03a.png,,,51,,,0,,object_14a.png,object_13a.png,object_05b.png,object_14a.png,,0.6575342465753424,,0,,,,,,,,
1487,,directmemory_phase5,1015179,,,,,,,,object_09c.png,,,50,,,0,,object_02a.png,object_04a.png,object_14b.png,object_14b.png,,0.6486486486486487,,0,,,,,,,,
1641.8999999761581,,directmemory_phase5,1016823,,,,,,,,object_15a.png,,,51,,,1,,object_13c.png,object_04a.png,object_05a.png,object_05a.png,,0.6533333333333333,,1,,,,,,,,
null,,thebreak,1016927,,,,,,,,<p></p>,,,null,,,,,,,,,,,,,,,,,,,,
1240.4000000953674,,intro_0,1018169,,,,,,,,instruct,,,32,,,,,,,,,,,,,,,,,,,,
null,,learn_phase(without_color)6,1021671,,,,,,,,black_plus_sign,,,null,object_14b.png,object_09c.png,,,,,,,,,,,,,,,,,,
null,,black_cross(without_color)6,1022162,,,,,,,,blue,,,null,object_14b.png,object_09c.png,,,,,,,,,,,,,,,,,,
null,,rt_plussign_withcolor6,1022664,,,,,,,,blue,,,null,object_14b.png,object_09c.png,,,,,,,,,,,,,,,,,,
762.6000000238419,,rt_thecrossant_black6,1024179,,,,,,,,black_plus_sign,,,49,,,1,,,,,,,1,,,,,,,,,,
null,,color_black6,1024281,,,,,,,,black_plus_sign,,,null,,,,,,,,,,,,,,,,,,,,
null,,learn_phase(without_color)6,1027784,,,,,,,,black_plus_sign,,,null,object_10b.png,object_07c.png,,,,,,,,,,,,,,,,,,
null,,black_cross(without_color)6,1028251,,,,,,,,blue,,,null,object_10b.png,object_07c.png,,,,,,,,,,,,,,,,,,
null,,rt_plussign_withcolor6,1028752,,,,,,,,blue,,,null,object_10b.png,object_07c.png,,,,,,,,,,,,,,,,,,
813.7000000476837,,rt_thecrossant_black6,1030291,,,,,,,,black_plus_sign,,,49,,,1,,,,,,,1,,,,,,,,,,
null,,color_black6,1030395,,,,,,,,black_plus_sign,,,null,,,,,,,,,,,,,,,,,,,,
null,,learn_phase(without_color)6,1033897,,,,,,,,black_plus_sign,,,null,object_04c.png,object_09a.png,,,,,,,,,,,,,,,,,,
null,,black_cross(without_color)6,1034458,,,,,,,,green,,,null,object_04c.png,object_09a.png,,,,,,,,,,,,,,,,,,
352.7999999523163,,rt_plussign_withcolor6,1034960,,,,,,,,green,,,50,object_04c.png,object_09a.png,,,,,,,,,,,,,,,,,,
null,,rt_thecrossant_black6,1036404,,,,,,,,black_plus_sign,,,null,,,1,,,,,,,1,,,,,,,,,,
null,,color_black6,1036507,,,,,,,,black_plus_sign,,,null,,,,,,,,,,,,,,,,,,,,
null,,learn_phase(without_color)6,1040010,,,,,,,,black_plus_sign,,,null,object_05a.png,object_15a.png,,,,,,,,,,,,,,,,,,
null,,black_cross(without_color)6,1040972,,,,,,,,blue,,,null,object_05a.png,object_15a.png,,,,,,,,,,,,,,,,,,
null,,rt_plussign_withcolor6,1041474,,,,,,,,blue,,,null,object_05a.png,object_15a.png,,,,,,,,,,,,,,,,,,
691.3000000715256,,rt_thecrossant_black6,1042518,,,,,,,,black_plus_sign,,,49,,,1,,,,,,,1,,,,,,,,,,
null,,color_black6,1042619,,,,,,,,black_plus_sign,,,null,,,,,,,,,,,,,,,,,,,,
null,,learn_phase(without_color)6,1046122,,,,,,,,black_plus_sign,,,null,object_06b.png,object_12b.png,,,,,,,,,,,,,,,,,,
null,,black_cross(without_color)6,1046625,,,,,,,,green,,,null,object_06b.png,object_12b.png,,,,,,,,,,,,,,,,,,
null,,rt_plussign_withcolor6,1047127,,,,,,,,green,,,null,object_06b.png,object_12b.png,,,,,,,,,,,,,,,,,,
1060.1000000238419,,rt_thecrossant_black6,1048634,,,,,,,,black_plus_sign,,,50,,,1,,,,,,,1,,,,,,,,,,
null,,color_black6,1048736,,,,,,,,black_plus_sign,,,null,,,,,,,,,,,,,,,,,,,,
null,,learn_phase(without_color)6,1052240,,,,,,,,black_plus_sign,,,null,object_13c.png,object_13b.png,,,,,,,,,,,,,,,,,,
null,,black_cross(without_color)6,1052715,,,,,,,,blue,,,null,object_13c.png,object_13b.png,,,,,,,,,,,,,,,,,,
null,,rt_plussign_withcolor6,1053218,,,,,,,,blue,,,null,object_13c.png,object_13b.png,,,,,,,,,,,,,,,,,,
662.3999999761581,,rt_thecrossant_black6,1054749,,,,,,,,black_plus_sign,,,49,,,1,,,,,,,1,,,,,,,,,,
null,,color_black6,1054852,,,,,,,,black_plus_sign,,,null,,,,,,,,,,,,,,,,,,,,
null,,learn_phase(without_color)6,1058355,,,,,,,,black_plus_sign,,,null,object_05b.png,object_11a.png,,,,,,,,,,,,,,,,,,
null,,black_cross(without_color)6,1059348,,,,,,,,blue,,,null,object_05b.png,object_11a.png,,,,,,,,,,,,,,,,,,
null,,rt_plussign_withcolor6,1059850,,,,,,,,blue,,,null,object_05b.png,object_11a.png,,,,,,,,,,,,,,,,,,
668.1000000238419,,rt_thecrossant_black6,1060862,,,,,,,,black_plus_sign,,,49,,,1,,,,,,,1,,,,,,,,,,
null,,color_black6,1060964,,,,,,,,black_plus_sign,,,null,,,,,,,,,,,,,,,,,,,,
null,,learn_phase(without_color)6,1064467,,,,,,,,black_plus_sign,,,null,object_14a.png,object_03a.png,,,,,,,,,,,,,,,,,,
null,,black_cross(without_color)6,1064895,,,,,,,,green,,,null,object_14a.png,object_03a.png,,,,,,,,,,,,,,,,,,
null,,rt_plussign_withcolor6,1065397,,,,,,,,green,,,null,object_14a.png,object_03a.png,,,,,,,,,,,,,,,,,,
1175.3999999761581,,rt_thecrossant_black6,1066974,,,,,,,,black_plus_sign,,,50,,,1,,,,,,,1,,,,,,,,,,
null,,color_black6,1067076,,,,,,,,black_plus_sign,,,null,,,,,,,,,,,,,,,,,,,,
null,,learn_phase(without_color)6,1070579,,,,,,,,black_plus_sign,,,null,object_08b.png,object_14c.png,,,,,,,,,,,,,,,,,,
null,,black_cross(without_color)6,1071393,,,,,,,,green,,,null,object_08b.png,object_14c.png,,,,,,,,,,,,,,,,,,
494.60000002384186,,rt_plussign_withcolor6,1071894,,,,,,,,green,,,50,object_08b.png,object_14c.png,,,,,,,,,,,,,,,,,,
null,,rt_thecrossant_black6,1073084,,,,,,,,black_plus_sign,,,null,,,1,,,,,,,1,,,,,,,,,,
null,,color_black6,1073187,,,,,,,,black_plus_sign,,,null,,,,,,,,,,,,,,,,,,,,
null,,learn_phase(without_color)6,1076689,,,,,,,,black_plus_sign,,,null,object_02a.png,object_03c.png,,,,,,,,,,,,,,,,,,
null,,black_cross(without_color)6,1077148,,,,,,,,blue,,,null,object_02a.png,object_03c.png,,,,,,,,,,,,,,,,,,
null,,rt_plussign_withcolor6,1077650,,,,,,,,blue,,,null,object_02a.png,object_03c.png,,,,,,,,,,,,,,,,,,
1195.3999999761581,,rt_thecrossant_black6,1079194,,,,,,,,black_plus_sign,,,49,,,1,,,,,,,1,,,,,,,,,,
null,,color_black6,1079296,,,,,,,,black_plus_sign,,,null,,,,,,,,,,,,,,,,,,,,
null,,learn_phase(without_color)6,1082804,,,,,,,,black_plus_sign,,,null,object_07b.png,object_05c.png,,,,,,,,,,,,,,,,,,
null,,black_cross(without_color)6,1083251,,,,,,,,green,,,null,object_07b.png,object_05c.png,,,,,,,,,,,,,,,,,,
390.3000000715256,,rt_plussign_withcolor6,1083754,,,,,,,,green,,,50,object_07b.png,object_05c.png,,,,,,,,,,,,,,,,,,
null,,rt_thecrossant_black6,1085313,,,,,,,,black_plus_sign,,,null,,,1,,,,,,,1,,,,,,,,,,
null,,color_black6,1085415,,,,,,,,black_plus_sign,,,null,,,,,,,,,,,,,,,,,,,,
null,,learn_phase(without_color)6,1088919,,,,,,,,black_plus_sign,,,null,object_10c.png,object_15b.png,,,,,,,,,,,,,,,,,,
null,,black_cross(without_color)6,1089659,,,,,,,,blue,,,null,object_10c.png,object_15b.png,,,,,,,,,,,,,,,,,,
null,,rt_plussign_withcolor6,1090161,,,,,,,,blue,,,null,object_10c.png,object_15b.png,,,,,,,,,,,,,,,,,,
582.1000000238419,,rt_thecrossant_black6,1091425,,,,,,,,black_plus_sign,,,49,,,1,,,,,,,1,,,,,,,,,,
null,,color_black6,1091528,,,,,,,,black_plus_sign,,,null,,,,,,,,,,,,,,,,,,,,
null,,learn_phase(without_color)6,1095036,,,,,,,,black_plus_sign,,,null,object_04a.png,object_11c.png,,,,,,,,,,,,,,,,,,
null,,black_cross(without_color)6,1095836,,,,,,,,blue,,,null,object_04a.png,object_11c.png,,,,,,,,,,,,,,,,,,
null,,rt_plussign_withcolor6,1096338,,,,,,,,blue,,,null,object_04a.png,object_11c.png,,,,,,,,,,,,,,,,,,
839.6999999284744,,rt_thecrossant_black6,1097543,,,,,,,,black_plus_sign,,,49,,,1,,,,,,,1,,,,,,,,,,
null,,color_black6,1097646,,,,,,,,black_plus_sign,,,null,,,,,,,,,,,,,,,,,,,,
null,,learn_phase(without_color)6,1101150,,,,,,,,black_plus_sign,,,null,object_13a.png,object_08c.png,,,,,,,,,,,,,,,,,,
null,,black_cross(without_color)6,1101956,,,,,,,,blue,,,null,object_13a.png,object_08c.png,,,,,,,,,,,,,,,,,,
null,,rt_plussign_withcolor6,1102458,,,,,,,,blue,,,null,object_13a.png,object_08c.png,,,,,,,,,,,,,,,,,,
1088.3999999761581,,rt_thecrossant_black6,1103657,,,,,,,,black_plus_sign,,,49,,,1,,,,,,,1,,,,,,,,,,
null,,color_black6,1103760,,,,,,,,black_plus_sign,,,null,,,,,,,,,,,,,,,,,,,,
null,,learn_phase(without_color)6,1107263,,,,,,,,black_plus_sign,,,null,object_03b.png,object_06c.png,,,,,,,,,,,,,,,,,,
null,,black_cross(without_color)6,1108135,,,,,,,,green,,,null,object_03b.png,object_06c.png,,,,,,,,,,,,,,,,,,
null,,rt_plussign_withcolor6,1108636,,,,,,,,green,,,null,object_03b.png,object_06c.png,,,,,,,,,,,,,,,,,,
917,,rt_thecrossant_black6,1109770,,,,,,,,black_plus_sign,,,50,,,1,,,,,,,1,,,,,,,,,,
null,,color_black6,1109873,,,,,,,,black_plus_sign,,,null,,,,,,,,,,,,,,,,,,,,
null,,thebreak,1109977,,,,,,,,<p></p>,,,null,,,,,,,,,,,,,,,,,,,,
1377.5,,intro_0,1111356,,,,,,,,instruct,,,32,,,,,,,,,,,,,,,,,,,,
1871.6999999284744,,directmemory_phase6,1113229,,,,,,,,object_08c.png,,,50,,,1,,object_04a.png,object_13a.png,object_13c.png,object_13a.png,,0.6578947368421053,,1,,,,,,,,
2176,,directmemory_phase6,1115407,,,,,,,,object_15b.png,,,49,,,0,,object_04a.png,object_14a.png,object_10c.png,object_10c.png,,0.6493506493506493,,0,,,,,,,,
1558.2999999523163,,directmemory_phase6,1116967,,,,,,,,object_09a.png,,,51,,,0,,object_04c.png,object_05a.png,object_14a.png,object_04c.png,,0.6410256410256411,,0,,,,,,,,
3086.3000000715256,,directmemory_phase6,1120055,,,,,,,,object_03a.png,,,51,,,0,,object_14a.png,object_07b.png,object_13c.png,object_14a.png,,0.6329113924050633,,0,,,,,,,,
2783,,directmemory_phase6,1122840,,,,,,,,object_13b.png,,,50,,,1,,object_06b.png,object_13c.png,object_10c.png,object_13c.png,,0.6375,,1,,,,,,,,
1699.5,,directmemory_phase6,1124541,,,,,,,,object_11c.png,,,51,,,1,,object_05a.png,object_02a.png,object_04a.png,object_04a.png,,0.6419753086419753,,1,,,,,,,,
1969.2000000476837,,directmemory_phase6,1126512,,,,,,,,object_07c.png,,,50,,,1,,object_06b.png,object_10b.png,object_10c.png,object_10b.png,,0.6463414634146342,,1,,,,,,,,
2237,,directmemory_phase6,1128751,,,,,,,,object_15a.png,,,49,,,0,,object_04c.png,object_04a.png,object_05a.png,object_05a.png,,0.6385542168674698,,0,,,,,,,,
1438.2000000476837,,directmemory_phase6,1130191,,,,,,,,object_06c.png,,,51,,,0,,object_03b.png,object_13a.png,object_13c.png,object_03b.png,,0.6309523809523809,,0,,,,,,,,
1999.7000000476837,,directmemory_phase6,1132193,,,,,,,,object_09c.png,,,49,,,0,,object_05b.png,object_10c.png,object_14b.png,object_14b.png,,0.6235294117647059,,0,,,,,,,,
3036.899999976158,,directmemory_phase6,1135232,,,,,,,,object_03c.png,,,51,,,1,,object_04a.png,object_14a.png,object_02a.png,object_02a.png,,0.627906976744186,,1,,,,,,,,
2636,,directmemory_phase6,1137870,,,,,,,,object_12b.png,,,49,,,0,,object_05a.png,object_10b.png,object_06b.png,object_06b.png,,0.6206896551724138,,0,,,,,,,,
1606.3999999761581,,directmemory_phase6,1139478,,,,,,,,object_05c.png,,,51,,,0,,object_14b.png,object_07b.png,object_04a.png,object_07b.png,,0.6136363636363636,,0,,,,,,,,
1705.2999999523163,,directmemory_phase6,1141185,,,,,,,,object_11a.png,,,50,,,0,,object_05b.png,object_14a.png,object_04a.png,object_05b.png,,0.6067415730337079,,0,,,,,,,,
1758.2000000476837,,directmemory_phase6,1142950,,,,,,,,object_14c.png,,,49,,,0,,object_06b.png,object_08b.png,object_07b.png,object_08b.png,,0.6,,0,,,,,,,,
null,,thebreak,1143053,,,,,,,,<p></p>,,,null,,,,,,,,,,,,,,,,,,,,
1269.3999999761581,,intro_0,1144324,,,,,,,,instruct,,,32,,,,,,,,,,,,,,,,,,,,
null,,learn_phase(without_color)7,1147826,,,,,,,,black_plus_sign,,,null,object_05a.png,object_15a.png,,,,,,,,,,,,,,,,,,
null,,black_cross(without_color)7,1148287,,,,,,,,green,,,null,object_05a.png,object_15a.png,,,,,,,,,,,,,,,,,,
null,,rt_plussign_withcolor7,1148788,,,,,,,,green,,,null,object_05a.png,object_15a.png,,,,,,,,,,,,,,,,,,
680.3999999761581,,rt_thecrossant_black7,1150333,,,,,,,,black_plus_sign,,,50,,,1,,,,,,,1,,,,,,,,,,
null,,color_black7,1150435,,,,,,,,black_plus_sign,,,null,,,,,,,,,,,,,,,,,,,,
null,,learn_phase(without_color)7,1153938,,,,,,,,black_plus_sign,,,null,object_13a.png,object_08c.png,,,,,,,,,,,,,,,,,,
null,,black_cross(without_color)7,1154528,,,,,,,,green,,,null,object_13a.png,object_08c.png,,,,,,,,,,,,,,,,,,
499.2000000476837,,rt_plussign_withcolor7,1155029,,,,,,,,green,,,50,object_13a.png,object_08c.png,,,,,,,,,,,,,,,,,,
null,,rt_thecrossant_black7,1156444,,,,,,,,black_plus_sign,,,null,,,1,,,,,,,1,,,,,,,,,,
null,,color_black7,1156547,,,,,,,,black_plus_sign,,,null,,,,,,,,,,,,,,,,,,,,
null,,learn_phase(without_color)7,1160050,,,,,,,,black_plus_sign,,,null,object_02a.png,object_03c.png,,,,,,,,,,,,,,,,,,
null,,black_cross(without_color)7,1161065,,,,,,,,green,,,null,object_02a.png,object_03c.png,,,,,,,,,,,,,,,,,,
null,,rt_plussign_withcolor7,1161567,,,,,,,,green,,,null,object_02a.png,object_03c.png,,,,,,,,,,,,,,,,,,
770.3999999761581,,rt_thecrossant_black7,1162556,,,,,,,,black_plus_sign,,,50,,,1,,,,,,,1,,,,,,,,,,
null,,color_black7,1162658,,,,,,,,black_plus_sign,,,null,,,,,,,,,,,,,,,,,,,,
null,,learn_phase(without_color)7,1166161,,,,,,,,black_plus_sign,,,null,object_10b.png,object_07c.png,,,,,,,,,,,,,,,,,,
null,,black_cross(without_color)7,1166782,,,,,,,,blue,,,null,object_10b.png,object_07c.png,,,,,,,,,,,,,,,,,,
null,,rt_plussign_withcolor7,1167284,,,,,,,,blue,,,null,object_10b.png,object_07c.png,,,,,,,,,,,,,,,,,,
1250.5,,rt_thecrossant_black7,1168668,,,,,,,,black_plus_sign,,,49,,,1,,,,,,,1,,,,,,,,,,
null,,color_black7,1168770,,,,,,,,black_plus_sign,,,null,,,,,,,,,,,,,,,,,,,,
null,,learn_phase(without_color)7,1172272,,,,,,,,black_plus_sign,,,null,object_13c.png,object_13b.png,,,,,,,,,,,,,,,,,,
null,,black_cross(without_color)7,1172742,,,,,,,,blue,,,null,object_13c.png,object_13b.png,,,,,,,,,,,,,,,,,,
419.5,,rt_plussign_withcolor7,1173245,,,,,,,,blue,,,50,object_13c.png,object_13b.png,,,,,,,,,,,,,,,,,,
null,,rt_thecrossant_black7,1174779,,,,,,,,black_plus_sign,,,null,,,0,,,,,,,0.8,,,,,,,,,,
null,,color_black7,1174882,,,,,,,,black_plus_sign,,,null,,,,,,,,,,,,,,,,,,,,
null,,learn_phase(without_color)7,1178385,,,,,,,,black_plus_sign,,,null,object_06b.png,object_12b.png,,,,,,,,,,,,,,,,,,
null,,black_cross(without_color)7,1178863,,,,,,,,green,,,null,object_06b.png,object_12b.png,,,,,,,,,,,,,,,,,,
417,,rt_plussign_withcolor7,1179364,,,,,,,,green,,,50,object_06b.png,object_12b.png,,,,,,,,,,,,,,,,,,
null,,rt_thecrossant_black7,1180890,,,,,,,,black_plus_sign,,,null,,,1,,,,,,,0.8333333333333334,,,,,,,,,,
null,,color_black7,1180992,,,,,,,,black_plus_sign,,,null,,,,,,,,,,,,,,,,,,,,
null,,learn_phase(without_color)7,1184495,,,,,,,,black_plus_sign,,,null,object_14a.png,object_03a.png,,,,,,,,,,,,,,,,,,
null,,black_cross(without_color)7,1185154,,,,,,,,green,,,null,object_14a.png,object_03a.png,,,,,,,,,,,,,,,,,,
498.8000000715256,,rt_plussign_withcolor7,1185655,,,,,,,,green,,,50,object_14a.png,object_03a.png,,,,,,,,,,,,,,,,,,
null,,rt_thecrossant_black7,1187000,,,,,,,,black_plus_sign,,,null,,,1,,,,,,,0.8571428571428571,,,,,,,,,,
null,,color_black7,1187102,,,,,,,,black_plus_sign,,,null,,,,,,,,,,,,,,,,,,,,
null,,learn_phase(without_color)7,1190605,,,,,,,,black_plus_sign,,,null,object_10c.png,object_15b.png,,,,,,,,,,,,,,,,,,
null,,black_cross(without_color)7,1191438,,,,,,,,green,,,null,object_10c.png,object_15b.png,,,,,,,,,,,,,,,,,,
414,,rt_plussign_withcolor7,1191940,,,,,,,,green,,,50,object_10c.png,object_15b.png,,,,,,,,,,,,,,,,,,
null,,rt_thecrossant_black7,1193112,,,,,,,,black_plus_sign,,,null,,,1,,,,,,,0.875,,,,,,,,,,
null,,color_black7,1193215,,,,,,,,black_plus_sign,,,null,,,,,,,,,,,,,,,,,,,,
null,,learn_phase(without_color)7,1196719,,,,,,,,black_plus_sign,,,null,object_05b.png,object_11a.png,,,,,,,,,,,,,,,,,,
null,,black_cross(without_color)7,1197239,,,,,,,,blue,,,null,object_05b.png,object_11a.png,,,,,,,,,,,,,,,,,,
null,,rt_plussign_withcolor7,1197740,,,,,,,,blue,,,null,object_05b.png,object_11a.png,,,,,,,,,,,,,,,,,,
1027.7000000476837,,rt_thecrossant_black7,1199226,,,,,,,,black_plus_sign,,,49,,,1,,,,,,,0.8888888888888888,,,,,,,,,,
null,,color_black7,1199332,,,,,,,,black_plus_sign,,,null,,,,,,,,,,,,,,,,,,,,
null,,learn_phase(without_color)7,1202834,,,,,,,,black_plus_sign,,,null,object_04c.png,object_09a.png,,,,,,,,,,,,,,,,,,
null,,black_cross(without_color)7,1203466,,,,,,,,blue,,,null,object_04c.png,object_09a.png,,,,,,,,,,,,,,,,,,
null,,rt_plussign_withcolor7,1203968,,,,,,,,blue,,,null,object_04c.png,object_09a.png,,,,,,,,,,,,,,,,,,
741.3000000715256,,rt_thecrossant_black7,1205342,,,,,,,,black_plus_sign,,,49,,,1,,,,,,,0.9,,,,,,,,,,
null,,color_black7,1205447,,,,,,,,black_plus_sign,,,null,,,,,,,,,,,,,,,,,,,,
null,,learn_phase(without_color)7,1208950,,,,,,,,black_plus_sign,,,null,object_03b.png,object_06c.png,,,,,,,,,,,,,,,,,,
null,,black_cross(without_color)7,1209789,,,,,,,,green,,,null,object_03b.png,object_06c.png,,,,,,,,,,,,,,,,,,
null,,rt_plussign_withcolor7,1210291,,,,,,,,green,,,null,object_03b.png,object_06c.png,,,,,,,,,,,,,,,,,,
838.3999999761581,,rt_thecrossant_black7,1211457,,,,,,,,black_plus_sign,,,50,,,1,,,,,,,0.9090909090909091,,,,,,,,,,
null,,color_black7,1211559,,,,,,,,black_plus_sign,,,null,,,,,,,,,,,,,,,,,,,,
null,,learn_phase(without_color)7,1215063,,,,,,,,black_plus_sign,,,null,object_04a.png,object_11c.png,,,,,,,,,,,,,,,,,,
null,,black_cross(without_color)7,1215903,,,,,,,,blue,,,null,object_04a.png,object_11c.png,,,,,,,,,,,,,,,,,,
null,,rt_plussign_withcolor7,1216405,,,,,,,,blue,,,null,object_04a.png,object_11c.png,,,,,,,,,,,,,,,,,,
1000.6000000238419,,rt_thecrossant_black7,1217570,,,,,,,,black_plus_sign,,,49,,,1,,,,,,,0.9166666666666666,,,,,,,,,,
null,,color_black7,1217672,,,,,,,,black_plus_sign,,,null,,,,,,,,,,,,,,,,,,,,
null,,learn_phase(without_color)7,1221174,,,,,,,,black_plus_sign,,,null,object_14b.png,object_09c.png,,,,,,,,,,,,,,,,,,
null,,black_cross(without_color)7,1222017,,,,,,,,blue,,,null,object_14b.png,object_09c.png,,,,,,,,,,,,,,,,,,
378.60000002384186,,rt_plussign_withcolor7,1222519,,,,,,,,blue,,,49,object_14b.png,object_09c.png,,,,,,,,,,,,,,,,,,
null,,rt_thecrossant_black7,1223681,,,,,,,,black_plus_sign,,,null,,,1,,,,,,,0.9230769230769231,,,,,,,,,,
null,,color_black7,1223783,,,,,,,,black_plus_sign,,,null,,,,,,,,,,,,,,,,,,,,
null,,learn_phase(without_color)7,1227286,,,,,,,,black_plus_sign,,,null,object_07b.png,object_05c.png,,,,,,,,,,,,,,,,,,
null,,black_cross(without_color)7,1227896,,,,,,,,blue,,,null,object_07b.png,object_05c.png,,,,,,,,,,,,,,,,,,
null,,rt_plussign_withcolor7,1228405,,,,,,,,blue,,,null,object_07b.png,object_05c.png,,,,,,,,,,,,,,,,,,
1021.7999999523163,,rt_thecrossant_black7,1229801,,,,,,,,black_plus_sign,,,49,,,1,,,,,,,0.9285714285714286,,,,,,,,,,
null,,color_black7,1229904,,,,,,,,black_plus_sign,,,null,,,,,,,,,,,,,,,,,,,,
null,,learn_phase(without_color)7,1233406,,,,,,,,black_plus_sign,,,null,object_08b.png,object_14c.png,,,,,,,,,,,,,,,,,,
null,,black_cross(without_color)7,1234165,,,,,,,,green,,,null,object_08b.png,object_14c.png,,,,,,,,,,,,,,,,,,
null,,rt_plussign_withcolor7,1234668,,,,,,,,green,,,null,object_08b.png,object_14c.png,,,,,,,,,,,,,,,,,,
920.7000000476837,,rt_thecrossant_black7,1235913,,,,,,,,black_plus_sign,,,50,,,1,,,,,,,0.9333333333333333,,,,,,,,,,
null,,color_black7,1236016,,,,,,,,black_plus_sign,,,null,,,,,,,,,,,,,,,,,,,,
null,,thebreak,1236119,,,,,,,,<p></p>,,,null,,,,,,,,,,,,,,,,,,,,
1325.5,,intro_0,1237451,,,,,,,,instruct,,,32,,,,,,,,,,,,,,,,,,,,
2234.399999976158,,directmemory_phase7,1239687,,,,,,,,object_11a.png,,,50,,,0,,object_05b.png,object_06b.png,object_05a.png,object_05b.png,,0.5934065934065934,,0,,,,,,,,
2373.2999999523163,,directmemory_phase7,1242062,,,,,,,,object_09c.png,,,50,,,1,,object_04c.png,object_14b.png,object_13a.png,object_14b.png,,0.5978260869565217,,1,,,,,,,,
1696.3999999761581,,directmemory_phase7,1243760,,,,,,,,object_15b.png,,,51,,,0,,object_04a.png,object_10c.png,object_13a.png,object_10c.png,,0.5913978494623656,,0,,,,,,,,
1267.8999999761581,,directmemory_phase7,1245030,,,,,,,,object_07c.png,,,50,,,1,,object_07b.png,object_10b.png,object_13c.png,object_10b.png,,0.5957446808510638,,1,,,,,,,,
1948.3000000715256,,directmemory_phase7,1246980,,,,,,,,object_13b.png,,,49,,,1,,object_13c.png,object_05a.png,object_14b.png,object_13c.png,,0.6,,1,,,,,,,,
3258.100000023842,,directmemory_phase7,1250240,,,,,,,,object_03a.png,,,51,,,1,,object_14b.png,object_10c.png,object_14a.png,object_14a.png,,0.6041666666666666,,1,,,,,,,,
1631.7000000476837,,directmemory_phase7,1251874,,,,,,,,object_06c.png,,,50,,,1,,object_05a.png,object_03b.png,object_14b.png,object_03b.png,,0.6082474226804123,,1,,,,,,,,
1898.3999999761581,,directmemory_phase7,1253774,,,,,,,,object_03c.png,,,49,,,0,,object_05b.png,object_13c.png,object_02a.png,object_02a.png,,0.6020408163265306,,0,,,,,,,,
1613.3000000715256,,directmemory_phase7,1255389,,,,,,,,object_08c.png,,,51,,,1,,object_14a.png,object_02a.png,object_13a.png,object_13a.png,,0.6060606060606061,,1,,,,,,,,
2151.7999999523163,,directmemory_phase7,1257543,,,,,,,,object_09a.png,,,50,,,0,,object_04c.png,object_05b.png,object_07b.png,object_04c.png,,0.6,,0,,,,,,,,
2142,,directmemory_phase7,1259687,,,,,,,,object_11c.png,,,50,,,1,,object_10c.png,object_04a.png,object_10b.png,object_04a.png,,0.6039603960396039,,1,,,,,,,,
2380.7999999523163,,directmemory_phase7,1262071,,,,,,,,object_15a.png,,,49,,,1,,object_05a.png,object_05b.png,object_13c.png,object_05a.png,,0.6078431372549019,,1,,,,,,,,
2726.899999976158,,directmemory_phase7,1264800,,,,,,,,object_05c.png,,,51,,,1,,object_06b.png,object_13a.png,object_07b.png,object_07b.png,,0.6116504854368932,,1,,,,,,,,
2322,,directmemory_phase7,1267124,,,,,,,,object_12b.png,,,50,,,0,,object_13a.png,object_13c.png,object_06b.png,object_06b.png,,0.6057692307692307,,0,,,,,,,,
3379,,directmemory_phase7,1270505,,,,,,,,object_14c.png,,,50,,,1,,object_13c.png,object_08b.png,object_14a.png,object_08b.png,,0.6095238095238096,,1,,,,,,,,
null,,thebreak,1270608,,,,,,,,<p></p>,,,null,,,,,,,,,,,,,,,,,,,,
1487.2000000476837,,intro_0,1272096,,,,,,,,instruct,,,32,,,,,,,,,,,,,,,,,,,,
null,,learn_phase(without_color)8,1275598,,,,,,,,black_plus_sign,,,null,object_04c.png,object_09a.png,,,,,,,,,,,,,,,,,,
null,,black_cross(without_color)8,1276033,,,,,,,,blue,,,null,object_04c.png,object_09a.png,,,,,,,,,,,,,,,,,,
447.2000000476837,,rt_plussign_withcolor8,1276534,,,,,,,,blue,,,50,object_04c.png,object_09a.png,,,,,,,,,,,,,,,,,,
null,,rt_thecrossant_black8,1278104,,,,,,,,black_plus_sign,,,49,,,0,,,,,,,0,,,,,,,,,,
null,,color_black8,1278206,,,,,,,,black_plus_sign,,,null,,,,,,,,,,,,,,,,,,,,
null,,learn_phase(without_color)8,1281710,,,,,,,,black_plus_sign,,,null,object_05b.png,object_11a.png,,,,,,,,,,,,,,,,,,
null,,black_cross(without_color)8,1282217,,,,,,,,blue,,,null,object_05b.png,object_11a.png,,,,,,,,,,,,,,,,,,
359.90000009536743,,rt_plussign_withcolor8,1282719,,,,,,,,blue,,,49,object_05b.png,object_11a.png,,,,,,,,,,,,,,,,,,
null,,rt_thecrossant_black8,1284216,,,,,,,,black_plus_sign,,,null,,,1,,,,,,,0.5,,,,,,,,,,
null,,color_black8,1284333,,,,,,,,black_plus_sign,,,null,,,,,,,,,,,,,,,,,,,,
null,,learn_phase(without_color)8,1287836,,,,,,,,black_plus_sign,,,null,object_14b.png,object_09c.png,,,,,,,,,,,,,,,,,,
null,,black_cross(without_color)8,1288885,,,,,,,,blue,,,null,object_14b.png,object_09c.png,,,,,,,,,,,,,,,,,,
null,,rt_plussign_withcolor8,1289387,,,,,,,,blue,,,null,object_14b.png,object_09c.png,,,,,,,,,,,,,,,,,,
703.8999999761581,,rt_thecrossant_black8,1290351,,,,,,,,black_plus_sign,,,49,,,1,,,,,,,0.6666666666666666,,,,,,,,,,
null,,color_black8,1290453,,,,,,,,black_plus_sign,,,null,,,,,,,,,,,,,,,,,,,,
null,,learn_phase(without_color)8,1293957,,,,,,,,black_plus_sign,,,null,object_04a.png,object_11c.png,,,,,,,,,,,,,,,,,,
null,,black_cross(without_color)8,1295046,,,,,,,,blue,,,null,object_04a.png,object_11c.png,,,,,,,,,,,,,,,,,,
null,,rt_plussign_withcolor8,1295547,,,,,,,,blue,,,null,object_04a.png,object_11c.png,,,,,,,,,,,,,,,,,,
1353.7999999523163,,rt_thecrossant_black8,1296463,,,,,,,,black_plus_sign,,,49,,,1,,,,,,,0.75,,,,,,,,,,
null,,color_black8,1296565,,,,,,,,black_plus_sign,,,null,,,,,,,,,,,,,,,,,,,,
null,,learn_phase(without_color)8,1300068,,,,,,,,black_plus_sign,,,null,object_03b.png,object_06c.png,,,,,,,,,,,,,,,,,,
null,,black_cross(without_color)8,1300642,,,,,,,,blue,,,null,object_03b.png,object_06c.png,,,,,,,,,,,,,,,,,,
null,,rt_plussign_withcolor8,1301144,,,,,,,,blue,,,null,object_03b.png,object_06c.png,,,,,,,,,,,,,,,,,,
1270.3999999761581,,rt_thecrossant_black8,1302574,,,,,,,,black_plus_sign,,,49,,,1,,,,,,,0.8,,,,,,,,,,
null,,color_black8,1302677,,,,,,,,black_plus_sign,,,null,,,,,,,,,,,,,,,,,,,,
null,,learn_phase(without_color)8,1306181,,,,,,,,black_plus_sign,,,null,object_14a.png,object_03a.png,,,,,,,,,,,,,,,,,,
null,,black_cross(without_color)8,1306724,,,,,,,,blue,,,null,object_14a.png,object_03a.png,,,,,,,,,,,,,,,,,,
446.6999999284744,,rt_plussign_withcolor8,1307226,,,,,,,,blue,,,49,object_14a.png,object_03a.png,,,,,,,,,,,,,,,,,,
null,,rt_thecrossant_black8,1308689,,,,,,,,black_plus_sign,,,null,,,1,,,,,,,0.8333333333333334,,,,,,,,,,
null,,color_black8,1308791,,,,,,,,black_plus_sign,,,null,,,,,,,,,,,,,,,,,,,,
null,,learn_phase(without_color)8,1312295,,,,,,,,black_plus_sign,,,null,object_10b.png,object_07c.png,,,,,,,,,,,,,,,,,,
null,,black_cross(without_color)8,1312955,,,,,,,,blue,,,null,object_10b.png,object_07c.png,,,,,,,,,,,,,,,,,,
484.8000000715256,,rt_plussign_withcolor8,1313457,,,,,,,,blue,,,49,object_10b.png,object_07c.png,,,,,,,,,,,,,,,,,,
null,,rt_thecrossant_black8,1314803,,,,,,,,black_plus_sign,,,null,,,1,,,,,,,0.8571428571428571,,,,,,,,,,
null,,color_black8,1314906,,,,,,,,black_plus_sign,,,null,,,,,,,,,,,,,,,,,,,,
null,,learn_phase(without_color)8,1318414,,,,,,,,black_plus_sign,,,null,object_13a.png,object_08c.png,,,,,,,,,,,,,,,,,,
null,,black_cross(without_color)8,1319134,,,,,,,,green,,,null,object_13a.png,object_08c.png,,,,,,,,,,,,,,,,,,
null,,rt_plussign_withcolor8,1319637,,,,,,,,green,,,null,object_13a.png,object_08c.png,,,,,,,,,,,,,,,,,,
759,,rt_thecrossant_black8,1320922,,,,,,,,black_plus_sign,,,50,,,1,,,,,,,0.875,,,,,,,,,,
null,,color_black8,1321025,,,,,,,,black_plus_sign,,,null,,,,,,,,,,,,,,,,,,,,
null,,learn_phase(without_color)8,1324528,,,,,,,,black_plus_sign,,,null,object_06b.png,object_12b.png,,,,,,,,,,,,,,,,,,
null,,black_cross(without_color)8,1325349,,,,,,,,blue,,,null,object_06b.png,object_12b.png,,,,,,,,,,,,,,,,,,
null,,rt_plussign_withcolor8,1325851,,,,,,,,blue,,,null,object_06b.png,object_12b.png,,,,,,,,,,,,,,,,,,
944.6000000238419,,rt_thecrossant_black8,1327038,,,,,,,,black_plus_sign,,,49,,,1,,,,,,,0.8888888888888888,,,,,,,,,,
null,,color_black8,1327140,,,,,,,,black_plus_sign,,,null,,,,,,,,,,,,,,,,,,,,
null,,learn_phase(without_color)8,1330646,,,,,,,,black_plus_sign,,,null,object_07b.png,object_05c.png,,,,,,,,,,,,,,,,,,
null,,black_cross(without_color)8,1331620,,,,,,,,green,,,null,object_07b.png,object_05c.png,,,,,,,,,,,,,,,,,,
456.39999997615814,,rt_plussign_withcolor8,1332122,,,,,,,,green,,,50,object_07b.png,object_05c.png,,,,,,,,,,,,,,,,,,
null,,rt_thecrossant_black8,1333160,,,,,,,,black_plus_sign,,,null,,,1,,,,,,,0.9,,,,,,,,,,
null,,color_black8,1333263,,,,,,,,black_plus_sign,,,null,,,,,,,,,,,,,,,,,,,,
null,,learn_phase(without_color)8,1336767,,,,,,,,black_plus_sign,,,null,object_10c.png,object_15b.png,,,,,,,,,,,,,,,,,,
null,,black_cross(without_color)8,1337434,,,,,,,,green,,,null,object_10c.png,object_15b.png,,,,,,,,,,,,,,,,,,
null,,rt_plussign_withcolor8,1337936,,,,,,,,green,,,null,object_10c.png,object_15b.png,,,,,,,,,,,,,,,,,,
1162.1999999284744,,rt_thecrossant_black8,1339278,,,,,,,,black_plus_sign,,,50,,,1,,,,,,,0.9090909090909091,,,,,,,,,,
null,,color_black8,1339381,,,,,,,,black_plus_sign,,,null,,,,,,,,,,,,,,,,,,,,
null,,learn_phase(without_color)8,1342885,,,,,,,,black_plus_sign,,,null,object_13c.png,object_13b.png,,,,,,,,,,,,,,,,,,
null,,black_cross(without_color)8,1343441,,,,,,,,green,,,null,object_13c.png,object_13b.png,,,,,,,,,,,,,,,,,,
null,,rt_plussign_withcolor8,1343943,,,,,,,,green,,,null,object_13c.png,object_13b.png,,,,,,,,,,,,,,,,,,
926.6000000238419,,rt_thecrossant_black8,1345392,,,,,,,,black_plus_sign,,,50,,,1,,,,,,,0.9166666666666666,,,,,,,,,,
null,,color_black8,1345494,,,,,,,,black_plus_sign,,,null,,,,,,,,,,,,,,,,,,,,
null,,learn_phase(without_color)8,1348997,,,,,,,,black_plus_sign,,,null,object_02a.png,object_03c.png,,,,,,,,,,,,,,,,,,
null,,black_cross(without_color)8,1349734,,,,,,,,green,,,null,object_02a.png,object_03c.png,,,,,,,,,,,,,,,,,,
null,,rt_plussign_withcolor8,1350236,,,,,,,,green,,,null,object_02a.png,object_03c.png,,,,,,,,,,,,,,,,,,
717.5,,rt_thecrossant_black8,1351503,,,,,,,,black_plus_sign,,,50,,,1,,,,,,,0.9230769230769231,,,,,,,,,,
null,,color_black8,1351607,,,,,,,,black_plus_sign,,,null,,,,,,,,,,,,,,,,,,,,
null,,learn_phase(without_color)8,1355111,,,,,,,,black_plus_sign,,,null,object_05a.png,object_15a.png,,,,,,,,,,,,,,,,,,
null,,black_cross(without_color)8,1356047,,,,,,,,green,,,null,object_05a.png,object_15a.png,,,,,,,,,,,,,,,,,,
null,,rt_plussign_withcolor8,1356551,,,,,,,,green,,,null,object_05a.png,object_15a.png,,,,,,,,,,,,,,,,,,
1156.2000000476837,,rt_thecrossant_black8,1357620,,,,,,,,black_plus_sign,,,50,,,1,,,,,,,0.9285714285714286,,,,,,,,,,
null,,color_black8,1357722,,,,,,,,black_plus_sign,,,null,,,,,,,,,,,,,,,,,,,,
null,,learn_phase(without_color)8,1361227,,,,,,,,black_plus_sign,,,null,object_08b.png,object_14c.png,,,,,,,,,,,,,,,,,,
null,,black_cross(without_color)8,1361909,,,,,,,,blue,,,null,object_08b.png,object_14c.png,,,,,,,,,,,,,,,,,,
null,,rt_plussign_withcolor8,1362411,,,,,,,,blue,,,null,object_08b.png,object_14c.png,,,,,,,,,,,,,,,,,,
1138,,rt_thecrossant_black8,1363735,,,,,,,,black_plus_sign,,,49,,,1,,,,,,,0.9333333333333333,,,,,,,,,,
null,,color_black8,1363837,,,,,,,,black_plus_sign,,,null,,,,,,,,,,,,,,,,,,,,
null,,thebreak,1363939,,,,,,,,<p></p>,,,null,,,,,,,,,,,,,,,,,,,,
1640.5,,intro_0,1365581,,,,,,,,instruct,,,32,,,,,,,,,,,,,,,,,,,,
2497.5,,directmemory_phase8,1368079,,,,,,,,object_08c.png,,,50,,,0,,object_13a.png,object_05b.png,object_10b.png,object_13a.png,,0.6037735849056604,,0,,,,,,,,
2874.899999976158,,directmemory_phase8,1370957,,,,,,,,object_14c.png,,,51,,,1,,object_03b.png,object_10b.png,object_08b.png,object_08b.png,,0.6074766355140186,,1,,,,,,,,
2276.399999976158,,directmemory_phase8,1373235,,,,,,,,object_12b.png,,,49,,,1,,object_06b.png,object_13c.png,object_05b.png,object_06b.png,,0.6111111111111112,,1,,,,,,,,
1572.3000000715256,,directmemory_phase8,1374809,,,,,,,,object_06c.png,,,51,,,1,,object_06b.png,object_05a.png,object_03b.png,object_03b.png,,0.6146788990825688,,1,,,,,,,,
1408.2000000476837,,directmemory_phase8,1376220,,,,,,,,object_09c.png,,,49,,,1,,object_14b.png,object_10c.png,object_04c.png,object_14b.png,,0.6181818181818182,,1,,,,,,,,
1816.2999999523163,,directmemory_phase8,1378038,,,,,,,,object_11c.png,,,51,,,0,,object_10c.png,object_04a.png,object_10b.png,object_04a.png,,0.6126126126126126,,0,,,,,,,,
3681.8000000715256,,directmemory_phase8,1381722,,,,,,,,object_03a.png,,,50,,,1,,object_14b.png,object_14a.png,object_04c.png,object_14a.png,,0.6160714285714286,,1,,,,,,,,
2073.100000023842,,directmemory_phase8,1383797,,,,,,,,object_11a.png,,,51,,,1,,object_14b.png,object_07b.png,object_05b.png,object_05b.png,,0.6194690265486725,,1,,,,,,,,
1600,,directmemory_phase8,1385399,,,,,,,,object_05c.png,,,50,,,1,,object_10c.png,object_07b.png,object_14b.png,object_07b.png,,0.6228070175438597,,1,,,,,,,,
2607.8000000715256,,directmemory_phase8,1388009,,,,,,,,object_13b.png,,,49,,,0,,object_04c.png,object_03b.png,object_13c.png,object_13c.png,,0.6173913043478261,,0,,,,,,,,
2419.899999976158,,directmemory_phase8,1390431,,,,,,,,object_09a.png,,,51,,,0,,object_04c.png,object_06b.png,object_13a.png,object_04c.png,,0.6120689655172413,,0,,,,,,,,
1562.7000000476837,,directmemory_phase8,1392001,,,,,,,,object_15a.png,,,51,,,1,,object_02a.png,object_10c.png,object_05a.png,object_05a.png,,0.6153846153846154,,1,,,,,,,,
1926.7999999523163,,directmemory_phase8,1393929,,,,,,,,object_03c.png,,,50,,,0,,object_14a.png,object_13c.png,object_02a.png,object_02a.png,,0.6101694915254238,,0,,,,,,,,
2022.3000000715256,,directmemory_phase8,1395954,,,,,,,,object_07c.png,,,51,,,1,,object_13a.png,object_04a.png,object_10b.png,object_10b.png,,0.6134453781512605,,1,,,,,,,,
2498.2000000476837,,directmemory_phase8,1398454,,,,,,,,object_15b.png,,,50,,,1,,object_05a.png,object_10c.png,object_13c.png,object_10c.png,,0.6166666666666667,,1,,,,,,,,
null,,thebreak,1398556,,,,,,,,<p></p>,,,null,,,,,,,,,,,,,,,,,,,,
4102,,intro_0,1402660,,,,,,,,instruct,,,32,,,,,,,,,,,,,,,,,,,,
18733.600000023842,,intro_1,1421401,,,,,,,,instruct,,,32,,,,,,,,,,,,,,,,,,,,
6451.100000023842,,intro_2,1427854,,,,,,,,instruct,,,32,,,,,,,,,,,,,,,,,,,,
,,intro_3,1451866,,,,,,,,instruct,,,,,,,,,,,,,,,,,,,,,,,
4391.199999928474,,intro_4,1456261,,,,,,,,instruct,,,32,,,,,,,,,,,,,,,,,,,,
null,,thebreak,1456363,,,,,,,,<p></p>,,,null,,,,,,,,,,,,,,,,,,,,
2283.2000000476837,,intro_0,1458653,,,,,,,,instruct,,,32,,,,,,,,,,,,,,,,,,,,
8077.699999928474,,intro_1,1466731,,,,,,,,instruct,,,32,,,,,,,,,,,,,,,,,,,,
2651.3000000715256,,intro_2,1469384,,,,,,,,instruct,,,32,,,,,,,,,,,,,,,,,,,,
,,intro_3,1474979,,,,,,,,instruct,,,,,,,,,,,,,,,,,,,,,,,
1514.4000000953674,,intro_4,1476495,,,,,,,,instruct,,,32,,,,,,,,,,,,,,,,,,,,
3022.600000023842,,inference_phase,1479524,,,,,,,,object_08c.png,,,51,object_09b.png,object_01c.png,0,,,,,object_02b.png,,0,,,object_02b.png,,,,,,,
2479.2999999523163,,inference_phase,1482010,,,,,,,,object_11c.png,,,49,object_01b.png,object_01a.png,0,,,,,object_06a.png,,0,,,object_06a.png,,,,,,,
2128.899999976158,,inference_phase,1484141,,,,,,,,object_12b.png,,,50,object_11b.png,object_02c.png,0,,,,,object_02c.png,,0,,,object_01c.png,,,,,,,
2239.1999999284744,,inference_phase,1486382,,,,,,,,object_15b.png,,,51,object_01b.png,object_12c.png,0,,,,,object_01b.png,,0,,,object_06a.png,,,,,,,
1713.1000000238419,,inference_phase,1488097,,,,,,,,object_13b.png,,,49,object_08a.png,object_12a.png,0,,,,,object_12c.png,,0,,,object_12c.png,,,,,,,
2895.5999999046326,,inference_phase,1490994,,,,,,,,object_11a.png,,,51,object_11b.png,object_01c.png,1,,,,,object_01c.png,,0.16666666666666666,,,object_02c.png,,,,,,,
3339.600000023842,,inference_phase,1494341,,,,,,,,object_05c.png,,,51,object_06a.png,object_01a.png,0,,,,,object_07a.png,,0.14285714285714285,,,object_07a.png,,,,,,,
1498.6000000238419,,inference_phase,1495841,,,,,,,,object_15a.png,,,50,object_12a.png,object_01c.png,0,,,,,object_12a.png,,0.125,,,object_07a.png,,,,,,,
2808.2000000476837,,inference_phase,1498652,,,,,,,,object_09c.png,,,50,object_08a.png,object_01b.png,0,,,,,object_08a.png,,0.1111111111111111,,,object_11b.png,,,,,,,
2452.399999976158,,inference_phase,1501106,,,,,,,,object_06c.png,,,50,object_07a.png,object_12c.png,1,,,,,object_09b.png,,0.2,,,object_09b.png,,,,,,,
2322.4000000953674,,inference_phase,1503431,,,,,,,,object_07c.png,,,50,object_10a.png,object_12c.png,0,,,,,object_10a.png,,0.18181818181818182,,,object_01c.png,,,,,,,
2520,,inference_phase,1505953,,,,,,,,object_09a.png,,,51,object_09b.png,object_01c.png,0,,,,,object_11b.png,,0.16666666666666666,,,object_11b.png,,,,,,,
1871.6000000238419,,inference_phase,1507827,,,,,,,,object_03c.png,,,51,object_15c.png,object_02b.png,0,,,,,object_15c.png,,0.15384615384615385,,,object_11b.png,,,,,,,
2238,,inference_phase,1510067,,,,,,,,object_03a.png,,,51,object_01a.png,object_12c.png,0,,,,,object_01a.png,,0.14285714285714285,,,object_02c.png,,,,,,,
2014,,inference_phase,1512083,,,,,,,,object_14c.png,,,49,object_01c.png,object_10a.png,0,,,,,object_04b.png,,0.13333333333333333,,,object_04b.png,,,,,,,
,,survey,1608079,,,,,,,,survey-questions,,,,,,,,,,,,,,,,,none,high,No,I monitored the pairs very closely, hence I did not find difficulty locating them.,I believe they were all equal.,No,N/A
