rt,responses,trial_type,time_elapsed,identifier_a,identifier_b,identifier_c,tasktype,browser_type,local_time,UTC_time,stimulus,button_pressed,response,key_press,stimulus_left,stimulus_right,practice_cumulative_accuracy,accuracy,stimulus_down_left,stimulus_down_mid,stimulus_down_right,stimulus_correct,prac_weighted_accuracy,cumulative_accuracy,failed_practice
9355.79999999702,{worker_id:667b59425036fd43892ca528},id_enter,9358,object_02b.png; object_10a.png; object_15c.png; object_02c.png; object_01c.png; object_07c.png; object_10c.png; object_01b.png; object_14b.png; object_12b.png; object_11b.png; object_08a.png; object_15a.png; object_14c.png; object_07a.png,object_02a.png; object_13b.png; object_09c.png; object_14a.png; object_08c.png; object_07b.png; object_03a.png; object_04b.png; object_08b.png; object_04c.png; object_15b.png; object_03c.png; object_06a.png; object_06b.png; object_10b.png,object_06c.png; object_11a.png; object_04a.png; object_09b.png; object_13a.png; object_05b.png; object_12a.png; object_05a.png; object_09a.png; object_05c.png; object_03b.png; object_01a.png; object_12c.png; object_13c.png; object_11c.png,blocked,Mozilla/5.0 (Windows NT 10.0; Win64; x64) AppleWebKit/537.36 (KHTML, like Gecko) Chrome/136.0.0.0 Safari/537.36,5/11/2025, 4:32:33 PM,2025-05-11 23:32:33.876,,,,,,,,,,,,,,,
18763.20000000298,,make_fullscreen,28141,,,,,,,,fullscreen,0,,,,,,,,,,,,,
2974,,instruct_1,31116,,,,,,,,instruct,0,Next,,,,,,,,,,,,
15230.29999999702,,instruct_2,46348,,,,,,,,instruct,0,Previous,,,,,,,,,,,,
4151.10000000149,,instruct_1,50500,,,,,,,,instruct,0,Next,,,,,,,,,,,,
1614.8999999985099,,instruct_2,52116,,,,,,,,instruct,1,Next,,,,,,,,,,,,
10382.89999999851,,instruct_3,62500,,,,,,,,instruct,1,Next,,,,,,,,,,,,
53118.39999999851,,instruct_4,115620,,,,,,,,instruct,1,Next,,,,,,,,,,,,
14214.59999999404,,instruct_5,129836,,,,,,,,instruct,1,Next,,,,,,,,,,,,
6710.89999999851,,instruct_6,136548,,,,,,,,instruct,1,Next,,,,,,,,,,,,
41118.39999999851,,instruct_7,177667,,,,,,,,instruct,1,Next,,,,,,,,,,,,
null,,prac_atten_color_black,178615,,,,,,,,black_plus_sign,,,null,,,,,,,,,,,
null,,prac_atten_color,179074,,,,,,,,<p style='position:absolute;top: 50%;right: 50%;transform: translate(50%, -50%);font-size: 125px;color: blue;'>+</p>,,,null,,,,,,,,,,,
null,,prac_atten_color_black,181077,,,,,,,,black_plus_sign,,,null,,,,,,,,,,,
8708,,attentioncheck_help,189786,,,,,,,,instruct,,,32,,,,,,,,,,,
null,,prac_atten_color_black,190732,,,,,,,,black_plus_sign,,,null,,,,,,,,,,,
null,,prac_atten_color,191551,,,,,,,,<p style='position:absolute;top: 50%;right: 50%;transform: translate(50%, -50%);font-size: 125px;color: green;'>+</p>,,,null,,,,,,,,,,,
120.70000000298023,,prac_atten_color_black,193553,,,,,,,,black_plus_sign,,,50,,,,,,,,,,,
null,,prac_atten_color_black,194139,,,,,,,,black_plus_sign,,,null,,,,,,,,,,,
null,,prac_atten_color,194791,,,,,,,,<p style='position:absolute;top: 50%;right: 50%;transform: translate(50%, -50%);font-size: 125px;color: green;'>+</p>,,,null,,,,,,,,,,,
417.80000000447035,,prac_atten_color_black,196792,,,,,,,,black_plus_sign,,,50,,,,,,,,,,,
null,,prac_atten_color_black,197545,,,,,,,,black_plus_sign,,,null,,,,,,,,,,,
759.1000000014901,,prac_atten_color,198469,,,,,,,,<p style='position:absolute;top: 50%;right: 50%;transform: translate(50%, -50%);font-size: 125px;color: blue;'>+</p>,,,50,,,,,,,,,,,
null,,prac_atten_color_black,200471,,,,,,,,black_plus_sign,,,null,,,,,,,,,,,
10833,,attentioncheck_help,211305,,,,,,,,instruct,,,32,,,,,,,,,,,
null,,prac_atten_color_black,211785,,,,,,,,black_plus_sign,,,null,,,,,,,,,,,
null,,prac_atten_color,212315,,,,,,,,<p style='position:absolute;top: 50%;right: 50%;transform: translate(50%, -50%);font-size: 125px;color: green;'>+</p>,,,null,,,,,,,,,,,
332.69999999552965,,prac_atten_color_black,214317,,,,,,,,black_plus_sign,,,50,,,,,,,,,,,
null,,prac_atten_color_black,215192,,,,,,,,black_plus_sign,,,null,,,,,,,,,,,
null,,prac_atten_color,216070,,,,,,,,<p style='position:absolute;top: 50%;right: 50%;transform: translate(50%, -50%);font-size: 125px;color: green;'>+</p>,,,null,,,,,,,,,,,
554,,prac_atten_color_black,218071,,,,,,,,black_plus_sign,,,49,,,,,,,,,,,
4952,,attentioncheck_help,223025,,,,,,,,instruct,,,32,,,,,,,,,,,
null,,prac_atten_color_black,223550,,,,,,,,black_plus_sign,,,null,,,,,,,,,,,
null,,prac_atten_color,223966,,,,,,,,<p style='position:absolute;top: 50%;right: 50%;transform: translate(50%, -50%);font-size: 125px;color: blue;'>+</p>,,,null,,,,,,,,,,,
834.3999999985099,,prac_atten_color_black,225967,,,,,,,,black_plus_sign,,,49,,,,,,,,,,,
null,,prac_atten_color_black,226957,,,,,,,,black_plus_sign,,,null,,,,,,,,,,,
null,,prac_atten_color,227574,,,,,,,,<p style='position:absolute;top: 50%;right: 50%;transform: translate(50%, -50%);font-size: 125px;color: green;'>+</p>,,,null,,,,,,,,,,,
25.399999998509884,,prac_atten_color_black,229576,,,,,,,,black_plus_sign,,,50,,,,,,,,,,,
null,,prac_atten_color_black,230362,,,,,,,,black_plus_sign,,,null,,,,,,,,,,,
837.3999999985099,,prac_atten_color,231296,,,,,,,,<p style='position:absolute;top: 50%;right: 50%;transform: translate(50%, -50%);font-size: 125px;color: blue;'>+</p>,,,49,,,,,,,,,,,
null,,prac_atten_color_black,233297,,,,,,,,black_plus_sign,,,null,,,,,,,,,,,
null,,prac_atten_color_black,233769,,,,,,,,black_plus_sign,,,null,,,,,,,,,,,
null,,prac_atten_color,234389,,,,,,,,<p style='position:absolute;top: 50%;right: 50%;transform: translate(50%, -50%);font-size: 125px;color: blue;'>+</p>,,,null,,,,,,,,,,,
283.6000000014901,,prac_atten_color_black,236391,,,,,,,,black_plus_sign,,,49,,,,,,,,,,,
11106.20000000298,,attentioncheck_feedback,247499,,,,,,,,cross_check_feedback,0,,,,,,,,,,,,,
16861.20000000298,,last_instruct,264361,,,,,,,,instruct,,,32,,,,,,,,,,,
null,,prac_learn_phase(without_color),267863,,,,,,,,black_plus_sign,,,null,object_14c.png,object_06b.png,,,,,,,,,
null,,prac_black_cross(without_color),268718,,,,,,,,green,,,null,object_14c.png,object_06b.png,,,,,,,,,
null,,prac_rt_plussign_withcolor,269220,,,,,,,,green,,,null,object_14c.png,object_06b.png,,,,,,,,,
null,,prac_rt_thecrossant_black,270369,,,,,,,,black_plus_sign,,,null,,,NaN,,,,,,,,
null,,prac_color_black,270471,,,,,,,,black_plus_sign,,,null,,,,,,,,,,,
null,,prac_learn_phase(without_color),273974,,,,,,,,black_plus_sign,,,null,object_14b.png,object_08b.png,,,,,,,,,
null,,black_cross(without_color)1,274552,,,,,,,,blue,,,null,object_14c.png,object_06b.png,,,,,,,,,
null,,prac_rt_plussign_withcolor,275059,,,,,,,,green,,,null,object_14b.png,object_08b.png,,,,,,,,,
null,,prac_rt_thecrossant_black,276545,,,,,,,,black_plus_sign,,,null,,,NaN,,,,,,,,
null,,warning_page,281548,,,,,,,,warning,,,null,,,,,,,,,,,
null,,prac_color_black,281649,,,,,,,,black_plus_sign,,,null,,,,,,,,,,,
null,,prac_learn_phase(without_color),285153,,,,,,,,black_plus_sign,,,null,object_07a.png,object_10b.png,,,,,,,,,
null,,black_cross(without_color)1,285729,,,,,,,,blue,,,null,object_14c.png,object_06b.png,,,,,,,,,
null,,prac_rt_plussign_withcolor,286230,,,,,,,,blue,,,null,object_07a.png,object_10b.png,,,,,,,,,
null,,prac_rt_thecrossant_black,287257,,,,,,,,black_plus_sign,,,null,,,NaN,,,,,,,,
null,,warning_page,292259,,,,,,,,warning,,,null,,,,,,,,,,,
null,,prac_color_black,292361,,,,,,,,black_plus_sign,,,null,,,,,,,,,,,
null,,prac_learn_phase(without_color),295863,,,,,,,,black_plus_sign,,,null,object_02c.png,object_14a.png,,,,,,,,,
null,,black_cross(without_color)1,296439,,,,,,,,blue,,,null,object_14c.png,object_06b.png,,,,,,,,,
null,,prac_rt_plussign_withcolor,296940,,,,,,,,blue,,,null,object_02c.png,object_14a.png,,,,,,,,,
1373.7999999970198,,prac_rt_thecrossant_black,298235,,,,,,,,black_plus_sign,,,49,,,1,1,,,,,,,
null,,prac_color_black,298348,,,,,,,,black_plus_sign,,,null,,,,,,,,,,,
38491.89999999851,,instruct_dir_01,336842,,,,,,,,instruct,0,Next,,,,,,,,,,,,
26342.79999999702,,instruct_dir_2,363186,,,,,,,,instruct,1,Next,,,,,,,,,,,,
12446.60000000149,,instruct_dir_3,375633,,,,,,,,instruct,1,Next,,,,,,,,,,,,
15838.90000000596,,instruct_dir_4,391474,,,,,,,,instruct,1,Start,,,,,,,,,,,,
null,,thebreak,391575,,,,,,,,<p></p>,,,null,,,,,,,,,,,
3879.39999999851,,intro_0,395455,,,,,,,,instruct,,,32,,,,,,,,,,,
null,,prac_directmemory_phase,410457,,,,,,,,practice/object_01b.png,,,null,,,,0,practice/object_01a.png,practice/object_03a.png,practice/object_04a.png,practice/object_01a.png,0,0,
null,,warning_page,415460,,,,,,,,warning,,,null,,,,,,,,,,,
5170,,prac_directmemory_phase,420631,,,,,,,,practice/object_02b.png,,,50,,,,0,practice/object_03a.png,practice/object_01a.png,practice/object_02a.png,practice/object_02a.png,0,0,
5597.29999999702,,prac_directmemory_phase,426231,,,,,,,,practice/object_04b.png,,,49,,,,1,practice/object_04a.png,practice/object_01a.png,practice/object_03a.png,practice/object_04a.png,1,0.3333333333333333,
10598.09999999404,,prac_directmemory_phase,436831,,,,,,,,practice/object_03b.png,,,50,,,,1,practice/object_04a.png,practice/object_03a.png,practice/object_02a.png,practice/object_03a.png,1,0.5,
8936,,practice_feedback_force_restart,445769,,,,,,,,practice_feedback,0,,,,,,,,,,,,,1
14485,,last_instruct,460255,,,,,,,,instruct,,,32,,,,,,,,,,,
null,,prac_learn_phase(without_color),463757,,,,,,,,black_plus_sign,,,null,object_14c.png,object_06b.png,,,,,,,,,
null,,prac_black_cross(without_color),464420,,,,,,,,green,,,null,object_14c.png,object_06b.png,,,,,,,,,
null,,prac_rt_plussign_withcolor,464921,,,,,,,,green,,,null,object_14c.png,object_06b.png,,,,,,,,,
1754.3999999985099,,prac_rt_thecrossant_black,466262,,,,,,,,black_plus_sign,,,50,,,1,1,,,,,,,
null,,prac_color_black,466364,,,,,,,,black_plus_sign,,,null,,,,,,,,,,,
null,,prac_learn_phase(without_color),469866,,,,,,,,black_plus_sign,,,null,object_14b.png,object_08b.png,,,,,,,,,
null,,black_cross(without_color)1,470444,,,,,,,,blue,,,null,object_14c.png,object_06b.png,,,,,,,,,
null,,prac_rt_plussign_withcolor,470946,,,,,,,,green,,,null,object_14b.png,object_08b.png,,,,,,,,,
892.8999999985099,,prac_rt_thecrossant_black,472133,,,,,,,,black_plus_sign,,,50,,,1,1,,,,,,,
null,,prac_color_black,472235,,,,,,,,black_plus_sign,,,null,,,,,,,,,,,
null,,prac_learn_phase(without_color),475736,,,,,,,,black_plus_sign,,,null,object_07a.png,object_10b.png,,,,,,,,,
null,,black_cross(without_color)1,476313,,,,,,,,blue,,,null,object_14c.png,object_06b.png,,,,,,,,,
null,,prac_rt_plussign_withcolor,476815,,,,,,,,blue,,,null,object_07a.png,object_10b.png,,,,,,,,,
1177.8000000044703,,prac_rt_thecrossant_black,477973,,,,,,,,black_plus_sign,,,49,,,1,1,,,,,,,
null,,prac_color_black,478075,,,,,,,,black_plus_sign,,,null,,,,,,,,,,,
null,,prac_learn_phase(without_color),481579,,,,,,,,black_plus_sign,,,null,object_02c.png,object_14a.png,,,,,,,,,
null,,black_cross(without_color)1,482156,,,,,,,,blue,,,null,object_14c.png,object_06b.png,,,,,,,,,
null,,prac_rt_plussign_withcolor,482658,,,,,,,,blue,,,null,object_02c.png,object_14a.png,,,,,,,,,
978.3000000044703,,prac_rt_thecrossant_black,484188,,,,,,,,black_plus_sign,,,49,,,1,1,,,,,,,
null,,prac_color_black,484290,,,,,,,,black_plus_sign,,,null,,,,,,,,,,,
29581.20000000298,,instruct_dir_01,513872,,,,,,,,instruct,0,Next,,,,,,,,,,,,
8702.89999999851,,instruct_dir_2,522576,,,,,,,,instruct,1,Next,,,,,,,,,,,,
9662.5,,instruct_dir_3,532240,,,,,,,,instruct,1,Next,,,,,,,,,,,,
5415.30000000447,,instruct_dir_4,537656,,,,,,,,instruct,1,Start,,,,,,,,,,,,
null,,thebreak,537763,,,,,,,,<p></p>,,,null,,,,,,,,,,,
2753.89999999851,,intro_0,540518,,,,,,,,instruct,,,32,,,,,,,,,,,
5518.89999999851,,prac_directmemory_phase,546038,,,,,,,,practice/object_01b.png,,,49,,,,1,practice/object_01a.png,practice/object_03a.png,practice/object_04a.png,practice/object_01a.png,1,1,
2518.89999999851,,prac_directmemory_phase,548558,,,,,,,,practice/object_02b.png,,,50,,,,0,practice/object_03a.png,practice/object_01a.png,practice/object_02a.png,practice/object_02a.png,0,0.5,
2213.7999999970198,,prac_directmemory_phase,550774,,,,,,,,practice/object_04b.png,,,49,,,,1,practice/object_04a.png,practice/object_01a.png,practice/object_03a.png,practice/object_04a.png,1,0.6666666666666666,
1742,,prac_directmemory_phase,552518,,,,,,,,practice/object_03b.png,,,51,,,,0,practice/object_04a.png,practice/object_03a.png,practice/object_02a.png,practice/object_03a.png,0,0.5,
4376.10000000149,,practice_feedback_force_restart,556896,,,,,,,,practice_feedback,0,,,,,,,,,,,,,2
2373.60000000149,,last_instruct,559270,,,,,,,,instruct,,,32,,,,,,,,,,,
null,,prac_learn_phase(without_color),562772,,,,,,,,black_plus_sign,,,null,object_14c.png,object_06b.png,,,,,,,,,
null,,prac_black_cross(without_color),563696,,,,,,,,green,,,null,object_14c.png,object_06b.png,,,,,,,,,
null,,prac_rt_plussign_withcolor,564198,,,,,,,,green,,,null,object_14c.png,object_06b.png,,,,,,,,,
null,,prac_rt_thecrossant_black,565278,,,,,,,,black_plus_sign,,,null,,,1,,,,,,,,
null,,prac_color_black,565379,,,,,,,,black_plus_sign,,,null,,,,,,,,,,,
null,,prac_learn_phase(without_color),568883,,,,,,,,black_plus_sign,,,null,object_14b.png,object_08b.png,,,,,,,,,
null,,black_cross(without_color)1,569460,,,,,,,,blue,,,null,object_14c.png,object_06b.png,,,,,,,,,
null,,prac_rt_plussign_withcolor,569962,,,,,,,,green,,,null,object_14b.png,object_08b.png,,,,,,,,,
1472.7000000029802,,prac_rt_thecrossant_black,571182,,,,,,,,black_plus_sign,,,50,,,1,1,,,,,,,
null,,prac_color_black,571284,,,,,,,,black_plus_sign,,,null,,,,,,,,,,,
null,,prac_learn_phase(without_color),574787,,,,,,,,black_plus_sign,,,null,object_07a.png,object_10b.png,,,,,,,,,
null,,black_cross(without_color)1,575363,,,,,,,,blue,,,null,object_14c.png,object_06b.png,,,,,,,,,
null,,prac_rt_plussign_withcolor,575865,,,,,,,,blue,,,null,object_07a.png,object_10b.png,,,,,,,,,
1597.4000000059605,,prac_rt_thecrossant_black,577210,,,,,,,,black_plus_sign,,,49,,,1,1,,,,,,,
null,,prac_color_black,577312,,,,,,,,black_plus_sign,,,null,,,,,,,,,,,
null,,prac_learn_phase(without_color),580814,,,,,,,,black_plus_sign,,,null,object_02c.png,object_14a.png,,,,,,,,,
null,,black_cross(without_color)1,581391,,,,,,,,blue,,,null,object_14c.png,object_06b.png,,,,,,,,,
null,,prac_rt_plussign_withcolor,581892,,,,,,,,blue,,,null,object_02c.png,object_14a.png,,,,,,,,,
1077.1000000014901,,prac_rt_thecrossant_black,583297,,,,,,,,black_plus_sign,,,49,,,1,1,,,,,,,
null,,prac_color_black,583399,,,,,,,,black_plus_sign,,,null,,,,,,,,,,,
15758.79999999702,,instruct_dir_01,599160,,,,,,,,instruct,0,Next,,,,,,,,,,,,
5229.30000000447,,instruct_dir_2,604391,,,,,,,,instruct,1,Next,,,,,,,,,,,,
9854.70000000298,,instruct_dir_3,614247,,,,,,,,instruct,1,Next,,,,,,,,,,,,
12366.89999999851,,instruct_dir_4,626615,,,,,,,,instruct,1,Start,,,,,,,,,,,,
null,,thebreak,626717,,,,,,,,<p></p>,,,null,,,,,,,,,,,
2815.60000000149,,intro_0,629533,,,,,,,,instruct,,,32,,,,,,,,,,,
11799,,prac_directmemory_phase,641334,,,,,,,,practice/object_01b.png,,,50,,,,0,practice/object_01a.png,practice/object_03a.png,practice/object_04a.png,practice/object_01a.png,0,0,
3877.5,,prac_directmemory_phase,645213,,,,,,,,practice/object_02b.png,,,49,,,,0,practice/object_03a.png,practice/object_01a.png,practice/object_02a.png,practice/object_02a.png,0,0,
2973.8000000044703,,prac_directmemory_phase,648189,,,,,,,,practice/object_04b.png,,,51,,,,0,practice/object_04a.png,practice/object_01a.png,practice/object_03a.png,practice/object_04a.png,0,0,
3061.5,,prac_directmemory_phase,651253,,,,,,,,practice/object_03b.png,,,50,,,,1,practice/object_04a.png,practice/object_03a.png,practice/object_02a.png,practice/object_03a.png,1,0.25,
