rt,responses,trial_type,time_elapsed,identifier_a,identifier_b,identifier_c,tasktype,browser_type,local_time,UTC_time,stimulus,button_pressed,response,key_press,stimulus_left,stimulus_right,accuracy,practice_cumulative_accuracy,stimulus_down_left,stimulus_down_mid,stimulus_down_right,stimulus_correct,prac_weighted_accuracy,cumulative_accuracy,failed_practice
16048.59999999404,{worker_id:67105e698f7df6c2eb1b9137},id_enter,16051,object_01a.png; object_06b.png; object_07c.png; object_15c.png; object_01b.png; object_03b.png; object_09b.png; object_04a.png; object_04b.png; object_13a.png; object_13b.png; object_02a.png; object_02c.png; object_09a.png; object_08a.png,object_06a.png; object_10a.png; object_12a.png; object_10b.png; object_08b.png; object_04c.png; object_06c.png; object_09c.png; object_02b.png; object_07a.png; object_07b.png; object_14b.png; object_14a.png; object_15a.png; object_05c.png,object_14c.png; object_05a.png; object_15b.png; object_11b.png; object_13c.png; object_12b.png; object_12c.png; object_01c.png; object_10c.png; object_03c.png; object_11c.png; object_05b.png; object_03a.png; object_08c.png; object_11a.png,interleaved,Mozilla/5.0 (Windows NT 10.0; Win64; x64) AppleWebKit/537.36 (KHTML, like Gecko) Chrome/136.0.0.0 Safari/537.36,5/8/2025, 2:56:43 PM,2025-05-08 18:56:43.086,,,,,,,,,,,,,,,
5137.899999991059,,make_fullscreen,21207,,,,,,,,fullscreen,0,,,,,,,,,,,,,
22135.59999999404,,instruct_1,43344,,,,,,,,instruct,0,Next,,,,,,,,,,,,
5900.29999999702,,instruct_2,49246,,,,,,,,instruct,1,Next,,,,,,,,,,,,
5643.800000011921,,instruct_3,54891,,,,,,,,instruct,1,Next,,,,,,,,,,,,
10024.60000000894,,instruct_4,64917,,,,,,,,instruct,1,Next,,,,,,,,,,,,
6910.5,,instruct_5,71828,,,,,,,,instruct,1,Next,,,,,,,,,,,,
2489.7000000029802,,instruct_6,74319,,,,,,,,instruct,1,Next,,,,,,,,,,,,
15524.5,,instruct_7,89845,,,,,,,,instruct,1,Next,,,,,,,,,,,,
null,,prac_atten_color_black,90551,,,,,,,,black_plus_sign,,,null,,,,,,,,,,,
null,,prac_atten_color,91250,,,,,,,,<p style='position:absolute;top: 50%;right: 50%;transform: translate(50%, -50%);font-size: 125px;color: blue;'>+</p>,,,null,,,,,,,,,,,
148.5,,prac_atten_color_black,93252,,,,,,,,black_plus_sign,,,50,,,,,,,,,,,
2989.7999999970198,,attentioncheck_help,96243,,,,,,,,instruct,,,32,,,,,,,,,,,
null,,prac_atten_color_black,96948,,,,,,,,black_plus_sign,,,null,,,,,,,,,,,
501.20000000298023,,prac_atten_color,97955,,,,,,,,<p style='position:absolute;top: 50%;right: 50%;transform: translate(50%, -50%);font-size: 125px;color: green;'>+</p>,,,50,,,,,,,,,,,
null,,prac_atten_color_black,99957,,,,,,,,black_plus_sign,,,null,,,,,,,,,,,
null,,prac_atten_color_black,100357,,,,,,,,black_plus_sign,,,null,,,,,,,,,,,
500.90000000596046,,prac_atten_color,101087,,,,,,,,<p style='position:absolute;top: 50%;right: 50%;transform: translate(50%, -50%);font-size: 125px;color: green;'>+</p>,,,50,,,,,,,,,,,
null,,prac_atten_color_black,103090,,,,,,,,black_plus_sign,,,null,,,,,,,,,,,
null,,prac_atten_color_black,103764,,,,,,,,black_plus_sign,,,null,,,,,,,,,,,
608.0999999940395,,prac_atten_color,104723,,,,,,,,<p style='position:absolute;top: 50%;right: 50%;transform: translate(50%, -50%);font-size: 125px;color: blue;'>+</p>,,,49,,,,,,,,,,,
null,,prac_atten_color_black,106726,,,,,,,,black_plus_sign,,,null,,,,,,,,,,,
null,,prac_atten_color_black,107172,,,,,,,,black_plus_sign,,,null,,,,,,,,,,,
550.0999999940395,,prac_atten_color,108194,,,,,,,,<p style='position:absolute;top: 50%;right: 50%;transform: translate(50%, -50%);font-size: 125px;color: green;'>+</p>,,,50,,,,,,,,,,,
null,,prac_atten_color_black,110195,,,,,,,,black_plus_sign,,,null,,,,,,,,,,,
null,,prac_atten_color_black,110578,,,,,,,,black_plus_sign,,,null,,,,,,,,,,,
null,,prac_atten_color,110986,,,,,,,,<p style='position:absolute;top: 50%;right: 50%;transform: translate(50%, -50%);font-size: 125px;color: green;'>+</p>,,,null,,,,,,,,,,,
220.09999999403954,,prac_atten_color_black,112988,,,,,,,,black_plus_sign,,,49,,,,,,,,,,,
5265.29999999702,,attentioncheck_help,118255,,,,,,,,instruct,,,32,,,,,,,,,,,
null,,prac_atten_color_black,119251,,,,,,,,black_plus_sign,,,null,,,,,,,,,,,
554.9000000059605,,prac_atten_color,119943,,,,,,,,<p style='position:absolute;top: 50%;right: 50%;transform: translate(50%, -50%);font-size: 125px;color: blue;'>+</p>,,,49,,,,,,,,,,,
null,,prac_atten_color_black,121945,,,,,,,,black_plus_sign,,,null,,,,,,,,,,,
null,,prac_atten_color_black,122659,,,,,,,,black_plus_sign,,,null,,,,,,,,,,,
464.8999999910593,,prac_atten_color,123349,,,,,,,,<p style='position:absolute;top: 50%;right: 50%;transform: translate(50%, -50%);font-size: 125px;color: green;'>+</p>,,,50,,,,,,,,,,,
null,,prac_atten_color_black,125350,,,,,,,,black_plus_sign,,,null,,,,,,,,,,,
null,,prac_atten_color_black,126065,,,,,,,,black_plus_sign,,,null,,,,,,,,,,,
501,,prac_atten_color,126699,,,,,,,,<p style='position:absolute;top: 50%;right: 50%;transform: translate(50%, -50%);font-size: 125px;color: blue;'>+</p>,,,49,,,,,,,,,,,
null,,prac_atten_color_black,128701,,,,,,,,black_plus_sign,,,null,,,,,,,,,,,
null,,prac_atten_color_black,129471,,,,,,,,black_plus_sign,,,null,,,,,,,,,,,
641.1000000089407,,prac_atten_color,130167,,,,,,,,<p style='position:absolute;top: 50%;right: 50%;transform: translate(50%, -50%);font-size: 125px;color: blue;'>+</p>,,,49,,,,,,,,,,,
null,,prac_atten_color_black,132169,,,,,,,,black_plus_sign,,,null,,,,,,,,,,,
4786.9000000059605,,attentioncheck_feedback,136958,,,,,,,,cross_check_feedback,0,,,,,,,,,,,,,
25513.5,,last_instruct,162473,,,,,,,,instruct,,,32,,,,,,,,,,,
null,,prac_learn_phase(without_color),165975,,,,,,,,black_plus_sign,,,null,object_02a.png,object_14b.png,,,,,,,,,
null,,prac_black_cross(without_color),166551,,,,,,,,blue,,,null,object_02a.png,object_14b.png,,,,,,,,,
null,,prac_rt_plussign_withcolor,167053,,,,,,,,blue,,,null,object_02a.png,object_14b.png,,,,,,,,,
825.3999999910593,,prac_rt_thecrossant_black,168491,,,,,,,,black_plus_sign,,,49,,,1,1,,,,,,,
null,,prac_color_black,168593,,,,,,,,black_plus_sign,,,null,,,,,,,,,,,
null,,prac_learn_phase(without_color),172096,,,,,,,,black_plus_sign,,,null,object_04c.png,object_12b.png,,,,,,,,,
null,,black_cross(without_color)1,172567,,,,,,,,blue,,,null,object_02a.png,object_14b.png,,,,,,,,,
null,,prac_rt_plussign_withcolor,173069,,,,,,,,blue,,,null,object_04c.png,object_12b.png,,,,,,,,,
1066.7000000029802,,prac_rt_thecrossant_black,174176,,,,,,,,black_plus_sign,,,49,,,1,1,,,,,,,
null,,prac_color_black,174278,,,,,,,,black_plus_sign,,,null,,,,,,,,,,,
null,,prac_learn_phase(without_color),177780,,,,,,,,black_plus_sign,,,null,object_12a.png,object_15b.png,,,,,,,,,
null,,black_cross(without_color)1,178251,,,,,,,,blue,,,null,object_02a.png,object_14b.png,,,,,,,,,
507.09999999403954,,prac_rt_plussign_withcolor,178760,,,,,,,,blue,,,49,object_12a.png,object_15b.png,,,,,,,,,
null,,prac_rt_thecrossant_black,179962,,,,,,,,black_plus_sign,,,null,,,1,1,,,,,,,
null,,prac_color_black,180064,,,,,,,,black_plus_sign,,,null,,,,,,,,,,,
null,,prac_learn_phase(without_color),183567,,,,,,,,black_plus_sign,,,null,object_01b.png,object_08b.png,,,,,,,,,
null,,black_cross(without_color)1,184038,,,,,,,,blue,,,null,object_02a.png,object_14b.png,,,,,,,,,
null,,prac_rt_plussign_withcolor,184540,,,,,,,,blue,,,null,object_01b.png,object_08b.png,,,,,,,,,
928.3999999910593,,prac_rt_thecrossant_black,185462,,,,,,,,black_plus_sign,,,49,,,1,1,,,,,,,
null,,prac_color_black,185565,,,,,,,,black_plus_sign,,,null,,,,,,,,,,,
2954,,instruct_dir_01,188521,,,,,,,,instruct,0,Next,,,,,,,,,,,,
3148.2999999970198,,instruct_dir_2,191671,,,,,,,,instruct,1,Next,,,,,,,,,,,,
2941.5,,instruct_dir_3,194613,,,,,,,,instruct,1,Next,,,,,,,,,,,,
8541.90000000596,,instruct_dir_4,203157,,,,,,,,instruct,1,Start,,,,,,,,,,,,
null,,thebreak,203258,,,,,,,,<p></p>,,,null,,,,,,,,,,,
1083.5,,intro_0,204343,,,,,,,,instruct,,,32,,,,,,,,,,,
2975.7999999970198,,prac_directmemory_phase,207320,,,,,,,,practice/object_01b.png,,,49,,,0,,practice/object_02a.png,practice/object_01a.png,practice/object_03a.png,practice/object_01a.png,0,0,
1815.2999999970198,,prac_directmemory_phase,209139,,,,,,,,practice/object_03b.png,,,49,,,1,,practice/object_03a.png,practice/object_04a.png,practice/object_01a.png,practice/object_03a.png,1,0.5,
3358.5,,prac_directmemory_phase,212500,,,,,,,,practice/object_02b.png,,,50,,,0,,practice/object_02a.png,practice/object_01a.png,practice/object_03a.png,practice/object_02a.png,0,0.3333333333333333,
2652.8999999910593,,prac_directmemory_phase,215155,,,,,,,,practice/object_04b.png,,,49,,,1,,practice/object_04a.png,practice/object_01a.png,practice/object_02a.png,practice/object_04a.png,1,0.5,
6394.0999999940395,,practice_feedback_force_restart,221551,,,,,,,,practice_feedback,0,,,,,,,,,,,,,1
9627.89999999106,,last_instruct,231180,,,,,,,,instruct,,,32,,,,,,,,,,,
null,,prac_learn_phase(without_color),234681,,,,,,,,black_plus_sign,,,null,object_02a.png,object_14b.png,,,,,,,,,
null,,prac_black_cross(without_color),235470,,,,,,,,blue,,,null,object_02a.png,object_14b.png,,,,,,,,,
null,,prac_rt_plussign_withcolor,235972,,,,,,,,blue,,,null,object_02a.png,object_14b.png,,,,,,,,,
null,,prac_rt_thecrossant_black,237200,,,,,,,,black_plus_sign,,,null,,,,1,,,,,,,
null,,prac_color_black,237302,,,,,,,,black_plus_sign,,,null,,,,,,,,,,,
null,,prac_learn_phase(without_color),240805,,,,,,,,black_plus_sign,,,null,object_04c.png,object_12b.png,,,,,,,,,
null,,black_cross(without_color)1,241275,,,,,,,,blue,,,null,object_02a.png,object_14b.png,,,,,,,,,
null,,prac_rt_plussign_withcolor,241777,,,,,,,,blue,,,null,object_04c.png,object_12b.png,,,,,,,,,
907.7000000029802,,prac_rt_thecrossant_black,242895,,,,,,,,black_plus_sign,,,49,,,1,1,,,,,,,
null,,prac_color_black,242997,,,,,,,,black_plus_sign,,,null,,,,,,,,,,,
null,,prac_learn_phase(without_color),246500,,,,,,,,black_plus_sign,,,null,object_12a.png,object_15b.png,,,,,,,,,
null,,black_cross(without_color)1,246971,,,,,,,,blue,,,null,object_02a.png,object_14b.png,,,,,,,,,
null,,prac_rt_plussign_withcolor,247473,,,,,,,,blue,,,null,object_12a.png,object_15b.png,,,,,,,,,
1151.1000000089407,,prac_rt_thecrossant_black,248404,,,,,,,,black_plus_sign,,,49,,,1,1,,,,,,,
null,,prac_color_black,248507,,,,,,,,black_plus_sign,,,null,,,,,,,,,,,
null,,prac_learn_phase(without_color),252010,,,,,,,,black_plus_sign,,,null,object_01b.png,object_08b.png,,,,,,,,,
null,,black_cross(without_color)1,252481,,,,,,,,blue,,,null,object_02a.png,object_14b.png,,,,,,,,,
463.19999998807907,,prac_rt_plussign_withcolor,252982,,,,,,,,blue,,,49,object_01b.png,object_08b.png,,,,,,,,,
null,,prac_rt_thecrossant_black,254552,,,,,,,,black_plus_sign,,,null,,,1,1,,,,,,,
null,,prac_color_black,254655,,,,,,,,black_plus_sign,,,null,,,,,,,,,,,
1910.7000000029802,,instruct_dir_01,256567,,,,,,,,instruct,0,Next,,,,,,,,,,,,
1116.2999999970198,,instruct_dir_2,257685,,,,,,,,instruct,1,Next,,,,,,,,,,,,
1451.7999999970198,,instruct_dir_3,259138,,,,,,,,instruct,1,Next,,,,,,,,,,,,
2750,,instruct_dir_4,261889,,,,,,,,instruct,1,Start,,,,,,,,,,,,
null,,thebreak,261991,,,,,,,,<p></p>,,,null,,,,,,,,,,,
1071.8999999910593,,intro_0,263063,,,,,,,,instruct,,,32,,,,,,,,,,,
3476.7999999970198,,prac_directmemory_phase,266542,,,,,,,,practice/object_01b.png,,,50,,,1,,practice/object_02a.png,practice/object_01a.png,practice/object_03a.png,practice/object_01a.png,1,1,
1266.5999999940395,,prac_directmemory_phase,267810,,,,,,,,practice/object_03b.png,,,49,,,1,,practice/object_03a.png,practice/object_04a.png,practice/object_01a.png,practice/object_03a.png,1,1,
1310.7000000029802,,prac_directmemory_phase,269123,,,,,,,,practice/object_02b.png,,,51,,,0,,practice/object_02a.png,practice/object_01a.png,practice/object_03a.png,practice/object_02a.png,0,0.6666666666666666,
1837.2999999970198,,prac_directmemory_phase,270962,,,,,,,,practice/object_04b.png,,,51,,,0,,practice/object_04a.png,practice/object_01a.png,practice/object_02a.png,practice/object_04a.png,0,0.5,
1561.7999999970198,,practice_feedback_force_restart,272526,,,,,,,,practice_feedback,0,,,,,,,,,,,,,2
875.3000000119209,,last_instruct,273402,,,,,,,,instruct,,,32,,,,,,,,,,,
null,,prac_learn_phase(without_color),276904,,,,,,,,black_plus_sign,,,null,object_02a.png,object_14b.png,,,,,,,,,
null,,prac_black_cross(without_color),277548,,,,,,,,blue,,,null,object_02a.png,object_14b.png,,,,,,,,,
401.79999999701977,,prac_rt_plussign_withcolor,278050,,,,,,,,blue,,,49,object_02a.png,object_14b.png,,,,,,,,,
null,,prac_rt_thecrossant_black,279411,,,,,,,,black_plus_sign,,,null,,,1,1,,,,,,,
null,,prac_color_black,279513,,,,,,,,black_plus_sign,,,null,,,,,,,,,,,
null,,prac_learn_phase(without_color),283016,,,,,,,,black_plus_sign,,,null,object_04c.png,object_12b.png,,,,,,,,,
null,,black_cross(without_color)1,283487,,,,,,,,blue,,,null,object_02a.png,object_14b.png,,,,,,,,,
null,,prac_rt_plussign_withcolor,283989,,,,,,,,blue,,,null,object_04c.png,object_12b.png,,,,,,,,,
943.2999999970198,,prac_rt_thecrossant_black,285013,,,,,,,,black_plus_sign,,,49,,,1,1,,,,,,,
null,,prac_color_black,285115,,,,,,,,black_plus_sign,,,null,,,,,,,,,,,
null,,prac_learn_phase(without_color),288618,,,,,,,,black_plus_sign,,,null,object_12a.png,object_15b.png,,,,,,,,,
null,,black_cross(without_color)1,289089,,,,,,,,blue,,,null,object_02a.png,object_14b.png,,,,,,,,,
null,,prac_rt_plussign_withcolor,289591,,,,,,,,blue,,,null,object_12a.png,object_15b.png,,,,,,,,,
1095.3999999910593,,prac_rt_thecrossant_black,290589,,,,,,,,black_plus_sign,,,49,,,1,1,,,,,,,
null,,prac_color_black,290691,,,,,,,,black_plus_sign,,,null,,,,,,,,,,,
null,,prac_learn_phase(without_color),294194,,,,,,,,black_plus_sign,,,null,object_01b.png,object_08b.png,,,,,,,,,
null,,black_cross(without_color)1,294665,,,,,,,,blue,,,null,object_02a.png,object_14b.png,,,,,,,,,
null,,prac_rt_plussign_withcolor,295168,,,,,,,,blue,,,null,object_01b.png,object_08b.png,,,,,,,,,
1152.2999999970198,,prac_rt_thecrossant_black,296284,,,,,,,,black_plus_sign,,,49,,,1,1,,,,,,,
null,,prac_color_black,296386,,,,,,,,black_plus_sign,,,null,,,,,,,,,,,
2559.3999999910593,,instruct_dir_01,298947,,,,,,,,instruct,0,Next,,,,,,,,,,,,
1148.3999999910593,,instruct_dir_2,300097,,,,,,,,instruct,1,Next,,,,,,,,,,,,
1231.3999999910593,,instruct_dir_3,301329,,,,,,,,instruct,1,Next,,,,,,,,,,,,
819.3999999910593,,instruct_dir_4,302150,,,,,,,,instruct,1,Start,,,,,,,,,,,,
null,,thebreak,302252,,,,,,,,<p></p>,,,null,,,,,,,,,,,
833.5,,intro_0,303086,,,,,,,,instruct,,,32,,,,,,,,,,,
2805.4000000059605,,prac_directmemory_phase,305892,,,,,,,,practice/object_01b.png,,,50,,,1,,practice/object_02a.png,practice/object_01a.png,practice/object_03a.png,practice/object_01a.png,1,1,
1449.0999999940395,,prac_directmemory_phase,307344,,,,,,,,practice/object_03b.png,,,49,,,1,,practice/object_03a.png,practice/object_04a.png,practice/object_01a.png,practice/object_03a.png,1,1,
1517.5,,prac_directmemory_phase,308864,,,,,,,,practice/object_02b.png,,,49,,,1,,practice/object_02a.png,practice/object_01a.png,practice/object_03a.png,practice/object_02a.png,1,1,
1896.5999999940395,,prac_directmemory_phase,310762,,,,,,,,practice/object_04b.png,,,49,,,1,,practice/object_04a.png,practice/object_01a.png,practice/object_02a.png,practice/object_04a.png,1,1,
2356.7000000029802,,practice_feedback,313121,,,,,,,,practice_feedback,1,,,,,,,,,,,,,
20074.70000000298,,proceed_actualTask,333197,,,,,,,,proceed_actualTask,0,End Early,,,,,,,,,,,,
