rt,responses,trial_type,time_elapsed,identifier_a,identifier_b,identifier_c,tasktype,browser_type,local_time,UTC_time,stimulus,button_pressed,response,key_press,failed_practice,stimulus_left,stimulus_right,accuracy,practice_cumulative_accuracy,stimulus_down_left,stimulus_down_mid,stimulus_down_right,stimulus_correct,prac_weighted_accuracy,cumulative_accuracy
18512.799999713898,{worker_id:670bdeb3587276e0eccd14df},id_enter,18516,object_01c.png; object_03b.png; object_12c.png; object_09a.png; object_07a.png; object_13c.png; object_15a.png; object_04b.png; object_08c.png; object_14a.png; object_10b.png; object_04a.png; object_09c.png; object_06b.png; object_12a.png,object_10c.png; object_08b.png; object_11b.png; object_04c.png; object_15b.png; object_15c.png; object_05a.png; object_01b.png; object_01a.png; object_03a.png; object_03c.png; object_14b.png; object_10a.png; object_11a.png; object_13a.png,object_07b.png; object_06a.png; object_05b.png; object_13b.png; object_08a.png; object_12b.png; object_11c.png; object_02c.png; object_14c.png; object_06c.png; object_09b.png; object_05c.png; object_07c.png; object_02b.png; object_02a.png,blocked,Mozilla/5.0 (Windows NT 10.0; Win64; x64) AppleWebKit/537.36 (KHTML, like Gecko) Chrome/136.0.0.0 Safari/537.36,5/11/2025, 7:46:24 PM,2025-05-12 00:46:24.175,,,,,,,,,,,,,,,
100355.90000009537,,make_fullscreen,118901,,,,,,,,fullscreen,0,,,,,,,,,,,,,
11356.599999904633,,instruct_1,130261,,,,,,,,instruct,0,Next,,,,,,,,,,,,
20731,,instruct_2,150994,,,,,,,,instruct,1,Next,,,,,,,,,,,,
16708.39999961853,,instruct_3,167704,,,,,,,,instruct,1,Next,,,,,,,,,,,,
40155.800000190735,,instruct_4,207862,,,,,,,,instruct,1,Next,,,,,,,,,,,,
25173.800000190735,,instruct_5,233037,,,,,,,,instruct,1,Next,,,,,,,,,,,,
7909.5,,instruct_6,240947,,,,,,,,instruct,1,Next,,,,,,,,,,,,
46922.5,,instruct_7,287872,,,,,,,,instruct,1,Next,,,,,,,,,,,,
null,,prac_atten_color_black,288506,,,,,,,,black_plus_sign,,,null,,,,,,,,,,,
null,,prac_atten_color,289283,,,,,,,,<p style='position:absolute;top: 50%;right: 50%;transform: translate(50%, -50%);font-size: 125px;color: blue;'>+</p>,,,null,,,,,,,,,,,
1899.5999999046326,,prac_atten_color_black,291287,,,,,,,,black_plus_sign,,,49,,,,,,,,,,,
null,,prac_atten_color_black,291927,,,,,,,,black_plus_sign,,,null,,,,,,,,,,,
null,,prac_atten_color,292596,,,,,,,,<p style='position:absolute;top: 50%;right: 50%;transform: translate(50%, -50%);font-size: 125px;color: green;'>+</p>,,,null,,,,,,,,,,,
null,,prac_atten_color_black,294601,,,,,,,,black_plus_sign,,,null,,,,,,,,,,,
27408.400000095367,,attentioncheck_help,322011,,,,,,,,instruct,,,32,,,,,,,,,,,
null,,prac_atten_color_black,322759,,,,,,,,black_plus_sign,,,null,,,,,,,,,,,
null,,prac_atten_color,323506,,,,,,,,<p style='position:absolute;top: 50%;right: 50%;transform: translate(50%, -50%);font-size: 125px;color: green;'>+</p>,,,null,,,,,,,,,,,
null,,prac_atten_color_black,325514,,,,,,,,black_plus_sign,,,null,,,,,,,,,,,
27302.5,,attentioncheck_help,352818,,,,,,,,instruct,,,32,,,,,,,,,,,
null,,prac_atten_color_black,353501,,,,,,,,black_plus_sign,,,null,,,,,,,,,,,
null,,prac_atten_color,354252,,,,,,,,<p style='position:absolute;top: 50%;right: 50%;transform: translate(50%, -50%);font-size: 125px;color: blue;'>+</p>,,,null,,,,,,,,,,,
136.40000009536743,,prac_atten_color_black,356256,,,,,,,,black_plus_sign,,,49,,,,,,,,,,,
null,,prac_atten_color_black,356919,,,,,,,,black_plus_sign,,,null,,,,,,,,,,,
null,,prac_atten_color,357647,,,,,,,,<p style='position:absolute;top: 50%;right: 50%;transform: translate(50%, -50%);font-size: 125px;color: green;'>+</p>,,,null,,,,,,,,,,,
null,,prac_atten_color_black,359662,,,,,,,,black_plus_sign,,,null,,,,,,,,,,,
9217.800000190735,,attentioncheck_help,368882,,,,,,,,instruct,,,32,,,,,,,,,,,
null,,prac_atten_color_black,369581,,,,,,,,black_plus_sign,,,null,,,,,,,,,,,
null,,prac_atten_color,370119,,,,,,,,<p style='position:absolute;top: 50%;right: 50%;transform: translate(50%, -50%);font-size: 125px;color: green;'>+</p>,,,null,,,,,,,,,,,
null,,prac_atten_color_black,372135,,,,,,,,black_plus_sign,,,null,,,,,,,,,,,
5696.700000286102,,attentioncheck_help,377835,,,,,,,,instruct,,,32,,,,,,,,,,,
null,,prac_atten_color_black,378713,,,,,,,,black_plus_sign,,,null,,,,,,,,,,,
570.6999998092651,,prac_atten_color,379753,,,,,,,,<p style='position:absolute;top: 50%;right: 50%;transform: translate(50%, -50%);font-size: 125px;color: blue;'>+</p>,,,49,,,,,,,,,,,
null,,prac_atten_color_black,381757,,,,,,,,black_plus_sign,,,null,,,,,,,,,,,
null,,prac_atten_color_black,382139,,,,,,,,black_plus_sign,,,null,,,,,,,,,,,
null,,prac_atten_color,383042,,,,,,,,<p style='position:absolute;top: 50%;right: 50%;transform: translate(50%, -50%);font-size: 125px;color: green;'>+</p>,,,null,,,,,,,,,,,
null,,prac_atten_color_black,385046,,,,,,,,black_plus_sign,,,null,,,,,,,,,,,
4232.400000095367,,attentioncheck_help,389280,,,,,,,,instruct,,,32,,,,,,,,,,,
null,,prac_atten_color_black,389792,,,,,,,,black_plus_sign,,,null,,,,,,,,,,,
null,,prac_atten_color,390559,,,,,,,,<p style='position:absolute;top: 50%;right: 50%;transform: translate(50%, -50%);font-size: 125px;color: blue;'>+</p>,,,null,,,,,,,,,,,
null,,prac_atten_color_black,392565,,,,,,,,black_plus_sign,,,null,,,,,,,,,,,
5442.5,,attentioncheck_help,398009,,,,,,,,instruct,,,32,,,,,,,,,,,
null,,prac_atten_color_black,398659,,,,,,,,black_plus_sign,,,null,,,,,,,,,,,
null,,prac_atten_color,399716,,,,,,,,<p style='position:absolute;top: 50%;right: 50%;transform: translate(50%, -50%);font-size: 125px;color: blue;'>+</p>,,,null,,,,,,,,,,,
798.8999996185303,,prac_atten_color_black,401732,,,,,,,,black_plus_sign,,,49,,,,,,,,,,,
23556.60000038147,,attentioncheck_feedback,425291,,,,,,,,cross_check_feedback,0,,,1,,,,,,,,,,
null,,prac_atten_color_black,425805,,,,,,,,black_plus_sign,,,null,,,,,,,,,,,
null,,prac_atten_color,426700,,,,,,,,<p style='position:absolute;top: 50%;right: 50%;transform: translate(50%, -50%);font-size: 125px;color: blue;'>+</p>,,,null,,,,,,,,,,,
64.10000038146973,,prac_atten_color_black,428703,,,,,,,,black_plus_sign,,,49,,,,,,,,,,,
null,,prac_atten_color_black,429219,,,,,,,,black_plus_sign,,,null,,,,,,,,,,,
null,,prac_atten_color,430173,,,,,,,,<p style='position:absolute;top: 50%;right: 50%;transform: translate(50%, -50%);font-size: 125px;color: green;'>+</p>,,,null,,,,,,,,,,,
480.19999980926514,,prac_atten_color_black,432183,,,,,,,,black_plus_sign,,,50,,,,,,,,,,,
null,,prac_atten_color_black,432638,,,,,,,,black_plus_sign,,,null,,,,,,,,,,,
null,,prac_atten_color,433496,,,,,,,,<p style='position:absolute;top: 50%;right: 50%;transform: translate(50%, -50%);font-size: 125px;color: green;'>+</p>,,,null,,,,,,,,,,,
546.2999997138977,,prac_atten_color_black,435502,,,,,,,,black_plus_sign,,,50,,,,,,,,,,,
null,,prac_atten_color_black,436063,,,,,,,,black_plus_sign,,,null,,,,,,,,,,,
524.0999999046326,,prac_atten_color,436712,,,,,,,,<p style='position:absolute;top: 50%;right: 50%;transform: translate(50%, -50%);font-size: 125px;color: blue;'>+</p>,,,49,,,,,,,,,,,
null,,prac_atten_color_black,438716,,,,,,,,black_plus_sign,,,null,,,,,,,,,,,
null,,prac_atten_color_black,439476,,,,,,,,black_plus_sign,,,null,,,,,,,,,,,
null,,prac_atten_color,439935,,,,,,,,<p style='position:absolute;top: 50%;right: 50%;transform: translate(50%, -50%);font-size: 125px;color: green;'>+</p>,,,null,,,,,,,,,,,
244.40000009536743,,prac_atten_color_black,441940,,,,,,,,black_plus_sign,,,50,,,,,,,,,,,
null,,prac_atten_color_black,442888,,,,,,,,black_plus_sign,,,null,,,,,,,,,,,
null,,prac_atten_color,443998,,,,,,,,<p style='position:absolute;top: 50%;right: 50%;transform: translate(50%, -50%);font-size: 125px;color: green;'>+</p>,,,null,,,,,,,,,,,
99.30000019073486,,prac_atten_color_black,446013,,,,,,,,black_plus_sign,,,50,,,,,,,,,,,
null,,prac_atten_color_black,446326,,,,,,,,black_plus_sign,,,null,,,,,,,,,,,
484.3999996185303,,prac_atten_color,447226,,,,,,,,<p style='position:absolute;top: 50%;right: 50%;transform: translate(50%, -50%);font-size: 125px;color: blue;'>+</p>,,,49,,,,,,,,,,,
null,,prac_atten_color_black,449233,,,,,,,,black_plus_sign,,,null,,,,,,,,,,,
null,,prac_atten_color_black,449762,,,,,,,,black_plus_sign,,,null,,,,,,,,,,,
503.2000002861023,,prac_atten_color,450818,,,,,,,,<p style='position:absolute;top: 50%;right: 50%;transform: translate(50%, -50%);font-size: 125px;color: green;'>+</p>,,,50,,,,,,,,,,,
null,,prac_atten_color_black,452829,,,,,,,,black_plus_sign,,,null,,,,,,,,,,,
null,,prac_atten_color_black,453189,,,,,,,,black_plus_sign,,,null,,,,,,,,,,,
510.40000009536743,,prac_atten_color,454011,,,,,,,,<p style='position:absolute;top: 50%;right: 50%;transform: translate(50%, -50%);font-size: 125px;color: blue;'>+</p>,,,49,,,,,,,,,,,
null,,prac_atten_color_black,456020,,,,,,,,black_plus_sign,,,null,,,,,,,,,,,
null,,prac_atten_color_black,456625,,,,,,,,black_plus_sign,,,null,,,,,,,,,,,
766.0999999046326,,prac_atten_color,457731,,,,,,,,<p style='position:absolute;top: 50%;right: 50%;transform: translate(50%, -50%);font-size: 125px;color: blue;'>+</p>,,,49,,,,,,,,,,,
null,,prac_atten_color_black,459739,,,,,,,,black_plus_sign,,,null,,,,,,,,,,,
4000.5,,attentioncheck_feedback,463741,,,,,,,,cross_check_feedback,0,,,,,,,,,,,,,
20867.599999904633,,last_instruct,484610,,,,,,,,instruct,,,32,,,,,,,,,,,
null,,prac_learn_phase(without_color),488118,,,,,,,,black_plus_sign,,,null,,object_12c.png,object_11b.png,,,,,,,,
null,,prac_black_cross(without_color),488606,,,,,,,,blue,,,null,,object_12c.png,object_11b.png,,,,,,,,
null,,prac_rt_plussign_withcolor,489114,,,,,,,,blue,,,null,,object_12c.png,object_11b.png,,,,,,,,
875.5999999046326,,prac_rt_thecrossant_black,490640,,,,,,,,black_plus_sign,,,49,,,,1,1,,,,,,
null,,prac_color_black,490747,,,,,,,,black_plus_sign,,,null,,,,,,,,,,,
null,,prac_learn_phase(without_color),494257,,,,,,,,black_plus_sign,,,null,,object_07a.png,object_15b.png,,,,,,,,
null,,black_cross(without_color)1,494912,,,,,,,,green,,,null,,object_12c.png,object_11b.png,,,,,,,,
null,,prac_rt_plussign_withcolor,495428,,,,,,,,blue,,,null,,object_07a.png,object_15b.png,,,,,,,,
1196.2999997138977,,prac_rt_thecrossant_black,496993,,,,,,,,black_plus_sign,,,49,,,,1,1,,,,,,
null,,prac_color_black,497101,,,,,,,,black_plus_sign,,,null,,,,,,,,,,,
null,,prac_learn_phase(without_color),500610,,,,,,,,black_plus_sign,,,null,,object_06b.png,object_11a.png,,,,,,,,
null,,black_cross(without_color)1,501265,,,,,,,,green,,,null,,object_12c.png,object_11b.png,,,,,,,,
null,,prac_rt_plussign_withcolor,501785,,,,,,,,blue,,,null,,object_06b.png,object_11a.png,,,,,,,,
931.8000001907349,,prac_rt_thecrossant_black,503284,,,,,,,,black_plus_sign,,,49,,,,1,1,,,,,,
null,,prac_color_black,503401,,,,,,,,black_plus_sign,,,null,,,,,,,,,,,
null,,prac_learn_phase(without_color),506910,,,,,,,,black_plus_sign,,,null,,object_08c.png,object_01a.png,,,,,,,,
null,,black_cross(without_color)1,507559,,,,,,,,green,,,null,,object_12c.png,object_11b.png,,,,,,,,
null,,prac_rt_plussign_withcolor,508069,,,,,,,,green,,,null,,object_08c.png,object_01a.png,,,,,,,,
660.7999997138977,,prac_rt_thecrossant_black,509226,,,,,,,,black_plus_sign,,,50,,,,1,1,,,,,,
null,,prac_color_black,509334,,,,,,,,black_plus_sign,,,null,,,,,,,,,,,
18916.5,,instruct_dir_01,528253,,,,,,,,instruct,0,Next,,,,,,,,,,,,
18145.800000190735,,instruct_dir_2,546400,,,,,,,,instruct,1,Next,,,,,,,,,,,,
21384.099999904633,,instruct_dir_3,567787,,,,,,,,instruct,1,Next,,,,,,,,,,,,
35170.40000009537,,instruct_dir_4,602959,,,,,,,,instruct,1,Start,,,,,,,,,,,,
null,,thebreak,603075,,,,,,,,<p></p>,,,null,,,,,,,,,,,
4062.4000000953674,,intro_0,607139,,,,,,,,instruct,,,32,,,,,,,,,,,
6845.599999904633,,prac_directmemory_phase,613986,,,,,,,,practice/object_03b.png,,,50,,,,1,,practice/object_02a.png,practice/object_03a.png,practice/object_04a.png,practice/object_03a.png,1,1
6215.60000038147,,prac_directmemory_phase,620206,,,,,,,,practice/object_01b.png,,,50,,,,1,,practice/object_03a.png,practice/object_01a.png,practice/object_04a.png,practice/object_01a.png,1,1
7006.400000095367,,prac_directmemory_phase,627216,,,,,,,,practice/object_04b.png,,,49,,,,0,,practice/object_03a.png,practice/object_01a.png,practice/object_04a.png,practice/object_04a.png,0,0.6666666666666666
6290,,prac_directmemory_phase,633509,,,,,,,,practice/object_02b.png,,,50,,,,0,,practice/object_03a.png,practice/object_01a.png,practice/object_02a.png,practice/object_02a.png,0,0.5
15585.300000190735,,practice_feedback_force_restart,649098,,,,,,,,practice_feedback,0,,,1,,,,,,,,,,
21752,,last_instruct,670851,,,,,,,,instruct,,,32,,,,,,,,,,,
null,,prac_learn_phase(without_color),674357,,,,,,,,black_plus_sign,,,null,,object_12c.png,object_11b.png,,,,,,,,
null,,prac_black_cross(without_color),675379,,,,,,,,blue,,,null,,object_12c.png,object_11b.png,,,,,,,,
null,,prac_rt_plussign_withcolor,675896,,,,,,,,blue,,,null,,object_12c.png,object_11b.png,,,,,,,,
893.8000001907349,,prac_rt_thecrossant_black,676882,,,,,,,,black_plus_sign,,,49,,,,1,1,,,,,,
null,,prac_color_black,676994,,,,,,,,black_plus_sign,,,null,,,,,,,,,,,
null,,prac_learn_phase(without_color),680498,,,,,,,,black_plus_sign,,,null,,object_07a.png,object_15b.png,,,,,,,,
null,,black_cross(without_color)1,681150,,,,,,,,green,,,null,,object_12c.png,object_11b.png,,,,,,,,
null,,prac_rt_plussign_withcolor,681654,,,,,,,,blue,,,null,,object_07a.png,object_15b.png,,,,,,,,
1327.0999999046326,,prac_rt_thecrossant_black,683057,,,,,,,,black_plus_sign,,,49,,,,1,1,,,,,,
null,,prac_color_black,683172,,,,,,,,black_plus_sign,,,null,,,,,,,,,,,
null,,prac_learn_phase(without_color),686688,,,,,,,,black_plus_sign,,,null,,object_06b.png,object_11a.png,,,,,,,,
null,,black_cross(without_color)1,687344,,,,,,,,green,,,null,,object_12c.png,object_11b.png,,,,,,,,
null,,prac_rt_plussign_withcolor,687850,,,,,,,,blue,,,null,,object_06b.png,object_11a.png,,,,,,,,
738.2999997138977,,prac_rt_thecrossant_black,689116,,,,,,,,black_plus_sign,,,49,,,,1,1,,,,,,
null,,prac_color_black,689232,,,,,,,,black_plus_sign,,,null,,,,,,,,,,,
null,,prac_learn_phase(without_color),692745,,,,,,,,black_plus_sign,,,null,,object_08c.png,object_01a.png,,,,,,,,
null,,black_cross(without_color)1,693398,,,,,,,,green,,,null,,object_12c.png,object_11b.png,,,,,,,,
375.7000002861023,,prac_rt_plussign_withcolor,693904,,,,,,,,green,,,49,,object_08c.png,object_01a.png,,,,,,,,
null,,prac_rt_thecrossant_black,694898,,,,,,,,black_plus_sign,,,50,,,,0,0.875,,,,,,
null,,prac_color_black,695002,,,,,,,,black_plus_sign,,,null,,,,,,,,,,,
13181.5,,instruct_dir_01,708185,,,,,,,,instruct,0,Next,,,,,,,,,,,,
10272.199999809265,,instruct_dir_2,718458,,,,,,,,instruct,1,Next,,,,,,,,,,,,
6593,,instruct_dir_3,725053,,,,,,,,instruct,1,Next,,,,,,,,,,,,
9810,,instruct_dir_4,734864,,,,,,,,instruct,1,Start,,,,,,,,,,,,
null,,thebreak,734980,,,,,,,,<p></p>,,,null,,,,,,,,,,,
5367.300000190735,,intro_0,740349,,,,,,,,instruct,,,32,,,,,,,,,,,
13701.800000190735,,prac_directmemory_phase,754052,,,,,,,,practice/object_03b.png,,,50,,,,1,,practice/object_02a.png,practice/object_03a.png,practice/object_04a.png,practice/object_03a.png,1,1
6869.799999713898,,prac_directmemory_phase,760925,,,,,,,,practice/object_01b.png,,,50,,,,1,,practice/object_03a.png,practice/object_01a.png,practice/object_04a.png,practice/object_01a.png,1,1
3768.2999997138977,,prac_directmemory_phase,764696,,,,,,,,practice/object_04b.png,,,50,,,,0,,practice/object_03a.png,practice/object_01a.png,practice/object_04a.png,practice/object_04a.png,0,0.6666666666666666
4236.5,,prac_directmemory_phase,768935,,,,,,,,practice/object_02b.png,,,49,,,,0,,practice/object_03a.png,practice/object_01a.png,practice/object_02a.png,practice/object_02a.png,0,0.5
13586.400000095367,,practice_feedback_force_restart,782523,,,,,,,,practice_feedback,0,,,2,,,,,,,,,,
17250.799999713898,,last_instruct,799775,,,,,,,,instruct,,,32,,,,,,,,,,,
null,,prac_learn_phase(without_color),803287,,,,,,,,black_plus_sign,,,null,,object_12c.png,object_11b.png,,,,,,,,
null,,prac_black_cross(without_color),804141,,,,,,,,blue,,,null,,object_12c.png,object_11b.png,,,,,,,,
null,,prac_rt_plussign_withcolor,804652,,,,,,,,blue,,,null,,object_12c.png,object_11b.png,,,,,,,,
1670.6999998092651,,prac_rt_thecrossant_black,805816,,,,,,,,black_plus_sign,,,49,,,,1,0.8888888888888888,,,,,,
null,,prac_color_black,805918,,,,,,,,black_plus_sign,,,null,,,,,,,,,,,
null,,prac_learn_phase(without_color),809430,,,,,,,,black_plus_sign,,,null,,object_07a.png,object_15b.png,,,,,,,,
null,,black_cross(without_color)1,810086,,,,,,,,green,,,null,,object_12c.png,object_11b.png,,,,,,,,
null,,prac_rt_plussign_withcolor,810590,,,,,,,,blue,,,null,,object_07a.png,object_15b.png,,,,,,,,
1320.8000001907349,,prac_rt_thecrossant_black,812155,,,,,,,,black_plus_sign,,,49,,,,1,0.9,,,,,,
null,,prac_color_black,812262,,,,,,,,black_plus_sign,,,null,,,,,,,,,,,
null,,prac_learn_phase(without_color),815780,,,,,,,,black_plus_sign,,,null,,object_06b.png,object_11a.png,,,,,,,,
null,,black_cross(without_color)1,816433,,,,,,,,green,,,null,,object_12c.png,object_11b.png,,,,,,,,
null,,prac_rt_plussign_withcolor,816940,,,,,,,,blue,,,null,,object_06b.png,object_11a.png,,,,,,,,
656.4000000953674,,prac_rt_thecrossant_black,818083,,,,,,,,black_plus_sign,,,49,,,,1,0.9090909090909091,,,,,,
null,,prac_color_black,818187,,,,,,,,black_plus_sign,,,null,,,,,,,,,,,
null,,prac_learn_phase(without_color),821704,,,,,,,,black_plus_sign,,,null,,object_08c.png,object_01a.png,,,,,,,,
null,,black_cross(without_color)1,822356,,,,,,,,green,,,null,,object_12c.png,object_11b.png,,,,,,,,
null,,prac_rt_plussign_withcolor,822860,,,,,,,,green,,,null,,object_08c.png,object_01a.png,,,,,,,,
1133.9000000953674,,prac_rt_thecrossant_black,824177,,,,,,,,black_plus_sign,,,50,,,,1,0.9166666666666666,,,,,,
null,,prac_color_black,824283,,,,,,,,black_plus_sign,,,null,,,,,,,,,,,
3214.2000002861023,,instruct_dir_01,827499,,,,,,,,instruct,0,Next,,,,,,,,,,,,
9364.699999809265,,instruct_dir_2,836865,,,,,,,,instruct,1,Next,,,,,,,,,,,,
3066,,instruct_dir_3,839932,,,,,,,,instruct,1,Next,,,,,,,,,,,,
6865.099999904633,,instruct_dir_4,846799,,,,,,,,instruct,1,Start,,,,,,,,,,,,
null,,thebreak,846906,,,,,,,,<p></p>,,,null,,,,,,,,,,,
5194.699999809265,,intro_0,852103,,,,,,,,instruct,,,32,,,,,,,,,,,
3908.5999999046326,,prac_directmemory_phase,856013,,,,,,,,practice/object_03b.png,,,50,,,,1,,practice/object_02a.png,practice/object_03a.png,practice/object_04a.png,practice/object_03a.png,1,1
6856.299999713898,,prac_directmemory_phase,862872,,,,,,,,practice/object_01b.png,,,50,,,,1,,practice/object_03a.png,practice/object_01a.png,practice/object_04a.png,practice/object_01a.png,1,1
3993.7999997138977,,prac_directmemory_phase,866868,,,,,,,,practice/object_04b.png,,,50,,,,0,,practice/object_03a.png,practice/object_01a.png,practice/object_04a.png,practice/object_04a.png,0,0.6666666666666666
6700.800000190735,,prac_directmemory_phase,873572,,,,,,,,practice/object_02b.png,,,49,,,,0,,practice/object_03a.png,practice/object_01a.png,practice/object_02a.png,practice/object_02a.png,0,0.5
