rt,responses,trial_type,time_elapsed,identifier_a,identifier_b,identifier_c,tasktype,browser_type,local_time,UTC_time,stimulus,button_pressed,response,key_press,stimulus_left,stimulus_right,accuracy,practice_cumulative_accuracy,stimulus_down_left,stimulus_down_mid,stimulus_down_right,stimulus_correct,prac_weighted_accuracy,cumulative_accuracy,failed_practice,weighted_accuracy,stimulus_middle,problems,smooth,distraction,strategies,easier,similar,comments
27662.599999904633,{worker_id:67351d691e6e9753f1834168},id_enter,27664,object_11c.png; object_13a.png; object_04a.png; object_15c.png; object_02a.png; object_13c.png; object_12b.png; object_08c.png; object_06b.png; object_07a.png; object_15a.png; object_04b.png; object_07c.png; object_15b.png; object_13b.png,object_09b.png; object_10b.png; object_05a.png; object_01a.png; object_09c.png; object_01c.png; object_12c.png; object_12a.png; object_05c.png; object_10c.png; object_03c.png; object_11a.png; object_10a.png; object_05b.png; object_07b.png,object_02c.png; object_11b.png; object_03a.png; object_03b.png; object_14a.png; object_06a.png; object_14b.png; object_01b.png; object_04c.png; object_06c.png; object_14c.png; object_08a.png; object_08b.png; object_09a.png; object_02b.png,interleaved,Mozilla/5.0 (Windows NT 10.0; Win64; x64) AppleWebKit/537.36 (KHTML, like Gecko) Chrome/136.0.0.0 Safari/537.36,5/8/2025, 1:54:16 PM,2025-05-08 18:54:16.689,,,,,,,,,,,,,,,,,,,,,,,,
185599.39999997616,,make_fullscreen,213278,,,,,,,,fullscreen,0,,,,,,,,,,,,,,,,,,,,,,
4961.800000071526,,instruct_1,218242,,,,,,,,instruct,0,Next,,,,,,,,,,,,,,,,,,,,,
19970.299999952316,,instruct_2,238213,,,,,,,,instruct,1,Next,,,,,,,,,,,,,,,,,,,,,
8380.399999976158,,instruct_3,246595,,,,,,,,instruct,1,Next,,,,,,,,,,,,,,,,,,,,,
41589.39999997616,,instruct_4,288185,,,,,,,,instruct,1,Next,,,,,,,,,,,,,,,,,,,,,
12689.399999976158,,instruct_5,300875,,,,,,,,instruct,1,Next,,,,,,,,,,,,,,,,,,,,,
10399.799999952316,,instruct_6,311276,,,,,,,,instruct,1,Next,,,,,,,,,,,,,,,,,,,,,
29499.200000047684,,instruct_7,340776,,,,,,,,instruct,1,Next,,,,,,,,,,,,,,,,,,,,,
null,,prac_atten_color_black,341378,,,,,,,,black_plus_sign,,,null,,,,,,,,,,,,,,,,,,,,
716.4000000953674,,prac_atten_color,342180,,,,,,,,<p style='position:absolute;top: 50%;right: 50%;transform: translate(50%, -50%);font-size: 125px;color: blue;'>+</p>,,,49,,,,,,,,,,,,,,,,,,,,
null,,prac_atten_color_black,344182,,,,,,,,black_plus_sign,,,null,,,,,,,,,,,,,,,,,,,,
null,,prac_atten_color_black,344784,,,,,,,,black_plus_sign,,,null,,,,,,,,,,,,,,,,,,,,
495.90000009536743,,prac_atten_color,345362,,,,,,,,<p style='position:absolute;top: 50%;right: 50%;transform: translate(50%, -50%);font-size: 125px;color: green;'>+</p>,,,50,,,,,,,,,,,,,,,,,,,,
null,,prac_atten_color_black,347364,,,,,,,,black_plus_sign,,,null,,,,,,,,,,,,,,,,,,,,
null,,prac_atten_color_black,348189,,,,,,,,black_plus_sign,,,null,,,,,,,,,,,,,,,,,,,,
394.59999990463257,,prac_atten_color,349031,,,,,,,,<p style='position:absolute;top: 50%;right: 50%;transform: translate(50%, -50%);font-size: 125px;color: green;'>+</p>,,,49,,,,,,,,,,,,,,,,,,,,
null,,prac_atten_color_black,351032,,,,,,,,black_plus_sign,,,null,,,,,,,,,,,,,,,,,,,,
8977.699999928474,,attentioncheck_help,360011,,,,,,,,instruct,,,32,,,,,,,,,,,,,,,,,,,,
null,,prac_atten_color_black,360572,,,,,,,,black_plus_sign,,,null,,,,,,,,,,,,,,,,,,,,
632.3000000715256,,prac_atten_color,361507,,,,,,,,<p style='position:absolute;top: 50%;right: 50%;transform: translate(50%, -50%);font-size: 125px;color: blue;'>+</p>,,,49,,,,,,,,,,,,,,,,,,,,
null,,prac_atten_color_black,363508,,,,,,,,black_plus_sign,,,null,,,,,,,,,,,,,,,,,,,,
null,,prac_atten_color_black,363976,,,,,,,,black_plus_sign,,,null,,,,,,,,,,,,,,,,,,,,
580.0999999046326,,prac_atten_color,364594,,,,,,,,<p style='position:absolute;top: 50%;right: 50%;transform: translate(50%, -50%);font-size: 125px;color: green;'>+</p>,,,50,,,,,,,,,,,,,,,,,,,,
null,,prac_atten_color_black,366597,,,,,,,,black_plus_sign,,,null,,,,,,,,,,,,,,,,,,,,
null,,prac_atten_color_black,367382,,,,,,,,black_plus_sign,,,null,,,,,,,,,,,,,,,,,,,,
468.5,,prac_atten_color,368083,,,,,,,,<p style='position:absolute;top: 50%;right: 50%;transform: translate(50%, -50%);font-size: 125px;color: green;'>+</p>,,,50,,,,,,,,,,,,,,,,,,,,
null,,prac_atten_color_black,370084,,,,,,,,black_plus_sign,,,null,,,,,,,,,,,,,,,,,,,,
null,,prac_atten_color_black,370787,,,,,,,,black_plus_sign,,,null,,,,,,,,,,,,,,,,,,,,
577.2999999523163,,prac_atten_color,371470,,,,,,,,<p style='position:absolute;top: 50%;right: 50%;transform: translate(50%, -50%);font-size: 125px;color: blue;'>+</p>,,,49,,,,,,,,,,,,,,,,,,,,
null,,prac_atten_color_black,373472,,,,,,,,black_plus_sign,,,null,,,,,,,,,,,,,,,,,,,,
null,,prac_atten_color_black,374193,,,,,,,,black_plus_sign,,,null,,,,,,,,,,,,,,,,,,,,
null,,prac_atten_color,374615,,,,,,,,<p style='position:absolute;top: 50%;right: 50%;transform: translate(50%, -50%);font-size: 125px;color: green;'>+</p>,,,null,,,,,,,,,,,,,,,,,,,,
184.39999997615814,,prac_atten_color_black,376617,,,,,,,,black_plus_sign,,,50,,,,,,,,,,,,,,,,,,,,
null,,prac_atten_color_black,377598,,,,,,,,black_plus_sign,,,null,,,,,,,,,,,,,,,,,,,,
566.2000000476837,,prac_atten_color,378550,,,,,,,,<p style='position:absolute;top: 50%;right: 50%;transform: translate(50%, -50%);font-size: 125px;color: blue;'>+</p>,,,49,,,,,,,,,,,,,,,,,,,,
null,,prac_atten_color_black,380552,,,,,,,,black_plus_sign,,,null,,,,,,,,,,,,,,,,,,,,
null,,prac_atten_color_black,381002,,,,,,,,black_plus_sign,,,null,,,,,,,,,,,,,,,,,,,,
489.89999997615814,,prac_atten_color,382102,,,,,,,,<p style='position:absolute;top: 50%;right: 50%;transform: translate(50%, -50%);font-size: 125px;color: blue;'>+</p>,,,49,,,,,,,,,,,,,,,,,,,,
null,,prac_atten_color_black,384103,,,,,,,,black_plus_sign,,,null,,,,,,,,,,,,,,,,,,,,
18295.700000047684,,attentioncheck_feedback,402399,,,,,,,,cross_check_feedback,0,,,,,,,,,,,,,,,,,,,,,,
14021.200000047684,,last_instruct,416421,,,,,,,,instruct,,,32,,,,,,,,,,,,,,,,,,,,
null,,prac_learn_phase(without_color),419922,,,,,,,,black_plus_sign,,,null,object_08c.png,object_12a.png,,,,,,,,,,,,,,,,,,
null,,prac_black_cross(without_color),420595,,,,,,,,green,,,null,object_08c.png,object_12a.png,,,,,,,,,,,,,,,,,,
null,,prac_rt_plussign_withcolor,421109,,,,,,,,green,,,null,object_08c.png,object_12a.png,,,,,,,,,,,,,,,,,,
1208.1999999284744,,prac_rt_thecrossant_black,422441,,,,,,,,black_plus_sign,,,50,,,1,1,,,,,,,,,,,,,,,,
null,,prac_color_black,422542,,,,,,,,black_plus_sign,,,null,,,,,,,,,,,,,,,,,,,,
null,,prac_learn_phase(without_color),426044,,,,,,,,black_plus_sign,,,null,object_05a.png,object_03a.png,,,,,,,,,,,,,,,,,,
null,,black_cross(without_color)1,426548,,,,,,,,blue,,,null,object_08c.png,object_12a.png,,,,,,,,,,,,,,,,,,
null,,prac_rt_plussign_withcolor,427049,,,,,,,,blue,,,null,object_05a.png,object_03a.png,,,,,,,,,,,,,,,,,,
908.3000000715256,,prac_rt_thecrossant_black,428627,,,,,,,,black_plus_sign,,,49,,,1,1,,,,,,,,,,,,,,,,
null,,prac_color_black,428729,,,,,,,,black_plus_sign,,,null,,,,,,,,,,,,,,,,,,,,
null,,prac_learn_phase(without_color),432230,,,,,,,,black_plus_sign,,,null,object_10b.png,object_11b.png,,,,,,,,,,,,,,,,,,
null,,black_cross(without_color)1,432734,,,,,,,,blue,,,null,object_08c.png,object_12a.png,,,,,,,,,,,,,,,,,,
null,,prac_rt_plussign_withcolor,433236,,,,,,,,blue,,,null,object_10b.png,object_11b.png,,,,,,,,,,,,,,,,,,
727.3000000715256,,prac_rt_thecrossant_black,434601,,,,,,,,black_plus_sign,,,49,,,1,1,,,,,,,,,,,,,,,,
null,,prac_color_black,434702,,,,,,,,black_plus_sign,,,null,,,,,,,,,,,,,,,,,,,,
null,,prac_learn_phase(without_color),438208,,,,,,,,black_plus_sign,,,null,object_15c.png,object_01a.png,,,,,,,,,,,,,,,,,,
null,,black_cross(without_color)1,438711,,,,,,,,blue,,,null,object_08c.png,object_12a.png,,,,,,,,,,,,,,,,,,
423.90000009536743,,prac_rt_plussign_withcolor,439212,,,,,,,,green,,,50,object_15c.png,object_01a.png,,,,,,,,,,,,,,,,,,
null,,prac_rt_thecrossant_black,440592,,,,,,,,black_plus_sign,,,null,,,1,1,,,,,,,,,,,,,,,,
null,,prac_color_black,440694,,,,,,,,black_plus_sign,,,null,,,,,,,,,,,,,,,,,,,,
13742.700000047684,,instruct_dir_01,454437,,,,,,,,instruct,0,Next,,,,,,,,,,,,,,,,,,,,,
15130.699999928474,,instruct_dir_2,469569,,,,,,,,instruct,1,Next,,,,,,,,,,,,,,,,,,,,,
29144.600000023842,,instruct_dir_3,498714,,,,,,,,instruct,1,Next,,,,,,,,,,,,,,,,,,,,,
16120.699999928474,,instruct_dir_4,514836,,,,,,,,instruct,1,Start,,,,,,,,,,,,,,,,,,,,,
null,,thebreak,514938,,,,,,,,<p></p>,,,null,,,,,,,,,,,,,,,,,,,,
1787.2999999523163,,intro_0,516726,,,,,,,,instruct,,,32,,,,,,,,,,,,,,,,,,,,
4367.5,,prac_directmemory_phase,521094,,,,,,,,practice/object_03b.png,,,50,,,0,,practice/object_01a.png,practice/object_04a.png,practice/object_03a.png,practice/object_03a.png,0,0,,,,,,,,,,
3566.5,,prac_directmemory_phase,524662,,,,,,,,practice/object_04b.png,,,51,,,0,,practice/object_04a.png,practice/object_03a.png,practice/object_02a.png,practice/object_04a.png,0,0,,,,,,,,,,
2497,,prac_directmemory_phase,527160,,,,,,,,practice/object_01b.png,,,49,,,1,,practice/object_01a.png,practice/object_02a.png,practice/object_04a.png,practice/object_01a.png,1,0.3333333333333333,,,,,,,,,,
2912.899999976158,,prac_directmemory_phase,530074,,,,,,,,practice/object_02b.png,,,49,,,0,,practice/object_04a.png,practice/object_02a.png,practice/object_03a.png,practice/object_02a.png,0,0.25,,,,,,,,,,
6015.5,,practice_feedback_force_restart,536090,,,,,,,,practice_feedback,0,,,,,,,,,,,,,1,,,,,,,,,
1926.5,,last_instruct,538017,,,,,,,,instruct,,,32,,,,,,,,,,,,,,,,,,,,
null,,prac_learn_phase(without_color),541519,,,,,,,,black_plus_sign,,,null,object_08c.png,object_12a.png,,,,,,,,,,,,,,,,,,
null,,prac_black_cross(without_color),542614,,,,,,,,green,,,null,object_08c.png,object_12a.png,,,,,,,,,,,,,,,,,,
null,,prac_rt_plussign_withcolor,543115,,,,,,,,green,,,null,object_08c.png,object_12a.png,,,,,,,,,,,,,,,,,,
1899.8000000715256,,prac_rt_thecrossant_black,544034,,,,,,,,black_plus_sign,,,50,,,1,1,,,,,,,,,,,,,,,,
null,,prac_color_black,544142,,,,,,,,black_plus_sign,,,null,,,,,,,,,,,,,,,,,,,,
null,,prac_learn_phase(without_color),547646,,,,,,,,black_plus_sign,,,null,object_05a.png,object_03a.png,,,,,,,,,,,,,,,,,,
null,,black_cross(without_color)1,548149,,,,,,,,blue,,,null,object_08c.png,object_12a.png,,,,,,,,,,,,,,,,,,
null,,prac_rt_plussign_withcolor,548650,,,,,,,,blue,,,null,object_05a.png,object_03a.png,,,,,,,,,,,,,,,,,,
1971.5,,prac_rt_thecrossant_black,549703,,,,,,,,black_plus_sign,,,49,,,1,1,,,,,,,,,,,,,,,,
null,,prac_color_black,549805,,,,,,,,black_plus_sign,,,null,,,,,,,,,,,,,,,,,,,,
null,,prac_learn_phase(without_color),553307,,,,,,,,black_plus_sign,,,null,object_10b.png,object_11b.png,,,,,,,,,,,,,,,,,,
null,,black_cross(without_color)1,553811,,,,,,,,blue,,,null,object_08c.png,object_12a.png,,,,,,,,,,,,,,,,,,
null,,prac_rt_plussign_withcolor,554313,,,,,,,,blue,,,null,object_10b.png,object_11b.png,,,,,,,,,,,,,,,,,,
1096.1000000238419,,prac_rt_thecrossant_black,555288,,,,,,,,black_plus_sign,,,49,,,1,1,,,,,,,,,,,,,,,,
null,,prac_color_black,555389,,,,,,,,black_plus_sign,,,null,,,,,,,,,,,,,,,,,,,,
null,,prac_learn_phase(without_color),558891,,,,,,,,black_plus_sign,,,null,object_15c.png,object_01a.png,,,,,,,,,,,,,,,,,,
null,,black_cross(without_color)1,559395,,,,,,,,blue,,,null,object_08c.png,object_12a.png,,,,,,,,,,,,,,,,,,
null,,prac_rt_plussign_withcolor,559896,,,,,,,,green,,,null,object_15c.png,object_01a.png,,,,,,,,,,,,,,,,,,
1347.8999999761581,,prac_rt_thecrossant_black,561407,,,,,,,,black_plus_sign,,,50,,,1,1,,,,,,,,,,,,,,,,
null,,prac_color_black,561509,,,,,,,,black_plus_sign,,,null,,,,,,,,,,,,,,,,,,,,
5817.200000047684,,instruct_dir_01,567327,,,,,,,,instruct,0,Next,,,,,,,,,,,,,,,,,,,,,
1777,,instruct_dir_2,569105,,,,,,,,instruct,1,Next,,,,,,,,,,,,,,,,,,,,,
3097.8000000715256,,instruct_dir_3,572204,,,,,,,,instruct,1,Next,,,,,,,,,,,,,,,,,,,,,
2866.5,,instruct_dir_4,575071,,,,,,,,instruct,1,Start,,,,,,,,,,,,,,,,,,,,,
null,,thebreak,575173,,,,,,,,<p></p>,,,null,,,,,,,,,,,,,,,,,,,,
1842,,intro_0,577015,,,,,,,,instruct,,,32,,,,,,,,,,,,,,,,,,,,
1959.8000000715256,,prac_directmemory_phase,578975,,,,,,,,practice/object_03b.png,,,49,,,0,,practice/object_01a.png,practice/object_04a.png,practice/object_03a.png,practice/object_03a.png,0,0,,,,,,,,,,
2506.5,,prac_directmemory_phase,581483,,,,,,,,practice/object_04b.png,,,50,,,0,,practice/object_04a.png,practice/object_03a.png,practice/object_02a.png,practice/object_04a.png,0,0,,,,,,,,,,
1907.6000000238419,,prac_directmemory_phase,583391,,,,,,,,practice/object_01b.png,,,49,,,1,,practice/object_01a.png,practice/object_02a.png,practice/object_04a.png,practice/object_01a.png,1,0.3333333333333333,,,,,,,,,,
2776.399999976158,,prac_directmemory_phase,586169,,,,,,,,practice/object_02b.png,,,50,,,1,,practice/object_04a.png,practice/object_02a.png,practice/object_03a.png,practice/object_02a.png,1,0.5,,,,,,,,,,
12658.100000023842,,practice_feedback_force_restart,598828,,,,,,,,practice_feedback,0,,,,,,,,,,,,,2,,,,,,,,,
3817.2000000476837,,last_instruct,602646,,,,,,,,instruct,,,32,,,,,,,,,,,,,,,,,,,,
null,,prac_learn_phase(without_color),606147,,,,,,,,black_plus_sign,,,null,object_08c.png,object_12a.png,,,,,,,,,,,,,,,,,,
null,,prac_black_cross(without_color),606637,,,,,,,,green,,,null,object_08c.png,object_12a.png,,,,,,,,,,,,,,,,,,
null,,prac_rt_plussign_withcolor,607139,,,,,,,,green,,,null,object_08c.png,object_12a.png,,,,,,,,,,,,,,,,,,
1229.6000000238419,,prac_rt_thecrossant_black,608652,,,,,,,,black_plus_sign,,,50,,,1,1,,,,,,,,,,,,,,,,
null,,prac_color_black,608754,,,,,,,,black_plus_sign,,,null,,,,,,,,,,,,,,,,,,,,
null,,prac_learn_phase(without_color),612255,,,,,,,,black_plus_sign,,,null,object_05a.png,object_03a.png,,,,,,,,,,,,,,,,,,
null,,black_cross(without_color)1,612760,,,,,,,,blue,,,null,object_08c.png,object_12a.png,,,,,,,,,,,,,,,,,,
null,,prac_rt_plussign_withcolor,613262,,,,,,,,blue,,,null,object_05a.png,object_03a.png,,,,,,,,,,,,,,,,,,
836.7000000476837,,prac_rt_thecrossant_black,614835,,,,,,,,black_plus_sign,,,49,,,1,1,,,,,,,,,,,,,,,,
null,,prac_color_black,614936,,,,,,,,black_plus_sign,,,null,,,,,,,,,,,,,,,,,,,,
null,,prac_learn_phase(without_color),618438,,,,,,,,black_plus_sign,,,null,object_10b.png,object_11b.png,,,,,,,,,,,,,,,,,,
null,,black_cross(without_color)1,618941,,,,,,,,blue,,,null,object_08c.png,object_12a.png,,,,,,,,,,,,,,,,,,
null,,prac_rt_plussign_withcolor,619444,,,,,,,,blue,,,null,object_10b.png,object_11b.png,,,,,,,,,,,,,,,,,,
602.1999999284744,,prac_rt_thecrossant_black,620683,,,,,,,,black_plus_sign,,,49,,,1,1,,,,,,,,,,,,,,,,
null,,prac_color_black,620784,,,,,,,,black_plus_sign,,,null,,,,,,,,,,,,,,,,,,,,
null,,prac_learn_phase(without_color),624286,,,,,,,,black_plus_sign,,,null,object_15c.png,object_01a.png,,,,,,,,,,,,,,,,,,
null,,black_cross(without_color)1,624789,,,,,,,,blue,,,null,object_08c.png,object_12a.png,,,,,,,,,,,,,,,,,,
null,,prac_rt_plussign_withcolor,625300,,,,,,,,green,,,null,object_15c.png,object_01a.png,,,,,,,,,,,,,,,,,,
892.3999999761581,,prac_rt_thecrossant_black,626850,,,,,,,,black_plus_sign,,,50,,,1,1,,,,,,,,,,,,,,,,
null,,prac_color_black,626951,,,,,,,,black_plus_sign,,,null,,,,,,,,,,,,,,,,,,,,
22028.600000023842,,instruct_dir_01,648981,,,,,,,,instruct,0,Next,,,,,,,,,,,,,,,,,,,,,
5459.100000023842,,instruct_dir_2,654441,,,,,,,,instruct,1,Next,,,,,,,,,,,,,,,,,,,,,
2897,,instruct_dir_3,657339,,,,,,,,instruct,1,Next,,,,,,,,,,,,,,,,,,,,,
1653,,instruct_dir_4,658993,,,,,,,,instruct,1,Start,,,,,,,,,,,,,,,,,,,,,
null,,thebreak,659095,,,,,,,,<p></p>,,,null,,,,,,,,,,,,,,,,,,,,
1225.6999999284744,,intro_0,660321,,,,,,,,instruct,,,32,,,,,,,,,,,,,,,,,,,,
4154.099999904633,,prac_directmemory_phase,664476,,,,,,,,practice/object_03b.png,,,51,,,1,,practice/object_01a.png,practice/object_04a.png,practice/object_03a.png,practice/object_03a.png,1,1,,,,,,,,,,
3053.5,,prac_directmemory_phase,667531,,,,,,,,practice/object_04b.png,,,49,,,1,,practice/object_04a.png,practice/object_03a.png,practice/object_02a.png,practice/object_04a.png,1,1,,,,,,,,,,
3208.2999999523163,,prac_directmemory_phase,670740,,,,,,,,practice/object_01b.png,,,49,,,1,,practice/object_01a.png,practice/object_02a.png,practice/object_04a.png,practice/object_01a.png,1,1,,,,,,,,,,
3281.6999999284744,,prac_directmemory_phase,674023,,,,,,,,practice/object_02b.png,,,50,,,1,,practice/object_04a.png,practice/object_02a.png,practice/object_03a.png,practice/object_02a.png,1,1,,,,,,,,,,
6118.799999952316,,practice_feedback,680143,,,,,,,,practice_feedback,1,,,,,,,,,,,,,,,,,,,,,,
10439,,proceed_actualTask,690583,,,,,,,,proceed_actualTask,1,Continue,,,,,,,,,,,,,,,,,,,,,
19384.200000047684,,last_inst,709968,,,,,,,,last_inst,,,32,,,,,,,,,,,,,,,,,,,,
null,,learn_phase(without_color)1,713469,,,,,,,,black_plus_sign,,,null,object_08c.png,object_12a.png,,,,,,,,,,,,,,,,,,
null,,black_cross(without_color)1,713972,,,,,,,,blue,,,null,object_08c.png,object_12a.png,,,,,,,,,,,,,,,,,,
null,,rt_plussign_withcolor1,714475,,,,,,,,blue,,,null,object_08c.png,object_12a.png,,,,,,,,,,,,,,,,,,
590.7000000476837,,rt_thecrossant_black1,715974,,,,,,,,black_plus_sign,,,50,,,0,,,,,,,0,,,,,,,,,,
null,,color_black1,716075,,,,,,,,black_plus_sign,,,null,,,,,,,,,,,,,,,,,,,,
null,,learn_phase(without_color)1,719577,,,,,,,,black_plus_sign,,,null,object_05a.png,object_03a.png,,,,,,,,,,,,,,,,,,
null,,black_cross(without_color)1,720252,,,,,,,,green,,,null,object_05a.png,object_03a.png,,,,,,,,,,,,,,,,,,
450.5,,rt_plussign_withcolor1,720753,,,,,,,,green,,,50,object_05a.png,object_03a.png,,,,,,,,,,,,,,,,,,
null,,rt_thecrossant_black1,722081,,,,,,,,black_plus_sign,,,null,,,1,,,,,,,0.5,,,,,,,,,,
null,,color_black1,722183,,,,,,,,black_plus_sign,,,null,,,,,,,,,,,,,,,,,,,,
null,,learn_phase(without_color)1,725684,,,,,,,,black_plus_sign,,,null,object_10b.png,object_11b.png,,,,,,,,,,,,,,,,,,
null,,black_cross(without_color)1,726284,,,,,,,,blue,,,null,object_10b.png,object_11b.png,,,,,,,,,,,,,,,,,,
470.7000000476837,,rt_plussign_withcolor1,726785,,,,,,,,blue,,,49,object_10b.png,object_11b.png,,,,,,,,,,,,,,,,,,
null,,rt_thecrossant_black1,728190,,,,,,,,black_plus_sign,,,null,,,1,,,,,,,0.6666666666666666,,,,,,,,,,
null,,color_black1,728292,,,,,,,,black_plus_sign,,,null,,,,,,,,,,,,,,,,,,,,
null,,learn_phase(without_color)1,731794,,,,,,,,black_plus_sign,,,null,object_15c.png,object_01a.png,,,,,,,,,,,,,,,,,,
null,,black_cross(without_color)1,732872,,,,,,,,blue,,,null,object_15c.png,object_01a.png,,,,,,,,,,,,,,,,,,
null,,rt_plussign_withcolor1,733373,,,,,,,,blue,,,null,object_15c.png,object_01a.png,,,,,,,,,,,,,,,,,,
761.6000000238419,,rt_thecrossant_black1,734299,,,,,,,,black_plus_sign,,,49,,,1,,,,,,,0.75,,,,,,,,,,
null,,color_black1,734401,,,,,,,,black_plus_sign,,,null,,,,,,,,,,,,,,,,,,,,
null,,learn_phase(without_color)1,737903,,,,,,,,black_plus_sign,,,null,object_03c.png,object_14c.png,,,,,,,,,,,,,,,,,,
null,,black_cross(without_color)1,738390,,,,,,,,blue,,,null,object_03c.png,object_14c.png,,,,,,,,,,,,,,,,,,
null,,rt_plussign_withcolor1,738892,,,,,,,,blue,,,null,object_03c.png,object_14c.png,,,,,,,,,,,,,,,,,,
1254.8999999761581,,rt_thecrossant_black1,740408,,,,,,,,black_plus_sign,,,49,,,1,,,,,,,0.8,,,,,,,,,,
null,,color_black1,740511,,,,,,,,black_plus_sign,,,null,,,,,,,,,,,,,,,,,,,,
null,,learn_phase(without_color)1,744013,,,,,,,,black_plus_sign,,,null,object_10c.png,object_06c.png,,,,,,,,,,,,,,,,,,
null,,black_cross(without_color)1,744513,,,,,,,,green,,,null,object_10c.png,object_06c.png,,,,,,,,,,,,,,,,,,
null,,rt_plussign_withcolor1,745015,,,,,,,,green,,,null,object_10c.png,object_06c.png,,,,,,,,,,,,,,,,,,
675.3999999761581,,rt_thecrossant_black1,746516,,,,,,,,black_plus_sign,,,50,,,1,,,,,,,0.8333333333333334,,,,,,,,,,
null,,color_black1,746619,,,,,,,,black_plus_sign,,,null,,,,,,,,,,,,,,,,,,,,
null,,learn_phase(without_color)1,750120,,,,,,,,black_plus_sign,,,null,object_15a.png,object_03c.png,,,,,,,,,,,,,,,,,,
null,,black_cross(without_color)1,750835,,,,,,,,blue,,,null,object_15a.png,object_03c.png,,,,,,,,,,,,,,,,,,
null,,rt_plussign_withcolor1,751336,,,,,,,,blue,,,null,object_15a.png,object_03c.png,,,,,,,,,,,,,,,,,,
1034,,rt_thecrossant_black1,752624,,,,,,,,black_plus_sign,,,49,,,1,,,,,,,0.8571428571428571,,,,,,,,,,
null,,color_black1,752725,,,,,,,,black_plus_sign,,,null,,,,,,,,,,,,,,,,,,,,
null,,learn_phase(without_color)1,756227,,,,,,,,black_plus_sign,,,null,object_04a.png,object_05a.png,,,,,,,,,,,,,,,,,,
null,,black_cross(without_color)1,756952,,,,,,,,blue,,,null,object_04a.png,object_05a.png,,,,,,,,,,,,,,,,,,
487.7999999523163,,rt_plussign_withcolor1,757454,,,,,,,,blue,,,49,object_04a.png,object_05a.png,,,,,,,,,,,,,,,,,,
null,,rt_thecrossant_black1,758733,,,,,,,,black_plus_sign,,,null,,,1,,,,,,,0.875,,,,,,,,,,
null,,color_black1,758835,,,,,,,,black_plus_sign,,,null,,,,,,,,,,,,,,,,,,,,
null,,learn_phase(without_color)1,762337,,,,,,,,black_plus_sign,,,null,object_07c.png,object_10a.png,,,,,,,,,,,,,,,,,,
null,,black_cross(without_color)1,762758,,,,,,,,blue,,,null,object_07c.png,object_10a.png,,,,,,,,,,,,,,,,,,
null,,rt_plussign_withcolor1,763260,,,,,,,,blue,,,null,object_07c.png,object_10a.png,,,,,,,,,,,,,,,,,,
1070.3999999761581,,rt_thecrossant_black1,764841,,,,,,,,black_plus_sign,,,49,,,1,,,,,,,0.8888888888888888,,,,,,,,,,
null,,color_black1,764943,,,,,,,,black_plus_sign,,,null,,,,,,,,,,,,,,,,,,,,
null,,learn_phase(without_color)1,768445,,,,,,,,black_plus_sign,,,null,object_04b.png,object_11a.png,,,,,,,,,,,,,,,,,,
null,,black_cross(without_color)1,769257,,,,,,,,green,,,null,object_04b.png,object_11a.png,,,,,,,,,,,,,,,,,,
null,,rt_plussign_withcolor1,769759,,,,,,,,green,,,null,object_04b.png,object_11a.png,,,,,,,,,,,,,,,,,,
709.8000000715256,,rt_thecrossant_black1,770950,,,,,,,,black_plus_sign,,,50,,,1,,,,,,,0.9,,,,,,,,,,
null,,color_black1,771051,,,,,,,,black_plus_sign,,,null,,,,,,,,,,,,,,,,,,,,
null,,learn_phase(without_color)1,774553,,,,,,,,black_plus_sign,,,null,object_11a.png,object_08a.png,,,,,,,,,,,,,,,,,,
null,,black_cross(without_color)1,775147,,,,,,,,blue,,,null,object_11a.png,object_08a.png,,,,,,,,,,,,,,,,,,
null,,rt_plussign_withcolor1,775649,,,,,,,,blue,,,null,object_11a.png,object_08a.png,,,,,,,,,,,,,,,,,,
1140,,rt_thecrossant_black1,777058,,,,,,,,black_plus_sign,,,49,,,1,,,,,,,0.9090909090909091,,,,,,,,,,
null,,color_black1,777160,,,,,,,,black_plus_sign,,,null,,,,,,,,,,,,,,,,,,,,
null,,learn_phase(without_color)1,780663,,,,,,,,black_plus_sign,,,null,object_12b.png,object_12c.png,,,,,,,,,,,,,,,,,,
null,,black_cross(without_color)1,781435,,,,,,,,blue,,,null,object_12b.png,object_12c.png,,,,,,,,,,,,,,,,,,
432.10000002384186,,rt_plussign_withcolor1,781937,,,,,,,,blue,,,49,object_12b.png,object_12c.png,,,,,,,,,,,,,,,,,,
null,,rt_thecrossant_black1,783168,,,,,,,,black_plus_sign,,,null,,,1,,,,,,,0.9166666666666666,,,,,,,,,,
null,,color_black1,783270,,,,,,,,black_plus_sign,,,null,,,,,,,,,,,,,,,,,,,,
null,,learn_phase(without_color)1,786773,,,,,,,,black_plus_sign,,,null,object_15b.png,object_05b.png,,,,,,,,,,,,,,,,,,
null,,black_cross(without_color)1,787514,,,,,,,,blue,,,null,object_15b.png,object_05b.png,,,,,,,,,,,,,,,,,,
433.60000002384186,,rt_plussign_withcolor1,788015,,,,,,,,blue,,,49,object_15b.png,object_05b.png,,,,,,,,,,,,,,,,,,
null,,rt_thecrossant_black1,789277,,,,,,,,black_plus_sign,,,null,,,1,,,,,,,0.9230769230769231,,,,,,,,,,
null,,color_black1,789378,,,,,,,,black_plus_sign,,,null,,,,,,,,,,,,,,,,,,,,
null,,learn_phase(without_color)1,792880,,,,,,,,black_plus_sign,,,null,object_01c.png,object_06a.png,,,,,,,,,,,,,,,,,,
null,,black_cross(without_color)1,793894,,,,,,,,blue,,,null,object_01c.png,object_06a.png,,,,,,,,,,,,,,,,,,
null,,rt_plussign_withcolor1,794396,,,,,,,,blue,,,null,object_01c.png,object_06a.png,,,,,,,,,,,,,,,,,,
946,,rt_thecrossant_black1,795384,,,,,,,,black_plus_sign,,,49,,,1,,,,,,,0.9285714285714286,,,,,,,,,,
null,,color_black1,795486,,,,,,,,black_plus_sign,,,null,,,,,,,,,,,,,,,,,,,,
null,,learn_phase(without_color)1,798988,,,,,,,,black_plus_sign,,,null,object_13b.png,object_07b.png,,,,,,,,,,,,,,,,,,
null,,black_cross(without_color)1,800013,,,,,,,,blue,,,null,object_13b.png,object_07b.png,,,,,,,,,,,,,,,,,,
null,,rt_plussign_withcolor1,800515,,,,,,,,blue,,,null,object_13b.png,object_07b.png,,,,,,,,,,,,,,,,,,
1554.1000000238419,,rt_thecrossant_black1,801494,,,,,,,,black_plus_sign,,,49,,,1,,,,,,,0.9333333333333333,,,,,,,,,,
null,,color_black1,801595,,,,,,,,black_plus_sign,,,null,,,,,,,,,,,,,,,,,,,,
null,,learn_phase(without_color)1,805098,,,,,,,,black_plus_sign,,,null,object_09c.png,object_14a.png,,,,,,,,,,,,,,,,,,
null,,black_cross(without_color)1,805598,,,,,,,,green,,,null,object_09c.png,object_14a.png,,,,,,,,,,,,,,,,,,
null,,rt_plussign_withcolor1,806100,,,,,,,,green,,,null,object_09c.png,object_14a.png,,,,,,,,,,,,,,,,,,
1242.8999999761581,,rt_thecrossant_black1,807603,,,,,,,,black_plus_sign,,,50,,,1,,,,,,,0.9375,,,,,,,,,,
null,,color_black1,807704,,,,,,,,black_plus_sign,,,null,,,,,,,,,,,,,,,,,,,,
null,,learn_phase(without_color)1,811206,,,,,,,,black_plus_sign,,,null,object_11c.png,object_09b.png,,,,,,,,,,,,,,,,,,
null,,black_cross(without_color)1,811933,,,,,,,,green,,,null,object_11c.png,object_09b.png,,,,,,,,,,,,,,,,,,
null,,rt_plussign_withcolor1,812434,,,,,,,,green,,,null,object_11c.png,object_09b.png,,,,,,,,,,,,,,,,,,
902.1999999284744,,rt_thecrossant_black1,813711,,,,,,,,black_plus_sign,,,50,,,1,,,,,,,0.9411764705882353,,,,,,,,,,
null,,color_black1,813812,,,,,,,,black_plus_sign,,,null,,,,,,,,,,,,,,,,,,,,
null,,learn_phase(without_color)1,817316,,,,,,,,black_plus_sign,,,null,object_07a.png,object_10c.png,,,,,,,,,,,,,,,,,,
null,,black_cross(without_color)1,817729,,,,,,,,blue,,,null,object_07a.png,object_10c.png,,,,,,,,,,,,,,,,,,
null,,rt_plussign_withcolor1,818231,,,,,,,,blue,,,null,object_07a.png,object_10c.png,,,,,,,,,,,,,,,,,,
870.8999999761581,,rt_thecrossant_black1,819821,,,,,,,,black_plus_sign,,,49,,,1,,,,,,,0.9444444444444444,,,,,,,,,,
null,,color_black1,819923,,,,,,,,black_plus_sign,,,null,,,,,,,,,,,,,,,,,,,,
null,,learn_phase(without_color)1,823425,,,,,,,,black_plus_sign,,,null,object_02a.png,object_09c.png,,,,,,,,,,,,,,,,,,
null,,black_cross(without_color)1,824169,,,,,,,,blue,,,null,object_02a.png,object_09c.png,,,,,,,,,,,,,,,,,,
405.8000000715256,,rt_plussign_withcolor1,824671,,,,,,,,blue,,,49,object_02a.png,object_09c.png,,,,,,,,,,,,,,,,,,
null,,rt_thecrossant_black1,825930,,,,,,,,black_plus_sign,,,null,,,1,,,,,,,0.9473684210526315,,,,,,,,,,
null,,color_black1,826031,,,,,,,,black_plus_sign,,,null,,,,,,,,,,,,,,,,,,,,
null,,learn_phase(without_color)1,829534,,,,,,,,black_plus_sign,,,null,object_09b.png,object_02c.png,,,,,,,,,,,,,,,,,,
null,,black_cross(without_color)1,830307,,,,,,,,green,,,null,object_09b.png,object_02c.png,,,,,,,,,,,,,,,,,,
null,,rt_plussign_withcolor1,830811,,,,,,,,green,,,null,object_09b.png,object_02c.png,,,,,,,,,,,,,,,,,,
978.1000000238419,,rt_thecrossant_black1,832042,,,,,,,,black_plus_sign,,,50,,,1,,,,,,,0.95,,,,,,,,,,
null,,color_black1,832143,,,,,,,,black_plus_sign,,,null,,,,,,,,,,,,,,,,,,,,
null,,learn_phase(without_color)1,835644,,,,,,,,black_plus_sign,,,null,object_06b.png,object_05c.png,,,,,,,,,,,,,,,,,,
null,,black_cross(without_color)1,836414,,,,,,,,green,,,null,object_06b.png,object_05c.png,,,,,,,,,,,,,,,,,,
null,,rt_plussign_withcolor1,836916,,,,,,,,green,,,null,object_06b.png,object_05c.png,,,,,,,,,,,,,,,,,,
953.5999999046326,,rt_thecrossant_black1,838150,,,,,,,,black_plus_sign,,,50,,,1,,,,,,,0.9523809523809523,,,,,,,,,,
null,,color_black1,838252,,,,,,,,black_plus_sign,,,null,,,,,,,,,,,,,,,,,,,,
null,,learn_phase(without_color)1,841754,,,,,,,,black_plus_sign,,,null,object_05c.png,object_04c.png,,,,,,,,,,,,,,,,,,
null,,black_cross(without_color)1,842855,,,,,,,,blue,,,null,object_05c.png,object_04c.png,,,,,,,,,,,,,,,,,,
null,,rt_plussign_withcolor1,843369,,,,,,,,blue,,,null,object_05c.png,object_04c.png,,,,,,,,,,,,,,,,,,
1092.8000000715256,,rt_thecrossant_black1,844272,,,,,,,,black_plus_sign,,,49,,,1,,,,,,,0.9545454545454546,,,,,,,,,,
null,,color_black1,844374,,,,,,,,black_plus_sign,,,null,,,,,,,,,,,,,,,,,,,,
null,,learn_phase(without_color)1,847877,,,,,,,,black_plus_sign,,,null,object_01a.png,object_03b.png,,,,,,,,,,,,,,,,,,
null,,black_cross(without_color)1,848621,,,,,,,,blue,,,null,object_01a.png,object_03b.png,,,,,,,,,,,,,,,,,,
null,,rt_plussign_withcolor1,849122,,,,,,,,blue,,,null,object_01a.png,object_03b.png,,,,,,,,,,,,,,,,,,
1317.8000000715256,,rt_thecrossant_black1,850381,,,,,,,,black_plus_sign,,,49,,,1,,,,,,,0.9565217391304348,,,,,,,,,,
null,,color_black1,850483,,,,,,,,black_plus_sign,,,null,,,,,,,,,,,,,,,,,,,,
null,,learn_phase(without_color)1,853997,,,,,,,,black_plus_sign,,,null,object_05b.png,object_09a.png,,,,,,,,,,,,,,,,,,
null,,black_cross(without_color)1,854937,,,,,,,,blue,,,null,object_05b.png,object_09a.png,,,,,,,,,,,,,,,,,,
null,,rt_plussign_withcolor1,855438,,,,,,,,blue,,,null,object_05b.png,object_09a.png,,,,,,,,,,,,,,,,,,
858.5,,rt_thecrossant_black1,856502,,,,,,,,black_plus_sign,,,49,,,1,,,,,,,0.9583333333333334,,,,,,,,,,
null,,color_black1,856604,,,,,,,,black_plus_sign,,,null,,,,,,,,,,,,,,,,,,,,
null,,learn_phase(without_color)1,860107,,,,,,,,black_plus_sign,,,null,object_13c.png,object_01c.png,,,,,,,,,,,,,,,,,,
null,,black_cross(without_color)1,860856,,,,,,,,green,,,null,object_13c.png,object_01c.png,,,,,,,,,,,,,,,,,,
null,,rt_plussign_withcolor1,861357,,,,,,,,green,,,null,object_13c.png,object_01c.png,,,,,,,,,,,,,,,,,,
1119.3999999761581,,rt_thecrossant_black1,862611,,,,,,,,black_plus_sign,,,50,,,1,,,,,,,0.96,,,,,,,,,,
null,,color_black1,862712,,,,,,,,black_plus_sign,,,null,,,,,,,,,,,,,,,,,,,,
null,,learn_phase(without_color)1,866214,,,,,,,,black_plus_sign,,,null,object_13a.png,object_10b.png,,,,,,,,,,,,,,,,,,
null,,black_cross(without_color)1,866634,,,,,,,,blue,,,null,object_13a.png,object_10b.png,,,,,,,,,,,,,,,,,,
null,,rt_plussign_withcolor1,867136,,,,,,,,blue,,,null,object_13a.png,object_10b.png,,,,,,,,,,,,,,,,,,
1820,,rt_thecrossant_black1,868719,,,,,,,,black_plus_sign,,,49,,,1,,,,,,,0.9615384615384616,,,,,,,,,,
null,,color_black1,868820,,,,,,,,black_plus_sign,,,null,,,,,,,,,,,,,,,,,,,,
null,,learn_phase(without_color)1,872323,,,,,,,,black_plus_sign,,,null,object_10a.png,object_08b.png,,,,,,,,,,,,,,,,,,
null,,black_cross(without_color)1,872829,,,,,,,,green,,,null,object_10a.png,object_08b.png,,,,,,,,,,,,,,,,,,
null,,rt_plussign_withcolor1,873331,,,,,,,,green,,,null,object_10a.png,object_08b.png,,,,,,,,,,,,,,,,,,
837.8999999761581,,rt_thecrossant_black1,874828,,,,,,,,black_plus_sign,,,50,,,1,,,,,,,0.9629629629629629,,,,,,,,,,
null,,color_black1,874930,,,,,,,,black_plus_sign,,,null,,,,,,,,,,,,,,,,,,,,
null,,learn_phase(without_color)1,878431,,,,,,,,black_plus_sign,,,null,object_12c.png,object_14b.png,,,,,,,,,,,,,,,,,,
null,,black_cross(without_color)1,879224,,,,,,,,blue,,,null,object_12c.png,object_14b.png,,,,,,,,,,,,,,,,,,
null,,rt_plussign_withcolor1,879725,,,,,,,,blue,,,null,object_12c.png,object_14b.png,,,,,,,,,,,,,,,,,,
889.7000000476837,,rt_thecrossant_black1,880936,,,,,,,,black_plus_sign,,,49,,,1,,,,,,,0.9642857142857143,,,,,,,,,,
null,,color_black1,881038,,,,,,,,black_plus_sign,,,null,,,,,,,,,,,,,,,,,,,,
null,,learn_phase(without_color)1,884540,,,,,,,,black_plus_sign,,,null,object_12a.png,object_01b.png,,,,,,,,,,,,,,,,,,
null,,black_cross(without_color)1,885303,,,,,,,,blue,,,null,object_12a.png,object_01b.png,,,,,,,,,,,,,,,,,,
null,,rt_plussign_withcolor1,885804,,,,,,,,blue,,,null,object_12a.png,object_01b.png,,,,,,,,,,,,,,,,,,
1044.3999999761581,,rt_thecrossant_black1,887046,,,,,,,,black_plus_sign,,,49,,,1,,,,,,,0.9655172413793104,,,,,,,,,,
null,,color_black1,887147,,,,,,,,black_plus_sign,,,null,,,,,,,,,,,,,,,,,,,,
null,,learn_phase(without_color)1,890649,,,,,,,,black_plus_sign,,,null,object_07b.png,object_02b.png,,,,,,,,,,,,,,,,,,
null,,black_cross(without_color)1,891735,,,,,,,,green,,,null,object_07b.png,object_02b.png,,,,,,,,,,,,,,,,,,
396.2999999523163,,rt_plussign_withcolor1,892237,,,,,,,,green,,,50,object_07b.png,object_02b.png,,,,,,,,,,,,,,,,,,
null,,rt_thecrossant_black1,893154,,,,,,,,black_plus_sign,,,null,,,1,,,,,,,0.9666666666666667,,,,,,,,,,
null,,color_black1,893256,,,,,,,,black_plus_sign,,,null,,,,,,,,,,,,,,,,,,,,
null,,thebreak,893358,,,,,,,,<p></p>,,,null,,,,,,,,,,,,,,,,,,,,
9897.299999952316,,intro_0,903256,,,,,,,,instruct,,,32,,,,,,,,,,,,,,,,,,,,
null,,directmemory_phase1,918258,,,,,,,,object_14a.png,,,null,,,0,,object_11a.png,object_05c.png,object_09c.png,object_09c.png,,0,,0,,,,,,,,
null,,warning_page,923259,,,,,,,,warning,,,null,,,,,,,,,,,,,,,,,,,,
5626,,directmemory_phase1,928886,,,,,,,,object_04c.png,,,50,,,1,,object_05b.png,object_05c.png,object_12c.png,object_05c.png,,0.5,,1,,,,,,,,
4236.200000047684,,directmemory_phase1,933124,,,,,,,,object_12a.png,,,51,,,0,,object_08c.png,object_11c.png,object_13c.png,object_08c.png,,0.3333333333333333,,0,,,,,,,,
4457.299999952316,,directmemory_phase1,937582,,,,,,,,object_10c.png,,,49,,,1,,object_07a.png,object_13a.png,object_08c.png,object_07a.png,,0.5,,1,,,,,,,,
4531.600000023842,,directmemory_phase1,942115,,,,,,,,object_05c.png,,,51,,,0,,object_15b.png,object_06b.png,object_13a.png,object_06b.png,,0.4,,0,,,,,,,,
2515.2000000476837,,directmemory_phase1,944631,,,,,,,,object_06a.png,,,49,,,1,,object_01c.png,object_11a.png,object_03c.png,object_01c.png,,0.5,,1,,,,,,,,
4447.699999928474,,directmemory_phase1,949080,,,,,,,,object_09a.png,,,51,,,1,,object_10c.png,object_05c.png,object_05b.png,object_05b.png,,0.5714285714285714,,1,,,,,,,,
2467.8000000715256,,directmemory_phase1,951549,,,,,,,,object_09c.png,,,49,,,1,,object_02a.png,object_08c.png,object_12b.png,object_02a.png,,0.625,,1,,,,,,,,
4468.399999976158,,directmemory_phase1,956018,,,,,,,,object_03a.png,,,51,,,0,,object_05a.png,object_01a.png,object_03c.png,object_05a.png,,0.5555555555555556,,0,,,,,,,,
3635.600000023842,,directmemory_phase1,959655,,,,,,,,object_14b.png,,,50,,,1,,object_10b.png,object_12c.png,object_09c.png,object_12c.png,,0.6,,1,,,,,,,,
2059.600000023842,,directmemory_phase1,961716,,,,,,,,object_02c.png,,,50,,,1,,object_05b.png,object_09b.png,object_03c.png,object_09b.png,,0.6363636363636364,,1,,,,,,,,
3825.899999976158,,directmemory_phase1,965543,,,,,,,,object_01b.png,,,51,,,1,,object_01c.png,object_03c.png,object_12a.png,object_12a.png,,0.6666666666666666,,1,,,,,,,,
4547,,directmemory_phase1,970091,,,,,,,,object_05b.png,,,51,,,0,,object_13c.png,object_15b.png,object_04a.png,object_15b.png,,0.6153846153846154,,0,,,,,,,,
4253.5,,directmemory_phase1,974345,,,,,,,,object_11b.png,,,49,,,1,,object_10b.png,object_12a.png,object_09c.png,object_10b.png,,0.6428571428571429,,1,,,,,,,,
2616.600000023842,,directmemory_phase1,976963,,,,,,,,object_08b.png,,,51,,,1,,object_05b.png,object_01a.png,object_10a.png,object_10a.png,,0.6666666666666666,,1,,,,,,,,
4761.299999952316,,directmemory_phase1,981725,,,,,,,,object_14c.png,,,51,,,0,,object_05c.png,object_03c.png,object_12a.png,object_03c.png,,0.625,,0,,,,,,,,
3919,,directmemory_phase1,985646,,,,,,,,object_03b.png,,,51,,,1,,object_10a.png,object_05c.png,object_01a.png,object_01a.png,,0.6470588235294118,,1,,,,,,,,
4993.899999976158,,directmemory_phase1,990641,,,,,,,,object_08a.png,,,49,,,1,,object_11a.png,object_10c.png,object_12a.png,object_11a.png,,0.6666666666666666,,1,,,,,,,,
4074.899999976158,,directmemory_phase1,994717,,,,,,,,object_10b.png,,,50,,,1,,object_04b.png,object_13a.png,object_02a.png,object_13a.png,,0.6842105263157895,,1,,,,,,,,
4553.399999976158,,directmemory_phase1,999271,,,,,,,,object_09b.png,,,49,,,1,,object_11c.png,object_12b.png,object_15c.png,object_11c.png,,0.7,,1,,,,,,,,
3402.5,,directmemory_phase1,1002675,,,,,,,,object_11a.png,,,51,,,0,,object_04b.png,object_12b.png,object_13c.png,object_04b.png,,0.6666666666666666,,0,,,,,,,,
3984.7000000476837,,directmemory_phase1,1006661,,,,,,,,object_05a.png,,,49,,,1,,object_04a.png,object_07c.png,object_13a.png,object_04a.png,,0.6818181818181818,,1,,,,,,,,
4752.400000095367,,directmemory_phase1,1011415,,,,,,,,object_01a.png,,,50,,,0,,object_07c.png,object_02a.png,object_15c.png,object_15c.png,,0.6521739130434783,,0,,,,,,,,
5067.100000023842,,directmemory_phase1,1016483,,,,,,,,object_07b.png,,,51,,,0,,object_08c.png,object_13b.png,object_15c.png,object_13b.png,,0.625,,0,,,,,,,,
4096,,directmemory_phase1,1020580,,,,,,,,object_10a.png,,,51,,,0,,object_13a.png,object_07c.png,object_04a.png,object_07c.png,,0.6,,0,,,,,,,,
5059.700000047684,,directmemory_phase1,1025641,,,,,,,,object_12c.png,,,49,,,0,,object_13a.png,object_04b.png,object_12b.png,object_12b.png,,0.5769230769230769,,0,,,,,,,,
3449.2000000476837,,directmemory_phase1,1029091,,,,,,,,object_01c.png,,,50,,,1,,object_13a.png,object_13c.png,object_04a.png,object_13c.png,,0.5925925925925926,,1,,,,,,,,
4411.699999928474,,directmemory_phase1,1033504,,,,,,,,object_06c.png,,,49,,,0,,object_12c.png,object_10c.png,object_01c.png,object_10c.png,,0.5714285714285714,,0,,,,,,,,
3472.600000023842,,directmemory_phase1,1036978,,,,,,,,object_02b.png,,,50,,,1,,object_10a.png,object_07b.png,object_01c.png,object_07b.png,,0.5862068965517241,,1,,,,,,,,
5302.100000023842,,directmemory_phase1,1042281,,,,,,,,object_03c.png,,,51,,,0,,object_15a.png,object_06b.png,object_04a.png,object_15a.png,,0.5666666666666667,,0,,,,,,,,
null,,thebreak,1042382,,,,,,,,<p></p>,,,null,,,,,,,,,,,,,,,,,,,,
1603.2999999523163,,intro_0,1043986,,,,,,,,instruct,,,32,,,,,,,,,,,,,,,,,,,,
null,,learn_phase(without_color)2,1047489,,,,,,,,black_plus_sign,,,null,object_11c.png,object_09b.png,,,,,,,,,,,,,,,,,,
null,,black_cross(without_color)2,1048417,,,,,,,,green,,,null,object_11c.png,object_09b.png,,,,,,,,,,,,,,,,,,
null,,rt_plussign_withcolor2,1048918,,,,,,,,green,,,null,object_11c.png,object_09b.png,,,,,,,,,,,,,,,,,,
null,,rt_thecrossant_black2,1049994,,,,,,,,black_plus_sign,,,null,,,,,,,,,,NaN,,,,,,,,,,
null,,color_black2,1050097,,,,,,,,black_plus_sign,,,null,,,,,,,,,,,,,,,,,,,,
null,,learn_phase(without_color)2,1053599,,,,,,,,black_plus_sign,,,null,object_11a.png,object_08a.png,,,,,,,,,,,,,,,,,,
null,,black_cross(without_color)2,1054215,,,,,,,,green,,,null,object_11a.png,object_08a.png,,,,,,,,,,,,,,,,,,
null,,rt_plussign_withcolor2,1054716,,,,,,,,green,,,null,object_11a.png,object_08a.png,,,,,,,,,,,,,,,,,,
1170.8999999761581,,rt_thecrossant_black2,1056104,,,,,,,,black_plus_sign,,,50,,,1,,,,,,,1,,,,,,,,,,
null,,color_black2,1056206,,,,,,,,black_plus_sign,,,null,,,,,,,,,,,,,,,,,,,,
null,,learn_phase(without_color)2,1059709,,,,,,,,black_plus_sign,,,null,object_13a.png,object_10b.png,,,,,,,,,,,,,,,,,,
null,,black_cross(without_color)2,1060582,,,,,,,,green,,,null,object_13a.png,object_10b.png,,,,,,,,,,,,,,,,,,
null,,rt_plussign_withcolor2,1061083,,,,,,,,green,,,null,object_13a.png,object_10b.png,,,,,,,,,,,,,,,,,,
985.1999999284744,,rt_thecrossant_black2,1062213,,,,,,,,black_plus_sign,,,50,,,1,,,,,,,1,,,,,,,,,,
null,,color_black2,1062315,,,,,,,,black_plus_sign,,,null,,,,,,,,,,,,,,,,,,,,
null,,learn_phase(without_color)2,1065817,,,,,,,,black_plus_sign,,,null,object_04b.png,object_11a.png,,,,,,,,,,,,,,,,,,
null,,black_cross(without_color)2,1066726,,,,,,,,blue,,,null,object_04b.png,object_11a.png,,,,,,,,,,,,,,,,,,
null,,rt_plussign_withcolor2,1067228,,,,,,,,blue,,,null,object_04b.png,object_11a.png,,,,,,,,,,,,,,,,,,
1474.8000000715256,,rt_thecrossant_black2,1068321,,,,,,,,black_plus_sign,,,49,,,1,,,,,,,1,,,,,,,,,,
null,,color_black2,1068423,,,,,,,,black_plus_sign,,,null,,,,,,,,,,,,,,,,,,,,
null,,learn_phase(without_color)2,1071925,,,,,,,,black_plus_sign,,,null,object_15a.png,object_03c.png,,,,,,,,,,,,,,,,,,
null,,black_cross(without_color)2,1072943,,,,,,,,green,,,null,object_15a.png,object_03c.png,,,,,,,,,,,,,,,,,,
407.5,,rt_plussign_withcolor2,1073444,,,,,,,,green,,,50,object_15a.png,object_03c.png,,,,,,,,,,,,,,,,,,
null,,rt_thecrossant_black2,1074428,,,,,,,,black_plus_sign,,,null,,,1,,,,,,,1,,,,,,,,,,
null,,color_black2,1074530,,,,,,,,black_plus_sign,,,null,,,,,,,,,,,,,,,,,,,,
null,,learn_phase(without_color)2,1078032,,,,,,,,black_plus_sign,,,null,object_10c.png,object_06c.png,,,,,,,,,,,,,,,,,,
null,,black_cross(without_color)2,1078677,,,,,,,,green,,,null,object_10c.png,object_06c.png,,,,,,,,,,,,,,,,,,
null,,rt_plussign_withcolor2,1079178,,,,,,,,green,,,null,object_10c.png,object_06c.png,,,,,,,,,,,,,,,,,,
1386.2999999523163,,rt_thecrossant_black2,1080537,,,,,,,,black_plus_sign,,,50,,,1,,,,,,,1,,,,,,,,,,
null,,color_black2,1080639,,,,,,,,black_plus_sign,,,null,,,,,,,,,,,,,,,,,,,,
null,,learn_phase(without_color)2,1084141,,,,,,,,black_plus_sign,,,null,object_10b.png,object_11b.png,,,,,,,,,,,,,,,,,,
null,,black_cross(without_color)2,1084883,,,,,,,,blue,,,null,object_10b.png,object_11b.png,,,,,,,,,,,,,,,,,,
333.89999997615814,,rt_plussign_withcolor2,1085385,,,,,,,,blue,,,49,object_10b.png,object_11b.png,,,,,,,,,,,,,,,,,,
null,,rt_thecrossant_black2,1086647,,,,,,,,black_plus_sign,,,null,,,1,,,,,,,1,,,,,,,,,,
null,,color_black2,1086749,,,,,,,,black_plus_sign,,,null,,,,,,,,,,,,,,,,,,,,
null,,learn_phase(without_color)2,1090250,,,,,,,,black_plus_sign,,,null,object_09c.png,object_14a.png,,,,,,,,,,,,,,,,,,
null,,black_cross(without_color)2,1090851,,,,,,,,green,,,null,object_09c.png,object_14a.png,,,,,,,,,,,,,,,,,,
483.1999999284744,,rt_plussign_withcolor2,1091353,,,,,,,,green,,,50,object_09c.png,object_14a.png,,,,,,,,,,,,,,,,,,
null,,rt_thecrossant_black2,1092756,,,,,,,,black_plus_sign,,,null,,,1,,,,,,,1,,,,,,,,,,
null,,color_black2,1092858,,,,,,,,black_plus_sign,,,null,,,,,,,,,,,,,,,,,,,,
null,,learn_phase(without_color)2,1096360,,,,,,,,black_plus_sign,,,null,object_15c.png,object_01a.png,,,,,,,,,,,,,,,,,,
null,,black_cross(without_color)2,1097070,,,,,,,,blue,,,null,object_15c.png,object_01a.png,,,,,,,,,,,,,,,,,,
null,,rt_plussign_withcolor2,1097571,,,,,,,,blue,,,null,object_15c.png,object_01a.png,,,,,,,,,,,,,,,,,,
863.1000000238419,,rt_thecrossant_black2,1098864,,,,,,,,black_plus_sign,,,49,,,1,,,,,,,1,,,,,,,,,,
null,,color_black2,1098966,,,,,,,,black_plus_sign,,,null,,,,,,,,,,,,,,,,,,,,
null,,learn_phase(without_color)2,1102467,,,,,,,,black_plus_sign,,,null,object_02a.png,object_09c.png,,,,,,,,,,,,,,,,,,
null,,black_cross(without_color)2,1102893,,,,,,,,green,,,null,object_02a.png,object_09c.png,,,,,,,,,,,,,,,,,,
null,,rt_plussign_withcolor2,1103394,,,,,,,,green,,,null,object_02a.png,object_09c.png,,,,,,,,,,,,,,,,,,
1047.5,,rt_thecrossant_black2,1104973,,,,,,,,black_plus_sign,,,50,,,1,,,,,,,1,,,,,,,,,,
null,,color_black2,1105078,,,,,,,,black_plus_sign,,,null,,,,,,,,,,,,,,,,,,,,
null,,learn_phase(without_color)2,1108580,,,,,,,,black_plus_sign,,,null,object_05b.png,object_09a.png,,,,,,,,,,,,,,,,,,
null,,black_cross(without_color)2,1109441,,,,,,,,green,,,null,object_05b.png,object_09a.png,,,,,,,,,,,,,,,,,,
null,,rt_plussign_withcolor2,1109949,,,,,,,,green,,,null,object_05b.png,object_09a.png,,,,,,,,,,,,,,,,,,
755.8999999761581,,rt_thecrossant_black2,1111104,,,,,,,,black_plus_sign,,,50,,,1,,,,,,,1,,,,,,,,,,
null,,color_black2,1111206,,,,,,,,black_plus_sign,,,null,,,,,,,,,,,,,,,,,,,,
null,,learn_phase(without_color)2,1114708,,,,,,,,black_plus_sign,,,null,object_08c.png,object_12a.png,,,,,,,,,,,,,,,,,,
null,,black_cross(without_color)2,1115161,,,,,,,,green,,,null,object_08c.png,object_12a.png,,,,,,,,,,,,,,,,,,
null,,rt_plussign_withcolor2,1115663,,,,,,,,green,,,null,object_08c.png,object_12a.png,,,,,,,,,,,,,,,,,,
1123.7999999523163,,rt_thecrossant_black2,1117215,,,,,,,,black_plus_sign,,,50,,,1,,,,,,,1,,,,,,,,,,
null,,color_black2,1117317,,,,,,,,black_plus_sign,,,null,,,,,,,,,,,,,,,,,,,,
null,,learn_phase(without_color)2,1120819,,,,,,,,black_plus_sign,,,null,object_05a.png,object_03a.png,,,,,,,,,,,,,,,,,,
null,,black_cross(without_color)2,1121909,,,,,,,,blue,,,null,object_05a.png,object_03a.png,,,,,,,,,,,,,,,,,,
425.89999997615814,,rt_plussign_withcolor2,1122411,,,,,,,,blue,,,49,object_05a.png,object_03a.png,,,,,,,,,,,,,,,,,,
null,,rt_thecrossant_black2,1123325,,,,,,,,black_plus_sign,,,null,,,1,,,,,,,1,,,,,,,,,,
null,,color_black2,1123427,,,,,,,,black_plus_sign,,,null,,,,,,,,,,,,,,,,,,,,
null,,learn_phase(without_color)2,1126928,,,,,,,,black_plus_sign,,,null,object_09b.png,object_02c.png,,,,,,,,,,,,,,,,,,
null,,black_cross(without_color)2,1127913,,,,,,,,green,,,null,object_09b.png,object_02c.png,,,,,,,,,,,,,,,,,,
null,,rt_plussign_withcolor2,1128415,,,,,,,,green,,,null,object_09b.png,object_02c.png,,,,,,,,,,,,,,,,,,
1246.8999999761581,,rt_thecrossant_black2,1129437,,,,,,,,black_plus_sign,,,50,,,1,,,,,,,1,,,,,,,,,,
null,,color_black2,1129539,,,,,,,,black_plus_sign,,,null,,,,,,,,,,,,,,,,,,,,
null,,learn_phase(without_color)2,1133041,,,,,,,,black_plus_sign,,,null,object_03c.png,object_14c.png,,,,,,,,,,,,,,,,,,
null,,black_cross(without_color)2,1133627,,,,,,,,blue,,,null,object_03c.png,object_14c.png,,,,,,,,,,,,,,,,,,
null,,rt_plussign_withcolor2,1134133,,,,,,,,blue,,,null,object_03c.png,object_14c.png,,,,,,,,,,,,,,,,,,
1213.8000000715256,,rt_thecrossant_black2,1135551,,,,,,,,black_plus_sign,,,49,,,1,,,,,,,1,,,,,,,,,,
null,,color_black2,1135652,,,,,,,,black_plus_sign,,,null,,,,,,,,,,,,,,,,,,,,
null,,learn_phase(without_color)2,1139155,,,,,,,,black_plus_sign,,,null,object_01a.png,object_03b.png,,,,,,,,,,,,,,,,,,
null,,black_cross(without_color)2,1139863,,,,,,,,blue,,,null,object_01a.png,object_03b.png,,,,,,,,,,,,,,,,,,
null,,rt_plussign_withcolor2,1140365,,,,,,,,blue,,,null,object_01a.png,object_03b.png,,,,,,,,,,,,,,,,,,
1168.2000000476837,,rt_thecrossant_black2,1141660,,,,,,,,black_plus_sign,,,49,,,1,,,,,,,1,,,,,,,,,,
null,,color_black2,1141761,,,,,,,,black_plus_sign,,,null,,,,,,,,,,,,,,,,,,,,
null,,learn_phase(without_color)2,1145263,,,,,,,,black_plus_sign,,,null,object_12c.png,object_14b.png,,,,,,,,,,,,,,,,,,
null,,black_cross(without_color)2,1145802,,,,,,,,blue,,,null,object_12c.png,object_14b.png,,,,,,,,,,,,,,,,,,
null,,rt_plussign_withcolor2,1146304,,,,,,,,blue,,,null,object_12c.png,object_14b.png,,,,,,,,,,,,,,,,,,
1247.2000000476837,,rt_thecrossant_black2,1147769,,,,,,,,black_plus_sign,,,49,,,1,,,,,,,1,,,,,,,,,,
null,,color_black2,1147870,,,,,,,,black_plus_sign,,,null,,,,,,,,,,,,,,,,,,,,
null,,learn_phase(without_color)2,1151373,,,,,,,,black_plus_sign,,,null,object_07a.png,object_10c.png,,,,,,,,,,,,,,,,,,
null,,black_cross(without_color)2,1151977,,,,,,,,blue,,,null,object_07a.png,object_10c.png,,,,,,,,,,,,,,,,,,
null,,rt_plussign_withcolor2,1152479,,,,,,,,blue,,,null,object_07a.png,object_10c.png,,,,,,,,,,,,,,,,,,
780.5,,rt_thecrossant_black2,1153878,,,,,,,,black_plus_sign,,,49,,,1,,,,,,,1,,,,,,,,,,
null,,color_black2,1153979,,,,,,,,black_plus_sign,,,null,,,,,,,,,,,,,,,,,,,,
null,,learn_phase(without_color)2,1157482,,,,,,,,black_plus_sign,,,null,object_12b.png,object_12c.png,,,,,,,,,,,,,,,,,,
null,,black_cross(without_color)2,1158580,,,,,,,,blue,,,null,object_12b.png,object_12c.png,,,,,,,,,,,,,,,,,,
null,,rt_plussign_withcolor2,1159080,,,,,,,,blue,,,null,object_12b.png,object_12c.png,,,,,,,,,,,,,,,,,,
962.0999999046326,,rt_thecrossant_black2,1159987,,,,,,,,black_plus_sign,,,49,,,1,,,,,,,1,,,,,,,,,,
null,,color_black2,1160089,,,,,,,,black_plus_sign,,,null,,,,,,,,,,,,,,,,,,,,
null,,learn_phase(without_color)2,1163590,,,,,,,,black_plus_sign,,,null,object_07c.png,object_10a.png,,,,,,,,,,,,,,,,,,
null,,black_cross(without_color)2,1164037,,,,,,,,blue,,,null,object_07c.png,object_10a.png,,,,,,,,,,,,,,,,,,
null,,rt_plussign_withcolor2,1164538,,,,,,,,blue,,,null,object_07c.png,object_10a.png,,,,,,,,,,,,,,,,,,
1226.7999999523163,,rt_thecrossant_black2,1166095,,,,,,,,black_plus_sign,,,49,,,1,,,,,,,1,,,,,,,,,,
null,,color_black2,1166197,,,,,,,,black_plus_sign,,,null,,,,,,,,,,,,,,,,,,,,
null,,learn_phase(without_color)2,1169700,,,,,,,,black_plus_sign,,,null,object_15b.png,object_05b.png,,,,,,,,,,,,,,,,,,
null,,black_cross(without_color)2,1170334,,,,,,,,green,,,null,object_15b.png,object_05b.png,,,,,,,,,,,,,,,,,,
null,,rt_plussign_withcolor2,1170836,,,,,,,,green,,,null,object_15b.png,object_05b.png,,,,,,,,,,,,,,,,,,
598.7999999523163,,rt_thecrossant_black2,1172205,,,,,,,,black_plus_sign,,,50,,,1,,,,,,,1,,,,,,,,,,
null,,color_black2,1172307,,,,,,,,black_plus_sign,,,null,,,,,,,,,,,,,,,,,,,,
null,,learn_phase(without_color)2,1175809,,,,,,,,black_plus_sign,,,null,object_06b.png,object_05c.png,,,,,,,,,,,,,,,,,,
null,,black_cross(without_color)2,1176848,,,,,,,,green,,,null,object_06b.png,object_05c.png,,,,,,,,,,,,,,,,,,
376.6999999284744,,rt_plussign_withcolor2,1177350,,,,,,,,green,,,50,object_06b.png,object_05c.png,,,,,,,,,,,,,,,,,,
null,,rt_thecrossant_black2,1178315,,,,,,,,black_plus_sign,,,null,,,1,,,,,,,1,,,,,,,,,,
null,,color_black2,1178418,,,,,,,,black_plus_sign,,,null,,,,,,,,,,,,,,,,,,,,
null,,learn_phase(without_color)2,1181920,,,,,,,,black_plus_sign,,,null,object_12a.png,object_01b.png,,,,,,,,,,,,,,,,,,
null,,black_cross(without_color)2,1182715,,,,,,,,green,,,null,object_12a.png,object_01b.png,,,,,,,,,,,,,,,,,,
null,,rt_plussign_withcolor2,1183217,,,,,,,,green,,,null,object_12a.png,object_01b.png,,,,,,,,,,,,,,,,,,
1224,,rt_thecrossant_black2,1184424,,,,,,,,black_plus_sign,,,50,,,1,,,,,,,1,,,,,,,,,,
null,,color_black2,1184527,,,,,,,,black_plus_sign,,,null,,,,,,,,,,,,,,,,,,,,
null,,learn_phase(without_color)2,1188029,,,,,,,,black_plus_sign,,,null,object_13c.png,object_01c.png,,,,,,,,,,,,,,,,,,
null,,black_cross(without_color)2,1188444,,,,,,,,blue,,,null,object_13c.png,object_01c.png,,,,,,,,,,,,,,,,,,
null,,rt_plussign_withcolor2,1188946,,,,,,,,blue,,,null,object_13c.png,object_01c.png,,,,,,,,,,,,,,,,,,
1044.1000000238419,,rt_thecrossant_black2,1190533,,,,,,,,black_plus_sign,,,49,,,1,,,,,,,1,,,,,,,,,,
null,,color_black2,1190635,,,,,,,,black_plus_sign,,,null,,,,,,,,,,,,,,,,,,,,
null,,learn_phase(without_color)2,1194137,,,,,,,,black_plus_sign,,,null,object_10a.png,object_08b.png,,,,,,,,,,,,,,,,,,
null,,black_cross(without_color)2,1194966,,,,,,,,green,,,null,object_10a.png,object_08b.png,,,,,,,,,,,,,,,,,,
null,,rt_plussign_withcolor2,1195468,,,,,,,,green,,,null,object_10a.png,object_08b.png,,,,,,,,,,,,,,,,,,
623.8000000715256,,rt_thecrossant_black2,1196643,,,,,,,,black_plus_sign,,,50,,,1,,,,,,,1,,,,,,,,,,
null,,color_black2,1196744,,,,,,,,black_plus_sign,,,null,,,,,,,,,,,,,,,,,,,,
null,,learn_phase(without_color)2,1200245,,,,,,,,black_plus_sign,,,null,object_04a.png,object_05a.png,,,,,,,,,,,,,,,,,,
null,,black_cross(without_color)2,1201035,,,,,,,,blue,,,null,object_04a.png,object_05a.png,,,,,,,,,,,,,,,,,,
null,,rt_plussign_withcolor2,1201537,,,,,,,,blue,,,null,object_04a.png,object_05a.png,,,,,,,,,,,,,,,,,,
1177,,rt_thecrossant_black2,1202751,,,,,,,,black_plus_sign,,,49,,,1,,,,,,,1,,,,,,,,,,
null,,color_black2,1202853,,,,,,,,black_plus_sign,,,null,,,,,,,,,,,,,,,,,,,,
null,,learn_phase(without_color)2,1206355,,,,,,,,black_plus_sign,,,null,object_05c.png,object_04c.png,,,,,,,,,,,,,,,,,,
null,,black_cross(without_color)2,1207154,,,,,,,,blue,,,null,object_05c.png,object_04c.png,,,,,,,,,,,,,,,,,,
null,,rt_plussign_withcolor2,1207657,,,,,,,,blue,,,null,object_05c.png,object_04c.png,,,,,,,,,,,,,,,,,,
1075.3000000715256,,rt_thecrossant_black2,1208859,,,,,,,,black_plus_sign,,,49,,,1,,,,,,,1,,,,,,,,,,
null,,color_black2,1208961,,,,,,,,black_plus_sign,,,null,,,,,,,,,,,,,,,,,,,,
null,,learn_phase(without_color)2,1212478,,,,,,,,black_plus_sign,,,null,object_13b.png,object_07b.png,,,,,,,,,,,,,,,,,,
null,,black_cross(without_color)2,1212886,,,,,,,,blue,,,null,object_13b.png,object_07b.png,,,,,,,,,,,,,,,,,,
null,,rt_plussign_withcolor2,1213388,,,,,,,,blue,,,null,object_13b.png,object_07b.png,,,,,,,,,,,,,,,,,,
899.1000000238419,,rt_thecrossant_black2,1214985,,,,,,,,black_plus_sign,,,49,,,1,,,,,,,1,,,,,,,,,,
null,,color_black2,1215087,,,,,,,,black_plus_sign,,,null,,,,,,,,,,,,,,,,,,,,
null,,learn_phase(without_color)2,1218589,,,,,,,,black_plus_sign,,,null,object_07b.png,object_02b.png,,,,,,,,,,,,,,,,,,
null,,black_cross(without_color)2,1219556,,,,,,,,green,,,null,object_07b.png,object_02b.png,,,,,,,,,,,,,,,,,,
null,,rt_plussign_withcolor2,1220057,,,,,,,,green,,,null,object_07b.png,object_02b.png,,,,,,,,,,,,,,,,,,
566.8999999761581,,rt_thecrossant_black2,1221094,,,,,,,,black_plus_sign,,,50,,,1,,,,,,,1,,,,,,,,,,
null,,color_black2,1221196,,,,,,,,black_plus_sign,,,null,,,,,,,,,,,,,,,,,,,,
null,,learn_phase(without_color)2,1224698,,,,,,,,black_plus_sign,,,null,object_01c.png,object_06a.png,,,,,,,,,,,,,,,,,,
null,,black_cross(without_color)2,1225507,,,,,,,,blue,,,null,object_01c.png,object_06a.png,,,,,,,,,,,,,,,,,,
null,,rt_plussign_withcolor2,1226008,,,,,,,,blue,,,null,object_01c.png,object_06a.png,,,,,,,,,,,,,,,,,,
1300,,rt_thecrossant_black2,1227203,,,,,,,,black_plus_sign,,,49,,,1,,,,,,,1,,,,,,,,,,
null,,color_black2,1227304,,,,,,,,black_plus_sign,,,null,,,,,,,,,,,,,,,,,,,,
null,,thebreak,1227413,,,,,,,,<p></p>,,,null,,,,,,,,,,,,,,,,,,,,
73532.5,,intro_0,1300946,,,,,,,,instruct,,,32,,,,,,,,,,,,,,,,,,,,
5270.099999904633,,directmemory_phase2,1306217,,,,,,,,object_04c.png,,,51,,,1,,object_09b.png,object_12a.png,object_05c.png,object_05c.png,,0.5806451612903226,,1,,,,,,,,
2785.899999976158,,directmemory_phase2,1309004,,,,,,,,object_02b.png,,,49,,,1,,object_07b.png,object_05c.png,object_01c.png,object_07b.png,,0.59375,,1,,,,,,,,
3944,,directmemory_phase2,1312950,,,,,,,,object_03b.png,,,49,,,1,,object_01a.png,object_12a.png,object_09c.png,object_01a.png,,0.6060606060606061,,1,,,,,,,,
4129.200000047684,,directmemory_phase2,1317080,,,,,,,,object_09a.png,,,50,,,1,,object_05a.png,object_05b.png,object_10c.png,object_05b.png,,0.6176470588235294,,1,,,,,,,,
2708.100000023842,,directmemory_phase2,1319789,,,,,,,,object_01a.png,,,51,,,1,,object_02a.png,object_13c.png,object_15c.png,object_15c.png,,0.6285714285714286,,1,,,,,,,,
3237.100000023842,,directmemory_phase2,1323028,,,,,,,,object_05c.png,,,49,,,0,,object_07a.png,object_06b.png,object_02a.png,object_06b.png,,0.6111111111111112,,0,,,,,,,,
3534.899999976158,,directmemory_phase2,1326564,,,,,,,,object_06c.png,,,50,,,1,,object_05c.png,object_10c.png,object_01a.png,object_10c.png,,0.6216216216216216,,1,,,,,,,,
2870.399999976158,,directmemory_phase2,1329435,,,,,,,,object_05a.png,,,51,,,0,,object_04b.png,object_04a.png,object_15c.png,object_04a.png,,0.6052631578947368,,0,,,,,,,,
5887.699999928474,,directmemory_phase2,1335324,,,,,,,,object_09b.png,,,51,,,0,,object_11c.png,object_12b.png,object_15c.png,object_11c.png,,0.5897435897435898,,0,,,,,,,,
2009.5,,directmemory_phase2,1337335,,,,,,,,object_02c.png,,,49,,,0,,object_11a.png,object_09c.png,object_09b.png,object_09b.png,,0.575,,0,,,,,,,,
4049.399999976158,,directmemory_phase2,1341386,,,,,,,,object_03a.png,,,49,,,0,,object_01a.png,object_11a.png,object_05a.png,object_05a.png,,0.5609756097560976,,0,,,,,,,,
3583.4000000953674,,directmemory_phase2,1344970,,,,,,,,object_14c.png,,,49,,,1,,object_03c.png,object_01c.png,object_12c.png,object_03c.png,,0.5714285714285714,,1,,,,,,,,
3678.899999976158,,directmemory_phase2,1348650,,,,,,,,object_09c.png,,,51,,,1,,object_08c.png,object_12b.png,object_02a.png,object_02a.png,,0.5813953488372093,,1,,,,,,,,
4373.300000071526,,directmemory_phase2,1353025,,,,,,,,object_01c.png,,,51,,,0,,object_13a.png,object_13c.png,object_15b.png,object_13c.png,,0.5681818181818182,,0,,,,,,,,
4252.800000071526,,directmemory_phase2,1357279,,,,,,,,object_01b.png,,,51,,,0,,object_10b.png,object_12a.png,object_09c.png,object_12a.png,,0.5555555555555556,,0,,,,,,,,
4819.899999976158,,directmemory_phase2,1362100,,,,,,,,object_11a.png,,,49,,,1,,object_04b.png,object_04a.png,object_06b.png,object_04b.png,,0.5652173913043478,,1,,,,,,,,
4079.5,,directmemory_phase2,1366181,,,,,,,,object_10a.png,,,50,,,1,,object_13a.png,object_07c.png,object_12b.png,object_07c.png,,0.574468085106383,,1,,,,,,,,
2158.899999976158,,directmemory_phase2,1368341,,,,,,,,object_12c.png,,,51,,,1,,object_02a.png,object_07a.png,object_12b.png,object_12b.png,,0.5833333333333334,,1,,,,,,,,
4071.5,,directmemory_phase2,1372414,,,,,,,,object_14b.png,,,49,,,0,,object_10c.png,object_05c.png,object_12c.png,object_12c.png,,0.5714285714285714,,0,,,,,,,,
5269.700000047684,,directmemory_phase2,1377685,,,,,,,,object_10b.png,,,49,,,0,,object_02a.png,object_13a.png,object_15b.png,object_13a.png,,0.56,,0,,,,,,,,
4051.3000000715256,,directmemory_phase2,1381737,,,,,,,,object_08a.png,,,51,,,1,,object_10c.png,object_05c.png,object_11a.png,object_11a.png,,0.5686274509803921,,1,,,,,,,,
3739.2999999523163,,directmemory_phase2,1385477,,,,,,,,object_11b.png,,,49,,,0,,object_03c.png,object_12c.png,object_10b.png,object_10b.png,,0.5576923076923077,,0,,,,,,,,
4112.799999952316,,directmemory_phase2,1389592,,,,,,,,object_14a.png,,,51,,,1,,object_01a.png,object_10c.png,object_09c.png,object_09c.png,,0.5660377358490566,,1,,,,,,,,
3088,,directmemory_phase2,1392681,,,,,,,,object_07b.png,,,50,,,1,,object_04a.png,object_13b.png,object_07c.png,object_13b.png,,0.5740740740740741,,1,,,,,,,,
3665.100000023842,,directmemory_phase2,1396347,,,,,,,,object_06a.png,,,51,,,1,,object_01a.png,object_05b.png,object_01c.png,object_01c.png,,0.5818181818181818,,1,,,,,,,,
4831.5,,directmemory_phase2,1401180,,,,,,,,object_05b.png,,,50,,,0,,object_15b.png,object_06b.png,object_15c.png,object_15b.png,,0.5714285714285714,,0,,,,,,,,
1876.6999999284744,,directmemory_phase2,1403058,,,,,,,,object_10c.png,,,49,,,1,,object_07a.png,object_15a.png,object_07c.png,object_07a.png,,0.5789473684210527,,1,,,,,,,,
3566.7999999523163,,directmemory_phase2,1406626,,,,,,,,object_12a.png,,,49,,,1,,object_08c.png,object_07a.png,object_13c.png,object_08c.png,,0.5862068965517241,,1,,,,,,,,
2473.5,,directmemory_phase2,1409101,,,,,,,,object_08b.png,,,49,,,1,,object_10a.png,object_09c.png,object_12c.png,object_10a.png,,0.5932203389830508,,1,,,,,,,,
6540.600000023842,,directmemory_phase2,1415643,,,,,,,,object_03c.png,,,50,,,1,,object_13c.png,object_15a.png,object_13a.png,object_15a.png,,0.6,,1,,,,,,,,
null,,thebreak,1415745,,,,,,,,<p></p>,,,null,,,,,,,,,,,,,,,,,,,,
56045,,intro_0,1471790,,,,,,,,instruct,,,32,,,,,,,,,,,,,,,,,,,,
null,,learn_phase(without_color)3,1475291,,,,,,,,black_plus_sign,,,null,object_13b.png,object_07b.png,,,,,,,,,,,,,,,,,,
null,,black_cross(without_color)3,1476300,,,,,,,,green,,,null,object_13b.png,object_07b.png,,,,,,,,,,,,,,,,,,
422,,rt_plussign_withcolor3,1476801,,,,,,,,green,,,50,object_13b.png,object_07b.png,,,,,,,,,,,,,,,,,,
null,,rt_thecrossant_black3,1477796,,,,,,,,black_plus_sign,,,null,,,1,,,,,,,1,,,,,,,,,,
null,,color_black3,1477898,,,,,,,,black_plus_sign,,,null,,,,,,,,,,,,,,,,,,,,
null,,learn_phase(without_color)3,1481400,,,,,,,,black_plus_sign,,,null,object_04b.png,object_11a.png,,,,,,,,,,,,,,,,,,
null,,black_cross(without_color)3,1482436,,,,,,,,blue,,,null,object_04b.png,object_11a.png,,,,,,,,,,,,,,,,,,
360.10000002384186,,rt_plussign_withcolor3,1482937,,,,,,,,blue,,,49,object_04b.png,object_11a.png,,,,,,,,,,,,,,,,,,
null,,rt_thecrossant_black3,1483920,,,,,,,,black_plus_sign,,,null,,,1,,,,,,,1,,,,,,,,,,
null,,color_black3,1484022,,,,,,,,black_plus_sign,,,null,,,,,,,,,,,,,,,,,,,,
null,,learn_phase(without_color)3,1487524,,,,,,,,black_plus_sign,,,null,object_12c.png,object_14b.png,,,,,,,,,,,,,,,,,,
null,,black_cross(without_color)3,1488083,,,,,,,,blue,,,null,object_12c.png,object_14b.png,,,,,,,,,,,,,,,,,,
367.59999990463257,,rt_plussign_withcolor3,1488584,,,,,,,,blue,,,49,object_12c.png,object_14b.png,,,,,,,,,,,,,,,,,,
null,,rt_thecrossant_black3,1490028,,,,,,,,black_plus_sign,,,null,,,1,,,,,,,1,,,,,,,,,,
null,,color_black3,1490130,,,,,,,,black_plus_sign,,,null,,,,,,,,,,,,,,,,,,,,
null,,learn_phase(without_color)3,1493632,,,,,,,,black_plus_sign,,,null,object_05b.png,object_09a.png,,,,,,,,,,,,,,,,,,
null,,black_cross(without_color)3,1494415,,,,,,,,green,,,null,object_05b.png,object_09a.png,,,,,,,,,,,,,,,,,,
null,,rt_plussign_withcolor3,1494916,,,,,,,,green,,,null,object_05b.png,object_09a.png,,,,,,,,,,,,,,,,,,
700.3999999761581,,rt_thecrossant_black3,1496149,,,,,,,,black_plus_sign,,,50,,,1,,,,,,,1,,,,,,,,,,
null,,color_black3,1496251,,,,,,,,black_plus_sign,,,null,,,,,,,,,,,,,,,,,,,,
null,,learn_phase(without_color)3,1499758,,,,,,,,black_plus_sign,,,null,object_09c.png,object_14a.png,,,,,,,,,,,,,,,,,,
null,,black_cross(without_color)3,1500666,,,,,,,,green,,,null,object_09c.png,object_14a.png,,,,,,,,,,,,,,,,,,
361.2999999523163,,rt_plussign_withcolor3,1501168,,,,,,,,green,,,50,object_09c.png,object_14a.png,,,,,,,,,,,,,,,,,,
null,,rt_thecrossant_black3,1502263,,,,,,,,black_plus_sign,,,null,,,1,,,,,,,1,,,,,,,,,,
null,,color_black3,1502370,,,,,,,,black_plus_sign,,,null,,,,,,,,,,,,,,,,,,,,
null,,learn_phase(without_color)3,1505872,,,,,,,,black_plus_sign,,,null,object_15c.png,object_01a.png,,,,,,,,,,,,,,,,,,
null,,black_cross(without_color)3,1506428,,,,,,,,blue,,,null,object_15c.png,object_01a.png,,,,,,,,,,,,,,,,,,
392.89999997615814,,rt_plussign_withcolor3,1506933,,,,,,,,blue,,,49,object_15c.png,object_01a.png,,,,,,,,,,,,,,,,,,
null,,rt_thecrossant_black3,1508385,,,,,,,,black_plus_sign,,,null,,,1,,,,,,,1,,,,,,,,,,
null,,color_black3,1508487,,,,,,,,black_plus_sign,,,null,,,,,,,,,,,,,,,,,,,,
null,,learn_phase(without_color)3,1511989,,,,,,,,black_plus_sign,,,null,object_01c.png,object_06a.png,,,,,,,,,,,,,,,,,,
null,,black_cross(without_color)3,1512412,,,,,,,,green,,,null,object_01c.png,object_06a.png,,,,,,,,,,,,,,,,,,
null,,rt_plussign_withcolor3,1512914,,,,,,,,green,,,null,object_01c.png,object_06a.png,,,,,,,,,,,,,,,,,,
952.1000000238419,,rt_thecrossant_black3,1514504,,,,,,,,black_plus_sign,,,50,,,1,,,,,,,1,,,,,,,,,,
null,,color_black3,1514605,,,,,,,,black_plus_sign,,,null,,,,,,,,,,,,,,,,,,,,
null,,learn_phase(without_color)3,1518119,,,,,,,,black_plus_sign,,,null,object_07b.png,object_02b.png,,,,,,,,,,,,,,,,,,
null,,black_cross(without_color)3,1518586,,,,,,,,blue,,,null,object_07b.png,object_02b.png,,,,,,,,,,,,,,,,,,
452.7999999523163,,rt_plussign_withcolor3,1519088,,,,,,,,blue,,,49,object_07b.png,object_02b.png,,,,,,,,,,,,,,,,,,
null,,rt_thecrossant_black3,1520625,,,,,,,,black_plus_sign,,,null,,,1,,,,,,,1,,,,,,,,,,
null,,color_black3,1520727,,,,,,,,black_plus_sign,,,null,,,,,,,,,,,,,,,,,,,,
null,,learn_phase(without_color)3,1524230,,,,,,,,black_plus_sign,,,null,object_11a.png,object_08a.png,,,,,,,,,,,,,,,,,,
null,,black_cross(without_color)3,1525242,,,,,,,,blue,,,null,object_11a.png,object_08a.png,,,,,,,,,,,,,,,,,,
null,,rt_plussign_withcolor3,1525743,,,,,,,,blue,,,null,object_11a.png,object_08a.png,,,,,,,,,,,,,,,,,,
676.8000000715256,,rt_thecrossant_black3,1526734,,,,,,,,black_plus_sign,,,49,,,1,,,,,,,1,,,,,,,,,,
null,,color_black3,1526837,,,,,,,,black_plus_sign,,,null,,,,,,,,,,,,,,,,,,,,
null,,learn_phase(without_color)3,1530352,,,,,,,,black_plus_sign,,,null,object_03c.png,object_14c.png,,,,,,,,,,,,,,,,,,
null,,black_cross(without_color)3,1531257,,,,,,,,blue,,,null,object_03c.png,object_14c.png,,,,,,,,,,,,,,,,,,
333.60000002384186,,rt_plussign_withcolor3,1531759,,,,,,,,blue,,,49,object_03c.png,object_14c.png,,,,,,,,,,,,,,,,,,
null,,rt_thecrossant_black3,1532860,,,,,,,,black_plus_sign,,,null,,,1,,,,,,,1,,,,,,,,,,
null,,color_black3,1532962,,,,,,,,black_plus_sign,,,null,,,,,,,,,,,,,,,,,,,,
null,,learn_phase(without_color)3,1536464,,,,,,,,black_plus_sign,,,null,object_15b.png,object_05b.png,,,,,,,,,,,,,,,,,,
null,,black_cross(without_color)3,1537148,,,,,,,,green,,,null,object_15b.png,object_05b.png,,,,,,,,,,,,,,,,,,
474.09999990463257,,rt_plussign_withcolor3,1537650,,,,,,,,green,,,50,object_15b.png,object_05b.png,,,,,,,,,,,,,,,,,,
null,,rt_thecrossant_black3,1538970,,,,,,,,black_plus_sign,,,null,,,1,,,,,,,1,,,,,,,,,,
null,,color_black3,1539071,,,,,,,,black_plus_sign,,,null,,,,,,,,,,,,,,,,,,,,
null,,learn_phase(without_color)3,1542573,,,,,,,,black_plus_sign,,,null,object_07a.png,object_10c.png,,,,,,,,,,,,,,,,,,
null,,black_cross(without_color)3,1543243,,,,,,,,blue,,,null,object_07a.png,object_10c.png,,,,,,,,,,,,,,,,,,
null,,rt_plussign_withcolor3,1543744,,,,,,,,blue,,,null,object_07a.png,object_10c.png,,,,,,,,,,,,,,,,,,
820,,rt_thecrossant_black3,1545078,,,,,,,,black_plus_sign,,,49,,,1,,,,,,,1,,,,,,,,,,
null,,color_black3,1545180,,,,,,,,black_plus_sign,,,null,,,,,,,,,,,,,,,,,,,,
null,,learn_phase(without_color)3,1548683,,,,,,,,black_plus_sign,,,null,object_06b.png,object_05c.png,,,,,,,,,,,,,,,,,,
null,,black_cross(without_color)3,1549230,,,,,,,,green,,,null,object_06b.png,object_05c.png,,,,,,,,,,,,,,,,,,
null,,rt_plussign_withcolor3,1549739,,,,,,,,green,,,null,object_06b.png,object_05c.png,,,,,,,,,,,,,,,,,,
1013.2999999523163,,rt_thecrossant_black3,1551208,,,,,,,,black_plus_sign,,,50,,,1,,,,,,,1,,,,,,,,,,
null,,color_black3,1551309,,,,,,,,black_plus_sign,,,null,,,,,,,,,,,,,,,,,,,,
null,,learn_phase(without_color)3,1554811,,,,,,,,black_plus_sign,,,null,object_05c.png,object_04c.png,,,,,,,,,,,,,,,,,,
null,,black_cross(without_color)3,1555593,,,,,,,,green,,,null,object_05c.png,object_04c.png,,,,,,,,,,,,,,,,,,
null,,rt_plussign_withcolor3,1556093,,,,,,,,green,,,null,object_05c.png,object_04c.png,,,,,,,,,,,,,,,,,,
873.7999999523163,,rt_thecrossant_black3,1557316,,,,,,,,black_plus_sign,,,50,,,1,,,,,,,1,,,,,,,,,,
null,,color_black3,1557417,,,,,,,,black_plus_sign,,,null,,,,,,,,,,,,,,,,,,,,
null,,learn_phase(without_color)3,1560920,,,,,,,,black_plus_sign,,,null,object_13a.png,object_10b.png,,,,,,,,,,,,,,,,,,
null,,black_cross(without_color)3,1561396,,,,,,,,blue,,,null,object_13a.png,object_10b.png,,,,,,,,,,,,,,,,,,
null,,rt_plussign_withcolor3,1561897,,,,,,,,blue,,,null,object_13a.png,object_10b.png,,,,,,,,,,,,,,,,,,
884.0999999046326,,rt_thecrossant_black3,1563425,,,,,,,,black_plus_sign,,,49,,,1,,,,,,,1,,,,,,,,,,
null,,color_black3,1563527,,,,,,,,black_plus_sign,,,null,,,,,,,,,,,,,,,,,,,,
null,,learn_phase(without_color)3,1567029,,,,,,,,black_plus_sign,,,null,object_04a.png,object_05a.png,,,,,,,,,,,,,,,,,,
null,,black_cross(without_color)3,1567436,,,,,,,,blue,,,null,object_04a.png,object_05a.png,,,,,,,,,,,,,,,,,,
493.7000000476837,,rt_plussign_withcolor3,1567939,,,,,,,,blue,,,49,object_04a.png,object_05a.png,,,,,,,,,,,,,,,,,,
null,,rt_thecrossant_black3,1569535,,,,,,,,black_plus_sign,,,null,,,1,,,,,,,1,,,,,,,,,,
null,,color_black3,1569637,,,,,,,,black_plus_sign,,,null,,,,,,,,,,,,,,,,,,,,
null,,learn_phase(without_color)3,1573140,,,,,,,,black_plus_sign,,,null,object_10b.png,object_11b.png,,,,,,,,,,,,,,,,,,
null,,black_cross(without_color)3,1573558,,,,,,,,green,,,null,object_10b.png,object_11b.png,,,,,,,,,,,,,,,,,,
441.40000009536743,,rt_plussign_withcolor3,1574059,,,,,,,,green,,,50,object_10b.png,object_11b.png,,,,,,,,,,,,,,,,,,
null,,rt_thecrossant_black3,1575644,,,,,,,,black_plus_sign,,,null,,,1,,,,,,,1,,,,,,,,,,
null,,color_black3,1575746,,,,,,,,black_plus_sign,,,null,,,,,,,,,,,,,,,,,,,,
null,,learn_phase(without_color)3,1579253,,,,,,,,black_plus_sign,,,null,object_12a.png,object_01b.png,,,,,,,,,,,,,,,,,,
null,,black_cross(without_color)3,1579892,,,,,,,,green,,,null,object_12a.png,object_01b.png,,,,,,,,,,,,,,,,,,
null,,rt_plussign_withcolor3,1580394,,,,,,,,green,,,null,object_12a.png,object_01b.png,,,,,,,,,,,,,,,,,,
551.0999999046326,,rt_thecrossant_black3,1581761,,,,,,,,black_plus_sign,,,50,,,1,,,,,,,1,,,,,,,,,,
null,,color_black3,1581863,,,,,,,,black_plus_sign,,,null,,,,,,,,,,,,,,,,,,,,
null,,learn_phase(without_color)3,1585365,,,,,,,,black_plus_sign,,,null,object_13c.png,object_01c.png,,,,,,,,,,,,,,,,,,
null,,black_cross(without_color)3,1586301,,,,,,,,green,,,null,object_13c.png,object_01c.png,,,,,,,,,,,,,,,,,,
null,,rt_plussign_withcolor3,1586802,,,,,,,,green,,,null,object_13c.png,object_01c.png,,,,,,,,,,,,,,,,,,
744.7999999523163,,rt_thecrossant_black3,1587869,,,,,,,,black_plus_sign,,,50,,,1,,,,,,,1,,,,,,,,,,
null,,color_black3,1587971,,,,,,,,black_plus_sign,,,null,,,,,,,,,,,,,,,,,,,,
null,,learn_phase(without_color)3,1591474,,,,,,,,black_plus_sign,,,null,object_15a.png,object_03c.png,,,,,,,,,,,,,,,,,,
null,,black_cross(without_color)3,1592346,,,,,,,,blue,,,null,object_15a.png,object_03c.png,,,,,,,,,,,,,,,,,,
363.89999997615814,,rt_plussign_withcolor3,1592847,,,,,,,,blue,,,49,object_15a.png,object_03c.png,,,,,,,,,,,,,,,,,,
null,,rt_thecrossant_black3,1593979,,,,,,,,black_plus_sign,,,null,,,1,,,,,,,1,,,,,,,,,,
null,,color_black3,1594081,,,,,,,,black_plus_sign,,,null,,,,,,,,,,,,,,,,,,,,
null,,learn_phase(without_color)3,1597583,,,,,,,,black_plus_sign,,,null,object_11c.png,object_09b.png,,,,,,,,,,,,,,,,,,
null,,black_cross(without_color)3,1598079,,,,,,,,green,,,null,object_11c.png,object_09b.png,,,,,,,,,,,,,,,,,,
null,,rt_plussign_withcolor3,1598581,,,,,,,,green,,,null,object_11c.png,object_09b.png,,,,,,,,,,,,,,,,,,
1322.8999999761581,,rt_thecrossant_black3,1600088,,,,,,,,black_plus_sign,,,50,,,1,,,,,,,1,,,,,,,,,,
null,,color_black3,1600190,,,,,,,,black_plus_sign,,,null,,,,,,,,,,,,,,,,,,,,
null,,learn_phase(without_color)3,1603691,,,,,,,,black_plus_sign,,,null,object_12b.png,object_12c.png,,,,,,,,,,,,,,,,,,
null,,black_cross(without_color)3,1604288,,,,,,,,blue,,,null,object_12b.png,object_12c.png,,,,,,,,,,,,,,,,,,
368.90000009536743,,rt_plussign_withcolor3,1604789,,,,,,,,blue,,,49,object_12b.png,object_12c.png,,,,,,,,,,,,,,,,,,
null,,rt_thecrossant_black3,1606196,,,,,,,,black_plus_sign,,,null,,,1,,,,,,,1,,,,,,,,,,
null,,color_black3,1606297,,,,,,,,black_plus_sign,,,null,,,,,,,,,,,,,,,,,,,,
null,,learn_phase(without_color)3,1609799,,,,,,,,black_plus_sign,,,null,object_10a.png,object_08b.png,,,,,,,,,,,,,,,,,,
null,,black_cross(without_color)3,1610422,,,,,,,,green,,,null,object_10a.png,object_08b.png,,,,,,,,,,,,,,,,,,
436.8000000715256,,rt_plussign_withcolor3,1610924,,,,,,,,green,,,50,object_10a.png,object_08b.png,,,,,,,,,,,,,,,,,,
null,,rt_thecrossant_black3,1612305,,,,,,,,black_plus_sign,,,null,,,1,,,,,,,1,,,,,,,,,,
null,,color_black3,1612407,,,,,,,,black_plus_sign,,,null,,,,,,,,,,,,,,,,,,,,
null,,learn_phase(without_color)3,1615910,,,,,,,,black_plus_sign,,,null,object_08c.png,object_12a.png,,,,,,,,,,,,,,,,,,
null,,black_cross(without_color)3,1616514,,,,,,,,blue,,,null,object_08c.png,object_12a.png,,,,,,,,,,,,,,,,,,
null,,rt_plussign_withcolor3,1617015,,,,,,,,blue,,,null,object_08c.png,object_12a.png,,,,,,,,,,,,,,,,,,
886.2999999523163,,rt_thecrossant_black3,1618416,,,,,,,,black_plus_sign,,,49,,,1,,,,,,,1,,,,,,,,,,
null,,color_black3,1618518,,,,,,,,black_plus_sign,,,null,,,,,,,,,,,,,,,,,,,,
null,,learn_phase(without_color)3,1622020,,,,,,,,black_plus_sign,,,null,object_02a.png,object_09c.png,,,,,,,,,,,,,,,,,,
null,,black_cross(without_color)3,1622905,,,,,,,,green,,,null,object_02a.png,object_09c.png,,,,,,,,,,,,,,,,,,
null,,rt_plussign_withcolor3,1623408,,,,,,,,green,,,null,object_02a.png,object_09c.png,,,,,,,,,,,,,,,,,,
799.3999999761581,,rt_thecrossant_black3,1624527,,,,,,,,black_plus_sign,,,50,,,1,,,,,,,1,,,,,,,,,,
null,,color_black3,1624629,,,,,,,,black_plus_sign,,,null,,,,,,,,,,,,,,,,,,,,
null,,learn_phase(without_color)3,1628135,,,,,,,,black_plus_sign,,,null,object_10c.png,object_06c.png,,,,,,,,,,,,,,,,,,
null,,black_cross(without_color)3,1628610,,,,,,,,green,,,null,object_10c.png,object_06c.png,,,,,,,,,,,,,,,,,,
null,,rt_plussign_withcolor3,1629111,,,,,,,,green,,,null,object_10c.png,object_06c.png,,,,,,,,,,,,,,,,,,
1164.3999999761581,,rt_thecrossant_black3,1630640,,,,,,,,black_plus_sign,,,50,,,1,,,,,,,1,,,,,,,,,,
null,,color_black3,1630741,,,,,,,,black_plus_sign,,,null,,,,,,,,,,,,,,,,,,,,
null,,learn_phase(without_color)3,1634244,,,,,,,,black_plus_sign,,,null,object_01a.png,object_03b.png,,,,,,,,,,,,,,,,,,
null,,black_cross(without_color)3,1634911,,,,,,,,blue,,,null,object_01a.png,object_03b.png,,,,,,,,,,,,,,,,,,
null,,rt_plussign_withcolor3,1635413,,,,,,,,blue,,,null,object_01a.png,object_03b.png,,,,,,,,,,,,,,,,,,
730.1000000238419,,rt_thecrossant_black3,1636751,,,,,,,,black_plus_sign,,,49,,,1,,,,,,,1,,,,,,,,,,
null,,color_black3,1636852,,,,,,,,black_plus_sign,,,null,,,,,,,,,,,,,,,,,,,,
null,,learn_phase(without_color)3,1640366,,,,,,,,black_plus_sign,,,null,object_05a.png,object_03a.png,,,,,,,,,,,,,,,,,,
null,,black_cross(without_color)3,1641063,,,,,,,,blue,,,null,object_05a.png,object_03a.png,,,,,,,,,,,,,,,,,,
null,,rt_plussign_withcolor3,1641565,,,,,,,,blue,,,null,object_05a.png,object_03a.png,,,,,,,,,,,,,,,,,,
815.7000000476837,,rt_thecrossant_black3,1642871,,,,,,,,black_plus_sign,,,49,,,1,,,,,,,1,,,,,,,,,,
null,,color_black3,1642973,,,,,,,,black_plus_sign,,,null,,,,,,,,,,,,,,,,,,,,
null,,learn_phase(without_color)3,1646475,,,,,,,,black_plus_sign,,,null,object_09b.png,object_02c.png,,,,,,,,,,,,,,,,,,
null,,black_cross(without_color)3,1647150,,,,,,,,blue,,,null,object_09b.png,object_02c.png,,,,,,,,,,,,,,,,,,
null,,rt_plussign_withcolor3,1647658,,,,,,,,blue,,,null,object_09b.png,object_02c.png,,,,,,,,,,,,,,,,,,
822.2000000476837,,rt_thecrossant_black3,1648986,,,,,,,,black_plus_sign,,,49,,,1,,,,,,,1,,,,,,,,,,
null,,color_black3,1649087,,,,,,,,black_plus_sign,,,null,,,,,,,,,,,,,,,,,,,,
null,,learn_phase(without_color)3,1652590,,,,,,,,black_plus_sign,,,null,object_07c.png,object_10a.png,,,,,,,,,,,,,,,,,,
null,,black_cross(without_color)3,1653232,,,,,,,,green,,,null,object_07c.png,object_10a.png,,,,,,,,,,,,,,,,,,
null,,rt_plussign_withcolor3,1653733,,,,,,,,green,,,null,object_07c.png,object_10a.png,,,,,,,,,,,,,,,,,,
889.2000000476837,,rt_thecrossant_black3,1655109,,,,,,,,black_plus_sign,,,50,,,1,,,,,,,1,,,,,,,,,,
null,,color_black3,1655211,,,,,,,,black_plus_sign,,,null,,,,,,,,,,,,,,,,,,,,
null,,thebreak,1655314,,,,,,,,<p></p>,,,null,,,,,,,,,,,,,,,,,,,,
15846.399999976158,,intro_0,1671161,,,,,,,,instruct,,,32,,,,,,,,,,,,,,,,,,,,
4629.899999976158,,directmemory_phase3,1675792,,,,,,,,object_12c.png,,,49,,,1,,object_12b.png,object_07c.png,object_08c.png,object_12b.png,,0.6065573770491803,,1,,,,,,,,
2665.100000023842,,directmemory_phase3,1678458,,,,,,,,object_09b.png,,,49,,,1,,object_11c.png,object_07a.png,object_04a.png,object_11c.png,,0.6129032258064516,,1,,,,,,,,
4234.900000095367,,directmemory_phase3,1682694,,,,,,,,object_05b.png,,,51,,,1,,object_07c.png,object_04b.png,object_15b.png,object_15b.png,,0.6190476190476191,,1,,,,,,,,
3172.4000000953674,,directmemory_phase3,1685868,,,,,,,,object_02c.png,,,51,,,1,,object_05b.png,object_11a.png,object_09b.png,object_09b.png,,0.625,,1,,,,,,,,
3621.399999976158,,directmemory_phase3,1689491,,,,,,,,object_14c.png,,,49,,,0,,object_05a.png,object_03c.png,object_11a.png,object_03c.png,,0.6153846153846154,,0,,,,,,,,
2229.7000000476837,,directmemory_phase3,1691722,,,,,,,,object_03c.png,,,49,,,1,,object_15a.png,object_04a.png,object_02a.png,object_15a.png,,0.6212121212121212,,1,,,,,,,,
4023.5,,directmemory_phase3,1695747,,,,,,,,object_02b.png,,,51,,,0,,object_07b.png,object_03c.png,object_10b.png,object_07b.png,,0.6119402985074627,,0,,,,,,,,
2971.899999976158,,directmemory_phase3,1698720,,,,,,,,object_01c.png,,,50,,,1,,object_15c.png,object_13c.png,object_06b.png,object_13c.png,,0.6176470588235294,,1,,,,,,,,
3847.899999976158,,directmemory_phase3,1702570,,,,,,,,object_05a.png,,,49,,,1,,object_04a.png,object_13a.png,object_06b.png,object_04a.png,,0.6231884057971014,,1,,,,,,,,
2550.3000000715256,,directmemory_phase3,1705121,,,,,,,,object_10c.png,,,49,,,1,,object_07a.png,object_02a.png,object_04a.png,object_07a.png,,0.6285714285714286,,1,,,,,,,,
4540.600000023842,,directmemory_phase3,1709664,,,,,,,,object_11b.png,,,51,,,0,,object_12a.png,object_10b.png,object_01a.png,object_10b.png,,0.6197183098591549,,0,,,,,,,,
4586.899999976158,,directmemory_phase3,1714252,,,,,,,,object_10a.png,,,49,,,1,,object_07c.png,object_04b.png,object_15a.png,object_07c.png,,0.625,,1,,,,,,,,
6027.900000095367,,directmemory_phase3,1720282,,,,,,,,object_10b.png,,,51,,,1,,object_07a.png,object_04a.png,object_13a.png,object_13a.png,,0.6301369863013698,,1,,,,,,,,
4911.700000047684,,directmemory_phase3,1725195,,,,,,,,object_06c.png,,,49,,,0,,object_09b.png,object_10c.png,object_12a.png,object_10c.png,,0.6216216216216216,,0,,,,,,,,
5246.700000047684,,directmemory_phase3,1730443,,,,,,,,object_11a.png,,,51,,,0,,object_04b.png,object_02a.png,object_07c.png,object_04b.png,,0.6133333333333333,,0,,,,,,,,
3003.399999976158,,directmemory_phase3,1733448,,,,,,,,object_08b.png,,,50,,,1,,object_09b.png,object_10a.png,object_05b.png,object_10a.png,,0.618421052631579,,1,,,,,,,,
4705.100000023842,,directmemory_phase3,1738154,,,,,,,,object_03a.png,,,49,,,1,,object_05a.png,object_11a.png,object_12a.png,object_05a.png,,0.6233766233766234,,1,,,,,,,,
3445.600000023842,,directmemory_phase3,1741601,,,,,,,,object_14a.png,,,49,,,1,,object_09c.png,object_05c.png,object_10a.png,object_09c.png,,0.6282051282051282,,1,,,,,,,,
2503.399999976158,,directmemory_phase3,1744106,,,,,,,,object_03b.png,,,49,,,1,,object_01a.png,object_03c.png,object_05b.png,object_01a.png,,0.6329113924050633,,1,,,,,,,,
4004.2999999523163,,directmemory_phase3,1748112,,,,,,,,object_12a.png,,,50,,,1,,object_06b.png,object_08c.png,object_15c.png,object_08c.png,,0.6375,,1,,,,,,,,
4829,,directmemory_phase3,1752942,,,,,,,,object_09a.png,,,49,,,1,,object_05b.png,object_03c.png,object_01a.png,object_05b.png,,0.6419753086419753,,1,,,,,,,,
2797.899999976158,,directmemory_phase3,1755742,,,,,,,,object_01b.png,,,50,,,1,,object_10c.png,object_12a.png,object_05c.png,object_12a.png,,0.6463414634146342,,1,,,,,,,,
4624.100000023842,,directmemory_phase3,1760367,,,,,,,,object_05c.png,,,50,,,1,,object_07c.png,object_06b.png,object_07a.png,object_06b.png,,0.6506024096385542,,1,,,,,,,,
4449.200000047684,,directmemory_phase3,1764818,,,,,,,,object_04c.png,,,49,,,1,,object_05c.png,object_09b.png,object_01a.png,object_05c.png,,0.6547619047619048,,1,,,,,,,,
4549.899999976158,,directmemory_phase3,1769369,,,,,,,,object_09c.png,,,51,,,0,,object_07a.png,object_02a.png,object_08c.png,object_02a.png,,0.6470588235294118,,0,,,,,,,,
3024.3000000715256,,directmemory_phase3,1772395,,,,,,,,object_07b.png,,,50,,,1,,object_12b.png,object_13b.png,object_02a.png,object_13b.png,,0.6511627906976745,,1,,,,,,,,
4989.899999976158,,directmemory_phase3,1777386,,,,,,,,object_01a.png,,,51,,,1,,object_04b.png,object_04a.png,object_15c.png,object_15c.png,,0.6551724137931034,,1,,,,,,,,
5224.5,,directmemory_phase3,1782612,,,,,,,,object_08a.png,,,51,,,0,,object_12a.png,object_11a.png,object_05b.png,object_11a.png,,0.6477272727272727,,0,,,,,,,,
2783.9000000953674,,directmemory_phase3,1785397,,,,,,,,object_06a.png,,,49,,,1,,object_01c.png,object_12c.png,object_10c.png,object_01c.png,,0.651685393258427,,1,,,,,,,,
2743,,directmemory_phase3,1788142,,,,,,,,object_14b.png,,,50,,,1,,object_09c.png,object_12c.png,object_05b.png,object_12c.png,,0.6555555555555556,,1,,,,,,,,
null,,thebreak,1788245,,,,,,,,<p></p>,,,null,,,,,,,,,,,,,,,,,,,,
59945.5,,intro_0,1848191,,,,,,,,instruct,,,32,,,,,,,,,,,,,,,,,,,,
null,,learn_phase(without_color)4,1851693,,,,,,,,black_plus_sign,,,null,object_09c.png,object_14a.png,,,,,,,,,,,,,,,,,,
null,,black_cross(without_color)4,1852250,,,,,,,,blue,,,null,object_09c.png,object_14a.png,,,,,,,,,,,,,,,,,,
394.39999997615814,,rt_plussign_withcolor4,1852751,,,,,,,,blue,,,49,object_09c.png,object_14a.png,,,,,,,,,,,,,,,,,,
null,,rt_thecrossant_black4,1854199,,,,,,,,black_plus_sign,,,null,,,1,,,,,,,1,,,,,,,,,,
null,,color_black4,1854301,,,,,,,,black_plus_sign,,,null,,,,,,,,,,,,,,,,,,,,
null,,learn_phase(without_color)4,1857811,,,,,,,,black_plus_sign,,,null,object_05a.png,object_03a.png,,,,,,,,,,,,,,,,,,
null,,black_cross(without_color)4,1858475,,,,,,,,blue,,,null,object_05a.png,object_03a.png,,,,,,,,,,,,,,,,,,
null,,rt_plussign_withcolor4,1858976,,,,,,,,blue,,,null,object_05a.png,object_03a.png,,,,,,,,,,,,,,,,,,
667.7999999523163,,rt_thecrossant_black4,1860317,,,,,,,,black_plus_sign,,,49,,,1,,,,,,,1,,,,,,,,,,
null,,color_black4,1860419,,,,,,,,black_plus_sign,,,null,,,,,,,,,,,,,,,,,,,,
null,,learn_phase(without_color)4,1863921,,,,,,,,black_plus_sign,,,null,object_03c.png,object_14c.png,,,,,,,,,,,,,,,,,,
null,,black_cross(without_color)4,1864343,,,,,,,,blue,,,null,object_03c.png,object_14c.png,,,,,,,,,,,,,,,,,,
null,,rt_plussign_withcolor4,1864845,,,,,,,,blue,,,null,object_03c.png,object_14c.png,,,,,,,,,,,,,,,,,,
864.7999999523163,,rt_thecrossant_black4,1866428,,,,,,,,black_plus_sign,,,49,,,1,,,,,,,1,,,,,,,,,,
null,,color_black4,1866529,,,,,,,,black_plus_sign,,,null,,,,,,,,,,,,,,,,,,,,
null,,learn_phase(without_color)4,1870031,,,,,,,,black_plus_sign,,,null,object_07b.png,object_02b.png,,,,,,,,,,,,,,,,,,
null,,black_cross(without_color)4,1871044,,,,,,,,green,,,null,object_07b.png,object_02b.png,,,,,,,,,,,,,,,,,,
350.3000000715256,,rt_plussign_withcolor4,1871546,,,,,,,,green,,,50,object_07b.png,object_02b.png,,,,,,,,,,,,,,,,,,
null,,rt_thecrossant_black4,1872537,,,,,,,,black_plus_sign,,,null,,,1,,,,,,,1,,,,,,,,,,
null,,color_black4,1872639,,,,,,,,black_plus_sign,,,null,,,,,,,,,,,,,,,,,,,,
null,,learn_phase(without_color)4,1876141,,,,,,,,black_plus_sign,,,null,object_11a.png,object_08a.png,,,,,,,,,,,,,,,,,,
null,,black_cross(without_color)4,1876792,,,,,,,,green,,,null,object_11a.png,object_08a.png,,,,,,,,,,,,,,,,,,
329.1999999284744,,rt_plussign_withcolor4,1877293,,,,,,,,green,,,50,object_11a.png,object_08a.png,,,,,,,,,,,,,,,,,,
null,,rt_thecrossant_black4,1878662,,,,,,,,black_plus_sign,,,null,,,1,,,,,,,1,,,,,,,,,,
null,,color_black4,1878764,,,,,,,,black_plus_sign,,,null,,,,,,,,,,,,,,,,,,,,
null,,learn_phase(without_color)4,1882266,,,,,,,,black_plus_sign,,,null,object_08c.png,object_12a.png,,,,,,,,,,,,,,,,,,
null,,black_cross(without_color)4,1882805,,,,,,,,blue,,,null,object_08c.png,object_12a.png,,,,,,,,,,,,,,,,,,
null,,rt_plussign_withcolor4,1883306,,,,,,,,blue,,,null,object_08c.png,object_12a.png,,,,,,,,,,,,,,,,,,
839.8000000715256,,rt_thecrossant_black4,1884770,,,,,,,,black_plus_sign,,,49,,,1,,,,,,,1,,,,,,,,,,
null,,color_black4,1884871,,,,,,,,black_plus_sign,,,null,,,,,,,,,,,,,,,,,,,,
null,,learn_phase(without_color)4,1888373,,,,,,,,black_plus_sign,,,null,object_11c.png,object_09b.png,,,,,,,,,,,,,,,,,,
null,,black_cross(without_color)4,1889278,,,,,,,,blue,,,null,object_11c.png,object_09b.png,,,,,,,,,,,,,,,,,,
null,,rt_plussign_withcolor4,1889779,,,,,,,,blue,,,null,object_11c.png,object_09b.png,,,,,,,,,,,,,,,,,,
664.6999999284744,,rt_thecrossant_black4,1890877,,,,,,,,black_plus_sign,,,49,,,1,,,,,,,1,,,,,,,,,,
null,,color_black4,1890979,,,,,,,,black_plus_sign,,,null,,,,,,,,,,,,,,,,,,,,
null,,learn_phase(without_color)4,1894481,,,,,,,,black_plus_sign,,,null,object_12c.png,object_14b.png,,,,,,,,,,,,,,,,,,
null,,black_cross(without_color)4,1895013,,,,,,,,green,,,null,object_12c.png,object_14b.png,,,,,,,,,,,,,,,,,,
null,,rt_plussign_withcolor4,1895515,,,,,,,,green,,,null,object_12c.png,object_14b.png,,,,,,,,,,,,,,,,,,
1663.2999999523163,,rt_thecrossant_black4,1896986,,,,,,,,black_plus_sign,,,50,,,1,,,,,,,1,,,,,,,,,,
null,,color_black4,1897088,,,,,,,,black_plus_sign,,,null,,,,,,,,,,,,,,,,,,,,
null,,learn_phase(without_color)4,1900591,,,,,,,,black_plus_sign,,,null,object_04b.png,object_11a.png,,,,,,,,,,,,,,,,,,
null,,black_cross(without_color)4,1901335,,,,,,,,green,,,null,object_04b.png,object_11a.png,,,,,,,,,,,,,,,,,,
378.5,,rt_plussign_withcolor4,1901838,,,,,,,,green,,,50,object_04b.png,object_11a.png,,,,,,,,,,,,,,,,,,
null,,rt_thecrossant_black4,1903098,,,,,,,,black_plus_sign,,,null,,,1,,,,,,,1,,,,,,,,,,
null,,color_black4,1903199,,,,,,,,black_plus_sign,,,null,,,,,,,,,,,,,,,,,,,,
null,,learn_phase(without_color)4,1906701,,,,,,,,black_plus_sign,,,null,object_01c.png,object_06a.png,,,,,,,,,,,,,,,,,,
null,,black_cross(without_color)4,1907576,,,,,,,,green,,,null,object_01c.png,object_06a.png,,,,,,,,,,,,,,,,,,
463.89999997615814,,rt_plussign_withcolor4,1908078,,,,,,,,green,,,50,object_01c.png,object_06a.png,,,,,,,,,,,,,,,,,,
null,,rt_thecrossant_black4,1909207,,,,,,,,black_plus_sign,,,null,,,1,,,,,,,1,,,,,,,,,,
null,,color_black4,1909310,,,,,,,,black_plus_sign,,,null,,,,,,,,,,,,,,,,,,,,
null,,learn_phase(without_color)4,1912812,,,,,,,,black_plus_sign,,,null,object_10c.png,object_06c.png,,,,,,,,,,,,,,,,,,
null,,black_cross(without_color)4,1913493,,,,,,,,green,,,null,object_10c.png,object_06c.png,,,,,,,,,,,,,,,,,,
426.8000000715256,,rt_plussign_withcolor4,1913996,,,,,,,,green,,,50,object_10c.png,object_06c.png,,,,,,,,,,,,,,,,,,
null,,rt_thecrossant_black4,1915319,,,,,,,,black_plus_sign,,,null,,,1,,,,,,,1,,,,,,,,,,
null,,color_black4,1915421,,,,,,,,black_plus_sign,,,null,,,,,,,,,,,,,,,,,,,,
null,,learn_phase(without_color)4,1918924,,,,,,,,black_plus_sign,,,null,object_15b.png,object_05b.png,,,,,,,,,,,,,,,,,,
null,,black_cross(without_color)4,1919668,,,,,,,,green,,,null,object_15b.png,object_05b.png,,,,,,,,,,,,,,,,,,
497.8000000715256,,rt_plussign_withcolor4,1920170,,,,,,,,green,,,50,object_15b.png,object_05b.png,,,,,,,,,,,,,,,,,,
null,,rt_thecrossant_black4,1921429,,,,,,,,black_plus_sign,,,null,,,1,,,,,,,1,,,,,,,,,,
null,,color_black4,1921531,,,,,,,,black_plus_sign,,,null,,,,,,,,,,,,,,,,,,,,
null,,learn_phase(without_color)4,1925033,,,,,,,,black_plus_sign,,,null,object_13b.png,object_07b.png,,,,,,,,,,,,,,,,,,
null,,black_cross(without_color)4,1926074,,,,,,,,green,,,null,object_13b.png,object_07b.png,,,,,,,,,,,,,,,,,,
476.2000000476837,,rt_plussign_withcolor4,1926575,,,,,,,,green,,,50,object_13b.png,object_07b.png,,,,,,,,,,,,,,,,,,
null,,rt_thecrossant_black4,1927539,,,,,,,,black_plus_sign,,,null,,,1,,,,,,,1,,,,,,,,,,
null,,color_black4,1927641,,,,,,,,black_plus_sign,,,null,,,,,,,,,,,,,,,,,,,,
null,,learn_phase(without_color)4,1931143,,,,,,,,black_plus_sign,,,null,object_05c.png,object_04c.png,,,,,,,,,,,,,,,,,,
null,,black_cross(without_color)4,1931971,,,,,,,,green,,,null,object_05c.png,object_04c.png,,,,,,,,,,,,,,,,,,
420.1999999284744,,rt_plussign_withcolor4,1932473,,,,,,,,green,,,50,object_05c.png,object_04c.png,,,,,,,,,,,,,,,,,,
null,,rt_thecrossant_black4,1933649,,,,,,,,black_plus_sign,,,null,,,1,,,,,,,1,,,,,,,,,,
null,,color_black4,1933751,,,,,,,,black_plus_sign,,,null,,,,,,,,,,,,,,,,,,,,
null,,learn_phase(without_color)4,1937254,,,,,,,,black_plus_sign,,,null,object_10b.png,object_11b.png,,,,,,,,,,,,,,,,,,
null,,black_cross(without_color)4,1937741,,,,,,,,blue,,,null,object_10b.png,object_11b.png,,,,,,,,,,,,,,,,,,
null,,rt_plussign_withcolor4,1938242,,,,,,,,blue,,,null,object_10b.png,object_11b.png,,,,,,,,,,,,,,,,,,
1099.7000000476837,,rt_thecrossant_black4,1939760,,,,,,,,black_plus_sign,,,49,,,1,,,,,,,1,,,,,,,,,,
null,,color_black4,1939861,,,,,,,,black_plus_sign,,,null,,,,,,,,,,,,,,,,,,,,
null,,learn_phase(without_color)4,1943363,,,,,,,,black_plus_sign,,,null,object_06b.png,object_05c.png,,,,,,,,,,,,,,,,,,
null,,black_cross(without_color)4,1943953,,,,,,,,green,,,null,object_06b.png,object_05c.png,,,,,,,,,,,,,,,,,,
495.6999999284744,,rt_plussign_withcolor4,1944455,,,,,,,,green,,,50,object_06b.png,object_05c.png,,,,,,,,,,,,,,,,,,
null,,rt_thecrossant_black4,1945869,,,,,,,,black_plus_sign,,,null,,,1,,,,,,,1,,,,,,,,,,
null,,color_black4,1945971,,,,,,,,black_plus_sign,,,null,,,,,,,,,,,,,,,,,,,,
null,,learn_phase(without_color)4,1949474,,,,,,,,black_plus_sign,,,null,object_05b.png,object_09a.png,,,,,,,,,,,,,,,,,,
null,,black_cross(without_color)4,1950339,,,,,,,,green,,,null,object_05b.png,object_09a.png,,,,,,,,,,,,,,,,,,
null,,rt_plussign_withcolor4,1950841,,,,,,,,green,,,null,object_05b.png,object_09a.png,,,,,,,,,,,,,,,,,,
828.6999999284744,,rt_thecrossant_black4,1951980,,,,,,,,black_plus_sign,,,50,,,1,,,,,,,1,,,,,,,,,,
null,,color_black4,1952081,,,,,,,,black_plus_sign,,,null,,,,,,,,,,,,,,,,,,,,
null,,learn_phase(without_color)4,1955584,,,,,,,,black_plus_sign,,,null,object_07c.png,object_10a.png,,,,,,,,,,,,,,,,,,
null,,black_cross(without_color)4,1956173,,,,,,,,green,,,null,object_07c.png,object_10a.png,,,,,,,,,,,,,,,,,,
null,,rt_plussign_withcolor4,1956676,,,,,,,,green,,,null,object_07c.png,object_10a.png,,,,,,,,,,,,,,,,,,
1296.2000000476837,,rt_thecrossant_black4,1958090,,,,,,,,black_plus_sign,,,50,,,1,,,,,,,1,,,,,,,,,,
null,,color_black4,1958191,,,,,,,,black_plus_sign,,,null,,,,,,,,,,,,,,,,,,,,
null,,learn_phase(without_color)4,1961694,,,,,,,,black_plus_sign,,,null,object_12b.png,object_12c.png,,,,,,,,,,,,,,,,,,
null,,black_cross(without_color)4,1962606,,,,,,,,green,,,null,object_12b.png,object_12c.png,,,,,,,,,,,,,,,,,,
363.10000002384186,,rt_plussign_withcolor4,1963108,,,,,,,,green,,,50,object_12b.png,object_12c.png,,,,,,,,,,,,,,,,,,
null,,rt_thecrossant_black4,1964200,,,,,,,,black_plus_sign,,,null,,,1,,,,,,,1,,,,,,,,,,
null,,color_black4,1964303,,,,,,,,black_plus_sign,,,null,,,,,,,,,,,,,,,,,,,,
null,,learn_phase(without_color)4,1967804,,,,,,,,black_plus_sign,,,null,object_01a.png,object_03b.png,,,,,,,,,,,,,,,,,,
null,,black_cross(without_color)4,1968658,,,,,,,,green,,,null,object_01a.png,object_03b.png,,,,,,,,,,,,,,,,,,
426.8000000715256,,rt_plussign_withcolor4,1969161,,,,,,,,green,,,50,object_01a.png,object_03b.png,,,,,,,,,,,,,,,,,,
null,,rt_thecrossant_black4,1970311,,,,,,,,black_plus_sign,,,null,,,1,,,,,,,1,,,,,,,,,,
null,,color_black4,1970413,,,,,,,,black_plus_sign,,,null,,,,,,,,,,,,,,,,,,,,
null,,learn_phase(without_color)4,1973916,,,,,,,,black_plus_sign,,,null,object_13a.png,object_10b.png,,,,,,,,,,,,,,,,,,
null,,black_cross(without_color)4,1974420,,,,,,,,green,,,null,object_13a.png,object_10b.png,,,,,,,,,,,,,,,,,,
null,,rt_plussign_withcolor4,1974923,,,,,,,,green,,,null,object_13a.png,object_10b.png,,,,,,,,,,,,,,,,,,
1221,,rt_thecrossant_black4,1976422,,,,,,,,black_plus_sign,,,50,,,1,,,,,,,1,,,,,,,,,,
null,,color_black4,1976523,,,,,,,,black_plus_sign,,,null,,,,,,,,,,,,,,,,,,,,
null,,learn_phase(without_color)4,1980025,,,,,,,,black_plus_sign,,,null,object_07a.png,object_10c.png,,,,,,,,,,,,,,,,,,
null,,black_cross(without_color)4,1980589,,,,,,,,green,,,null,object_07a.png,object_10c.png,,,,,,,,,,,,,,,,,,
463.59999990463257,,rt_plussign_withcolor4,1981090,,,,,,,,green,,,50,object_07a.png,object_10c.png,,,,,,,,,,,,,,,,,,
null,,rt_thecrossant_black4,1982531,,,,,,,,black_plus_sign,,,null,,,1,,,,,,,1,,,,,,,,,,
null,,color_black4,1982633,,,,,,,,black_plus_sign,,,null,,,,,,,,,,,,,,,,,,,,
null,,learn_phase(without_color)4,1986135,,,,,,,,black_plus_sign,,,null,object_04a.png,object_05a.png,,,,,,,,,,,,,,,,,,
null,,black_cross(without_color)4,1986909,,,,,,,,blue,,,null,object_04a.png,object_05a.png,,,,,,,,,,,,,,,,,,
null,,rt_plussign_withcolor4,1987410,,,,,,,,blue,,,null,object_04a.png,object_05a.png,,,,,,,,,,,,,,,,,,
886.3999999761581,,rt_thecrossant_black4,1988639,,,,,,,,black_plus_sign,,,49,,,1,,,,,,,1,,,,,,,,,,
null,,color_black4,1988741,,,,,,,,black_plus_sign,,,null,,,,,,,,,,,,,,,,,,,,
null,,learn_phase(without_color)4,1992244,,,,,,,,black_plus_sign,,,null,object_02a.png,object_09c.png,,,,,,,,,,,,,,,,,,
null,,black_cross(without_color)4,1993146,,,,,,,,blue,,,null,object_02a.png,object_09c.png,,,,,,,,,,,,,,,,,,
364.7999999523163,,rt_plussign_withcolor4,1993648,,,,,,,,blue,,,49,object_02a.png,object_09c.png,,,,,,,,,,,,,,,,,,
null,,rt_thecrossant_black4,1994749,,,,,,,,black_plus_sign,,,null,,,1,,,,,,,1,,,,,,,,,,
null,,color_black4,1994851,,,,,,,,black_plus_sign,,,null,,,,,,,,,,,,,,,,,,,,
null,,learn_phase(without_color)4,1998365,,,,,,,,black_plus_sign,,,null,object_15c.png,object_01a.png,,,,,,,,,,,,,,,,,,
null,,black_cross(without_color)4,1999090,,,,,,,,green,,,null,object_15c.png,object_01a.png,,,,,,,,,,,,,,,,,,
null,,rt_plussign_withcolor4,1999592,,,,,,,,green,,,null,object_15c.png,object_01a.png,,,,,,,,,,,,,,,,,,
1200,,rt_thecrossant_black4,2000871,,,,,,,,black_plus_sign,,,50,,,1,,,,,,,1,,,,,,,,,,
null,,color_black4,2000972,,,,,,,,black_plus_sign,,,null,,,,,,,,,,,,,,,,,,,,
null,,learn_phase(without_color)4,2004476,,,,,,,,black_plus_sign,,,null,object_12a.png,object_01b.png,,,,,,,,,,,,,,,,,,
null,,black_cross(without_color)4,2004880,,,,,,,,blue,,,null,object_12a.png,object_01b.png,,,,,,,,,,,,,,,,,,
null,,rt_plussign_withcolor4,2005382,,,,,,,,blue,,,null,object_12a.png,object_01b.png,,,,,,,,,,,,,,,,,,
910.5,,rt_thecrossant_black4,2006984,,,,,,,,black_plus_sign,,,49,,,1,,,,,,,1,,,,,,,,,,
null,,color_black4,2007088,,,,,,,,black_plus_sign,,,null,,,,,,,,,,,,,,,,,,,,
null,,learn_phase(without_color)4,2010589,,,,,,,,black_plus_sign,,,null,object_13c.png,object_01c.png,,,,,,,,,,,,,,,,,,
null,,black_cross(without_color)4,2011352,,,,,,,,blue,,,null,object_13c.png,object_01c.png,,,,,,,,,,,,,,,,,,
452.5,,rt_plussign_withcolor4,2011854,,,,,,,,blue,,,49,object_13c.png,object_01c.png,,,,,,,,,,,,,,,,,,
null,,rt_thecrossant_black4,2013096,,,,,,,,black_plus_sign,,,null,,,1,,,,,,,1,,,,,,,,,,
null,,color_black4,2013198,,,,,,,,black_plus_sign,,,null,,,,,,,,,,,,,,,,,,,,
null,,learn_phase(without_color)4,2016701,,,,,,,,black_plus_sign,,,null,object_15a.png,object_03c.png,,,,,,,,,,,,,,,,,,
null,,black_cross(without_color)4,2017671,,,,,,,,green,,,null,object_15a.png,object_03c.png,,,,,,,,,,,,,,,,,,
351.60000002384186,,rt_plussign_withcolor4,2018173,,,,,,,,green,,,50,object_15a.png,object_03c.png,,,,,,,,,,,,,,,,,,
null,,rt_thecrossant_black4,2019229,,,,,,,,black_plus_sign,,,null,,,1,,,,,,,1,,,,,,,,,,
null,,color_black4,2019331,,,,,,,,black_plus_sign,,,null,,,,,,,,,,,,,,,,,,,,
null,,learn_phase(without_color)4,2022834,,,,,,,,black_plus_sign,,,null,object_09b.png,object_02c.png,,,,,,,,,,,,,,,,,,
null,,black_cross(without_color)4,2023809,,,,,,,,blue,,,null,object_09b.png,object_02c.png,,,,,,,,,,,,,,,,,,
null,,rt_plussign_withcolor4,2024310,,,,,,,,blue,,,null,object_09b.png,object_02c.png,,,,,,,,,,,,,,,,,,
1067.7999999523163,,rt_thecrossant_black4,2025339,,,,,,,,black_plus_sign,,,49,,,1,,,,,,,1,,,,,,,,,,
null,,color_black4,2025441,,,,,,,,black_plus_sign,,,null,,,,,,,,,,,,,,,,,,,,
null,,learn_phase(without_color)4,2028943,,,,,,,,black_plus_sign,,,null,object_10a.png,object_08b.png,,,,,,,,,,,,,,,,,,
null,,black_cross(without_color)4,2029399,,,,,,,,green,,,null,object_10a.png,object_08b.png,,,,,,,,,,,,,,,,,,
null,,rt_plussign_withcolor4,2029904,,,,,,,,green,,,null,object_10a.png,object_08b.png,,,,,,,,,,,,,,,,,,
1089.3000000715256,,rt_thecrossant_black4,2031453,,,,,,,,black_plus_sign,,,50,,,1,,,,,,,1,,,,,,,,,,
null,,color_black4,2031554,,,,,,,,black_plus_sign,,,null,,,,,,,,,,,,,,,,,,,,
null,,thebreak,2031657,,,,,,,,<p></p>,,,null,,,,,,,,,,,,,,,,,,,,
9601.300000071526,,intro_0,2041260,,,,,,,,instruct,,,32,,,,,,,,,,,,,,,,,,,,
2546,,directmemory_phase4,2043807,,,,,,,,object_01a.png,,,49,,,1,,object_15c.png,object_07c.png,object_13c.png,object_15c.png,,0.6593406593406593,,1,,,,,,,,
2840.899999976158,,directmemory_phase4,2046649,,,,,,,,object_11a.png,,,49,,,1,,object_04b.png,object_06b.png,object_07a.png,object_04b.png,,0.6630434782608695,,1,,,,,,,,
2878.399999976158,,directmemory_phase4,2049529,,,,,,,,object_02b.png,,,49,,,1,,object_07b.png,object_10a.png,object_01c.png,object_07b.png,,0.6666666666666666,,1,,,,,,,,
2322.2000000476837,,directmemory_phase4,2051853,,,,,,,,object_04c.png,,,50,,,1,,object_12a.png,object_05c.png,object_10b.png,object_05c.png,,0.6702127659574468,,1,,,,,,,,
2015,,directmemory_phase4,2053870,,,,,,,,object_03b.png,,,50,,,1,,object_09b.png,object_01a.png,object_05b.png,object_01a.png,,0.6736842105263158,,1,,,,,,,,
5514.899999976158,,directmemory_phase4,2059386,,,,,,,,object_06c.png,,,51,,,1,,object_10b.png,object_05a.png,object_10c.png,object_10c.png,,0.6770833333333334,,1,,,,,,,,
4427.600000023842,,directmemory_phase4,2063816,,,,,,,,object_14b.png,,,51,,,1,,object_09c.png,object_10a.png,object_12c.png,object_12c.png,,0.6804123711340206,,1,,,,,,,,
4178.899999976158,,directmemory_phase4,2067996,,,,,,,,object_09a.png,,,49,,,0,,object_10c.png,object_05b.png,object_01c.png,object_05b.png,,0.673469387755102,,0,,,,,,,,
2432.600000023842,,directmemory_phase4,2070431,,,,,,,,object_14a.png,,,50,,,1,,object_05c.png,object_09c.png,object_01c.png,object_09c.png,,0.6767676767676768,,1,,,,,,,,
3989.899999976158,,directmemory_phase4,2074423,,,,,,,,object_05b.png,,,51,,,1,,object_11c.png,object_08c.png,object_15b.png,object_15b.png,,0.68,,1,,,,,,,,
4013.3000000715256,,directmemory_phase4,2078437,,,,,,,,object_03a.png,,,50,,,1,,object_10b.png,object_05a.png,object_05b.png,object_05a.png,,0.6831683168316832,,1,,,,,,,,
2457.0999999046326,,directmemory_phase4,2080896,,,,,,,,object_08b.png,,,49,,,1,,object_10a.png,object_09b.png,object_12a.png,object_10a.png,,0.6862745098039216,,1,,,,,,,,
5436.400000095367,,directmemory_phase4,2086334,,,,,,,,object_03c.png,,,49,,,1,,object_15a.png,object_06b.png,object_12b.png,object_15a.png,,0.6893203883495146,,1,,,,,,,,
4047,,directmemory_phase4,2090382,,,,,,,,object_14c.png,,,49,,,0,,object_10a.png,object_09c.png,object_03c.png,object_03c.png,,0.6826923076923077,,0,,,,,,,,
2432.600000023842,,directmemory_phase4,2092817,,,,,,,,object_09b.png,,,50,,,1,,object_15a.png,object_11c.png,object_15c.png,object_11c.png,,0.6857142857142857,,1,,,,,,,,
2700.899999976158,,directmemory_phase4,2095519,,,,,,,,object_08a.png,,,50,,,1,,object_10a.png,object_11a.png,object_03c.png,object_11a.png,,0.6886792452830188,,1,,,,,,,,
2440.100000023842,,directmemory_phase4,2097961,,,,,,,,object_01b.png,,,51,,,1,,object_05a.png,object_01c.png,object_12a.png,object_12a.png,,0.6915887850467289,,1,,,,,,,,
2226.100000023842,,directmemory_phase4,2100188,,,,,,,,object_05a.png,,,50,,,1,,object_02a.png,object_04a.png,object_08c.png,object_04a.png,,0.6944444444444444,,1,,,,,,,,
2059.2000000476837,,directmemory_phase4,2102249,,,,,,,,object_06a.png,,,50,,,1,,object_05b.png,object_01c.png,object_05c.png,object_01c.png,,0.6972477064220184,,1,,,,,,,,
3547.2999999523163,,directmemory_phase4,2105798,,,,,,,,object_10c.png,,,50,,,1,,object_15b.png,object_07a.png,object_15a.png,object_07a.png,,0.7,,1,,,,,,,,
2022,,directmemory_phase4,2107822,,,,,,,,object_12a.png,,,51,,,1,,object_07c.png,object_07a.png,object_08c.png,object_08c.png,,0.7027027027027027,,1,,,,,,,,
5895.299999952316,,directmemory_phase4,2113719,,,,,,,,object_01c.png,,,51,,,0,,object_12b.png,object_13c.png,object_11c.png,object_13c.png,,0.6964285714285714,,0,,,,,,,,
3593.600000023842,,directmemory_phase4,2117314,,,,,,,,object_10a.png,,,49,,,1,,object_07c.png,object_15b.png,object_15a.png,object_07c.png,,0.6991150442477876,,1,,,,,,,,
3416.3000000715256,,directmemory_phase4,2120731,,,,,,,,object_10b.png,,,49,,,0,,object_08c.png,object_13a.png,object_11c.png,object_13a.png,,0.6929824561403509,,0,,,,,,,,
2926.2000000476837,,directmemory_phase4,2123659,,,,,,,,object_12c.png,,,51,,,1,,object_06b.png,object_07a.png,object_12b.png,object_12b.png,,0.6956521739130435,,1,,,,,,,,
5665.299999952316,,directmemory_phase4,2129326,,,,,,,,object_07b.png,,,49,,,0,,object_07a.png,object_13a.png,object_13b.png,object_13b.png,,0.6896551724137931,,0,,,,,,,,
3025.100000023842,,directmemory_phase4,2132353,,,,,,,,object_11b.png,,,50,,,1,,object_01c.png,object_10b.png,object_12c.png,object_10b.png,,0.6923076923076923,,1,,,,,,,,
6579.200000047684,,directmemory_phase4,2138933,,,,,,,,object_09c.png,,,49,,,0,,object_06b.png,object_02a.png,object_15b.png,object_02a.png,,0.6864406779661016,,0,,,,,,,,
1374.6000000238419,,directmemory_phase4,2140310,,,,,,,,object_02c.png,,,50,,,1,,object_01c.png,object_09b.png,object_03c.png,object_09b.png,,0.6890756302521008,,1,,,,,,,,
4148.799999952316,,directmemory_phase4,2144460,,,,,,,,object_05c.png,,,49,,,0,,object_15c.png,object_07a.png,object_06b.png,object_06b.png,,0.6833333333333333,,0,,,,,,,,
null,,thebreak,2144562,,,,,,,,<p></p>,,,null,,,,,,,,,,,,,,,,,,,,
6056.5,,intro_0,2150619,,,,,,,,instruct,,,32,,,,,,,,,,,,,,,,,,,,
15310,,intro_1,2165930,,,,,,,,instruct,,,32,,,,,,,,,,,,,,,,,,,,
59819.89999997616,,intro_2,2225751,,,,,,,,instruct,,,32,,,,,,,,,,,,,,,,,,,,
,,intro_3,2261850,,,,,,,,instruct,,,,,,,,,,,,,,,,,,,,,,,
14393.700000047684,,intro_4,2276245,,,,,,,,instruct,,,32,,,,,,,,,,,,,,,,,,,,
null,,thebreak,2276360,,,,,,,,<p></p>,,,null,,,,,,,,,,,,,,,,,,,,
4463.099999904633,,intro_0,2280825,,,,,,,,instruct,,,32,,,,,,,,,,,,,,,,,,,,
14143.199999928474,,intro_1,2294969,,,,,,,,instruct,,,32,,,,,,,,,,,,,,,,,,,,
4331.199999928474,,intro_2,2299301,,,,,,,,instruct,,,32,,,,,,,,,,,,,,,,,,,,
,,intro_3,2312379,,,,,,,,instruct,,,,,,,,,,,,,,,,,,,,,,,
6269.299999952316,,intro_4,2318649,,,,,,,,instruct,,,32,,,,,,,,,,,,,,,,,,,,
2618.600000023842,,inference_phase,2321269,,,,,,,,object_02c.png,,,50,object_08c.png,object_02a.png,1,,,,,object_11c.png,,1,,,object_11c.png,,,,,,,
2059.2999999523163,,inference_phase,2323330,,,,,,,,object_14a.png,,,51,object_08c.png,object_07a.png,0,,,,,object_02a.png,,0.5,,,object_02a.png,,,,,,,
