rt,responses,trial_type,time_elapsed,identifier_a,identifier_b,identifier_c,tasktype,browser_type,local_time,UTC_time,stimulus,button_pressed,response,key_press,stimulus_left,stimulus_right,accuracy,practice_cumulative_accuracy,stimulus_down_left,stimulus_down_mid,stimulus_down_right,stimulus_correct,prac_weighted_accuracy,cumulative_accuracy,failed_practice,weighted_accuracy,stimulus_middle,tooquick,problems,smooth,distraction,strategies,easier,similar,comments
6193.199999809265,{worker_id:6724d3673a5391f6e028d659},id_enter,6195,object_14b.png; object_01b.png; object_03c.png; object_13c.png; object_02a.png; object_02c.png; object_12b.png; object_04a.png; object_15b.png; object_14c.png; object_12c.png; object_15a.png; object_10a.png; object_13b.png; object_08a.png,object_01a.png; object_04c.png; object_12a.png; object_13a.png; object_02b.png; object_06b.png; object_07c.png; object_10b.png; object_15c.png; object_07a.png; object_05a.png; object_03a.png; object_08b.png; object_06c.png; object_05c.png,object_06a.png; object_07b.png; object_05b.png; object_01c.png; object_09b.png; object_14a.png; object_11c.png; object_11a.png; object_09a.png; object_09c.png; object_08c.png; object_03b.png; object_10c.png; object_11b.png; object_04b.png,blocked,Mozilla/5.0 (Windows NT 10.0; Win64; x64) AppleWebKit/537.36 (KHTML, like Gecko) Chrome/135.0.0.0 Safari/537.36,5/11/2025, 5:04:13 PM,2025-05-11 22:04:13.320,,,,,,,,,,,,,,,,,,,,,,,,,
21831.299999952316,,make_fullscreen,28039,,,,,,,,fullscreen,0,,,,,,,,,,,,,,,,,,,,,,,
7773.600000143051,,instruct_1,35816,,,,,,,,instruct,0,Next,,,,,,,,,,,,,,,,,,,,,,
16696.400000095367,,instruct_2,52515,,,,,,,,instruct,1,Next,,,,,,,,,,,,,,,,,,,,,,
13322.5,,instruct_3,65838,,,,,,,,instruct,1,Next,,,,,,,,,,,,,,,,,,,,,,
50318.299999952316,,instruct_4,116157,,,,,,,,instruct,1,Next,,,,,,,,,,,,,,,,,,,,,,
18123.099999904633,,instruct_5,134282,,,,,,,,instruct,1,Next,,,,,,,,,,,,,,,,,,,,,,
6874.299999952316,,instruct_6,141159,,,,,,,,instruct,1,Next,,,,,,,,,,,,,,,,,,,,,,
55407.700000047684,,instruct_7,196568,,,,,,,,instruct,1,Next,,,,,,,,,,,,,,,,,,,,,,
null,,prac_atten_color_black,197213,,,,,,,,black_plus_sign,,,null,,,,,,,,,,,,,,,,,,,,,
null,,prac_atten_color,197974,,,,,,,,<p style='position:absolute;top: 50%;right: 50%;transform: translate(50%, -50%);font-size: 125px;color: blue;'>+</p>,,,null,,,,,,,,,,,,,,,,,,,,,
1453.7999999523163,,prac_atten_color_black,199977,,,,,,,,black_plus_sign,,,49,,,,,,,,,,,,,,,,,,,,,
null,,prac_atten_color_black,200624,,,,,,,,black_plus_sign,,,null,,,,,,,,,,,,,,,,,,,,,
null,,prac_atten_color,201445,,,,,,,,<p style='position:absolute;top: 50%;right: 50%;transform: translate(50%, -50%);font-size: 125px;color: green;'>+</p>,,,null,,,,,,,,,,,,,,,,,,,,,
588.0999999046326,,prac_atten_color_black,203446,,,,,,,,black_plus_sign,,,50,,,,,,,,,,,,,,,,,,,,,
null,,prac_atten_color_black,204036,,,,,,,,black_plus_sign,,,null,,,,,,,,,,,,,,,,,,,,,
null,,prac_atten_color,204636,,,,,,,,<p style='position:absolute;top: 50%;right: 50%;transform: translate(50%, -50%);font-size: 125px;color: green;'>+</p>,,,null,,,,,,,,,,,,,,,,,,,,,
1357.5999999046326,,prac_atten_color_black,206637,,,,,,,,black_plus_sign,,,50,,,,,,,,,,,,,,,,,,,,,
null,,prac_atten_color_black,207443,,,,,,,,black_plus_sign,,,null,,,,,,,,,,,,,,,,,,,,,
null,,prac_atten_color,207921,,,,,,,,<p style='position:absolute;top: 50%;right: 50%;transform: translate(50%, -50%);font-size: 125px;color: blue;'>+</p>,,,null,,,,,,,,,,,,,,,,,,,,,
847.9000000953674,,prac_atten_color_black,209932,,,,,,,,black_plus_sign,,,49,,,,,,,,,,,,,,,,,,,,,
null,,prac_atten_color_black,210858,,,,,,,,black_plus_sign,,,null,,,,,,,,,,,,,,,,,,,,,
null,,prac_atten_color,211731,,,,,,,,<p style='position:absolute;top: 50%;right: 50%;transform: translate(50%, -50%);font-size: 125px;color: green;'>+</p>,,,null,,,,,,,,,,,,,,,,,,,,,
1039.9000000953674,,prac_atten_color_black,213733,,,,,,,,black_plus_sign,,,50,,,,,,,,,,,,,,,,,,,,,
null,,prac_atten_color_black,214263,,,,,,,,black_plus_sign,,,null,,,,,,,,,,,,,,,,,,,,,
null,,prac_atten_color,215058,,,,,,,,<p style='position:absolute;top: 50%;right: 50%;transform: translate(50%, -50%);font-size: 125px;color: green;'>+</p>,,,null,,,,,,,,,,,,,,,,,,,,,
913.4000000953674,,prac_atten_color_black,217060,,,,,,,,black_plus_sign,,,50,,,,,,,,,,,,,,,,,,,,,
null,,prac_atten_color_black,217670,,,,,,,,black_plus_sign,,,null,,,,,,,,,,,,,,,,,,,,,
null,,prac_atten_color,218340,,,,,,,,<p style='position:absolute;top: 50%;right: 50%;transform: translate(50%, -50%);font-size: 125px;color: blue;'>+</p>,,,null,,,,,,,,,,,,,,,,,,,,,
697.6000001430511,,prac_atten_color_black,220344,,,,,,,,black_plus_sign,,,49,,,,,,,,,,,,,,,,,,,,,
null,,prac_atten_color_black,221077,,,,,,,,black_plus_sign,,,null,,,,,,,,,,,,,,,,,,,,,
null,,prac_atten_color,221924,,,,,,,,<p style='position:absolute;top: 50%;right: 50%;transform: translate(50%, -50%);font-size: 125px;color: green;'>+</p>,,,null,,,,,,,,,,,,,,,,,,,,,
497.40000009536743,,prac_atten_color_black,223925,,,,,,,,black_plus_sign,,,50,,,,,,,,,,,,,,,,,,,,,
null,,prac_atten_color_black,224482,,,,,,,,black_plus_sign,,,null,,,,,,,,,,,,,,,,,,,,,
null,,prac_atten_color,225164,,,,,,,,<p style='position:absolute;top: 50%;right: 50%;transform: translate(50%, -50%);font-size: 125px;color: blue;'>+</p>,,,null,,,,,,,,,,,,,,,,,,,,,
755.1999998092651,,prac_atten_color_black,227166,,,,,,,,black_plus_sign,,,49,,,,,,,,,,,,,,,,,,,,,
null,,prac_atten_color_black,227888,,,,,,,,black_plus_sign,,,null,,,,,,,,,,,,,,,,,,,,,
null,,prac_atten_color,228794,,,,,,,,<p style='position:absolute;top: 50%;right: 50%;transform: translate(50%, -50%);font-size: 125px;color: blue;'>+</p>,,,null,,,,,,,,,,,,,,,,,,,,,
407.7000000476837,,prac_atten_color_black,230796,,,,,,,,black_plus_sign,,,49,,,,,,,,,,,,,,,,,,,,,
15554.099999904633,,attentioncheck_feedback,246351,,,,,,,,cross_check_feedback,0,,,,,,,,,,,,,,,,,,,,,,,
20094.800000190735,,last_instruct,266446,,,,,,,,instruct,,,32,,,,,,,,,,,,,,,,,,,,,
null,,prac_learn_phase(without_color),269948,,,,,,,,black_plus_sign,,,null,object_15a.png,object_03a.png,,,,,,,,,,,,,,,,,,,
null,,prac_black_cross(without_color),270795,,,,,,,,green,,,null,object_15a.png,object_03a.png,,,,,,,,,,,,,,,,,,,
null,,prac_rt_plussign_withcolor,271298,,,,,,,,green,,,null,object_15a.png,object_03a.png,,,,,,,,,,,,,,,,,,,
2255.2999999523163,,prac_rt_thecrossant_black,272455,,,,,,,,black_plus_sign,,,50,,,1,1,,,,,,,,,,,,,,,,,
null,,prac_color_black,272558,,,,,,,,black_plus_sign,,,null,,,,,,,,,,,,,,,,,,,,,
null,,prac_learn_phase(without_color),276062,,,,,,,,black_plus_sign,,,null,object_15b.png,object_15c.png,,,,,,,,,,,,,,,,,,,
null,,black_cross(without_color)1,277103,,,,,,,,green,,,null,object_15a.png,object_03a.png,,,,,,,,,,,,,,,,,,,
null,,prac_rt_plussign_withcolor,277604,,,,,,,,blue,,,null,object_15b.png,object_15c.png,,,,,,,,,,,,,,,,,,,
1457.5,,prac_rt_thecrossant_black,278553,,,,,,,,black_plus_sign,,,49,,,1,1,,,,,,,,,,,,,,,,,
null,,prac_color_black,278655,,,,,,,,black_plus_sign,,,null,,,,,,,,,,,,,,,,,,,,,
null,,prac_learn_phase(without_color),282157,,,,,,,,black_plus_sign,,,null,object_04a.png,object_10b.png,,,,,,,,,,,,,,,,,,,
null,,black_cross(without_color)1,283198,,,,,,,,green,,,null,object_15a.png,object_03a.png,,,,,,,,,,,,,,,,,,,
null,,prac_rt_plussign_withcolor,283715,,,,,,,,green,,,null,object_04a.png,object_10b.png,,,,,,,,,,,,,,,,,,,
1692.5999999046326,,prac_rt_thecrossant_black,284654,,,,,,,,black_plus_sign,,,50,,,1,1,,,,,,,,,,,,,,,,,
null,,prac_color_black,284756,,,,,,,,black_plus_sign,,,null,,,,,,,,,,,,,,,,,,,,,
null,,prac_learn_phase(without_color),288259,,,,,,,,black_plus_sign,,,null,object_10a.png,object_08b.png,,,,,,,,,,,,,,,,,,,
null,,black_cross(without_color)1,289303,,,,,,,,green,,,null,object_15a.png,object_03a.png,,,,,,,,,,,,,,,,,,,
null,,prac_rt_plussign_withcolor,289805,,,,,,,,green,,,null,object_10a.png,object_08b.png,,,,,,,,,,,,,,,,,,,
1715.1999998092651,,prac_rt_thecrossant_black,291071,,,,,,,,black_plus_sign,,,50,,,1,1,,,,,,,,,,,,,,,,,
null,,prac_color_black,291173,,,,,,,,black_plus_sign,,,null,,,,,,,,,,,,,,,,,,,,,
15432,,instruct_dir_01,306607,,,,,,,,instruct,0,Next,,,,,,,,,,,,,,,,,,,,,,
9104.299999952316,,instruct_dir_2,315713,,,,,,,,instruct,1,Next,,,,,,,,,,,,,,,,,,,,,,
7818,,instruct_dir_3,323532,,,,,,,,instruct,1,Next,,,,,,,,,,,,,,,,,,,,,,
10481.099999904633,,instruct_dir_4,334013,,,,,,,,instruct,1,Start,,,,,,,,,,,,,,,,,,,,,,
null,,thebreak,334115,,,,,,,,<p></p>,,,null,,,,,,,,,,,,,,,,,,,,,
1716.4000000953674,,intro_0,335833,,,,,,,,instruct,,,32,,,,,,,,,,,,,,,,,,,,,
8278.399999856949,,prac_directmemory_phase,344112,,,,,,,,practice/object_02b.png,,,50,,,1,,practice/object_01a.png,practice/object_02a.png,practice/object_04a.png,practice/object_02a.png,1,1,,,,,,,,,,,
4331.900000095367,,prac_directmemory_phase,348447,,,,,,,,practice/object_03b.png,,,49,,,1,,practice/object_03a.png,practice/object_04a.png,practice/object_01a.png,practice/object_03a.png,1,1,,,,,,,,,,,
6648.100000143051,,prac_directmemory_phase,355098,,,,,,,,practice/object_01b.png,,,49,,,0,,practice/object_04a.png,practice/object_01a.png,practice/object_02a.png,practice/object_01a.png,0,0.6666666666666666,,,,,,,,,,,
4491.099999904633,,prac_directmemory_phase,359590,,,,,,,,practice/object_04b.png,,,50,,,0,,practice/object_01a.png,practice/object_03a.png,practice/object_04a.png,practice/object_04a.png,0,0.5,,,,,,,,,,,
5847.400000095367,,practice_feedback_force_restart,365449,,,,,,,,practice_feedback,0,,,,,,,,,,,,,1,,,,,,,,,,
9688.5,,last_instruct,375139,,,,,,,,instruct,,,32,,,,,,,,,,,,,,,,,,,,,
null,,prac_learn_phase(without_color),378641,,,,,,,,black_plus_sign,,,null,object_15a.png,object_03a.png,,,,,,,,,,,,,,,,,,,
null,,prac_black_cross(without_color),379628,,,,,,,,green,,,null,object_15a.png,object_03a.png,,,,,,,,,,,,,,,,,,,
null,,prac_rt_plussign_withcolor,380129,,,,,,,,green,,,null,object_15a.png,object_03a.png,,,,,,,,,,,,,,,,,,,
1594.7000000476837,,prac_rt_thecrossant_black,381159,,,,,,,,black_plus_sign,,,50,,,1,1,,,,,,,,,,,,,,,,,
null,,prac_color_black,381261,,,,,,,,black_plus_sign,,,null,,,,,,,,,,,,,,,,,,,,,
null,,prac_learn_phase(without_color),384763,,,,,,,,black_plus_sign,,,null,object_15b.png,object_15c.png,,,,,,,,,,,,,,,,,,,
null,,black_cross(without_color)1,385804,,,,,,,,green,,,null,object_15a.png,object_03a.png,,,,,,,,,,,,,,,,,,,
null,,prac_rt_plussign_withcolor,386305,,,,,,,,blue,,,null,object_15b.png,object_15c.png,,,,,,,,,,,,,,,,,,,
1666.1000001430511,,prac_rt_thecrossant_black,387428,,,,,,,,black_plus_sign,,,49,,,1,1,,,,,,,,,,,,,,,,,
null,,prac_color_black,387530,,,,,,,,black_plus_sign,,,null,,,,,,,,,,,,,,,,,,,,,
null,,prac_learn_phase(without_color),391033,,,,,,,,black_plus_sign,,,null,object_04a.png,object_10b.png,,,,,,,,,,,,,,,,,,,
null,,black_cross(without_color)1,392075,,,,,,,,green,,,null,object_15a.png,object_03a.png,,,,,,,,,,,,,,,,,,,
null,,prac_rt_plussign_withcolor,392576,,,,,,,,green,,,null,object_04a.png,object_10b.png,,,,,,,,,,,,,,,,,,,
1594.9000000953674,,prac_rt_thecrossant_black,393844,,,,,,,,black_plus_sign,,,50,,,1,1,,,,,,,,,,,,,,,,,
null,,prac_color_black,393947,,,,,,,,black_plus_sign,,,null,,,,,,,,,,,,,,,,,,,,,
null,,prac_learn_phase(without_color),397461,,,,,,,,black_plus_sign,,,null,object_10a.png,object_08b.png,,,,,,,,,,,,,,,,,,,
null,,black_cross(without_color)1,398507,,,,,,,,green,,,null,object_15a.png,object_03a.png,,,,,,,,,,,,,,,,,,,
null,,prac_rt_plussign_withcolor,399008,,,,,,,,green,,,null,object_10a.png,object_08b.png,,,,,,,,,,,,,,,,,,,
1600.8000001907349,,prac_rt_thecrossant_black,400364,,,,,,,,black_plus_sign,,,50,,,1,1,,,,,,,,,,,,,,,,,
null,,prac_color_black,400465,,,,,,,,black_plus_sign,,,null,,,,,,,,,,,,,,,,,,,,,
5627.600000143051,,instruct_dir_01,406094,,,,,,,,instruct,0,Next,,,,,,,,,,,,,,,,,,,,,,
2696.7999999523163,,instruct_dir_2,408792,,,,,,,,instruct,1,Next,,,,,,,,,,,,,,,,,,,,,,
2568.2999999523163,,instruct_dir_3,411362,,,,,,,,instruct,1,Next,,,,,,,,,,,,,,,,,,,,,,
3430.7000000476837,,instruct_dir_4,414794,,,,,,,,instruct,1,Start,,,,,,,,,,,,,,,,,,,,,,
null,,thebreak,414896,,,,,,,,<p></p>,,,null,,,,,,,,,,,,,,,,,,,,,
1781.2000000476837,,intro_0,416677,,,,,,,,instruct,,,32,,,,,,,,,,,,,,,,,,,,,
3763.7999999523163,,prac_directmemory_phase,420442,,,,,,,,practice/object_02b.png,,,50,,,1,,practice/object_01a.png,practice/object_02a.png,practice/object_04a.png,practice/object_02a.png,1,1,,,,,,,,,,,
2709.2000000476837,,prac_directmemory_phase,423153,,,,,,,,practice/object_03b.png,,,49,,,1,,practice/object_03a.png,practice/object_04a.png,practice/object_01a.png,practice/object_03a.png,1,1,,,,,,,,,,,
5879,,prac_directmemory_phase,429033,,,,,,,,practice/object_01b.png,,,50,,,1,,practice/object_04a.png,practice/object_01a.png,practice/object_02a.png,practice/object_01a.png,1,1,,,,,,,,,,,
6279.299999952316,,prac_directmemory_phase,435314,,,,,,,,practice/object_04b.png,,,51,,,1,,practice/object_01a.png,practice/object_03a.png,practice/object_04a.png,practice/object_04a.png,1,1,,,,,,,,,,,
5069,,practice_feedback,440384,,,,,,,,practice_feedback,1,,,,,,,,,,,,,,,,,,,,,,,
15273,,proceed_actualTask,455657,,,,,,,,proceed_actualTask,1,Continue,,,,,,,,,,,,,,,,,,,,,,
14994.800000190735,,last_inst,470654,,,,,,,,last_inst,,,32,,,,,,,,,,,,,,,,,,,,,
null,,learn_phase(without_color)1,474156,,,,,,,,black_plus_sign,,,null,object_15a.png,object_03a.png,,,,,,,,,,,,,,,,,,,
null,,black_cross(without_color)1,475205,,,,,,,,green,,,null,object_15a.png,object_03a.png,,,,,,,,,,,,,,,,,,,
null,,rt_plussign_withcolor1,475707,,,,,,,,green,,,null,object_15a.png,object_03a.png,,,,,,,,,,,,,,,,,,,
null,,rt_thecrossant_black1,476670,,,,,,,,black_plus_sign,,,null,,,,,,,,,,NaN,,,,,,,,,,,
null,,color_black1,476772,,,,,,,,black_plus_sign,,,null,,,,,,,,,,,,,,,,,,,,,
null,,learn_phase(without_color)1,480274,,,,,,,,black_plus_sign,,,null,object_15b.png,object_15c.png,,,,,,,,,,,,,,,,,,,
null,,black_cross(without_color)1,481357,,,,,,,,blue,,,null,object_15b.png,object_15c.png,,,,,,,,,,,,,,,,,,,
null,,rt_plussign_withcolor1,481859,,,,,,,,blue,,,null,object_15b.png,object_15c.png,,,,,,,,,,,,,,,,,,,
889.7999999523163,,rt_thecrossant_black1,482780,,,,,,,,black_plus_sign,,,49,,,1,,,,,,,1,,,,,,,,,,,
null,,color_black1,482882,,,,,,,,black_plus_sign,,,null,,,,,,,,,,,,,,,,,,,,,
null,,learn_phase(without_color)1,486383,,,,,,,,black_plus_sign,,,null,object_04a.png,object_10b.png,,,,,,,,,,,,,,,,,,,
null,,black_cross(without_color)1,486872,,,,,,,,green,,,null,object_04a.png,object_10b.png,,,,,,,,,,,,,,,,,,,
null,,rt_plussign_withcolor1,487373,,,,,,,,green,,,null,object_04a.png,object_10b.png,,,,,,,,,,,,,,,,,,,
null,,rt_thecrossant_black1,488888,,,,,,,,black_plus_sign,,,null,,,,,,,,,,1,,,,,,,,,,,
null,,color_black1,488995,,,,,,,,black_plus_sign,,,null,,,,,,,,,,,,,,,,,,,,,
null,,learn_phase(without_color)1,492498,,,,,,,,black_plus_sign,,,null,object_10a.png,object_08b.png,,,,,,,,,,,,,,,,,,,
null,,black_cross(without_color)1,492952,,,,,,,,green,,,null,object_10a.png,object_08b.png,,,,,,,,,,,,,,,,,,,
null,,rt_plussign_withcolor1,493454,,,,,,,,green,,,null,object_10a.png,object_08b.png,,,,,,,,,,,,,,,,,,,
1288.6000001430511,,rt_thecrossant_black1,495004,,,,,,,,black_plus_sign,,,50,,,1,,,,,,,1,,,,,,,,,,,
null,,color_black1,495107,,,,,,,,black_plus_sign,,,null,,,,,,,,,,,,,,,,,,,,,
null,,learn_phase(without_color)1,498617,,,,,,,,black_plus_sign,,,null,object_14c.png,object_07a.png,,,,,,,,,,,,,,,,,,,
null,,black_cross(without_color)1,499396,,,,,,,,green,,,null,object_14c.png,object_07a.png,,,,,,,,,,,,,,,,,,,
null,,rt_plussign_withcolor1,499898,,,,,,,,green,,,null,object_14c.png,object_07a.png,,,,,,,,,,,,,,,,,,,
1461.7999999523163,,rt_thecrossant_black1,501139,,,,,,,,black_plus_sign,,,50,,,1,,,,,,,1,,,,,,,,,,,
null,,color_black1,501242,,,,,,,,black_plus_sign,,,null,,,,,,,,,,,,,,,,,,,,,
null,,learn_phase(without_color)1,504744,,,,,,,,black_plus_sign,,,null,object_02c.png,object_06b.png,,,,,,,,,,,,,,,,,,,
null,,black_cross(without_color)1,505812,,,,,,,,green,,,null,object_02c.png,object_06b.png,,,,,,,,,,,,,,,,,,,
null,,rt_plussign_withcolor1,506314,,,,,,,,green,,,null,object_02c.png,object_06b.png,,,,,,,,,,,,,,,,,,,
1724.0999999046326,,rt_thecrossant_black1,507250,,,,,,,,black_plus_sign,,,50,,,1,,,,,,,1,,,,,,,,,,,
null,,color_black1,507351,,,,,,,,black_plus_sign,,,null,,,,,,,,,,,,,,,,,,,,,
null,,learn_phase(without_color)1,510854,,,,,,,,black_plus_sign,,,null,object_14b.png,object_01a.png,,,,,,,,,,,,,,,,,,,
null,,black_cross(without_color)1,511350,,,,,,,,blue,,,null,object_14b.png,object_01a.png,,,,,,,,,,,,,,,,,,,
null,,rt_plussign_withcolor1,511851,,,,,,,,blue,,,null,object_14b.png,object_01a.png,,,,,,,,,,,,,,,,,,,
2087.2999999523163,,rt_thecrossant_black1,513361,,,,,,,,black_plus_sign,,,49,,,1,,,,,,,1,,,,,,,,,,,
null,,color_black1,513463,,,,,,,,black_plus_sign,,,null,,,,,,,,,,,,,,,,,,,,,
null,,learn_phase(without_color)1,516966,,,,,,,,black_plus_sign,,,null,object_13c.png,object_13a.png,,,,,,,,,,,,,,,,,,,
null,,black_cross(without_color)1,517395,,,,,,,,blue,,,null,object_13c.png,object_13a.png,,,,,,,,,,,,,,,,,,,
null,,rt_plussign_withcolor1,517896,,,,,,,,blue,,,null,object_13c.png,object_13a.png,,,,,,,,,,,,,,,,,,,
1588.7999999523163,,rt_thecrossant_black1,519470,,,,,,,,black_plus_sign,,,49,,,1,,,,,,,1,,,,,,,,,,,
null,,color_black1,519572,,,,,,,,black_plus_sign,,,null,,,,,,,,,,,,,,,,,,,,,
null,,learn_phase(without_color)1,523075,,,,,,,,black_plus_sign,,,null,object_12c.png,object_05a.png,,,,,,,,,,,,,,,,,,,
null,,black_cross(without_color)1,524090,,,,,,,,blue,,,null,object_12c.png,object_05a.png,,,,,,,,,,,,,,,,,,,
null,,rt_plussign_withcolor1,524592,,,,,,,,blue,,,null,object_12c.png,object_05a.png,,,,,,,,,,,,,,,,,,,
1150.5,,rt_thecrossant_black1,525582,,,,,,,,black_plus_sign,,,49,,,1,,,,,,,1,,,,,,,,,,,
null,,color_black1,525684,,,,,,,,black_plus_sign,,,null,,,,,,,,,,,,,,,,,,,,,
null,,learn_phase(without_color)1,529186,,,,,,,,black_plus_sign,,,null,object_08a.png,object_05c.png,,,,,,,,,,,,,,,,,,,
null,,black_cross(without_color)1,530244,,,,,,,,blue,,,null,object_08a.png,object_05c.png,,,,,,,,,,,,,,,,,,,
null,,rt_plussign_withcolor1,530747,,,,,,,,blue,,,null,object_08a.png,object_05c.png,,,,,,,,,,,,,,,,,,,
1584.5,,rt_thecrossant_black1,531693,,,,,,,,black_plus_sign,,,49,,,1,,,,,,,1,,,,,,,,,,,
null,,color_black1,531795,,,,,,,,black_plus_sign,,,null,,,,,,,,,,,,,,,,,,,,,
null,,learn_phase(without_color)1,535299,,,,,,,,black_plus_sign,,,null,object_12b.png,object_07c.png,,,,,,,,,,,,,,,,,,,
null,,black_cross(without_color)1,536373,,,,,,,,blue,,,null,object_12b.png,object_07c.png,,,,,,,,,,,,,,,,,,,
null,,rt_plussign_withcolor1,536889,,,,,,,,blue,,,null,object_12b.png,object_07c.png,,,,,,,,,,,,,,,,,,,
1934.2000000476837,,rt_thecrossant_black1,537819,,,,,,,,black_plus_sign,,,49,,,1,,,,,,,1,,,,,,,,,,,
null,,color_black1,537922,,,,,,,,black_plus_sign,,,null,,,,,,,,,,,,,,,,,,,,,
null,,learn_phase(without_color)1,541425,,,,,,,,black_plus_sign,,,null,object_02a.png,object_02b.png,,,,,,,,,,,,,,,,,,,
null,,black_cross(without_color)1,542101,,,,,,,,green,,,null,object_02a.png,object_02b.png,,,,,,,,,,,,,,,,,,,
null,,rt_plussign_withcolor1,542603,,,,,,,,green,,,null,object_02a.png,object_02b.png,,,,,,,,,,,,,,,,,,,
2319.2999999523163,,rt_thecrossant_black1,543933,,,,,,,,black_plus_sign,,,50,,,1,,,,,,,1,,,,,,,,,,,
null,,color_black1,544035,,,,,,,,black_plus_sign,,,null,,,,,,,,,,,,,,,,,,,,,
null,,learn_phase(without_color)1,547537,,,,,,,,black_plus_sign,,,null,object_13b.png,object_06c.png,,,,,,,,,,,,,,,,,,,
null,,black_cross(without_color)1,548180,,,,,,,,green,,,null,object_13b.png,object_06c.png,,,,,,,,,,,,,,,,,,,
null,,rt_plussign_withcolor1,548682,,,,,,,,green,,,null,object_13b.png,object_06c.png,,,,,,,,,,,,,,,,,,,
1488.5,,rt_thecrossant_black1,550043,,,,,,,,black_plus_sign,,,50,,,1,,,,,,,1,,,,,,,,,,,
null,,color_black1,550145,,,,,,,,black_plus_sign,,,null,,,,,,,,,,,,,,,,,,,,,
null,,learn_phase(without_color)1,553648,,,,,,,,black_plus_sign,,,null,object_01b.png,object_04c.png,,,,,,,,,,,,,,,,,,,
null,,black_cross(without_color)1,554221,,,,,,,,green,,,null,object_01b.png,object_04c.png,,,,,,,,,,,,,,,,,,,
null,,rt_plussign_withcolor1,554723,,,,,,,,green,,,null,object_01b.png,object_04c.png,,,,,,,,,,,,,,,,,,,
1458.2999999523163,,rt_thecrossant_black1,556154,,,,,,,,black_plus_sign,,,50,,,1,,,,,,,1,,,,,,,,,,,
null,,color_black1,556258,,,,,,,,black_plus_sign,,,null,,,,,,,,,,,,,,,,,,,,,
null,,learn_phase(without_color)1,559761,,,,,,,,black_plus_sign,,,null,object_03c.png,object_12a.png,,,,,,,,,,,,,,,,,,,
null,,black_cross(without_color)1,560579,,,,,,,,green,,,null,object_03c.png,object_12a.png,,,,,,,,,,,,,,,,,,,
null,,rt_plussign_withcolor1,561081,,,,,,,,green,,,null,object_03c.png,object_12a.png,,,,,,,,,,,,,,,,,,,
1196.8999998569489,,rt_thecrossant_black1,562269,,,,,,,,black_plus_sign,,,50,,,1,,,,,,,1,,,,,,,,,,,
null,,color_black1,562371,,,,,,,,black_plus_sign,,,null,,,,,,,,,,,,,,,,,,,,,
null,,thebreak,562474,,,,,,,,<p></p>,,,null,,,,,,,,,,,,,,,,,,,,,
1853.0999999046326,,intro_0,564328,,,,,,,,instruct,,,32,,,,,,,,,,,,,,,,,,,,,
4724.400000095367,,directmemory_phase1,569054,,,,,,,,object_06b.png,,,51,,,1,,object_04a.png,object_01b.png,object_02c.png,object_02c.png,,1,,1,,,,,,,,,
4799.600000143051,,directmemory_phase1,573857,,,,,,,,object_06c.png,,,49,,,1,,object_13b.png,object_01b.png,object_04a.png,object_13b.png,,1,,1,,,,,,,,,
5855,,directmemory_phase1,579714,,,,,,,,object_07c.png,,,50,,,1,,object_01b.png,object_12b.png,object_02a.png,object_12b.png,,1,,1,,,,,,,,,
6396,,directmemory_phase1,586112,,,,,,,,object_02b.png,,,49,,,0,,object_14c.png,object_02a.png,object_10a.png,object_02a.png,,0.75,,0,,,,,,,,,
5563.5,,directmemory_phase1,591678,,,,,,,,object_08b.png,,,50,,,1,,object_01b.png,object_10a.png,object_03c.png,object_10a.png,,0.8,,1,,,,,,,,,
6688.5,,directmemory_phase1,598368,,,,,,,,object_03a.png,,,51,,,0,,object_01b.png,object_15a.png,object_12b.png,object_15a.png,,0.6666666666666666,,0,,,,,,,,,
5707,,directmemory_phase1,604076,,,,,,,,object_05a.png,,,49,,,1,,object_12c.png,object_14b.png,object_13c.png,object_12c.png,,0.7142857142857143,,1,,,,,,,,,
5255,,directmemory_phase1,609334,,,,,,,,object_12a.png,,,49,,,0,,object_14b.png,object_01b.png,object_03c.png,object_03c.png,,0.625,,0,,,,,,,,,
4982.299999952316,,directmemory_phase1,614319,,,,,,,,object_04c.png,,,49,,,1,,object_01b.png,object_12c.png,object_13b.png,object_01b.png,,0.6666666666666666,,1,,,,,,,,,
4154.700000047684,,directmemory_phase1,618474,,,,,,,,object_05c.png,,,51,,,1,,object_15a.png,object_10a.png,object_08a.png,object_08a.png,,0.7,,1,,,,,,,,,
4560.900000095367,,directmemory_phase1,623038,,,,,,,,object_01a.png,,,50,,,1,,object_02c.png,object_14b.png,object_01b.png,object_14b.png,,0.7272727272727273,,1,,,,,,,,,
6773.299999952316,,directmemory_phase1,629812,,,,,,,,object_10b.png,,,50,,,0,,object_12b.png,object_02a.png,object_04a.png,object_04a.png,,0.6666666666666666,,0,,,,,,,,,
4538.599999904633,,directmemory_phase1,634352,,,,,,,,object_07a.png,,,51,,,0,,object_14c.png,object_12b.png,object_13c.png,object_14c.png,,0.6153846153846154,,0,,,,,,,,,
4841.399999856949,,directmemory_phase1,639196,,,,,,,,object_15c.png,,,49,,,1,,object_15b.png,object_15a.png,object_02a.png,object_15b.png,,0.6428571428571429,,1,,,,,,,,,
6276.299999952316,,directmemory_phase1,645474,,,,,,,,object_13a.png,,,49,,,1,,object_13c.png,object_12b.png,object_15b.png,object_13c.png,,0.6666666666666666,,1,,,,,,,,,
null,,thebreak,645577,,,,,,,,<p></p>,,,null,,,,,,,,,,,,,,,,,,,,,
1675.2999999523163,,intro_0,647253,,,,,,,,instruct,,,32,,,,,,,,,,,,,,,,,,,,,
null,,learn_phase(without_color)2,650755,,,,,,,,black_plus_sign,,,null,object_02c.png,object_06b.png,,,,,,,,,,,,,,,,,,,
null,,black_cross(without_color)2,651427,,,,,,,,green,,,null,object_02c.png,object_06b.png,,,,,,,,,,,,,,,,,,,
null,,rt_plussign_withcolor2,651930,,,,,,,,green,,,null,object_02c.png,object_06b.png,,,,,,,,,,,,,,,,,,,
null,,rt_thecrossant_black2,653263,,,,,,,,black_plus_sign,,,null,,,,,,,,,,NaN,,,,,,,,,,,
null,,color_black2,653366,,,,,,,,black_plus_sign,,,null,,,,,,,,,,,,,,,,,,,,,
null,,learn_phase(without_color)2,656869,,,,,,,,black_plus_sign,,,null,object_15a.png,object_03a.png,,,,,,,,,,,,,,,,,,,
null,,black_cross(without_color)2,657391,,,,,,,,green,,,null,object_15a.png,object_03a.png,,,,,,,,,,,,,,,,,,,
null,,rt_plussign_withcolor2,657892,,,,,,,,green,,,null,object_15a.png,object_03a.png,,,,,,,,,,,,,,,,,,,
1184.7999999523163,,rt_thecrossant_black2,659376,,,,,,,,black_plus_sign,,,50,,,1,,,,,,,1,,,,,,,,,,,
null,,color_black2,659490,,,,,,,,black_plus_sign,,,null,,,,,,,,,,,,,,,,,,,,,
null,,learn_phase(without_color)2,662994,,,,,,,,black_plus_sign,,,null,object_14c.png,object_07a.png,,,,,,,,,,,,,,,,,,,
null,,black_cross(without_color)2,663414,,,,,,,,blue,,,null,object_14c.png,object_07a.png,,,,,,,,,,,,,,,,,,,
null,,rt_plussign_withcolor2,663915,,,,,,,,blue,,,null,object_14c.png,object_07a.png,,,,,,,,,,,,,,,,,,,
1386.7000000476837,,rt_thecrossant_black2,665501,,,,,,,,black_plus_sign,,,49,,,1,,,,,,,1,,,,,,,,,,,
null,,color_black2,665604,,,,,,,,black_plus_sign,,,null,,,,,,,,,,,,,,,,,,,,,
null,,learn_phase(without_color)2,669105,,,,,,,,black_plus_sign,,,null,object_10a.png,object_08b.png,,,,,,,,,,,,,,,,,,,
null,,black_cross(without_color)2,670102,,,,,,,,green,,,null,object_10a.png,object_08b.png,,,,,,,,,,,,,,,,,,,
null,,rt_plussign_withcolor2,670603,,,,,,,,green,,,null,object_10a.png,object_08b.png,,,,,,,,,,,,,,,,,,,
982.2999999523163,,rt_thecrossant_black2,671612,,,,,,,,black_plus_sign,,,50,,,1,,,,,,,1,,,,,,,,,,,
null,,color_black2,671714,,,,,,,,black_plus_sign,,,null,,,,,,,,,,,,,,,,,,,,,
null,,learn_phase(without_color)2,675218,,,,,,,,black_plus_sign,,,null,object_12b.png,object_07c.png,,,,,,,,,,,,,,,,,,,
null,,black_cross(without_color)2,675991,,,,,,,,green,,,null,object_12b.png,object_07c.png,,,,,,,,,,,,,,,,,,,
null,,rt_plussign_withcolor2,676492,,,,,,,,green,,,null,object_12b.png,object_07c.png,,,,,,,,,,,,,,,,,,,
1674,,rt_thecrossant_black2,677724,,,,,,,,black_plus_sign,,,50,,,1,,,,,,,1,,,,,,,,,,,
null,,color_black2,677826,,,,,,,,black_plus_sign,,,null,,,,,,,,,,,,,,,,,,,,,
null,,learn_phase(without_color)2,681330,,,,,,,,black_plus_sign,,,null,object_03c.png,object_12a.png,,,,,,,,,,,,,,,,,,,
null,,black_cross(without_color)2,681777,,,,,,,,green,,,null,object_03c.png,object_12a.png,,,,,,,,,,,,,,,,,,,
null,,rt_plussign_withcolor2,682279,,,,,,,,green,,,null,object_03c.png,object_12a.png,,,,,,,,,,,,,,,,,,,
1864.2000000476837,,rt_thecrossant_black2,683836,,,,,,,,black_plus_sign,,,50,,,1,,,,,,,1,,,,,,,,,,,
null,,color_black2,683939,,,,,,,,black_plus_sign,,,null,,,,,,,,,,,,,,,,,,,,,
null,,learn_phase(without_color)2,687442,,,,,,,,black_plus_sign,,,null,object_08a.png,object_05c.png,,,,,,,,,,,,,,,,,,,
null,,black_cross(without_color)2,687940,,,,,,,,blue,,,null,object_08a.png,object_05c.png,,,,,,,,,,,,,,,,,,,
null,,rt_plussign_withcolor2,688442,,,,,,,,blue,,,null,object_08a.png,object_05c.png,,,,,,,,,,,,,,,,,,,
1735.3999998569489,,rt_thecrossant_black2,689947,,,,,,,,black_plus_sign,,,49,,,1,,,,,,,1,,,,,,,,,,,
null,,color_black2,690049,,,,,,,,black_plus_sign,,,null,,,,,,,,,,,,,,,,,,,,,
null,,learn_phase(without_color)2,693553,,,,,,,,black_plus_sign,,,null,object_02a.png,object_02b.png,,,,,,,,,,,,,,,,,,,
null,,black_cross(without_color)2,694625,,,,,,,,blue,,,null,object_02a.png,object_02b.png,,,,,,,,,,,,,,,,,,,
null,,rt_plussign_withcolor2,695128,,,,,,,,blue,,,null,object_02a.png,object_02b.png,,,,,,,,,,,,,,,,,,,
1040.4000000953674,,rt_thecrossant_black2,696059,,,,,,,,black_plus_sign,,,49,,,1,,,,,,,1,,,,,,,,,,,
null,,color_black2,696162,,,,,,,,black_plus_sign,,,null,,,,,,,,,,,,,,,,,,,,,
null,,learn_phase(without_color)2,699664,,,,,,,,black_plus_sign,,,null,object_15b.png,object_15c.png,,,,,,,,,,,,,,,,,,,
null,,black_cross(without_color)2,700736,,,,,,,,green,,,null,object_15b.png,object_15c.png,,,,,,,,,,,,,,,,,,,
null,,rt_plussign_withcolor2,701238,,,,,,,,green,,,null,object_15b.png,object_15c.png,,,,,,,,,,,,,,,,,,,
1909.5999999046326,,rt_thecrossant_black2,702170,,,,,,,,black_plus_sign,,,50,,,1,,,,,,,1,,,,,,,,,,,
null,,color_black2,702272,,,,,,,,black_plus_sign,,,null,,,,,,,,,,,,,,,,,,,,,
null,,learn_phase(without_color)2,705774,,,,,,,,black_plus_sign,,,null,object_04a.png,object_10b.png,,,,,,,,,,,,,,,,,,,
null,,black_cross(without_color)2,706295,,,,,,,,blue,,,null,object_04a.png,object_10b.png,,,,,,,,,,,,,,,,,,,
null,,rt_plussign_withcolor2,706808,,,,,,,,blue,,,null,object_04a.png,object_10b.png,,,,,,,,,,,,,,,,,,,
2316.7999999523163,,rt_thecrossant_black2,708293,,,,,,,,black_plus_sign,,,49,,,1,,,,,,,1,,,,,,,,,,,
null,,color_black2,708396,,,,,,,,black_plus_sign,,,null,,,,,,,,,,,,,,,,,,,,,
null,,learn_phase(without_color)2,711899,,,,,,,,black_plus_sign,,,null,object_14b.png,object_01a.png,,,,,,,,,,,,,,,,,,,
null,,black_cross(without_color)2,712581,,,,,,,,green,,,null,object_14b.png,object_01a.png,,,,,,,,,,,,,,,,,,,
null,,rt_plussign_withcolor2,713083,,,,,,,,green,,,null,object_14b.png,object_01a.png,,,,,,,,,,,,,,,,,,,
1605.7999999523163,,rt_thecrossant_black2,714404,,,,,,,,black_plus_sign,,,50,,,1,,,,,,,1,,,,,,,,,,,
null,,color_black2,714507,,,,,,,,black_plus_sign,,,null,,,,,,,,,,,,,,,,,,,,,
null,,learn_phase(without_color)2,718010,,,,,,,,black_plus_sign,,,null,object_13b.png,object_06c.png,,,,,,,,,,,,,,,,,,,
null,,black_cross(without_color)2,718622,,,,,,,,blue,,,null,object_13b.png,object_06c.png,,,,,,,,,,,,,,,,,,,
null,,rt_plussign_withcolor2,719124,,,,,,,,blue,,,null,object_13b.png,object_06c.png,,,,,,,,,,,,,,,,,,,
1615.5999999046326,,rt_thecrossant_black2,720515,,,,,,,,black_plus_sign,,,49,,,1,,,,,,,1,,,,,,,,,,,
null,,color_black2,720617,,,,,,,,black_plus_sign,,,null,,,,,,,,,,,,,,,,,,,,,
null,,learn_phase(without_color)2,724120,,,,,,,,black_plus_sign,,,null,object_12c.png,object_05a.png,,,,,,,,,,,,,,,,,,,
null,,black_cross(without_color)2,725144,,,,,,,,green,,,null,object_12c.png,object_05a.png,,,,,,,,,,,,,,,,,,,
null,,rt_plussign_withcolor2,725647,,,,,,,,green,,,null,object_12c.png,object_05a.png,,,,,,,,,,,,,,,,,,,
1380.2999999523163,,rt_thecrossant_black2,726625,,,,,,,,black_plus_sign,,,50,,,1,,,,,,,1,,,,,,,,,,,
null,,color_black2,726727,,,,,,,,black_plus_sign,,,null,,,,,,,,,,,,,,,,,,,,,
null,,learn_phase(without_color)2,730229,,,,,,,,black_plus_sign,,,null,object_13c.png,object_13a.png,,,,,,,,,,,,,,,,,,,
null,,black_cross(without_color)2,730866,,,,,,,,green,,,null,object_13c.png,object_13a.png,,,,,,,,,,,,,,,,,,,
null,,rt_plussign_withcolor2,731368,,,,,,,,green,,,null,object_13c.png,object_13a.png,,,,,,,,,,,,,,,,,,,
1885.7000000476837,,rt_thecrossant_black2,732740,,,,,,,,black_plus_sign,,,50,,,1,,,,,,,1,,,,,,,,,,,
null,,color_black2,732843,,,,,,,,black_plus_sign,,,null,,,,,,,,,,,,,,,,,,,,,
null,,learn_phase(without_color)2,736346,,,,,,,,black_plus_sign,,,null,object_01b.png,object_04c.png,,,,,,,,,,,,,,,,,,,
null,,black_cross(without_color)2,737350,,,,,,,,blue,,,null,object_01b.png,object_04c.png,,,,,,,,,,,,,,,,,,,
null,,rt_plussign_withcolor2,737853,,,,,,,,blue,,,null,object_01b.png,object_04c.png,,,,,,,,,,,,,,,,,,,
1518.2999999523163,,rt_thecrossant_black2,738855,,,,,,,,black_plus_sign,,,49,,,1,,,,,,,1,,,,,,,,,,,
null,,color_black2,738973,,,,,,,,black_plus_sign,,,null,,,,,,,,,,,,,,,,,,,,,
null,,thebreak,739076,,,,,,,,<p></p>,,,null,,,,,,,,,,,,,,,,,,,,,
2044,,intro_0,741121,,,,,,,,instruct,,,32,,,,,,,,,,,,,,,,,,,,,
7833.599999904633,,directmemory_phase2,748957,,,,,,,,object_05a.png,,,49,,,1,,object_12c.png,object_13c.png,object_15a.png,object_12c.png,,0.6875,,1,,,,,,,,,
2239.800000190735,,directmemory_phase2,751199,,,,,,,,object_07c.png,,,50,,,1,,object_13b.png,object_12b.png,object_13c.png,object_12b.png,,0.7058823529411765,,1,,,,,,,,,
5434.599999904633,,directmemory_phase2,756635,,,,,,,,object_15c.png,,,49,,,1,,object_15b.png,object_02c.png,object_12b.png,object_15b.png,,0.7222222222222222,,1,,,,,,,,,
3540,,directmemory_phase2,760177,,,,,,,,object_04c.png,,,49,,,1,,object_01b.png,object_12b.png,object_14c.png,object_01b.png,,0.7368421052631579,,1,,,,,,,,,
2463.2000000476837,,directmemory_phase2,762644,,,,,,,,object_12a.png,,,49,,,1,,object_03c.png,object_12c.png,object_02a.png,object_03c.png,,0.75,,1,,,,,,,,,
1812.4000000953674,,directmemory_phase2,764458,,,,,,,,object_03a.png,,,49,,,1,,object_15a.png,object_01b.png,object_02c.png,object_15a.png,,0.7619047619047619,,1,,,,,,,,,
4032.2000000476837,,directmemory_phase2,768491,,,,,,,,object_06c.png,,,51,,,1,,object_02c.png,object_02a.png,object_13b.png,object_13b.png,,0.7727272727272727,,1,,,,,,,,,
2618.899999856949,,directmemory_phase2,771113,,,,,,,,object_08b.png,,,51,,,1,,object_13c.png,object_13b.png,object_10a.png,object_10a.png,,0.782608695652174,,1,,,,,,,,,
2693,,directmemory_phase2,773809,,,,,,,,object_13a.png,,,49,,,1,,object_13c.png,object_12c.png,object_04a.png,object_13c.png,,0.7916666666666666,,1,,,,,,,,,
1923.9000000953674,,directmemory_phase2,775734,,,,,,,,object_01a.png,,,49,,,1,,object_14b.png,object_13c.png,object_14c.png,object_14b.png,,0.8,,1,,,,,,,,,
2338.7999999523163,,directmemory_phase2,778075,,,,,,,,object_10b.png,,,50,,,1,,object_14c.png,object_04a.png,object_03c.png,object_04a.png,,0.8076923076923077,,1,,,,,,,,,
3685.7000000476837,,directmemory_phase2,781761,,,,,,,,object_05c.png,,,51,,,1,,object_10a.png,object_02c.png,object_08a.png,object_08a.png,,0.8148148148148148,,1,,,,,,,,,
3197.0999999046326,,directmemory_phase2,784959,,,,,,,,object_07a.png,,,50,,,1,,object_12b.png,object_14c.png,object_04a.png,object_14c.png,,0.8214285714285714,,1,,,,,,,,,
5456,,directmemory_phase2,790416,,,,,,,,object_02b.png,,,50,,,1,,object_10a.png,object_02a.png,object_15b.png,object_02a.png,,0.8275862068965517,,1,,,,,,,,,
1939.5999999046326,,directmemory_phase2,792357,,,,,,,,object_06b.png,,,49,,,1,,object_02c.png,object_14b.png,object_15b.png,object_02c.png,,0.8333333333333334,,1,,,,,,,,,
null,,thebreak,792460,,,,,,,,<p></p>,,,null,,,,,,,,,,,,,,,,,,,,,
1463.4000000953674,,intro_0,793924,,,,,,,,instruct,,,32,,,,,,,,,,,,,,,,,,,,,
null,,learn_phase(without_color)3,797440,,,,,,,,black_plus_sign,,,null,object_08a.png,object_05c.png,,,,,,,,,,,,,,,,,,,
null,,black_cross(without_color)3,798312,,,,,,,,green,,,null,object_08a.png,object_05c.png,,,,,,,,,,,,,,,,,,,
null,,rt_plussign_withcolor3,798824,,,,,,,,green,,,null,object_08a.png,object_05c.png,,,,,,,,,,,,,,,,,,,
null,,rt_thecrossant_black3,799956,,,,,,,,black_plus_sign,,,null,,,,,,,,,,NaN,,,,,,,,,,,
null,,color_black3,800059,,,,,,,,black_plus_sign,,,null,,,,,,,,,,,,,,,,,,,,,
null,,learn_phase(without_color)3,803563,,,,,,,,black_plus_sign,,,null,object_13b.png,object_06c.png,,,,,,,,,,,,,,,,,,,
null,,black_cross(without_color)3,804390,,,,,,,,blue,,,null,object_13b.png,object_06c.png,,,,,,,,,,,,,,,,,,,
null,,rt_plussign_withcolor3,804892,,,,,,,,blue,,,null,object_13b.png,object_06c.png,,,,,,,,,,,,,,,,,,,
null,,rt_thecrossant_black3,806082,,,,,,,,black_plus_sign,,,null,,,,,,,,,,NaN,,,,,,,,,,,
null,,warning_page,811099,,,,,,,,warning,,,null,,,,,,,,,,,,,,,,,,,,,
null,,color_black3,811201,,,,,,,,black_plus_sign,,,null,,,,,,,,,,,,,,,,,,,,,
null,,learn_phase(without_color)3,814711,,,,,,,,black_plus_sign,,,null,object_02a.png,object_02b.png,,,,,,,,,,,,,,,,,,,
null,,black_cross(without_color)3,815725,,,,,,,,green,,,null,object_02a.png,object_02b.png,,,,,,,,,,,,,,,,,,,
null,,rt_plussign_withcolor3,816227,,,,,,,,green,,,null,object_02a.png,object_02b.png,,,,,,,,,,,,,,,,,,,
null,,rt_thecrossant_black3,817229,,,,,,,,black_plus_sign,,,null,,,,,,,,,,NaN,,,,,,,,,,,
null,,warning_page,822243,,,,,,,,warning,,,null,,,,,,,,,,,,,,,,,,,,,
null,,color_black3,822345,,,,,,,,black_plus_sign,,,null,,,,,,,,,,,,,,,,,,,,,
null,,learn_phase(without_color)3,825848,,,,,,,,black_plus_sign,,,null,object_12b.png,object_07c.png,,,,,,,,,,,,,,,,,,,
null,,black_cross(without_color)3,826858,,,,,,,,green,,,null,object_12b.png,object_07c.png,,,,,,,,,,,,,,,,,,,
null,,rt_plussign_withcolor3,827373,,,,,,,,green,,,null,object_12b.png,object_07c.png,,,,,,,,,,,,,,,,,,,
1625.5999999046326,,rt_thecrossant_black3,828372,,,,,,,,black_plus_sign,,,50,,,1,,,,,,,1,,,,,,,,,,,
null,,color_black3,828474,,,,,,,,black_plus_sign,,,null,,,,,,,,,,,,,,,,,,,,,
null,,learn_phase(without_color)3,831976,,,,,,,,black_plus_sign,,,null,object_13c.png,object_13a.png,,,,,,,,,,,,,,,,,,,
null,,black_cross(without_color)3,832393,,,,,,,,green,,,null,object_13c.png,object_13a.png,,,,,,,,,,,,,,,,,,,
null,,rt_plussign_withcolor3,832895,,,,,,,,green,,,null,object_13c.png,object_13a.png,,,,,,,,,,,,,,,,,,,
1505.9000000953674,,rt_thecrossant_black3,834482,,,,,,,,black_plus_sign,,,50,,,1,,,,,,,1,,,,,,,,,,,
null,,color_black3,834585,,,,,,,,black_plus_sign,,,null,,,,,,,,,,,,,,,,,,,,,
null,,learn_phase(without_color)3,838088,,,,,,,,black_plus_sign,,,null,object_03c.png,object_12a.png,,,,,,,,,,,,,,,,,,,
null,,black_cross(without_color)3,839188,,,,,,,,green,,,null,object_03c.png,object_12a.png,,,,,,,,,,,,,,,,,,,
null,,rt_plussign_withcolor3,839690,,,,,,,,green,,,null,object_03c.png,object_12a.png,,,,,,,,,,,,,,,,,,,
1140.1000001430511,,rt_thecrossant_black3,840594,,,,,,,,black_plus_sign,,,50,,,1,,,,,,,1,,,,,,,,,,,
null,,color_black3,840696,,,,,,,,black_plus_sign,,,null,,,,,,,,,,,,,,,,,,,,,
null,,learn_phase(without_color)3,844203,,,,,,,,black_plus_sign,,,null,object_14c.png,object_07a.png,,,,,,,,,,,,,,,,,,,
null,,black_cross(without_color)3,845177,,,,,,,,green,,,null,object_14c.png,object_07a.png,,,,,,,,,,,,,,,,,,,
null,,rt_plussign_withcolor3,845679,,,,,,,,green,,,null,object_14c.png,object_07a.png,,,,,,,,,,,,,,,,,,,
1812.2999999523163,,rt_thecrossant_black3,846708,,,,,,,,black_plus_sign,,,50,,,1,,,,,,,1,,,,,,,,,,,
null,,color_black3,846811,,,,,,,,black_plus_sign,,,null,,,,,,,,,,,,,,,,,,,,,
null,,learn_phase(without_color)3,850328,,,,,,,,black_plus_sign,,,null,object_12c.png,object_05a.png,,,,,,,,,,,,,,,,,,,
null,,black_cross(without_color)3,851419,,,,,,,,green,,,null,object_12c.png,object_05a.png,,,,,,,,,,,,,,,,,,,
null,,rt_plussign_withcolor3,851921,,,,,,,,green,,,null,object_12c.png,object_05a.png,,,,,,,,,,,,,,,,,,,
1628.9000000953674,,rt_thecrossant_black3,852839,,,,,,,,black_plus_sign,,,50,,,1,,,,,,,1,,,,,,,,,,,
null,,color_black3,852942,,,,,,,,black_plus_sign,,,null,,,,,,,,,,,,,,,,,,,,,
null,,learn_phase(without_color)3,856445,,,,,,,,black_plus_sign,,,null,object_15b.png,object_15c.png,,,,,,,,,,,,,,,,,,,
null,,black_cross(without_color)3,857027,,,,,,,,green,,,null,object_15b.png,object_15c.png,,,,,,,,,,,,,,,,,,,
null,,rt_plussign_withcolor3,857530,,,,,,,,green,,,null,object_15b.png,object_15c.png,,,,,,,,,,,,,,,,,,,
1771.6000001430511,,rt_thecrossant_black3,858953,,,,,,,,black_plus_sign,,,50,,,1,,,,,,,1,,,,,,,,,,,
null,,color_black3,859055,,,,,,,,black_plus_sign,,,null,,,,,,,,,,,,,,,,,,,,,
null,,learn_phase(without_color)3,862558,,,,,,,,black_plus_sign,,,null,object_02c.png,object_06b.png,,,,,,,,,,,,,,,,,,,
null,,black_cross(without_color)3,863541,,,,,,,,green,,,null,object_02c.png,object_06b.png,,,,,,,,,,,,,,,,,,,
null,,rt_plussign_withcolor3,864043,,,,,,,,green,,,null,object_02c.png,object_06b.png,,,,,,,,,,,,,,,,,,,
1595.2999999523163,,rt_thecrossant_black3,865070,,,,,,,,black_plus_sign,,,50,,,1,,,,,,,1,,,,,,,,,,,
null,,color_black3,865172,,,,,,,,black_plus_sign,,,null,,,,,,,,,,,,,,,,,,,,,
null,,learn_phase(without_color)3,868674,,,,,,,,black_plus_sign,,,null,object_04a.png,object_10b.png,,,,,,,,,,,,,,,,,,,
null,,black_cross(without_color)3,869286,,,,,,,,blue,,,null,object_04a.png,object_10b.png,,,,,,,,,,,,,,,,,,,
null,,rt_plussign_withcolor3,869788,,,,,,,,blue,,,null,object_04a.png,object_10b.png,,,,,,,,,,,,,,,,,,,
1946.2999999523163,,rt_thecrossant_black3,871180,,,,,,,,black_plus_sign,,,49,,,1,,,,,,,1,,,,,,,,,,,
null,,color_black3,871283,,,,,,,,black_plus_sign,,,null,,,,,,,,,,,,,,,,,,,,,
null,,learn_phase(without_color)3,874786,,,,,,,,black_plus_sign,,,null,object_01b.png,object_04c.png,,,,,,,,,,,,,,,,,,,
null,,black_cross(without_color)3,875235,,,,,,,,green,,,null,object_01b.png,object_04c.png,,,,,,,,,,,,,,,,,,,
null,,rt_plussign_withcolor3,875737,,,,,,,,green,,,null,object_01b.png,object_04c.png,,,,,,,,,,,,,,,,,,,
1460.7000000476837,,rt_thecrossant_black3,877293,,,,,,,,black_plus_sign,,,50,,,1,,,,,,,1,,,,,,,,,,,
null,,color_black3,877395,,,,,,,,black_plus_sign,,,null,,,,,,,,,,,,,,,,,,,,,
null,,learn_phase(without_color)3,880897,,,,,,,,black_plus_sign,,,null,object_15a.png,object_03a.png,,,,,,,,,,,,,,,,,,,
null,,black_cross(without_color)3,881543,,,,,,,,blue,,,null,object_15a.png,object_03a.png,,,,,,,,,,,,,,,,,,,
null,,rt_plussign_withcolor3,882045,,,,,,,,blue,,,null,object_15a.png,object_03a.png,,,,,,,,,,,,,,,,,,,
1260.7999999523163,,rt_thecrossant_black3,883408,,,,,,,,black_plus_sign,,,49,,,1,,,,,,,1,,,,,,,,,,,
null,,color_black3,883510,,,,,,,,black_plus_sign,,,null,,,,,,,,,,,,,,,,,,,,,
null,,learn_phase(without_color)3,887013,,,,,,,,black_plus_sign,,,null,object_10a.png,object_08b.png,,,,,,,,,,,,,,,,,,,
null,,black_cross(without_color)3,887543,,,,,,,,blue,,,null,object_10a.png,object_08b.png,,,,,,,,,,,,,,,,,,,
null,,rt_plussign_withcolor3,888046,,,,,,,,blue,,,null,object_10a.png,object_08b.png,,,,,,,,,,,,,,,,,,,
1475.1000001430511,,rt_thecrossant_black3,889519,,,,,,,,black_plus_sign,,,49,,,1,,,,,,,1,,,,,,,,,,,
null,,color_black3,889621,,,,,,,,black_plus_sign,,,null,,,,,,,,,,,,,,,,,,,,,
null,,learn_phase(without_color)3,893122,,,,,,,,black_plus_sign,,,null,object_14b.png,object_01a.png,,,,,,,,,,,,,,,,,,,
null,,black_cross(without_color)3,894112,,,,,,,,green,,,null,object_14b.png,object_01a.png,,,,,,,,,,,,,,,,,,,
null,,rt_plussign_withcolor3,894615,,,,,,,,green,,,null,object_14b.png,object_01a.png,,,,,,,,,,,,,,,,,,,
1295,,rt_thecrossant_black3,895637,,,,,,,,black_plus_sign,,,50,,,1,,,,,,,1,,,,,,,,,,,
null,,color_black3,895739,,,,,,,,black_plus_sign,,,null,,,,,,,,,,,,,,,,,,,,,
null,,thebreak,895843,,,,,,,,<p></p>,,,null,,,,,,,,,,,,,,,,,,,,,
1794.0999999046326,,intro_0,897638,,,,,,,,instruct,,,32,,,,,,,,,,,,,,,,,,,,,
4762.899999856949,,directmemory_phase3,902402,,,,,,,,object_02b.png,,,49,,,1,,object_02a.png,object_15a.png,object_02c.png,object_02a.png,,0.8387096774193549,,1,,,,,,,,,
2912.7000000476837,,directmemory_phase3,905318,,,,,,,,object_07a.png,,,51,,,1,,object_13c.png,object_12c.png,object_14c.png,object_14c.png,,0.84375,,1,,,,,,,,,
2323.4000000953674,,directmemory_phase3,907642,,,,,,,,object_13a.png,,,50,,,1,,object_15a.png,object_13c.png,object_01b.png,object_13c.png,,0.8484848484848485,,1,,,,,,,,,
2773.5999999046326,,directmemory_phase3,910417,,,,,,,,object_05a.png,,,50,,,1,,object_13b.png,object_12c.png,object_13c.png,object_12c.png,,0.8529411764705882,,1,,,,,,,,,
2508.7999999523163,,directmemory_phase3,912929,,,,,,,,object_12a.png,,,50,,,1,,object_14b.png,object_03c.png,object_10a.png,object_03c.png,,0.8571428571428571,,1,,,,,,,,,
2909.2000000476837,,directmemory_phase3,915841,,,,,,,,object_15c.png,,,51,,,1,,object_04a.png,object_14b.png,object_15b.png,object_15b.png,,0.8611111111111112,,1,,,,,,,,,
2074.2999999523163,,directmemory_phase3,917918,,,,,,,,object_06b.png,,,49,,,1,,object_02c.png,object_13b.png,object_15a.png,object_02c.png,,0.8648648648648649,,1,,,,,,,,,
2575.0999999046326,,directmemory_phase3,920495,,,,,,,,object_03a.png,,,50,,,1,,object_02a.png,object_15a.png,object_10a.png,object_15a.png,,0.868421052631579,,1,,,,,,,,,
2598.2999999523163,,directmemory_phase3,923096,,,,,,,,object_10b.png,,,51,,,1,,object_13b.png,object_12c.png,object_04a.png,object_04a.png,,0.8717948717948718,,1,,,,,,,,,
2813.2999999523163,,directmemory_phase3,925911,,,,,,,,object_07c.png,,,49,,,1,,object_12b.png,object_15b.png,object_02c.png,object_12b.png,,0.875,,1,,,,,,,,,
2225.9000000953674,,directmemory_phase3,928139,,,,,,,,object_05c.png,,,49,,,1,,object_08a.png,object_02a.png,object_15b.png,object_08a.png,,0.8780487804878049,,1,,,,,,,,,
2063.399999856949,,directmemory_phase3,930204,,,,,,,,object_01a.png,,,51,,,1,,object_01b.png,object_15b.png,object_14b.png,object_14b.png,,0.8809523809523809,,1,,,,,,,,,
2548.7000000476837,,directmemory_phase3,932755,,,,,,,,object_04c.png,,,50,,,1,,object_14c.png,object_01b.png,object_13c.png,object_01b.png,,0.8837209302325582,,1,,,,,,,,,
3375.4000000953674,,directmemory_phase3,936133,,,,,,,,object_06c.png,,,51,,,1,,object_15b.png,object_04a.png,object_13b.png,object_13b.png,,0.8863636363636364,,1,,,,,,,,,
2299.300000190735,,directmemory_phase3,938434,,,,,,,,object_08b.png,,,49,,,1,,object_10a.png,object_01b.png,object_15b.png,object_10a.png,,0.8888888888888888,,1,,,,,,,,,
null,,thebreak,938536,,,,,,,,<p></p>,,,null,,,,,,,,,,,,,,,,,,,,,
1884.8000001907349,,intro_0,940422,,,,,,,,instruct,,,32,,,,,,,,,,,,,,,,,,,,,
null,,learn_phase(without_color)4,943925,,,,,,,,black_plus_sign,,,null,object_03c.png,object_12a.png,,,,,,,,,,,,,,,,,,,
null,,black_cross(without_color)4,944527,,,,,,,,green,,,null,object_03c.png,object_12a.png,,,,,,,,,,,,,,,,,,,
null,,rt_plussign_withcolor4,945028,,,,,,,,green,,,null,object_03c.png,object_12a.png,,,,,,,,,,,,,,,,,,,
1557.7999999523163,,rt_thecrossant_black4,946431,,,,,,,,black_plus_sign,,,50,,,1,,,,,,,1,,,,,,,,,,,
null,,color_black4,946532,,,,,,,,black_plus_sign,,,null,,,,,,,,,,,,,,,,,,,,,
null,,learn_phase(without_color)4,950034,,,,,,,,black_plus_sign,,,null,object_14c.png,object_07a.png,,,,,,,,,,,,,,,,,,,
null,,black_cross(without_color)4,950762,,,,,,,,blue,,,null,object_14c.png,object_07a.png,,,,,,,,,,,,,,,,,,,
null,,rt_plussign_withcolor4,951264,,,,,,,,blue,,,null,object_14c.png,object_07a.png,,,,,,,,,,,,,,,,,,,
1593.2000000476837,,rt_thecrossant_black4,952541,,,,,,,,black_plus_sign,,,49,,,1,,,,,,,1,,,,,,,,,,,
null,,color_black4,952643,,,,,,,,black_plus_sign,,,null,,,,,,,,,,,,,,,,,,,,,
null,,learn_phase(without_color)4,956145,,,,,,,,black_plus_sign,,,null,object_13b.png,object_06c.png,,,,,,,,,,,,,,,,,,,
null,,black_cross(without_color)4,956564,,,,,,,,green,,,null,object_13b.png,object_06c.png,,,,,,,,,,,,,,,,,,,
null,,rt_plussign_withcolor4,957065,,,,,,,,green,,,null,object_13b.png,object_06c.png,,,,,,,,,,,,,,,,,,,
1400.8999998569489,,rt_thecrossant_black4,958652,,,,,,,,black_plus_sign,,,50,,,1,,,,,,,1,,,,,,,,,,,
null,,color_black4,958754,,,,,,,,black_plus_sign,,,null,,,,,,,,,,,,,,,,,,,,,
null,,learn_phase(without_color)4,962258,,,,,,,,black_plus_sign,,,null,object_02c.png,object_06b.png,,,,,,,,,,,,,,,,,,,
null,,black_cross(without_color)4,962745,,,,,,,,blue,,,null,object_02c.png,object_06b.png,,,,,,,,,,,,,,,,,,,
null,,rt_plussign_withcolor4,963247,,,,,,,,blue,,,null,object_02c.png,object_06b.png,,,,,,,,,,,,,,,,,,,
1118.5999999046326,,rt_thecrossant_black4,964765,,,,,,,,black_plus_sign,,,49,,,1,,,,,,,1,,,,,,,,,,,
null,,color_black4,964877,,,,,,,,black_plus_sign,,,null,,,,,,,,,,,,,,,,,,,,,
null,,learn_phase(without_color)4,968381,,,,,,,,black_plus_sign,,,null,object_02a.png,object_02b.png,,,,,,,,,,,,,,,,,,,
null,,black_cross(without_color)4,968865,,,,,,,,blue,,,null,object_02a.png,object_02b.png,,,,,,,,,,,,,,,,,,,
null,,rt_plussign_withcolor4,969367,,,,,,,,blue,,,null,object_02a.png,object_02b.png,,,,,,,,,,,,,,,,,,,
1176.7999999523163,,rt_thecrossant_black4,970887,,,,,,,,black_plus_sign,,,49,,,1,,,,,,,1,,,,,,,,,,,
null,,color_black4,970989,,,,,,,,black_plus_sign,,,null,,,,,,,,,,,,,,,,,,,,,
null,,learn_phase(without_color)4,974493,,,,,,,,black_plus_sign,,,null,object_13c.png,object_13a.png,,,,,,,,,,,,,,,,,,,
null,,black_cross(without_color)4,975164,,,,,,,,green,,,null,object_13c.png,object_13a.png,,,,,,,,,,,,,,,,,,,
null,,rt_plussign_withcolor4,975667,,,,,,,,green,,,null,object_13c.png,object_13a.png,,,,,,,,,,,,,,,,,,,
1047.5999999046326,,rt_thecrossant_black4,977000,,,,,,,,black_plus_sign,,,50,,,1,,,,,,,1,,,,,,,,,,,
null,,color_black4,977103,,,,,,,,black_plus_sign,,,null,,,,,,,,,,,,,,,,,,,,,
null,,learn_phase(without_color)4,980608,,,,,,,,black_plus_sign,,,null,object_04a.png,object_10b.png,,,,,,,,,,,,,,,,,,,
null,,black_cross(without_color)4,981038,,,,,,,,green,,,null,object_04a.png,object_10b.png,,,,,,,,,,,,,,,,,,,
null,,rt_plussign_withcolor4,981540,,,,,,,,green,,,null,object_04a.png,object_10b.png,,,,,,,,,,,,,,,,,,,
1259.2000000476837,,rt_thecrossant_black4,983114,,,,,,,,black_plus_sign,,,50,,,1,,,,,,,1,,,,,,,,,,,
null,,color_black4,983217,,,,,,,,black_plus_sign,,,null,,,,,,,,,,,,,,,,,,,,,
null,,learn_phase(without_color)4,986720,,,,,,,,black_plus_sign,,,null,object_01b.png,object_04c.png,,,,,,,,,,,,,,,,,,,
null,,black_cross(without_color)4,987568,,,,,,,,green,,,null,object_01b.png,object_04c.png,,,,,,,,,,,,,,,,,,,
null,,rt_plussign_withcolor4,988070,,,,,,,,green,,,null,object_01b.png,object_04c.png,,,,,,,,,,,,,,,,,,,
895.5,,rt_thecrossant_black4,989226,,,,,,,,black_plus_sign,,,50,,,1,,,,,,,1,,,,,,,,,,,
null,,color_black4,989329,,,,,,,,black_plus_sign,,,null,,,,,,,,,,,,,,,,,,,,,
null,,learn_phase(without_color)4,992834,,,,,,,,black_plus_sign,,,null,object_15a.png,object_03a.png,,,,,,,,,,,,,,,,,,,
null,,black_cross(without_color)4,993735,,,,,,,,green,,,null,object_15a.png,object_03a.png,,,,,,,,,,,,,,,,,,,
null,,rt_plussign_withcolor4,994237,,,,,,,,green,,,null,object_15a.png,object_03a.png,,,,,,,,,,,,,,,,,,,
1442.0999999046326,,rt_thecrossant_black4,995341,,,,,,,,black_plus_sign,,,50,,,1,,,,,,,1,,,,,,,,,,,
null,,color_black4,995443,,,,,,,,black_plus_sign,,,null,,,,,,,,,,,,,,,,,,,,,
null,,learn_phase(without_color)4,998945,,,,,,,,black_plus_sign,,,null,object_15b.png,object_15c.png,,,,,,,,,,,,,,,,,,,
null,,black_cross(without_color)4,999542,,,,,,,,green,,,null,object_15b.png,object_15c.png,,,,,,,,,,,,,,,,,,,
null,,rt_plussign_withcolor4,1000045,,,,,,,,green,,,null,object_15b.png,object_15c.png,,,,,,,,,,,,,,,,,,,
1269.2000000476837,,rt_thecrossant_black4,1001452,,,,,,,,black_plus_sign,,,50,,,1,,,,,,,1,,,,,,,,,,,
null,,color_black4,1001555,,,,,,,,black_plus_sign,,,null,,,,,,,,,,,,,,,,,,,,,
null,,learn_phase(without_color)4,1005059,,,,,,,,black_plus_sign,,,null,object_08a.png,object_05c.png,,,,,,,,,,,,,,,,,,,
null,,black_cross(without_color)4,1005498,,,,,,,,green,,,null,object_08a.png,object_05c.png,,,,,,,,,,,,,,,,,,,
null,,rt_plussign_withcolor4,1006000,,,,,,,,green,,,null,object_08a.png,object_05c.png,,,,,,,,,,,,,,,,,,,
1549.2000000476837,,rt_thecrossant_black4,1007577,,,,,,,,black_plus_sign,,,50,,,1,,,,,,,1,,,,,,,,,,,
null,,color_black4,1007680,,,,,,,,black_plus_sign,,,null,,,,,,,,,,,,,,,,,,,,,
null,,learn_phase(without_color)4,1011181,,,,,,,,black_plus_sign,,,null,object_12b.png,object_07c.png,,,,,,,,,,,,,,,,,,,
null,,black_cross(without_color)4,1012181,,,,,,,,green,,,null,object_12b.png,object_07c.png,,,,,,,,,,,,,,,,,,,
null,,rt_plussign_withcolor4,1012682,,,,,,,,green,,,null,object_12b.png,object_07c.png,,,,,,,,,,,,,,,,,,,
1086.5,,rt_thecrossant_black4,1013687,,,,,,,,black_plus_sign,,,50,,,1,,,,,,,1,,,,,,,,,,,
null,,color_black4,1013789,,,,,,,,black_plus_sign,,,null,,,,,,,,,,,,,,,,,,,,,
null,,learn_phase(without_color)4,1017293,,,,,,,,black_plus_sign,,,null,object_12c.png,object_05a.png,,,,,,,,,,,,,,,,,,,
null,,black_cross(without_color)4,1017714,,,,,,,,green,,,null,object_12c.png,object_05a.png,,,,,,,,,,,,,,,,,,,
null,,rt_plussign_withcolor4,1018216,,,,,,,,green,,,null,object_12c.png,object_05a.png,,,,,,,,,,,,,,,,,,,
1597.0999999046326,,rt_thecrossant_black4,1019802,,,,,,,,black_plus_sign,,,50,,,1,,,,,,,1,,,,,,,,,,,
null,,color_black4,1019907,,,,,,,,black_plus_sign,,,null,,,,,,,,,,,,,,,,,,,,,
null,,learn_phase(without_color)4,1023410,,,,,,,,black_plus_sign,,,null,object_14b.png,object_01a.png,,,,,,,,,,,,,,,,,,,
null,,black_cross(without_color)4,1024177,,,,,,,,blue,,,null,object_14b.png,object_01a.png,,,,,,,,,,,,,,,,,,,
null,,rt_plussign_withcolor4,1024681,,,,,,,,blue,,,null,object_14b.png,object_01a.png,,,,,,,,,,,,,,,,,,,
1156.1999998092651,,rt_thecrossant_black4,1025918,,,,,,,,black_plus_sign,,,49,,,1,,,,,,,1,,,,,,,,,,,
null,,color_black4,1026020,,,,,,,,black_plus_sign,,,null,,,,,,,,,,,,,,,,,,,,,
null,,learn_phase(without_color)4,1029524,,,,,,,,black_plus_sign,,,null,object_10a.png,object_08b.png,,,,,,,,,,,,,,,,,,,
null,,black_cross(without_color)4,1030292,,,,,,,,blue,,,null,object_10a.png,object_08b.png,,,,,,,,,,,,,,,,,,,
null,,rt_plussign_withcolor4,1030801,,,,,,,,blue,,,null,object_10a.png,object_08b.png,,,,,,,,,,,,,,,,,,,
1362.5999999046326,,rt_thecrossant_black4,1032039,,,,,,,,black_plus_sign,,,49,,,1,,,,,,,1,,,,,,,,,,,
null,,color_black4,1032141,,,,,,,,black_plus_sign,,,null,,,,,,,,,,,,,,,,,,,,,
null,,thebreak,1032245,,,,,,,,<p></p>,,,null,,,,,,,,,,,,,,,,,,,,,
1872.2000000476837,,intro_0,1034119,,,,,,,,instruct,,,32,,,,,,,,,,,,,,,,,,,,,
3318.100000143051,,directmemory_phase4,1037437,,,,,,,,object_03a.png,,,51,,,1,,object_01b.png,object_10a.png,object_15a.png,object_15a.png,,0.8913043478260869,,1,,,,,,,,,
2113.399999856949,,directmemory_phase4,1039552,,,,,,,,object_05a.png,,,50,,,1,,object_15a.png,object_12c.png,object_12b.png,object_12c.png,,0.8936170212765957,,1,,,,,,,,,
4384.599999904633,,directmemory_phase4,1043938,,,,,,,,object_10b.png,,,50,,,1,,object_02c.png,object_04a.png,object_14c.png,object_04a.png,,0.8958333333333334,,1,,,,,,,,,
2254.0999999046326,,directmemory_phase4,1046193,,,,,,,,object_13a.png,,,49,,,1,,object_13c.png,object_15a.png,object_12c.png,object_13c.png,,0.8979591836734694,,1,,,,,,,,,
2123,,directmemory_phase4,1048317,,,,,,,,object_06b.png,,,51,,,1,,object_14c.png,object_14b.png,object_02c.png,object_02c.png,,0.9,,1,,,,,,,,,
1777.2000000476837,,directmemory_phase4,1050096,,,,,,,,object_12a.png,,,50,,,1,,object_15a.png,object_03c.png,object_04a.png,object_03c.png,,0.9019607843137255,,1,,,,,,,,,
2059,,directmemory_phase4,1052158,,,,,,,,object_05c.png,,,50,,,1,,object_13c.png,object_08a.png,object_13b.png,object_08a.png,,0.9038461538461539,,1,,,,,,,,,
1812.7000000476837,,directmemory_phase4,1053973,,,,,,,,object_01a.png,,,49,,,1,,object_14b.png,object_03c.png,object_04a.png,object_14b.png,,0.9056603773584906,,1,,,,,,,,,
2186.699999809265,,directmemory_phase4,1056161,,,,,,,,object_08b.png,,,51,,,1,,object_04a.png,object_03c.png,object_10a.png,object_10a.png,,0.9074074074074074,,1,,,,,,,,,
2316.100000143051,,directmemory_phase4,1058481,,,,,,,,object_04c.png,,,49,,,1,,object_01b.png,object_04a.png,object_14c.png,object_01b.png,,0.9090909090909091,,1,,,,,,,,,
1870.3000001907349,,directmemory_phase4,1060354,,,,,,,,object_07c.png,,,50,,,1,,object_04a.png,object_12b.png,object_02c.png,object_12b.png,,0.9107142857142857,,1,,,,,,,,,
2036.2000000476837,,directmemory_phase4,1062392,,,,,,,,object_07a.png,,,49,,,1,,object_14c.png,object_02a.png,object_10a.png,object_14c.png,,0.9122807017543859,,1,,,,,,,,,
3241.100000143051,,directmemory_phase4,1065634,,,,,,,,object_02b.png,,,51,,,1,,object_14b.png,object_01b.png,object_02a.png,object_02a.png,,0.9137931034482759,,1,,,,,,,,,
3164.0999999046326,,directmemory_phase4,1068800,,,,,,,,object_06c.png,,,49,,,1,,object_13b.png,object_13c.png,object_10a.png,object_13b.png,,0.9152542372881356,,1,,,,,,,,,
6442.599999904633,,directmemory_phase4,1075245,,,,,,,,object_15c.png,,,50,,,1,,object_04a.png,object_15b.png,object_10a.png,object_15b.png,,0.9166666666666666,,1,,,,,,,,,
null,,thebreak,1075349,,,,,,,,<p></p>,,,null,,,,,,,,,,,,,,,,,,,,,
1768.1000001430511,,intro_0,1077119,,,,,,,,instruct,,,32,,,,,,,,,,,,,,,,,,,,,
null,,learn_phase(without_color)5,1080624,,,,,,,,black_plus_sign,,,null,object_03a.png,object_03b.png,,,,,,,,,,,,,,,,,,,
null,,black_cross(without_color)5,1081085,,,,,,,,green,,,null,object_03a.png,object_03b.png,,,,,,,,,,,,,,,,,,,
null,,rt_plussign_withcolor5,1081587,,,,,,,,green,,,null,object_03a.png,object_03b.png,,,,,,,,,,,,,,,,,,,
2015.5,,rt_thecrossant_black5,1083134,,,,,,,,black_plus_sign,,,50,,,1,,,,,,,1,,,,,,,,,,,
null,,color_black5,1083236,,,,,,,,black_plus_sign,,,null,,,,,,,,,,,,,,,,,,,,,
null,,learn_phase(without_color)5,1086740,,,,,,,,black_plus_sign,,,null,object_07a.png,object_09c.png,,,,,,,,,,,,,,,,,,,
null,,black_cross(without_color)5,1087453,,,,,,,,blue,,,null,object_07a.png,object_09c.png,,,,,,,,,,,,,,,,,,,
null,,rt_plussign_withcolor5,1087954,,,,,,,,blue,,,null,object_07a.png,object_09c.png,,,,,,,,,,,,,,,,,,,
1340,,rt_thecrossant_black5,1089249,,,,,,,,black_plus_sign,,,49,,,1,,,,,,,1,,,,,,,,,,,
null,,color_black5,1089352,,,,,,,,black_plus_sign,,,null,,,,,,,,,,,,,,,,,,,,,
null,,learn_phase(without_color)5,1092856,,,,,,,,black_plus_sign,,,null,object_13a.png,object_01c.png,,,,,,,,,,,,,,,,,,,
null,,black_cross(without_color)5,1093493,,,,,,,,blue,,,null,object_13a.png,object_01c.png,,,,,,,,,,,,,,,,,,,
null,,rt_plussign_withcolor5,1093996,,,,,,,,blue,,,null,object_13a.png,object_01c.png,,,,,,,,,,,,,,,,,,,
1690.6999998092651,,rt_thecrossant_black5,1095363,,,,,,,,black_plus_sign,,,49,,,1,,,,,,,1,,,,,,,,,,,
null,,color_black5,1095466,,,,,,,,black_plus_sign,,,null,,,,,,,,,,,,,,,,,,,,,
null,,learn_phase(without_color)5,1098970,,,,,,,,black_plus_sign,,,null,object_08b.png,object_10c.png,,,,,,,,,,,,,,,,,,,
null,,black_cross(without_color)5,1099768,,,,,,,,green,,,null,object_08b.png,object_10c.png,,,,,,,,,,,,,,,,,,,
null,,rt_plussign_withcolor5,1100271,,,,,,,,green,,,null,object_08b.png,object_10c.png,,,,,,,,,,,,,,,,,,,
1346.2000000476837,,rt_thecrossant_black5,1101477,,,,,,,,black_plus_sign,,,50,,,1,,,,,,,1,,,,,,,,,,,
null,,color_black5,1101579,,,,,,,,black_plus_sign,,,null,,,,,,,,,,,,,,,,,,,,,
null,,learn_phase(without_color)5,1105081,,,,,,,,black_plus_sign,,,null,object_04c.png,object_07b.png,,,,,,,,,,,,,,,,,,,
null,,black_cross(without_color)5,1106115,,,,,,,,green,,,null,object_04c.png,object_07b.png,,,,,,,,,,,,,,,,,,,
null,,rt_plussign_withcolor5,1106618,,,,,,,,green,,,null,object_04c.png,object_07b.png,,,,,,,,,,,,,,,,,,,
1708.7999999523163,,rt_thecrossant_black5,1107599,,,,,,,,black_plus_sign,,,50,,,1,,,,,,,1,,,,,,,,,,,
null,,color_black5,1107701,,,,,,,,black_plus_sign,,,null,,,,,,,,,,,,,,,,,,,,,
null,,learn_phase(without_color)5,1111203,,,,,,,,black_plus_sign,,,null,object_12a.png,object_05b.png,,,,,,,,,,,,,,,,,,,
null,,black_cross(without_color)5,1111936,,,,,,,,blue,,,null,object_12a.png,object_05b.png,,,,,,,,,,,,,,,,,,,
null,,rt_plussign_withcolor5,1112439,,,,,,,,blue,,,null,object_12a.png,object_05b.png,,,,,,,,,,,,,,,,,,,
1621.6999998092651,,rt_thecrossant_black5,1113710,,,,,,,,black_plus_sign,,,49,,,1,,,,,,,1,,,,,,,,,,,
null,,color_black5,1113811,,,,,,,,black_plus_sign,,,null,,,,,,,,,,,,,,,,,,,,,
null,,learn_phase(without_color)5,1117315,,,,,,,,black_plus_sign,,,null,object_05a.png,object_08c.png,,,,,,,,,,,,,,,,,,,
null,,black_cross(without_color)5,1117922,,,,,,,,blue,,,null,object_05a.png,object_08c.png,,,,,,,,,,,,,,,,,,,
null,,rt_plussign_withcolor5,1118425,,,,,,,,blue,,,null,object_05a.png,object_08c.png,,,,,,,,,,,,,,,,,,,
1699.2999999523163,,rt_thecrossant_black5,1119823,,,,,,,,black_plus_sign,,,49,,,1,,,,,,,1,,,,,,,,,,,
null,,color_black5,1119925,,,,,,,,black_plus_sign,,,null,,,,,,,,,,,,,,,,,,,,,
null,,learn_phase(without_color)5,1123427,,,,,,,,black_plus_sign,,,null,object_05c.png,object_04b.png,,,,,,,,,,,,,,,,,,,
null,,black_cross(without_color)5,1124375,,,,,,,,green,,,null,object_05c.png,object_04b.png,,,,,,,,,,,,,,,,,,,
null,,rt_plussign_withcolor5,1124877,,,,,,,,green,,,null,object_05c.png,object_04b.png,,,,,,,,,,,,,,,,,,,
1487,,rt_thecrossant_black5,1125933,,,,,,,,black_plus_sign,,,50,,,1,,,,,,,1,,,,,,,,,,,
null,,color_black5,1126045,,,,,,,,black_plus_sign,,,null,,,,,,,,,,,,,,,,,,,,,
null,,learn_phase(without_color)5,1129549,,,,,,,,black_plus_sign,,,null,object_06c.png,object_11b.png,,,,,,,,,,,,,,,,,,,
null,,black_cross(without_color)5,1130128,,,,,,,,blue,,,null,object_06c.png,object_11b.png,,,,,,,,,,,,,,,,,,,
null,,rt_plussign_withcolor5,1130631,,,,,,,,blue,,,null,object_06c.png,object_11b.png,,,,,,,,,,,,,,,,,,,
1945.7000000476837,,rt_thecrossant_black5,1132066,,,,,,,,black_plus_sign,,,49,,,1,,,,,,,1,,,,,,,,,,,
null,,color_black5,1132168,,,,,,,,black_plus_sign,,,null,,,,,,,,,,,,,,,,,,,,,
null,,learn_phase(without_color)5,1135671,,,,,,,,black_plus_sign,,,null,object_07c.png,object_11c.png,,,,,,,,,,,,,,,,,,,
null,,black_cross(without_color)5,1136727,,,,,,,,blue,,,null,object_07c.png,object_11c.png,,,,,,,,,,,,,,,,,,,
null,,rt_plussign_withcolor5,1137235,,,,,,,,blue,,,null,object_07c.png,object_11c.png,,,,,,,,,,,,,,,,,,,
1598.5,,rt_thecrossant_black5,1138184,,,,,,,,black_plus_sign,,,49,,,1,,,,,,,1,,,,,,,,,,,
null,,color_black5,1138286,,,,,,,,black_plus_sign,,,null,,,,,,,,,,,,,,,,,,,,,
null,,learn_phase(without_color)5,1141791,,,,,,,,black_plus_sign,,,null,object_02b.png,object_09b.png,,,,,,,,,,,,,,,,,,,
null,,black_cross(without_color)5,1142273,,,,,,,,blue,,,null,object_02b.png,object_09b.png,,,,,,,,,,,,,,,,,,,
null,,rt_plussign_withcolor5,1142774,,,,,,,,blue,,,null,object_02b.png,object_09b.png,,,,,,,,,,,,,,,,,,,
2211.699999809265,,rt_thecrossant_black5,1144298,,,,,,,,black_plus_sign,,,49,,,1,,,,,,,1,,,,,,,,,,,
null,,color_black5,1144401,,,,,,,,black_plus_sign,,,null,,,,,,,,,,,,,,,,,,,,,
null,,learn_phase(without_color)5,1147906,,,,,,,,black_plus_sign,,,null,object_15c.png,object_09a.png,,,,,,,,,,,,,,,,,,,
null,,black_cross(without_color)5,1148404,,,,,,,,green,,,null,object_15c.png,object_09a.png,,,,,,,,,,,,,,,,,,,
null,,rt_plussign_withcolor5,1148906,,,,,,,,green,,,null,object_15c.png,object_09a.png,,,,,,,,,,,,,,,,,,,
1366.3999998569489,,rt_thecrossant_black5,1150411,,,,,,,,black_plus_sign,,,50,,,1,,,,,,,1,,,,,,,,,,,
null,,color_black5,1150514,,,,,,,,black_plus_sign,,,null,,,,,,,,,,,,,,,,,,,,,
null,,learn_phase(without_color)5,1154018,,,,,,,,black_plus_sign,,,null,object_06b.png,object_14a.png,,,,,,,,,,,,,,,,,,,
null,,black_cross(without_color)5,1155065,,,,,,,,green,,,null,object_06b.png,object_14a.png,,,,,,,,,,,,,,,,,,,
null,,rt_plussign_withcolor5,1155567,,,,,,,,green,,,null,object_06b.png,object_14a.png,,,,,,,,,,,,,,,,,,,
1188,,rt_thecrossant_black5,1156526,,,,,,,,black_plus_sign,,,50,,,1,,,,,,,1,,,,,,,,,,,
null,,color_black5,1156630,,,,,,,,black_plus_sign,,,null,,,,,,,,,,,,,,,,,,,,,
null,,learn_phase(without_color)5,1160134,,,,,,,,black_plus_sign,,,null,object_01a.png,object_06a.png,,,,,,,,,,,,,,,,,,,
null,,black_cross(without_color)5,1160911,,,,,,,,green,,,null,object_01a.png,object_06a.png,,,,,,,,,,,,,,,,,,,
null,,rt_plussign_withcolor5,1161412,,,,,,,,green,,,null,object_01a.png,object_06a.png,,,,,,,,,,,,,,,,,,,
2069.600000143051,,rt_thecrossant_black5,1162641,,,,,,,,black_plus_sign,,,50,,,1,,,,,,,1,,,,,,,,,,,
null,,color_black5,1162744,,,,,,,,black_plus_sign,,,null,,,,,,,,,,,,,,,,,,,,,
null,,learn_phase(without_color)5,1166247,,,,,,,,black_plus_sign,,,null,object_10b.png,object_11a.png,,,,,,,,,,,,,,,,,,,
null,,black_cross(without_color)5,1167077,,,,,,,,blue,,,null,object_10b.png,object_11a.png,,,,,,,,,,,,,,,,,,,
null,,rt_plussign_withcolor5,1167579,,,,,,,,blue,,,null,object_10b.png,object_11a.png,,,,,,,,,,,,,,,,,,,
1820.2000000476837,,rt_thecrossant_black5,1168754,,,,,,,,black_plus_sign,,,49,,,1,,,,,,,1,,,,,,,,,,,
null,,color_black5,1168856,,,,,,,,black_plus_sign,,,null,,,,,,,,,,,,,,,,,,,,,
null,,thebreak,1168959,,,,,,,,<p></p>,,,null,,,,,,,,,,,,,,,,,,,,,
1919.3999998569489,,intro_0,1170880,,,,,,,,instruct,,,32,,,,,,,,,,,,,,,,,,,,,
6919.5,,directmemory_phase5,1177801,,,,,,,,object_08c.png,,,50,,,1,,object_01a.png,object_05a.png,object_15c.png,object_05a.png,,0.9180327868852459,,1,,,,,,,,,
5149.5,,directmemory_phase5,1182954,,,,,,,,object_10c.png,,,49,,,1,,object_08b.png,object_02b.png,object_05a.png,object_08b.png,,0.9193548387096774,,1,,,,,,,,,
4821.599999904633,,directmemory_phase5,1187777,,,,,,,,object_09a.png,,,49,,,1,,object_15c.png,object_07c.png,object_01a.png,object_15c.png,,0.9206349206349206,,1,,,,,,,,,
5384.799999952316,,directmemory_phase5,1193163,,,,,,,,object_09b.png,,,50,,,0,,object_12a.png,object_13a.png,object_02b.png,object_02b.png,,0.90625,,0,,,,,,,,,
4931.099999904633,,directmemory_phase5,1198094,,,,,,,,object_11b.png,,,51,,,1,,object_15c.png,object_06b.png,object_06c.png,object_06c.png,,0.9076923076923077,,1,,,,,,,,,
8440.700000047684,,directmemory_phase5,1206536,,,,,,,,object_09c.png,,,51,,,1,,object_12a.png,object_10b.png,object_07a.png,object_07a.png,,0.9090909090909091,,1,,,,,,,,,
4226.200000047684,,directmemory_phase5,1210764,,,,,,,,object_04b.png,,,51,,,1,,object_13a.png,object_01a.png,object_05c.png,object_05c.png,,0.9104477611940298,,1,,,,,,,,,
3046.7000000476837,,directmemory_phase5,1213814,,,,,,,,object_03b.png,,,49,,,1,,object_03a.png,object_10b.png,object_05a.png,object_03a.png,,0.9117647058823529,,1,,,,,,,,,
2717,,directmemory_phase5,1216534,,,,,,,,object_07b.png,,,49,,,1,,object_04c.png,object_07a.png,object_12a.png,object_04c.png,,0.9130434782608695,,1,,,,,,,,,
3121,,directmemory_phase5,1219657,,,,,,,,object_06a.png,,,50,,,0,,object_02b.png,object_05a.png,object_01a.png,object_01a.png,,0.9,,0,,,,,,,,,
3828.100000143051,,directmemory_phase5,1223488,,,,,,,,object_14a.png,,,51,,,1,,object_05a.png,object_13a.png,object_06b.png,object_06b.png,,0.9014084507042254,,1,,,,,,,,,
3708.7000000476837,,directmemory_phase5,1227200,,,,,,,,object_01c.png,,,49,,,0,,object_05a.png,object_06b.png,object_13a.png,object_13a.png,,0.8888888888888888,,0,,,,,,,,,
3308.2999999523163,,directmemory_phase5,1230512,,,,,,,,object_11c.png,,,51,,,1,,object_02b.png,object_07a.png,object_07c.png,object_07c.png,,0.8904109589041096,,1,,,,,,,,,
4251.099999904633,,directmemory_phase5,1234766,,,,,,,,object_05b.png,,,51,,,1,,object_13a.png,object_08b.png,object_12a.png,object_12a.png,,0.8918918918918919,,1,,,,,,,,,
6554.200000047684,,directmemory_phase5,1241321,,,,,,,,object_11a.png,,,51,,,1,,object_08b.png,object_15c.png,object_10b.png,object_10b.png,,0.8933333333333333,,1,,,,,,,,,
null,,thebreak,1241423,,,,,,,,<p></p>,,,null,,,,,,,,,,,,,,,,,,,,,
1689,,intro_0,1243114,,,,,,,,instruct,,,32,,,,,,,,,,,,,,,,,,,,,
null,,learn_phase(without_color)6,1246618,,,,,,,,black_plus_sign,,,null,object_04c.png,object_07b.png,,,,,,,,,,,,,,,,,,,
null,,black_cross(without_color)6,1247283,,,,,,,,blue,,,null,object_04c.png,object_07b.png,,,,,,,,,,,,,,,,,,,
null,,rt_plussign_withcolor6,1247785,,,,,,,,blue,,,null,object_04c.png,object_07b.png,,,,,,,,,,,,,,,,,,,
null,,rt_thecrossant_black6,1249125,,,,,,,,black_plus_sign,,,null,,,,,,,,,,NaN,,,,,,,,,,,
null,,color_black6,1249226,,,,,,,,black_plus_sign,,,null,,,,,,,,,,,,,,,,,,,,,
null,,learn_phase(without_color)6,1252728,,,,,,,,black_plus_sign,,,null,object_15c.png,object_09a.png,,,,,,,,,,,,,,,,,,,
null,,black_cross(without_color)6,1253675,,,,,,,,blue,,,null,object_15c.png,object_09a.png,,,,,,,,,,,,,,,,,,,
null,,rt_plussign_withcolor6,1254176,,,,,,,,blue,,,null,object_15c.png,object_09a.png,,,,,,,,,,,,,,,,,,,
1223.5,,rt_thecrossant_black6,1255234,,,,,,,,black_plus_sign,,,49,,,1,,,,,,,1,,,,,,,,,,,
null,,color_black6,1255336,,,,,,,,black_plus_sign,,,null,,,,,,,,,,,,,,,,,,,,,
null,,learn_phase(without_color)6,1258839,,,,,,,,black_plus_sign,,,null,object_10b.png,object_11a.png,,,,,,,,,,,,,,,,,,,
null,,black_cross(without_color)6,1259890,,,,,,,,blue,,,null,object_10b.png,object_11a.png,,,,,,,,,,,,,,,,,,,
null,,rt_plussign_withcolor6,1260393,,,,,,,,blue,,,null,object_10b.png,object_11a.png,,,,,,,,,,,,,,,,,,,
1588.7000000476837,,rt_thecrossant_black6,1261354,,,,,,,,black_plus_sign,,,49,,,1,,,,,,,1,,,,,,,,,,,
null,,color_black6,1261456,,,,,,,,black_plus_sign,,,null,,,,,,,,,,,,,,,,,,,,,
null,,learn_phase(without_color)6,1264960,,,,,,,,black_plus_sign,,,null,object_02b.png,object_09b.png,,,,,,,,,,,,,,,,,,,
null,,black_cross(without_color)6,1265516,,,,,,,,blue,,,null,object_02b.png,object_09b.png,,,,,,,,,,,,,,,,,,,
null,,rt_plussign_withcolor6,1266017,,,,,,,,blue,,,null,object_02b.png,object_09b.png,,,,,,,,,,,,,,,,,,,
1679.5,,rt_thecrossant_black6,1267467,,,,,,,,black_plus_sign,,,49,,,1,,,,,,,1,,,,,,,,,,,
null,,color_black6,1267570,,,,,,,,black_plus_sign,,,null,,,,,,,,,,,,,,,,,,,,,
null,,learn_phase(without_color)6,1271073,,,,,,,,black_plus_sign,,,null,object_12a.png,object_05b.png,,,,,,,,,,,,,,,,,,,
null,,black_cross(without_color)6,1271681,,,,,,,,green,,,null,object_12a.png,object_05b.png,,,,,,,,,,,,,,,,,,,
null,,rt_plussign_withcolor6,1272182,,,,,,,,green,,,null,object_12a.png,object_05b.png,,,,,,,,,,,,,,,,,,,
1309.5,,rt_thecrossant_black6,1273580,,,,,,,,black_plus_sign,,,50,,,1,,,,,,,1,,,,,,,,,,,
null,,color_black6,1273691,,,,,,,,black_plus_sign,,,null,,,,,,,,,,,,,,,,,,,,,
null,,learn_phase(without_color)6,1277193,,,,,,,,black_plus_sign,,,null,object_07c.png,object_11c.png,,,,,,,,,,,,,,,,,,,
null,,black_cross(without_color)6,1277809,,,,,,,,blue,,,null,object_07c.png,object_11c.png,,,,,,,,,,,,,,,,,,,
null,,rt_plussign_withcolor6,1278312,,,,,,,,blue,,,null,object_07c.png,object_11c.png,,,,,,,,,,,,,,,,,,,
1546.2999999523163,,rt_thecrossant_black6,1279700,,,,,,,,black_plus_sign,,,49,,,1,,,,,,,1,,,,,,,,,,,
null,,color_black6,1279802,,,,,,,,black_plus_sign,,,null,,,,,,,,,,,,,,,,,,,,,
null,,learn_phase(without_color)6,1283307,,,,,,,,black_plus_sign,,,null,object_06b.png,object_14a.png,,,,,,,,,,,,,,,,,,,
null,,black_cross(without_color)6,1283768,,,,,,,,blue,,,null,object_06b.png,object_14a.png,,,,,,,,,,,,,,,,,,,
null,,rt_plussign_withcolor6,1284282,,,,,,,,blue,,,null,object_06b.png,object_14a.png,,,,,,,,,,,,,,,,,,,
1250.8999998569489,,rt_thecrossant_black6,1285825,,,,,,,,black_plus_sign,,,49,,,1,,,,,,,1,,,,,,,,,,,
null,,color_black6,1285927,,,,,,,,black_plus_sign,,,null,,,,,,,,,,,,,,,,,,,,,
null,,learn_phase(without_color)6,1289429,,,,,,,,black_plus_sign,,,null,object_13a.png,object_01c.png,,,,,,,,,,,,,,,,,,,
null,,black_cross(without_color)6,1290476,,,,,,,,green,,,null,object_13a.png,object_01c.png,,,,,,,,,,,,,,,,,,,
null,,rt_plussign_withcolor6,1290978,,,,,,,,green,,,null,object_13a.png,object_01c.png,,,,,,,,,,,,,,,,,,,
1171.8999998569489,,rt_thecrossant_black6,1291935,,,,,,,,black_plus_sign,,,50,,,1,,,,,,,1,,,,,,,,,,,
null,,color_black6,1292037,,,,,,,,black_plus_sign,,,null,,,,,,,,,,,,,,,,,,,,,
null,,learn_phase(without_color)6,1295542,,,,,,,,black_plus_sign,,,null,object_08b.png,object_10c.png,,,,,,,,,,,,,,,,,,,
null,,black_cross(without_color)6,1296364,,,,,,,,green,,,null,object_08b.png,object_10c.png,,,,,,,,,,,,,,,,,,,
null,,rt_plussign_withcolor6,1296865,,,,,,,,green,,,null,object_08b.png,object_10c.png,,,,,,,,,,,,,,,,,,,
1554.4000000953674,,rt_thecrossant_black6,1298049,,,,,,,,black_plus_sign,,,50,,,1,,,,,,,1,,,,,,,,,,,
null,,color_black6,1298151,,,,,,,,black_plus_sign,,,null,,,,,,,,,,,,,,,,,,,,,
null,,learn_phase(without_color)6,1301656,,,,,,,,black_plus_sign,,,null,object_03a.png,object_03b.png,,,,,,,,,,,,,,,,,,,
null,,black_cross(without_color)6,1302607,,,,,,,,blue,,,null,object_03a.png,object_03b.png,,,,,,,,,,,,,,,,,,,
null,,rt_plussign_withcolor6,1303123,,,,,,,,blue,,,null,object_03a.png,object_03b.png,,,,,,,,,,,,,,,,,,,
1731.2000000476837,,rt_thecrossant_black6,1304177,,,,,,,,black_plus_sign,,,49,,,1,,,,,,,1,,,,,,,,,,,
null,,color_black6,1304279,,,,,,,,black_plus_sign,,,null,,,,,,,,,,,,,,,,,,,,,
null,,learn_phase(without_color)6,1307782,,,,,,,,black_plus_sign,,,null,object_01a.png,object_06a.png,,,,,,,,,,,,,,,,,,,
null,,black_cross(without_color)6,1308601,,,,,,,,blue,,,null,object_01a.png,object_06a.png,,,,,,,,,,,,,,,,,,,
null,,rt_plussign_withcolor6,1309104,,,,,,,,blue,,,null,object_01a.png,object_06a.png,,,,,,,,,,,,,,,,,,,
1838.0999999046326,,rt_thecrossant_black6,1310290,,,,,,,,black_plus_sign,,,49,,,1,,,,,,,1,,,,,,,,,,,
null,,color_black6,1310393,,,,,,,,black_plus_sign,,,null,,,,,,,,,,,,,,,,,,,,,
null,,learn_phase(without_color)6,1313896,,,,,,,,black_plus_sign,,,null,object_07a.png,object_09c.png,,,,,,,,,,,,,,,,,,,
null,,black_cross(without_color)6,1314517,,,,,,,,green,,,null,object_07a.png,object_09c.png,,,,,,,,,,,,,,,,,,,
null,,rt_plussign_withcolor6,1315020,,,,,,,,green,,,null,object_07a.png,object_09c.png,,,,,,,,,,,,,,,,,,,
1033.2000000476837,,rt_thecrossant_black6,1316419,,,,,,,,black_plus_sign,,,49,,,0,,,,,,,0.9090909090909091,,,,,,,,,,,
null,,color_black6,1316521,,,,,,,,black_plus_sign,,,null,,,,,,,,,,,,,,,,,,,,,
null,,learn_phase(without_color)6,1320038,,,,,,,,black_plus_sign,,,null,object_05a.png,object_08c.png,,,,,,,,,,,,,,,,,,,
null,,black_cross(without_color)6,1320863,,,,,,,,green,,,null,object_05a.png,object_08c.png,,,,,,,,,,,,,,,,,,,
null,,rt_plussign_withcolor6,1321365,,,,,,,,green,,,null,object_05a.png,object_08c.png,,,,,,,,,,,,,,,,,,,
1727,,rt_thecrossant_black6,1322544,,,,,,,,black_plus_sign,,,50,,,1,,,,,,,0.9166666666666666,,,,,,,,,,,
null,,color_black6,1322648,,,,,,,,black_plus_sign,,,null,,,,,,,,,,,,,,,,,,,,,
null,,learn_phase(without_color)6,1326152,,,,,,,,black_plus_sign,,,null,object_06c.png,object_11b.png,,,,,,,,,,,,,,,,,,,
null,,black_cross(without_color)6,1327121,,,,,,,,green,,,null,object_06c.png,object_11b.png,,,,,,,,,,,,,,,,,,,
null,,rt_plussign_withcolor6,1327631,,,,,,,,green,,,null,object_06c.png,object_11b.png,,,,,,,,,,,,,,,,,,,
1605.2000000476837,,rt_thecrossant_black6,1328668,,,,,,,,black_plus_sign,,,50,,,1,,,,,,,0.9230769230769231,,,,,,,,,,,
null,,color_black6,1328770,,,,,,,,black_plus_sign,,,null,,,,,,,,,,,,,,,,,,,,,
null,,learn_phase(without_color)6,1332274,,,,,,,,black_plus_sign,,,null,object_05c.png,object_04b.png,,,,,,,,,,,,,,,,,,,
null,,black_cross(without_color)6,1333075,,,,,,,,blue,,,null,object_05c.png,object_04b.png,,,,,,,,,,,,,,,,,,,
null,,rt_plussign_withcolor6,1333577,,,,,,,,blue,,,null,object_05c.png,object_04b.png,,,,,,,,,,,,,,,,,,,
2210.9000000953674,,rt_thecrossant_black6,1334781,,,,,,,,black_plus_sign,,,49,,,1,,,,,,,0.9285714285714286,,,,,,,,,,,
null,,color_black6,1334883,,,,,,,,black_plus_sign,,,null,,,,,,,,,,,,,,,,,,,,,
null,,thebreak,1334988,,,,,,,,<p></p>,,,null,,,,,,,,,,,,,,,,,,,,,
1804.7999999523163,,intro_0,1336793,,,,,,,,instruct,,,32,,,,,,,,,,,,,,,,,,,,,
4767.600000143051,,directmemory_phase6,1341562,,,,,,,,object_01c.png,,,49,,,0,,object_10b.png,object_13a.png,object_12a.png,object_13a.png,,0.881578947368421,,0,,,,,,,,,
2940.4000000953674,,directmemory_phase6,1344503,,,,,,,,object_10c.png,,,49,,,1,,object_08b.png,object_12a.png,object_15c.png,object_08b.png,,0.8831168831168831,,1,,,,,,,,,
3993.5,,directmemory_phase6,1348500,,,,,,,,object_09a.png,,,49,,,1,,object_15c.png,object_01a.png,object_06c.png,object_15c.png,,0.8846153846153846,,1,,,,,,,,,
2538.7000000476837,,directmemory_phase6,1351042,,,,,,,,object_09b.png,,,50,,,1,,object_07a.png,object_02b.png,object_01a.png,object_02b.png,,0.8860759493670886,,1,,,,,,,,,
2186.300000190735,,directmemory_phase6,1353232,,,,,,,,object_11c.png,,,50,,,1,,object_10b.png,object_07c.png,object_05a.png,object_07c.png,,0.8875,,1,,,,,,,,,
4200.299999952316,,directmemory_phase6,1357436,,,,,,,,object_09c.png,,,51,,,1,,object_15c.png,object_08b.png,object_07a.png,object_07a.png,,0.8888888888888888,,1,,,,,,,,,
2009.2000000476837,,directmemory_phase6,1359448,,,,,,,,object_06a.png,,,51,,,1,,object_06b.png,object_10b.png,object_01a.png,object_01a.png,,0.8902439024390244,,1,,,,,,,,,
3686.9000000953674,,directmemory_phase6,1363136,,,,,,,,object_04b.png,,,49,,,1,,object_05c.png,object_13a.png,object_07a.png,object_05c.png,,0.891566265060241,,1,,,,,,,,,
2376.100000143051,,directmemory_phase6,1365513,,,,,,,,object_03b.png,,,49,,,0,,object_05a.png,object_03a.png,object_13a.png,object_03a.png,,0.8809523809523809,,0,,,,,,,,,
520.2000000476837,,directmemory_phase6,1366035,,,,,,,,object_14a.png,,,50,,,1,,object_01a.png,object_06b.png,object_08b.png,object_06b.png,,0.8823529411764706,,1,,,,,,,,,
3017.4000000953674,,directmemory_phase6,1369054,,,,,,,,object_05b.png,,,50,,,1,,object_07a.png,object_12a.png,object_06c.png,object_12a.png,,0.8837209302325582,,1,,,,,,,,,
4112,,directmemory_phase6,1373170,,,,,,,,object_11b.png,,,51,,,1,,object_08b.png,object_07c.png,object_06c.png,object_06c.png,,0.8850574712643678,,1,,,,,,,,,
3782.2999999523163,,directmemory_phase6,1376955,,,,,,,,object_08c.png,,,50,,,1,,object_01a.png,object_05a.png,object_12a.png,object_05a.png,,0.8863636363636364,,1,,,,,,,,,
2675.2999999523163,,directmemory_phase6,1379634,,,,,,,,object_11a.png,,,51,,,1,,object_05a.png,object_01a.png,object_10b.png,object_10b.png,,0.8876404494382022,,1,,,,,,,,,
2477,,directmemory_phase6,1382114,,,,,,,,object_07b.png,,,51,,,1,,object_07a.png,object_10b.png,object_04c.png,object_04c.png,,0.8888888888888888,,1,,,,,,,,,
null,,thebreak,1382219,,,,,,,,<p></p>,,,null,,,,,,,,,,,,,,,,,,,,,
1695.5999999046326,,intro_0,1383915,,,,,,,,instruct,,,32,,,,,,,,,,,,,,,,,,,,,
null,,learn_phase(without_color)7,1387417,,,,,,,,black_plus_sign,,,null,object_07c.png,object_11c.png,,,,,,,,,,,,,,,,,,,
null,,black_cross(without_color)7,1387933,,,,,,,,green,,,null,object_07c.png,object_11c.png,,,,,,,,,,,,,,,,,,,
null,,rt_plussign_withcolor7,1388435,,,,,,,,green,,,null,object_07c.png,object_11c.png,,,,,,,,,,,,,,,,,,,
1441.8000001907349,,rt_thecrossant_black7,1389934,,,,,,,,black_plus_sign,,,50,,,1,,,,,,,1,,,,,,,,,,,
null,,color_black7,1390037,,,,,,,,black_plus_sign,,,null,,,,,,,,,,,,,,,,,,,,,
null,,learn_phase(without_color)7,1393541,,,,,,,,black_plus_sign,,,null,object_03a.png,object_03b.png,,,,,,,,,,,,,,,,,,,
null,,black_cross(without_color)7,1394185,,,,,,,,blue,,,null,object_03a.png,object_03b.png,,,,,,,,,,,,,,,,,,,
null,,rt_plussign_withcolor7,1394687,,,,,,,,blue,,,null,object_03a.png,object_03b.png,,,,,,,,,,,,,,,,,,,
1278.2999999523163,,rt_thecrossant_black7,1396045,,,,,,,,black_plus_sign,,,49,,,1,,,,,,,1,,,,,,,,,,,
null,,color_black7,1396147,,,,,,,,black_plus_sign,,,null,,,,,,,,,,,,,,,,,,,,,
null,,learn_phase(without_color)7,1399652,,,,,,,,black_plus_sign,,,null,object_12a.png,object_05b.png,,,,,,,,,,,,,,,,,,,
null,,black_cross(without_color)7,1400117,,,,,,,,green,,,null,object_12a.png,object_05b.png,,,,,,,,,,,,,,,,,,,
null,,rt_plussign_withcolor7,1400619,,,,,,,,green,,,null,object_12a.png,object_05b.png,,,,,,,,,,,,,,,,,,,
1515.7999999523163,,rt_thecrossant_black7,1402158,,,,,,,,black_plus_sign,,,50,,,1,,,,,,,1,,,,,,,,,,,
null,,color_black7,1402260,,,,,,,,black_plus_sign,,,null,,,,,,,,,,,,,,,,,,,,,
null,,learn_phase(without_color)7,1405762,,,,,,,,black_plus_sign,,,null,object_01a.png,object_06a.png,,,,,,,,,,,,,,,,,,,
null,,black_cross(without_color)7,1406829,,,,,,,,green,,,null,object_01a.png,object_06a.png,,,,,,,,,,,,,,,,,,,
null,,rt_plussign_withcolor7,1407332,,,,,,,,green,,,null,object_01a.png,object_06a.png,,,,,,,,,,,,,,,,,,,
980.2000000476837,,rt_thecrossant_black7,1408273,,,,,,,,black_plus_sign,,,50,,,1,,,,,,,1,,,,,,,,,,,
null,,color_black7,1408376,,,,,,,,black_plus_sign,,,null,,,,,,,,,,,,,,,,,,,,,
null,,learn_phase(without_color)7,1411877,,,,,,,,black_plus_sign,,,null,object_04c.png,object_07b.png,,,,,,,,,,,,,,,,,,,
null,,black_cross(without_color)7,1412383,,,,,,,,blue,,,null,object_04c.png,object_07b.png,,,,,,,,,,,,,,,,,,,
null,,rt_plussign_withcolor7,1412886,,,,,,,,blue,,,null,object_04c.png,object_07b.png,,,,,,,,,,,,,,,,,,,
1852.9000000953674,,rt_thecrossant_black7,1414385,,,,,,,,black_plus_sign,,,49,,,1,,,,,,,1,,,,,,,,,,,
null,,color_black7,1414487,,,,,,,,black_plus_sign,,,null,,,,,,,,,,,,,,,,,,,,,
null,,learn_phase(without_color)7,1417989,,,,,,,,black_plus_sign,,,null,object_05c.png,object_04b.png,,,,,,,,,,,,,,,,,,,
null,,black_cross(without_color)7,1418835,,,,,,,,green,,,null,object_05c.png,object_04b.png,,,,,,,,,,,,,,,,,,,
null,,rt_plussign_withcolor7,1419337,,,,,,,,green,,,null,object_05c.png,object_04b.png,,,,,,,,,,,,,,,,,,,
1359.2000000476837,,rt_thecrossant_black7,1420511,,,,,,,,black_plus_sign,,,50,,,1,,,,,,,1,,,,,,,,,,,
null,,color_black7,1420613,,,,,,,,black_plus_sign,,,null,,,,,,,,,,,,,,,,,,,,,
null,,learn_phase(without_color)7,1424115,,,,,,,,black_plus_sign,,,null,object_10b.png,object_11a.png,,,,,,,,,,,,,,,,,,,
null,,black_cross(without_color)7,1425118,,,,,,,,green,,,null,object_10b.png,object_11a.png,,,,,,,,,,,,,,,,,,,
null,,rt_plussign_withcolor7,1425620,,,,,,,,green,,,null,object_10b.png,object_11a.png,,,,,,,,,,,,,,,,,,,
1695.5,,rt_thecrossant_black7,1426621,,,,,,,,black_plus_sign,,,50,,,1,,,,,,,1,,,,,,,,,,,
null,,color_black7,1426724,,,,,,,,black_plus_sign,,,null,,,,,,,,,,,,,,,,,,,,,
null,,learn_phase(without_color)7,1430226,,,,,,,,black_plus_sign,,,null,object_15c.png,object_09a.png,,,,,,,,,,,,,,,,,,,
null,,black_cross(without_color)7,1430770,,,,,,,,green,,,null,object_15c.png,object_09a.png,,,,,,,,,,,,,,,,,,,
null,,rt_plussign_withcolor7,1431272,,,,,,,,green,,,null,object_15c.png,object_09a.png,,,,,,,,,,,,,,,,,,,
2002.5,,rt_thecrossant_black7,1432734,,,,,,,,black_plus_sign,,,50,,,1,,,,,,,1,,,,,,,,,,,
null,,color_black7,1432837,,,,,,,,black_plus_sign,,,null,,,,,,,,,,,,,,,,,,,,,
null,,learn_phase(without_color)7,1436341,,,,,,,,black_plus_sign,,,null,object_08b.png,object_10c.png,,,,,,,,,,,,,,,,,,,
null,,black_cross(without_color)7,1437377,,,,,,,,green,,,null,object_08b.png,object_10c.png,,,,,,,,,,,,,,,,,,,
null,,rt_plussign_withcolor7,1437880,,,,,,,,green,,,null,object_08b.png,object_10c.png,,,,,,,,,,,,,,,,,,,
1079.9000000953674,,rt_thecrossant_black7,1438861,,,,,,,,black_plus_sign,,,50,,,1,,,,,,,1,,,,,,,,,,,
null,,color_black7,1438963,,,,,,,,black_plus_sign,,,null,,,,,,,,,,,,,,,,,,,,,
null,,learn_phase(without_color)7,1442467,,,,,,,,black_plus_sign,,,null,object_02b.png,object_09b.png,,,,,,,,,,,,,,,,,,,
null,,black_cross(without_color)7,1443285,,,,,,,,blue,,,null,object_02b.png,object_09b.png,,,,,,,,,,,,,,,,,,,
null,,rt_plussign_withcolor7,1443788,,,,,,,,blue,,,null,object_02b.png,object_09b.png,,,,,,,,,,,,,,,,,,,
1758.3999998569489,,rt_thecrossant_black7,1444976,,,,,,,,black_plus_sign,,,49,,,1,,,,,,,1,,,,,,,,,,,
null,,color_black7,1445079,,,,,,,,black_plus_sign,,,null,,,,,,,,,,,,,,,,,,,,,
null,,learn_phase(without_color)7,1448583,,,,,,,,black_plus_sign,,,null,object_13a.png,object_01c.png,,,,,,,,,,,,,,,,,,,
null,,black_cross(without_color)7,1449144,,,,,,,,green,,,null,object_13a.png,object_01c.png,,,,,,,,,,,,,,,,,,,
null,,rt_plussign_withcolor7,1449647,,,,,,,,green,,,null,object_13a.png,object_01c.png,,,,,,,,,,,,,,,,,,,
1793.1000001430511,,rt_thecrossant_black7,1451095,,,,,,,,black_plus_sign,,,50,,,1,,,,,,,1,,,,,,,,,,,
null,,color_black7,1451197,,,,,,,,black_plus_sign,,,null,,,,,,,,,,,,,,,,,,,,,
null,,learn_phase(without_color)7,1454700,,,,,,,,black_plus_sign,,,null,object_06c.png,object_11b.png,,,,,,,,,,,,,,,,,,,
null,,black_cross(without_color)7,1455584,,,,,,,,blue,,,null,object_06c.png,object_11b.png,,,,,,,,,,,,,,,,,,,
null,,rt_plussign_withcolor7,1456086,,,,,,,,blue,,,null,object_06c.png,object_11b.png,,,,,,,,,,,,,,,,,,,
1220.1999998092651,,rt_thecrossant_black7,1457207,,,,,,,,black_plus_sign,,,49,,,1,,,,,,,1,,,,,,,,,,,
null,,color_black7,1457311,,,,,,,,black_plus_sign,,,null,,,,,,,,,,,,,,,,,,,,,
null,,learn_phase(without_color)7,1460813,,,,,,,,black_plus_sign,,,null,object_06b.png,object_14a.png,,,,,,,,,,,,,,,,,,,
null,,black_cross(without_color)7,1461622,,,,,,,,green,,,null,object_06b.png,object_14a.png,,,,,,,,,,,,,,,,,,,
null,,rt_plussign_withcolor7,1462124,,,,,,,,green,,,null,object_06b.png,object_14a.png,,,,,,,,,,,,,,,,,,,
1694.9000000953674,,rt_thecrossant_black7,1463321,,,,,,,,black_plus_sign,,,50,,,1,,,,,,,1,,,,,,,,,,,
null,,color_black7,1463424,,,,,,,,black_plus_sign,,,null,,,,,,,,,,,,,,,,,,,,,
null,,learn_phase(without_color)7,1466928,,,,,,,,black_plus_sign,,,null,object_07a.png,object_09c.png,,,,,,,,,,,,,,,,,,,
null,,black_cross(without_color)7,1467622,,,,,,,,green,,,null,object_07a.png,object_09c.png,,,,,,,,,,,,,,,,,,,
null,,rt_plussign_withcolor7,1468125,,,,,,,,green,,,null,object_07a.png,object_09c.png,,,,,,,,,,,,,,,,,,,
1899.2000000476837,,rt_thecrossant_black7,1469435,,,,,,,,black_plus_sign,,,50,,,1,,,,,,,1,,,,,,,,,,,
null,,color_black7,1469537,,,,,,,,black_plus_sign,,,null,,,,,,,,,,,,,,,,,,,,,
null,,learn_phase(without_color)7,1473040,,,,,,,,black_plus_sign,,,null,object_05a.png,object_08c.png,,,,,,,,,,,,,,,,,,,
null,,black_cross(without_color)7,1473794,,,,,,,,green,,,null,object_05a.png,object_08c.png,,,,,,,,,,,,,,,,,,,
null,,rt_plussign_withcolor7,1474302,,,,,,,,green,,,null,object_05a.png,object_08c.png,,,,,,,,,,,,,,,,,,,
1903.5,,rt_thecrossant_black7,1475555,,,,,,,,black_plus_sign,,,50,,,1,,,,,,,1,,,,,,,,,,,
null,,color_black7,1475657,,,,,,,,black_plus_sign,,,null,,,,,,,,,,,,,,,,,,,,,
null,,thebreak,1475761,,,,,,,,<p></p>,,,null,,,,,,,,,,,,,,,,,,,,,
128061.70000004768,,intro_0,1603823,,,,,,,,instruct,,,32,,,,,,,,,,,,,,,,,,,,,
6919,,directmemory_phase7,1610744,,,,,,,,object_08c.png,,,50,,,1,,object_02b.png,object_05a.png,object_06b.png,object_05a.png,,0.8901098901098901,,1,,,,,,,,,
1958.2999999523163,,directmemory_phase7,1612706,,,,,,,,object_14a.png,,,50,,,1,,object_08b.png,object_06b.png,object_06c.png,object_06b.png,,0.8913043478260869,,1,,,,,,,,,
2791.899999856949,,directmemory_phase7,1615502,,,,,,,,object_05b.png,,,51,,,1,,object_07c.png,object_07a.png,object_12a.png,object_12a.png,,0.8924731182795699,,1,,,,,,,,,
3249.899999856949,,directmemory_phase7,1618755,,,,,,,,object_03b.png,,,51,,,1,,object_02b.png,object_12a.png,object_03a.png,object_03a.png,,0.8936170212765957,,1,,,,,,,,,
4237.5,,directmemory_phase7,1622996,,,,,,,,object_04b.png,,,49,,,1,,object_05c.png,object_06c.png,object_13a.png,object_05c.png,,0.8947368421052632,,1,,,,,,,,,
2033.7999999523163,,directmemory_phase7,1625033,,,,,,,,object_06a.png,,,49,,,1,,object_01a.png,object_05a.png,object_08b.png,object_01a.png,,0.8958333333333334,,1,,,,,,,,,
4483.5,,directmemory_phase7,1629518,,,,,,,,object_11a.png,,,49,,,1,,object_10b.png,object_06b.png,object_05a.png,object_10b.png,,0.8969072164948454,,1,,,,,,,,,
5998.5,,directmemory_phase7,1635520,,,,,,,,object_09b.png,,,50,,,1,,object_15c.png,object_02b.png,object_03a.png,object_02b.png,,0.8979591836734694,,1,,,,,,,,,
4807.299999952316,,directmemory_phase7,1640331,,,,,,,,object_01c.png,,,49,,,1,,object_13a.png,object_04c.png,object_08b.png,object_13a.png,,0.898989898989899,,1,,,,,,,,,
2747.7000000476837,,directmemory_phase7,1643083,,,,,,,,object_10c.png,,,51,,,1,,object_13a.png,object_12a.png,object_08b.png,object_08b.png,,0.9,,1,,,,,,,,,
5709,,directmemory_phase7,1648795,,,,,,,,object_09c.png,,,51,,,1,,object_12a.png,object_08b.png,object_07a.png,object_07a.png,,0.900990099009901,,1,,,,,,,,,
5965.599999904633,,directmemory_phase7,1654761,,,,,,,,object_11b.png,,,50,,,1,,object_13a.png,object_06c.png,object_01a.png,object_06c.png,,0.9019607843137255,,1,,,,,,,,,
2688.7000000476837,,directmemory_phase7,1657454,,,,,,,,object_09a.png,,,50,,,1,,object_07a.png,object_15c.png,object_08b.png,object_15c.png,,0.9029126213592233,,1,,,,,,,,,
2882.300000190735,,directmemory_phase7,1660340,,,,,,,,object_11c.png,,,49,,,1,,object_07c.png,object_07a.png,object_06c.png,object_07c.png,,0.9038461538461539,,1,,,,,,,,,
12105.699999809265,,directmemory_phase7,1672449,,,,,,,,object_07b.png,,,50,,,1,,object_01a.png,object_04c.png,object_12a.png,object_04c.png,,0.9047619047619048,,1,,,,,,,,,
null,,thebreak,1672553,,,,,,,,<p></p>,,,null,,,,,,,,,,,,,,,,,,,,,
122003,,intro_0,1794556,,,,,,,,instruct,,,32,,,,,,,,,,,,,,,,,,,,,
null,,learn_phase(without_color)8,1798058,,,,,,,,black_plus_sign,,,null,object_07a.png,object_09c.png,,,,,,,,,,,,,,,,,,,
null,,black_cross(without_color)8,1798967,,,,,,,,green,,,null,object_07a.png,object_09c.png,,,,,,,,,,,,,,,,,,,
null,,rt_plussign_withcolor8,1799469,,,,,,,,green,,,null,object_07a.png,object_09c.png,,,,,,,,,,,,,,,,,,,
1510.9000000953674,,rt_thecrossant_black8,1800566,,,,,,,,black_plus_sign,,,50,,,1,,,,,,,1,,,,,,,,,,,
null,,color_black8,1800682,,,,,,,,black_plus_sign,,,null,,,,,,,,,,,,,,,,,,,,,
null,,learn_phase(without_color)8,1804186,,,,,,,,black_plus_sign,,,null,object_06b.png,object_14a.png,,,,,,,,,,,,,,,,,,,
null,,black_cross(without_color)8,1804847,,,,,,,,blue,,,null,object_06b.png,object_14a.png,,,,,,,,,,,,,,,,,,,
null,,rt_plussign_withcolor8,1805348,,,,,,,,blue,,,null,object_06b.png,object_14a.png,,,,,,,,,,,,,,,,,,,
1934.2999999523163,,rt_thecrossant_black8,1806709,,,,,,,,black_plus_sign,,,49,,,1,,,,,,,1,,,,,,,,,,,
null,,color_black8,1806811,,,,,,,,black_plus_sign,,,null,,,,,,,,,,,,,,,,,,,,,
null,,learn_phase(without_color)8,1810315,,,,,,,,black_plus_sign,,,null,object_05a.png,object_08c.png,,,,,,,,,,,,,,,,,,,
null,,black_cross(without_color)8,1811100,,,,,,,,blue,,,null,object_05a.png,object_08c.png,,,,,,,,,,,,,,,,,,,
null,,rt_plussign_withcolor8,1811603,,,,,,,,blue,,,null,object_05a.png,object_08c.png,,,,,,,,,,,,,,,,,,,
1686.5,,rt_thecrossant_black8,1812825,,,,,,,,black_plus_sign,,,49,,,1,,,,,,,1,,,,,,,,,,,
null,,color_black8,1812931,,,,,,,,black_plus_sign,,,null,,,,,,,,,,,,,,,,,,,,,
null,,learn_phase(without_color)8,1816434,,,,,,,,black_plus_sign,,,null,object_08b.png,object_10c.png,,,,,,,,,,,,,,,,,,,
null,,black_cross(without_color)8,1816960,,,,,,,,green,,,null,object_08b.png,object_10c.png,,,,,,,,,,,,,,,,,,,
null,,rt_plussign_withcolor8,1817462,,,,,,,,green,,,null,object_08b.png,object_10c.png,,,,,,,,,,,,,,,,,,,
1730.8000001907349,,rt_thecrossant_black8,1818943,,,,,,,,black_plus_sign,,,50,,,1,,,,,,,1,,,,,,,,,,,
null,,color_black8,1819045,,,,,,,,black_plus_sign,,,null,,,,,,,,,,,,,,,,,,,,,
null,,learn_phase(without_color)8,1822550,,,,,,,,black_plus_sign,,,null,object_12a.png,object_05b.png,,,,,,,,,,,,,,,,,,,
null,,black_cross(without_color)8,1823550,,,,,,,,green,,,null,object_12a.png,object_05b.png,,,,,,,,,,,,,,,,,,,
null,,rt_plussign_withcolor8,1824052,,,,,,,,green,,,null,object_12a.png,object_05b.png,,,,,,,,,,,,,,,,,,,
1187.9000000953674,,rt_thecrossant_black8,1825056,,,,,,,,black_plus_sign,,,50,,,1,,,,,,,1,,,,,,,,,,,
null,,color_black8,1825160,,,,,,,,black_plus_sign,,,null,,,,,,,,,,,,,,,,,,,,,
null,,learn_phase(without_color)8,1828664,,,,,,,,black_plus_sign,,,null,object_05c.png,object_04b.png,,,,,,,,,,,,,,,,,,,
null,,black_cross(without_color)8,1829361,,,,,,,,green,,,null,object_05c.png,object_04b.png,,,,,,,,,,,,,,,,,,,
null,,rt_plussign_withcolor8,1829863,,,,,,,,green,,,null,object_05c.png,object_04b.png,,,,,,,,,,,,,,,,,,,
1510.5,,rt_thecrossant_black8,1831170,,,,,,,,black_plus_sign,,,50,,,1,,,,,,,1,,,,,,,,,,,
null,,color_black8,1831272,,,,,,,,black_plus_sign,,,null,,,,,,,,,,,,,,,,,,,,,
null,,learn_phase(without_color)8,1834776,,,,,,,,black_plus_sign,,,null,object_07c.png,object_11c.png,,,,,,,,,,,,,,,,,,,
null,,black_cross(without_color)8,1835408,,,,,,,,blue,,,null,object_07c.png,object_11c.png,,,,,,,,,,,,,,,,,,,
null,,rt_plussign_withcolor8,1835909,,,,,,,,blue,,,null,object_07c.png,object_11c.png,,,,,,,,,,,,,,,,,,,
1940.8000001907349,,rt_thecrossant_black8,1837281,,,,,,,,black_plus_sign,,,49,,,1,,,,,,,1,,,,,,,,,,,
null,,color_black8,1837383,,,,,,,,black_plus_sign,,,null,,,,,,,,,,,,,,,,,,,,,
null,,learn_phase(without_color)8,1840887,,,,,,,,black_plus_sign,,,null,object_01a.png,object_06a.png,,,,,,,,,,,,,,,,,,,
null,,black_cross(without_color)8,1841432,,,,,,,,blue,,,null,object_01a.png,object_06a.png,,,,,,,,,,,,,,,,,,,
null,,rt_plussign_withcolor8,1841934,,,,,,,,blue,,,null,object_01a.png,object_06a.png,,,,,,,,,,,,,,,,,,,
1899.2000000476837,,rt_thecrossant_black8,1843393,,,,,,,,black_plus_sign,,,49,,,1,,,,,,,1,,,,,,,,,,,
null,,color_black8,1843495,,,,,,,,black_plus_sign,,,null,,,,,,,,,,,,,,,,,,,,,
null,,learn_phase(without_color)8,1847000,,,,,,,,black_plus_sign,,,null,object_02b.png,object_09b.png,,,,,,,,,,,,,,,,,,,
null,,black_cross(without_color)8,1847917,,,,,,,,blue,,,null,object_02b.png,object_09b.png,,,,,,,,,,,,,,,,,,,
null,,rt_plussign_withcolor8,1848421,,,,,,,,blue,,,null,object_02b.png,object_09b.png,,,,,,,,,,,,,,,,,,,
1052.4000000953674,,rt_thecrossant_black8,1849516,,,,,,,,black_plus_sign,,,49,,,1,,,,,,,1,,,,,,,,,,,
null,,color_black8,1849618,,,,,,,,black_plus_sign,,,null,,,,,,,,,,,,,,,,,,,,,
null,,learn_phase(without_color)8,1853121,,,,,,,,black_plus_sign,,,null,object_10b.png,object_11a.png,,,,,,,,,,,,,,,,,,,
null,,black_cross(without_color)8,1853713,,,,,,,,green,,,null,object_10b.png,object_11a.png,,,,,,,,,,,,,,,,,,,
null,,rt_plussign_withcolor8,1854215,,,,,,,,green,,,null,object_10b.png,object_11a.png,,,,,,,,,,,,,,,,,,,
null,,rt_thecrossant_black8,1855639,,,,,,,,black_plus_sign,,,null,,,,,,,,,,1,,,,,,,,,,,
null,,color_black8,1855742,,,,,,,,black_plus_sign,,,null,,,,,,,,,,,,,,,,,,,,,
null,,learn_phase(without_color)8,1859246,,,,,,,,black_plus_sign,,,null,object_03a.png,object_03b.png,,,,,,,,,,,,,,,,,,,
null,,black_cross(without_color)8,1860104,,,,,,,,blue,,,null,object_03a.png,object_03b.png,,,,,,,,,,,,,,,,,,,
null,,rt_plussign_withcolor8,1860607,,,,,,,,blue,,,null,object_03a.png,object_03b.png,,,,,,,,,,,,,,,,,,,
null,,rt_thecrossant_black8,1861754,,,,,,,,black_plus_sign,,,null,,,,,,,,,,1,,,,,,,,,,,
null,,warning_page,1866757,,,,,,,,warning,,,null,,,,,,,,,,,,,,,,,,,,,
null,,color_black8,1866859,,,,,,,,black_plus_sign,,,null,,,,,,,,,,,,,,,,,,,,,
null,,learn_phase(without_color)8,1870361,,,,,,,,black_plus_sign,,,null,object_06c.png,object_11b.png,,,,,,,,,,,,,,,,,,,
null,,black_cross(without_color)8,1871109,,,,,,,,green,,,null,object_06c.png,object_11b.png,,,,,,,,,,,,,,,,,,,
null,,rt_plussign_withcolor8,1871611,,,,,,,,green,,,null,object_06c.png,object_11b.png,,,,,,,,,,,,,,,,,,,
1676.7999999523163,,rt_thecrossant_black8,1872868,,,,,,,,black_plus_sign,,,50,,,1,,,,,,,1,,,,,,,,,,,
null,,color_black8,1872970,,,,,,,,black_plus_sign,,,null,,,,,,,,,,,,,,,,,,,,,
null,,learn_phase(without_color)8,1876474,,,,,,,,black_plus_sign,,,null,object_04c.png,object_07b.png,,,,,,,,,,,,,,,,,,,
null,,black_cross(without_color)8,1877468,,,,,,,,green,,,null,object_04c.png,object_07b.png,,,,,,,,,,,,,,,,,,,
null,,rt_plussign_withcolor8,1877971,,,,,,,,green,,,null,object_04c.png,object_07b.png,,,,,,,,,,,,,,,,,,,
1806.2999999523163,,rt_thecrossant_black8,1878984,,,,,,,,black_plus_sign,,,49,,,0,,,,,,,0.9090909090909091,,,,,,,,,,,
null,,warning_page,1883988,,,,,,,,warning,,,null,,,,,,,,,,,,,,,,,,,,,
null,,color_black8,1884091,,,,,,,,black_plus_sign,,,null,,,,,,,,,,,,,,,,,,,,,
null,,learn_phase(without_color)8,1887594,,,,,,,,black_plus_sign,,,null,object_13a.png,object_01c.png,,,,,,,,,,,,,,,,,,,
null,,black_cross(without_color)8,1888632,,,,,,,,blue,,,null,object_13a.png,object_01c.png,,,,,,,,,,,,,,,,,,,
null,,rt_plussign_withcolor8,1889135,,,,,,,,blue,,,null,object_13a.png,object_01c.png,,,,,,,,,,,,,,,,,,,
1809.5999999046326,,rt_thecrossant_black8,1890102,,,,,,,,black_plus_sign,,,49,,,1,,,,,,,0.9166666666666666,,,,,,,,,,,
null,,color_black8,1890210,,,,,,,,black_plus_sign,,,null,,,,,,,,,,,,,,,,,,,,,
null,,learn_phase(without_color)8,1893712,,,,,,,,black_plus_sign,,,null,object_15c.png,object_09a.png,,,,,,,,,,,,,,,,,,,
null,,black_cross(without_color)8,1894785,,,,,,,,green,,,null,object_15c.png,object_09a.png,,,,,,,,,,,,,,,,,,,
null,,rt_plussign_withcolor8,1895287,,,,,,,,green,,,null,object_15c.png,object_09a.png,,,,,,,,,,,,,,,,,,,
null,,rt_thecrossant_black8,1896218,,,,,,,,black_plus_sign,,,null,,,,,,,,,,0.9166666666666666,,,,,,,,,,,
null,,warning_page,1901222,,,,,,,,warning,,,null,,,,,,,,,,,,,,,,,,,,,
null,,color_black8,1901324,,,,,,,,black_plus_sign,,,null,,,,,,,,,,,,,,,,,,,,,
null,,thebreak,1901428,,,,,,,,<p></p>,,,null,,,,,,,,,,,,,,,,,,,,,
1768.5999999046326,,intro_0,1903199,,,,,,,,instruct,,,32,,,,,,,,,,,,,,,,,,,,,
3148.2999999523163,,directmemory_phase8,1906350,,,,,,,,object_03b.png,,,51,,,1,,object_08b.png,object_13a.png,object_03a.png,object_03a.png,,0.9056603773584906,,1,,,,,,,,,
2232.7000000476837,,directmemory_phase8,1908586,,,,,,,,object_11c.png,,,49,,,1,,object_07c.png,object_12a.png,object_06c.png,object_07c.png,,0.9065420560747663,,1,,,,,,,,,
3383.2000000476837,,directmemory_phase8,1911973,,,,,,,,object_04b.png,,,50,,,1,,object_10b.png,object_05c.png,object_15c.png,object_05c.png,,0.9074074074074074,,1,,,,,,,,,
1780.5999999046326,,directmemory_phase8,1913758,,,,,,,,object_10c.png,,,50,,,1,,object_03a.png,object_08b.png,object_02b.png,object_08b.png,,0.908256880733945,,1,,,,,,,,,
4232.400000095367,,directmemory_phase8,1917994,,,,,,,,object_08c.png,,,50,,,1,,object_06b.png,object_05a.png,object_08b.png,object_05a.png,,0.9090909090909091,,1,,,,,,,,,
1953.2999999523163,,directmemory_phase8,1919950,,,,,,,,object_09a.png,,,49,,,1,,object_15c.png,object_08b.png,object_02b.png,object_15c.png,,0.9099099099099099,,1,,,,,,,,,
1923.6999998092651,,directmemory_phase8,1921876,,,,,,,,object_09c.png,,,49,,,1,,object_07a.png,object_04c.png,object_08b.png,object_07a.png,,0.9107142857142857,,1,,,,,,,,,
6771.200000047684,,directmemory_phase8,1928651,,,,,,,,object_01c.png,,,51,,,1,,object_12a.png,object_06b.png,object_13a.png,object_13a.png,,0.911504424778761,,1,,,,,,,,,
10380.5,,directmemory_phase8,1939034,,,,,,,,object_11b.png,,,49,,,1,,object_06c.png,object_07a.png,object_10b.png,object_06c.png,,0.9122807017543859,,1,,,,,,,,,
4537.799999952316,,directmemory_phase8,1943576,,,,,,,,object_07b.png,,,49,,,1,,object_04c.png,object_05a.png,object_15c.png,object_04c.png,,0.9130434782608695,,1,,,,,,,,,
3320.199999809265,,directmemory_phase8,1946898,,,,,,,,object_11a.png,,,49,,,1,,object_10b.png,object_04c.png,object_12a.png,object_10b.png,,0.9137931034482759,,1,,,,,,,,,
8171.200000047684,,directmemory_phase8,1955072,,,,,,,,object_09b.png,,,51,,,1,,object_06b.png,object_07a.png,object_02b.png,object_02b.png,,0.9145299145299145,,1,,,,,,,,,
2678.399999856949,,directmemory_phase8,1957754,,,,,,,,object_05b.png,,,49,,,1,,object_12a.png,object_03a.png,object_07a.png,object_12a.png,,0.9152542372881356,,1,,,,,,,,,
1959.1000001430511,,directmemory_phase8,1959714,,,,,,,,object_14a.png,,,51,,,1,,object_02b.png,object_01a.png,object_06b.png,object_06b.png,,0.9159663865546218,,1,,,,,,,,,
4063.7999999523163,,directmemory_phase8,1963779,,,,,,,,object_06a.png,,,49,,,1,,object_01a.png,object_07a.png,object_04c.png,object_01a.png,,0.9166666666666666,,1,,,,,,,,,
null,,thebreak,1963884,,,,,,,,<p></p>,,,null,,,,,,,,,,,,,,,,,,,,,
4868.799999952316,,intro_0,1968755,,,,,,,,instruct,,,32,,,,,,,,,,,,,,,,,,,,,
14262.5,,intro_1,1983018,,,,,,,,instruct,,,32,,,,,,,,,,,,,,,,,,,,,
6553.200000047684,,intro_2,1989572,,,,,,,,instruct,,,32,,,,,,,,,,,,,,,,,,,,,
,,intro_3,2041393,,,,,,,,instruct,,,,,,,,,,,,,,,,,,,,,,,,
21685.099999904633,,intro_4,2063080,,,,,,,,instruct,,,32,,,,,,,,,,,,,,,,,,,,,
10213.199999809265,,inference_phase,2073295,,,,,,,,object_10c.png,,,51,object_10a.png,object_14c.png,0,,,,,object_10a.png,,0,,,object_15a.png,,,,,,,,
5352.200000047684,,inference_phase,2078652,,,,,,,,object_08c.png,,,49,object_13b.png,object_12c.png,0,,,,,object_12c.png,,0,,,object_14b.png,,,,,,,,
7219,,inference_phase,2085873,,,,,,,,object_11b.png,,,51,object_13b.png,object_14b.png,0,,,,,object_13b.png,,0,,,object_12b.png,,,,,,,,
10217.100000143051,,inference_phase,2096092,,,,,,,,object_09a.png,,,50,object_12c.png,object_02c.png,1,,,,,object_15b.png,,0.25,,,object_15b.png,,,,,,,,
3377.0999999046326,,inference_phase,2099470,,,,,,,,object_09b.png,,,50,object_04a.png,object_01b.png,1,,,,,object_02a.png,,0.4,,,object_02a.png,,,,,,,,
1755.7999999523163,,inference_phase,2101230,,,,,,,,object_09c.png,,,49,object_12c.png,object_10a.png,0,,,,,object_14c.png,,0.3333333333333333,,,object_14c.png,,,,,,,,
2741.4000000953674,,inference_phase,2103975,,,,,,,,object_14a.png,,,51,object_12c.png,object_02c.png,1,,,,,object_02c.png,,0.42857142857142855,,,object_14c.png,,,,,,,,
2177.4000000953674,,inference_phase,2106157,,,,,,,,object_01c.png,,,50,object_14c.png,object_12c.png,1,,,,,object_13c.png,,0.5,,,object_13c.png,,,,,,,,
3872,,inference_phase,2110030,,,,,,,,object_07b.png,,,49,object_15b.png,object_12c.png,0,,,,,object_01b.png,,0.4444444444444444,,,object_01b.png,,,,,,,,
2739.2000000476837,,inference_phase,2112773,,,,,,,,object_11c.png,,,50,object_02c.png,object_12b.png,0,,,,,object_12b.png,,0.4,,,object_15a.png,,,,,,,,
1880.7000000476837,,inference_phase,2114657,,,,,,,,object_11a.png,,,50,object_03c.png,object_04a.png,0,,,,,object_04a.png,,0.36363636363636365,,,object_10a.png,,,,,,,,
1259.8999998569489,,inference_phase,2115919,,,,,,,,object_04b.png,,,51,object_13b.png,object_08a.png,1,,,,,object_08a.png,,0.4166666666666667,,,object_15a.png,,,,,,,,
1097.5999999046326,,inference_phase,2117017,,,,,,,,object_05b.png,,,49,object_15b.png,object_03c.png,0,,,,,object_03c.png,,0.38461538461538464,,,object_15a.png,,,,,,,,
1246.5999999046326,,inference_phase,2118268,,,,,,,,object_06a.png,,,50,object_01b.png,object_12b.png,1,,,,,object_14b.png,,0.42857142857142855,,,object_14b.png,1,,,,,,,
null,,slowdown_page,2128270,,,,,,,,too_quick,,,null,,,,,,,,,,,,,,,,,,,,,
10764,,inference_phase,2139036,,,,,,,,object_03b.png,,,50,object_12b.png,object_15a.png,0,,,,,object_15a.png,,0.4,,,object_15b.png,,,,,,,,
,,survey,2261791,,,,,,,,survey-questions,,,,,,,,,,,,,,,,,,none,high,no,none,yes,no,no
