rt,responses,trial_type,time_elapsed,identifier_a,identifier_b,identifier_c,tasktype,browser_type,local_time,UTC_time,stimulus,button_pressed,response,key_press,stimulus_left,stimulus_right,accuracy,practice_cumulative_accuracy,stimulus_down_left,stimulus_down_mid,stimulus_down_right,stimulus_correct,prac_weighted_accuracy,cumulative_accuracy,weighted_accuracy,stimulus_middle,problems,smooth,distraction,strategies,easier,similar,comments
22665.09999999404,{worker_id:680dcb74ab0a3a21ef2d6d89},id_enter,22670,object_15a.png; object_06c.png; object_02b.png; object_02a.png; object_06b.png; object_01c.png; object_05b.png; object_13b.png; object_07c.png; object_13c.png; object_08c.png; object_09b.png; object_04a.png; object_11a.png; object_04c.png,object_04b.png; object_10b.png; object_05a.png; object_13a.png; object_02c.png; object_10c.png; object_11c.png; object_09c.png; object_08a.png; object_07b.png; object_14a.png; object_05c.png; object_15c.png; object_10a.png; object_12c.png,object_03a.png; object_08b.png; object_15b.png; object_03b.png; object_14b.png; object_03c.png; object_12a.png; object_06a.png; object_14c.png; object_12b.png; object_01b.png; object_11b.png; object_01a.png; object_07a.png; object_09a.png,blocked,Mozilla/5.0 (Windows NT 10.0; Win64; x64) AppleWebKit/537.36 (KHTML, like Gecko) Chrome/130.0.0.0 Safari/537.36,5/11/2025, 3:14:06 PM,2025-05-11 22:14:06.508,,,,,,,,,,,,,,,,,,,,,,,
16717.30000001192,,make_fullscreen,39412,,,,,,,,fullscreen,0,,,,,,,,,,,,,,,,,,,,,
27786.80000001192,,instruct_1,67201,,,,,,,,instruct,0,Next,,,,,,,,,,,,,,,,,,,,
16353.699999988079,,instruct_2,83556,,,,,,,,instruct,1,Next,,,,,,,,,,,,,,,,,,,,
9909.299999982119,,instruct_3,93467,,,,,,,,instruct,1,Next,,,,,,,,,,,,,,,,,,,,
34508.40000000596,,instruct_4,127977,,,,,,,,instruct,1,Next,,,,,,,,,,,,,,,,,,,,
12459.59999999404,,instruct_5,140440,,,,,,,,instruct,1,Next,,,,,,,,,,,,,,,,,,,,
4534.5999999940395,,instruct_6,144978,,,,,,,,instruct,1,Next,,,,,,,,,,,,,,,,,,,,
30283.80000001192,,instruct_7,175266,,,,,,,,instruct,1,Next,,,,,,,,,,,,,,,,,,,,
null,,prac_atten_color_black,176220,,,,,,,,black_plus_sign,,,null,,,,,,,,,,,,,,,,,,,
null,,prac_atten_color,176674,,,,,,,,<p style='position:absolute;top: 50%;right: 50%;transform: translate(50%, -50%);font-size: 125px;color: blue;'>+</p>,,,null,,,,,,,,,,,,,,,,,,,
1897.5,,prac_atten_color_black,178676,,,,,,,,black_plus_sign,,,49,,,,,,,,,,,,,,,,,,,
null,,prac_atten_color_black,179634,,,,,,,,black_plus_sign,,,null,,,,,,,,,,,,,,,,,,,
null,,prac_atten_color,180609,,,,,,,,<p style='position:absolute;top: 50%;right: 50%;transform: translate(50%, -50%);font-size: 125px;color: green;'>+</p>,,,null,,,,,,,,,,,,,,,,,,,
135.39999997615814,,prac_atten_color_black,182611,,,,,,,,black_plus_sign,,,50,,,,,,,,,,,,,,,,,,,
null,,prac_atten_color_black,183042,,,,,,,,black_plus_sign,,,null,,,,,,,,,,,,,,,,,,,
null,,prac_atten_color,183486,,,,,,,,<p style='position:absolute;top: 50%;right: 50%;transform: translate(50%, -50%);font-size: 125px;color: green;'>+</p>,,,null,,,,,,,,,,,,,,,,,,,
100.90000000596046,,prac_atten_color_black,185489,,,,,,,,black_plus_sign,,,50,,,,,,,,,,,,,,,,,,,
null,,prac_atten_color_black,186454,,,,,,,,black_plus_sign,,,null,,,,,,,,,,,,,,,,,,,
522.0999999940395,,prac_atten_color,187183,,,,,,,,<p style='position:absolute;top: 50%;right: 50%;transform: translate(50%, -50%);font-size: 125px;color: blue;'>+</p>,,,49,,,,,,,,,,,,,,,,,,,
null,,prac_atten_color_black,189187,,,,,,,,black_plus_sign,,,null,,,,,,,,,,,,,,,,,,,
null,,prac_atten_color_black,189865,,,,,,,,black_plus_sign,,,null,,,,,,,,,,,,,,,,,,,
null,,prac_atten_color,190352,,,,,,,,<p style='position:absolute;top: 50%;right: 50%;transform: translate(50%, -50%);font-size: 125px;color: green;'>+</p>,,,null,,,,,,,,,,,,,,,,,,,
276.30000001192093,,prac_atten_color_black,192353,,,,,,,,black_plus_sign,,,50,,,,,,,,,,,,,,,,,,,
null,,prac_atten_color_black,193274,,,,,,,,black_plus_sign,,,null,,,,,,,,,,,,,,,,,,,
null,,prac_atten_color,194085,,,,,,,,<p style='position:absolute;top: 50%;right: 50%;transform: translate(50%, -50%);font-size: 125px;color: green;'>+</p>,,,null,,,,,,,,,,,,,,,,,,,
134.7999999821186,,prac_atten_color_black,196088,,,,,,,,black_plus_sign,,,50,,,,,,,,,,,,,,,,,,,
null,,prac_atten_color_black,196685,,,,,,,,black_plus_sign,,,null,,,,,,,,,,,,,,,,,,,
466.59999999403954,,prac_atten_color,197241,,,,,,,,<p style='position:absolute;top: 50%;right: 50%;transform: translate(50%, -50%);font-size: 125px;color: blue;'>+</p>,,,49,,,,,,,,,,,,,,,,,,,
null,,prac_atten_color_black,199244,,,,,,,,black_plus_sign,,,null,,,,,,,,,,,,,,,,,,,
null,,prac_atten_color_black,200095,,,,,,,,black_plus_sign,,,null,,,,,,,,,,,,,,,,,,,
496.5,,prac_atten_color,200982,,,,,,,,<p style='position:absolute;top: 50%;right: 50%;transform: translate(50%, -50%);font-size: 125px;color: green;'>+</p>,,,50,,,,,,,,,,,,,,,,,,,
null,,prac_atten_color_black,202984,,,,,,,,black_plus_sign,,,null,,,,,,,,,,,,,,,,,,,
null,,prac_atten_color_black,203505,,,,,,,,black_plus_sign,,,null,,,,,,,,,,,,,,,,,,,
null,,prac_atten_color,204001,,,,,,,,<p style='position:absolute;top: 50%;right: 50%;transform: translate(50%, -50%);font-size: 125px;color: blue;'>+</p>,,,null,,,,,,,,,,,,,,,,,,,
395.19999998807907,,prac_atten_color_black,206003,,,,,,,,black_plus_sign,,,49,,,,,,,,,,,,,,,,,,,
null,,prac_atten_color_black,206913,,,,,,,,black_plus_sign,,,null,,,,,,,,,,,,,,,,,,,
699.0999999940395,,prac_atten_color,207964,,,,,,,,<p style='position:absolute;top: 50%;right: 50%;transform: translate(50%, -50%);font-size: 125px;color: blue;'>+</p>,,,49,,,,,,,,,,,,,,,,,,,
null,,prac_atten_color_black,209966,,,,,,,,black_plus_sign,,,null,,,,,,,,,,,,,,,,,,,
7717,,attentioncheck_feedback,217686,,,,,,,,cross_check_feedback,0,,,,,,,,,,,,,,,,,,,,,
11947.399999976158,,last_instruct,229635,,,,,,,,instruct,,,32,,,,,,,,,,,,,,,,,,,
null,,prac_learn_phase(without_color),233138,,,,,,,,black_plus_sign,,,null,object_01c.png,object_10c.png,,,,,,,,,,,,,,,,,
null,,prac_black_cross(without_color),233608,,,,,,,,green,,,null,object_01c.png,object_10c.png,,,,,,,,,,,,,,,,,
null,,prac_rt_plussign_withcolor,234111,,,,,,,,green,,,null,object_01c.png,object_10c.png,,,,,,,,,,,,,,,,,
859.8000000119209,,prac_rt_thecrossant_black,235648,,,,,,,,black_plus_sign,,,50,,,1,1,,,,,,,,,,,,,,,
null,,prac_color_black,235751,,,,,,,,black_plus_sign,,,null,,,,,,,,,,,,,,,,,,,
null,,prac_learn_phase(without_color),239255,,,,,,,,black_plus_sign,,,null,object_07c.png,object_08a.png,,,,,,,,,,,,,,,,,
null,,black_cross(without_color)1,239733,,,,,,,,green,,,null,object_01c.png,object_10c.png,,,,,,,,,,,,,,,,,
null,,prac_rt_plussign_withcolor,240236,,,,,,,,blue,,,null,object_07c.png,object_08a.png,,,,,,,,,,,,,,,,,
1297.0999999940395,,prac_rt_thecrossant_black,241772,,,,,,,,black_plus_sign,,,49,,,1,1,,,,,,,,,,,,,,,
null,,prac_color_black,241876,,,,,,,,black_plus_sign,,,null,,,,,,,,,,,,,,,,,,,
null,,prac_learn_phase(without_color),245380,,,,,,,,black_plus_sign,,,null,object_05b.png,object_11c.png,,,,,,,,,,,,,,,,,
null,,black_cross(without_color)1,245858,,,,,,,,green,,,null,object_01c.png,object_10c.png,,,,,,,,,,,,,,,,,
null,,prac_rt_plussign_withcolor,246359,,,,,,,,blue,,,null,object_05b.png,object_11c.png,,,,,,,,,,,,,,,,,
796,,prac_rt_thecrossant_black,247786,,,,,,,,black_plus_sign,,,49,,,1,1,,,,,,,,,,,,,,,
null,,prac_color_black,247889,,,,,,,,black_plus_sign,,,null,,,,,,,,,,,,,,,,,,,
null,,prac_learn_phase(without_color),251392,,,,,,,,black_plus_sign,,,null,object_13c.png,object_07b.png,,,,,,,,,,,,,,,,,
null,,black_cross(without_color)1,251870,,,,,,,,green,,,null,object_01c.png,object_10c.png,,,,,,,,,,,,,,,,,
null,,prac_rt_plussign_withcolor,252372,,,,,,,,green,,,null,object_13c.png,object_07b.png,,,,,,,,,,,,,,,,,
852.7999999821186,,prac_rt_thecrossant_black,253882,,,,,,,,black_plus_sign,,,50,,,1,1,,,,,,,,,,,,,,,
null,,prac_color_black,253985,,,,,,,,black_plus_sign,,,null,,,,,,,,,,,,,,,,,,,
14579.700000017881,,instruct_dir_01,268568,,,,,,,,instruct,0,Next,,,,,,,,,,,,,,,,,,,,
12908.399999976158,,instruct_dir_2,281478,,,,,,,,instruct,1,Next,,,,,,,,,,,,,,,,,,,,
7963.200000017881,,instruct_dir_3,289444,,,,,,,,instruct,1,Next,,,,,,,,,,,,,,,,,,,,
6932.0999999940395,,instruct_dir_4,296379,,,,,,,,instruct,1,Start,,,,,,,,,,,,,,,,,,,,
null,,thebreak,296482,,,,,,,,<p></p>,,,null,,,,,,,,,,,,,,,,,,,
2210.800000011921,,intro_0,298695,,,,,,,,instruct,,,32,,,,,,,,,,,,,,,,,,,
4306.5,,prac_directmemory_phase,303004,,,,,,,,practice/object_03b.png,,,51,,,1,,practice/object_04a.png,practice/object_01a.png,practice/object_03a.png,practice/object_03a.png,1,1,,,,,,,,,
4456.799999982119,,prac_directmemory_phase,307467,,,,,,,,practice/object_04b.png,,,49,,,1,,practice/object_04a.png,practice/object_02a.png,practice/object_03a.png,practice/object_04a.png,1,1,,,,,,,,,
3454.2000000178814,,prac_directmemory_phase,310926,,,,,,,,practice/object_02b.png,,,50,,,1,,practice/object_01a.png,practice/object_02a.png,practice/object_04a.png,practice/object_02a.png,1,1,,,,,,,,,
4256.9000000059605,,prac_directmemory_phase,315187,,,,,,,,practice/object_01b.png,,,50,,,1,,practice/object_02a.png,practice/object_01a.png,practice/object_03a.png,practice/object_01a.png,1,1,,,,,,,,,
35003.19999998808,,practice_feedback,350194,,,,,,,,practice_feedback,1,,,,,,,,,,,,,,,,,,,,,
10489.09999999404,,proceed_actualTask,360685,,,,,,,,proceed_actualTask,1,Continue,,,,,,,,,,,,,,,,,,,,
13634.09999999404,,last_inst,374321,,,,,,,,last_inst,,,32,,,,,,,,,,,,,,,,,,,
null,,learn_phase(without_color)1,377823,,,,,,,,black_plus_sign,,,null,object_01c.png,object_10c.png,,,,,,,,,,,,,,,,,
null,,black_cross(without_color)1,378301,,,,,,,,green,,,null,object_01c.png,object_10c.png,,,,,,,,,,,,,,,,,
null,,rt_plussign_withcolor1,378804,,,,,,,,green,,,null,object_01c.png,object_10c.png,,,,,,,,,,,,,,,,,
690.5,,rt_thecrossant_black1,380333,,,,,,,,black_plus_sign,,,50,,,1,,,,,,,1,,,,,,,,,
null,,color_black1,380436,,,,,,,,black_plus_sign,,,null,,,,,,,,,,,,,,,,,,,
null,,learn_phase(without_color)1,383947,,,,,,,,black_plus_sign,,,null,object_07c.png,object_08a.png,,,,,,,,,,,,,,,,,
null,,black_cross(without_color)1,384727,,,,,,,,blue,,,null,object_07c.png,object_08a.png,,,,,,,,,,,,,,,,,
null,,rt_plussign_withcolor1,385229,,,,,,,,blue,,,null,object_07c.png,object_08a.png,,,,,,,,,,,,,,,,,
995.9000000059605,,rt_thecrossant_black1,386455,,,,,,,,black_plus_sign,,,49,,,1,,,,,,,1,,,,,,,,,
null,,color_black1,386559,,,,,,,,black_plus_sign,,,null,,,,,,,,,,,,,,,,,,,
null,,learn_phase(without_color)1,390063,,,,,,,,black_plus_sign,,,null,object_05b.png,object_11c.png,,,,,,,,,,,,,,,,,
null,,black_cross(without_color)1,390763,,,,,,,,green,,,null,object_05b.png,object_11c.png,,,,,,,,,,,,,,,,,
null,,rt_plussign_withcolor1,391265,,,,,,,,green,,,null,object_05b.png,object_11c.png,,,,,,,,,,,,,,,,,
1044.2000000178814,,rt_thecrossant_black1,392572,,,,,,,,black_plus_sign,,,50,,,1,,,,,,,1,,,,,,,,,
null,,color_black1,392675,,,,,,,,black_plus_sign,,,null,,,,,,,,,,,,,,,,,,,
null,,learn_phase(without_color)1,396179,,,,,,,,black_plus_sign,,,null,object_13c.png,object_07b.png,,,,,,,,,,,,,,,,,
null,,black_cross(without_color)1,396775,,,,,,,,green,,,null,object_13c.png,object_07b.png,,,,,,,,,,,,,,,,,
null,,rt_plussign_withcolor1,397277,,,,,,,,green,,,null,object_13c.png,object_07b.png,,,,,,,,,,,,,,,,,
883,,rt_thecrossant_black1,398688,,,,,,,,black_plus_sign,,,50,,,1,,,,,,,1,,,,,,,,,
null,,color_black1,398791,,,,,,,,black_plus_sign,,,null,,,,,,,,,,,,,,,,,,,
null,,learn_phase(without_color)1,402296,,,,,,,,black_plus_sign,,,null,object_06c.png,object_10b.png,,,,,,,,,,,,,,,,,
null,,black_cross(without_color)1,402885,,,,,,,,blue,,,null,object_06c.png,object_10b.png,,,,,,,,,,,,,,,,,
440.5,,rt_plussign_withcolor1,403387,,,,,,,,blue,,,49,object_06c.png,object_10b.png,,,,,,,,,,,,,,,,,
null,,rt_thecrossant_black1,404816,,,,,,,,black_plus_sign,,,null,,,1,,,,,,,1,,,,,,,,,
null,,color_black1,404919,,,,,,,,black_plus_sign,,,null,,,,,,,,,,,,,,,,,,,
null,,learn_phase(without_color)1,408423,,,,,,,,black_plus_sign,,,null,object_13b.png,object_09c.png,,,,,,,,,,,,,,,,,
null,,black_cross(without_color)1,409031,,,,,,,,blue,,,null,object_13b.png,object_09c.png,,,,,,,,,,,,,,,,,
null,,rt_plussign_withcolor1,409535,,,,,,,,blue,,,null,object_13b.png,object_09c.png,,,,,,,,,,,,,,,,,
882.5999999940395,,rt_thecrossant_black1,410934,,,,,,,,black_plus_sign,,,49,,,1,,,,,,,1,,,,,,,,,
null,,color_black1,411037,,,,,,,,black_plus_sign,,,null,,,,,,,,,,,,,,,,,,,
null,,learn_phase(without_color)1,414541,,,,,,,,black_plus_sign,,,null,object_04a.png,object_15c.png,,,,,,,,,,,,,,,,,
null,,black_cross(without_color)1,415016,,,,,,,,green,,,null,object_04a.png,object_15c.png,,,,,,,,,,,,,,,,,
null,,rt_plussign_withcolor1,415518,,,,,,,,green,,,null,object_04a.png,object_15c.png,,,,,,,,,,,,,,,,,
738.9000000059605,,rt_thecrossant_black1,417048,,,,,,,,black_plus_sign,,,50,,,1,,,,,,,1,,,,,,,,,
null,,color_black1,417150,,,,,,,,black_plus_sign,,,null,,,,,,,,,,,,,,,,,,,
null,,learn_phase(without_color)1,420654,,,,,,,,black_plus_sign,,,null,object_02b.png,object_05a.png,,,,,,,,,,,,,,,,,
null,,black_cross(without_color)1,421093,,,,,,,,green,,,null,object_02b.png,object_05a.png,,,,,,,,,,,,,,,,,
null,,rt_plussign_withcolor1,421595,,,,,,,,green,,,null,object_02b.png,object_05a.png,,,,,,,,,,,,,,,,,
721,,rt_thecrossant_black1,423164,,,,,,,,black_plus_sign,,,50,,,1,,,,,,,1,,,,,,,,,
null,,color_black1,423266,,,,,,,,black_plus_sign,,,null,,,,,,,,,,,,,,,,,,,
null,,learn_phase(without_color)1,426771,,,,,,,,black_plus_sign,,,null,object_02a.png,object_13a.png,,,,,,,,,,,,,,,,,
null,,black_cross(without_color)1,427729,,,,,,,,blue,,,null,object_02a.png,object_13a.png,,,,,,,,,,,,,,,,,
null,,rt_plussign_withcolor1,428231,,,,,,,,blue,,,null,object_02a.png,object_13a.png,,,,,,,,,,,,,,,,,
907.4000000059605,,rt_thecrossant_black1,429279,,,,,,,,black_plus_sign,,,49,,,1,,,,,,,1,,,,,,,,,
null,,color_black1,429383,,,,,,,,black_plus_sign,,,null,,,,,,,,,,,,,,,,,,,
null,,learn_phase(without_color)1,432888,,,,,,,,black_plus_sign,,,null,object_09b.png,object_05c.png,,,,,,,,,,,,,,,,,
null,,black_cross(without_color)1,433486,,,,,,,,blue,,,null,object_09b.png,object_05c.png,,,,,,,,,,,,,,,,,
null,,rt_plussign_withcolor1,433988,,,,,,,,blue,,,null,object_09b.png,object_05c.png,,,,,,,,,,,,,,,,,
1410.0999999940395,,rt_thecrossant_black1,435396,,,,,,,,black_plus_sign,,,49,,,1,,,,,,,1,,,,,,,,,
null,,color_black1,435499,,,,,,,,black_plus_sign,,,null,,,,,,,,,,,,,,,,,,,
null,,learn_phase(without_color)1,439003,,,,,,,,black_plus_sign,,,null,object_15a.png,object_04b.png,,,,,,,,,,,,,,,,,
null,,black_cross(without_color)1,439686,,,,,,,,green,,,null,object_15a.png,object_04b.png,,,,,,,,,,,,,,,,,
null,,rt_plussign_withcolor1,440188,,,,,,,,green,,,null,object_15a.png,object_04b.png,,,,,,,,,,,,,,,,,
1035.0999999940395,,rt_thecrossant_black1,441512,,,,,,,,black_plus_sign,,,50,,,1,,,,,,,1,,,,,,,,,
null,,color_black1,441615,,,,,,,,black_plus_sign,,,null,,,,,,,,,,,,,,,,,,,
null,,learn_phase(without_color)1,445117,,,,,,,,black_plus_sign,,,null,object_06b.png,object_02c.png,,,,,,,,,,,,,,,,,
null,,black_cross(without_color)1,445732,,,,,,,,green,,,null,object_06b.png,object_02c.png,,,,,,,,,,,,,,,,,
null,,rt_plussign_withcolor1,446234,,,,,,,,green,,,null,object_06b.png,object_02c.png,,,,,,,,,,,,,,,,,
1149.4000000059605,,rt_thecrossant_black1,447625,,,,,,,,black_plus_sign,,,50,,,1,,,,,,,1,,,,,,,,,
null,,color_black1,447729,,,,,,,,black_plus_sign,,,null,,,,,,,,,,,,,,,,,,,
null,,learn_phase(without_color)1,451234,,,,,,,,black_plus_sign,,,null,object_11a.png,object_10a.png,,,,,,,,,,,,,,,,,
null,,black_cross(without_color)1,452148,,,,,,,,blue,,,null,object_11a.png,object_10a.png,,,,,,,,,,,,,,,,,
null,,rt_plussign_withcolor1,452650,,,,,,,,blue,,,null,object_11a.png,object_10a.png,,,,,,,,,,,,,,,,,
757.6999999880791,,rt_thecrossant_black1,453740,,,,,,,,black_plus_sign,,,49,,,1,,,,,,,1,,,,,,,,,
null,,color_black1,453845,,,,,,,,black_plus_sign,,,null,,,,,,,,,,,,,,,,,,,
null,,learn_phase(without_color)1,457348,,,,,,,,black_plus_sign,,,null,object_04c.png,object_12c.png,,,,,,,,,,,,,,,,,
null,,black_cross(without_color)1,458420,,,,,,,,green,,,null,object_04c.png,object_12c.png,,,,,,,,,,,,,,,,,
null,,rt_plussign_withcolor1,458923,,,,,,,,green,,,null,object_04c.png,object_12c.png,,,,,,,,,,,,,,,,,
1525.4000000059605,,rt_thecrossant_black1,459858,,,,,,,,black_plus_sign,,,50,,,1,,,,,,,1,,,,,,,,,
null,,color_black1,459961,,,,,,,,black_plus_sign,,,null,,,,,,,,,,,,,,,,,,,
null,,learn_phase(without_color)1,463465,,,,,,,,black_plus_sign,,,null,object_08c.png,object_14a.png,,,,,,,,,,,,,,,,,
null,,black_cross(without_color)1,464493,,,,,,,,blue,,,null,object_08c.png,object_14a.png,,,,,,,,,,,,,,,,,
472.90000000596046,,rt_plussign_withcolor1,464995,,,,,,,,blue,,,49,object_08c.png,object_14a.png,,,,,,,,,,,,,,,,,
null,,rt_thecrossant_black1,465974,,,,,,,,black_plus_sign,,,null,,,1,,,,,,,1,,,,,,,,,
null,,color_black1,466078,,,,,,,,black_plus_sign,,,null,,,,,,,,,,,,,,,,,,,
null,,thebreak,466185,,,,,,,,<p></p>,,,null,,,,,,,,,,,,,,,,,,,
20062.40000000596,,intro_0,486249,,,,,,,,instruct,,,32,,,,,,,,,,,,,,,,,,,
12475,,directmemory_phase1,498726,,,,,,,,object_11c.png,,,51,,,1,,object_11a.png,object_13c.png,object_05b.png,object_05b.png,,1,1,,,,,,,,
8794.09999999404,,directmemory_phase1,507524,,,,,,,,object_13a.png,,,50,,,1,,object_07c.png,object_02a.png,object_15a.png,object_02a.png,,1,1,,,,,,,,
null,,directmemory_phase1,522529,,,,,,,,object_05a.png,,,null,,,0,,object_01c.png,object_02b.png,object_15a.png,object_02b.png,,0.6666666666666666,0,,,,,,,,
null,,warning_page,527531,,,,,,,,warning,,,null,,,,,,,,,,,,,,,,,,,
5767.699999988079,,directmemory_phase1,533301,,,,,,,,object_05c.png,,,50,,,1,,object_05b.png,object_09b.png,object_08c.png,object_09b.png,,0.75,1,,,,,,,,
7233.100000023842,,directmemory_phase1,540538,,,,,,,,object_12c.png,,,49,,,1,,object_04c.png,object_04a.png,object_01c.png,object_04c.png,,0.8,1,,,,,,,,
12020.200000017881,,directmemory_phase1,552562,,,,,,,,object_09c.png,,,49,,,0,,object_04a.png,object_11a.png,object_13b.png,object_13b.png,,0.6666666666666666,0,,,,,,,,
5969.0999999940395,,directmemory_phase1,558534,,,,,,,,object_15c.png,,,50,,,1,,object_13c.png,object_04a.png,object_06b.png,object_04a.png,,0.7142857142857143,1,,,,,,,,
8783.699999988079,,directmemory_phase1,567322,,,,,,,,object_14a.png,,,49,,,1,,object_08c.png,object_07c.png,object_02b.png,object_08c.png,,0.75,1,,,,,,,,
3063.399999976158,,directmemory_phase1,570390,,,,,,,,object_08a.png,,,50,,,1,,object_13c.png,object_07c.png,object_05b.png,object_07c.png,,0.7777777777777778,1,,,,,,,,
11477.800000011921,,directmemory_phase1,581872,,,,,,,,object_10a.png,,,49,,,1,,object_11a.png,object_02b.png,object_08c.png,object_11a.png,,0.8,1,,,,,,,,
3545,,directmemory_phase1,585423,,,,,,,,object_04b.png,,,50,,,1,,object_13c.png,object_15a.png,object_07c.png,object_15a.png,,0.8181818181818182,1,,,,,,,,
8874,,directmemory_phase1,594301,,,,,,,,object_10b.png,,,50,,,1,,object_05b.png,object_06c.png,object_09b.png,object_06c.png,,0.8333333333333334,1,,,,,,,,
2252.399999976158,,directmemory_phase1,596558,,,,,,,,object_07b.png,,,50,,,1,,object_07c.png,object_13c.png,object_01c.png,object_13c.png,,0.8461538461538461,1,,,,,,,,
3557.2000000178814,,directmemory_phase1,600119,,,,,,,,object_10c.png,,,51,,,1,,object_08c.png,object_06b.png,object_01c.png,object_01c.png,,0.8571428571428571,1,,,,,,,,
9795.90000000596,,directmemory_phase1,609919,,,,,,,,object_02c.png,,,51,,,1,,object_01c.png,object_02b.png,object_06b.png,object_06b.png,,0.8666666666666667,1,,,,,,,,
null,,thebreak,610023,,,,,,,,<p></p>,,,null,,,,,,,,,,,,,,,,,,,
34215.40000000596,,intro_0,644240,,,,,,,,instruct,,,32,,,,,,,,,,,,,,,,,,,
null,,learn_phase(without_color)2,647744,,,,,,,,black_plus_sign,,,null,object_09b.png,object_05c.png,,,,,,,,,,,,,,,,,
null,,black_cross(without_color)2,648829,,,,,,,,green,,,null,object_09b.png,object_05c.png,,,,,,,,,,,,,,,,,
null,,rt_plussign_withcolor2,649331,,,,,,,,green,,,null,object_09b.png,object_05c.png,,,,,,,,,,,,,,,,,
1239.7000000178814,,rt_thecrossant_black2,650253,,,,,,,,black_plus_sign,,,50,,,1,,,,,,,1,,,,,,,,,
null,,color_black2,650357,,,,,,,,black_plus_sign,,,null,,,,,,,,,,,,,,,,,,,
null,,learn_phase(without_color)2,653861,,,,,,,,black_plus_sign,,,null,object_13c.png,object_07b.png,,,,,,,,,,,,,,,,,
null,,black_cross(without_color)2,654695,,,,,,,,blue,,,null,object_13c.png,object_07b.png,,,,,,,,,,,,,,,,,
null,,rt_plussign_withcolor2,655197,,,,,,,,blue,,,null,object_13c.png,object_07b.png,,,,,,,,,,,,,,,,,
1325.2999999821186,,rt_thecrossant_black2,656369,,,,,,,,black_plus_sign,,,49,,,1,,,,,,,1,,,,,,,,,
null,,color_black2,656472,,,,,,,,black_plus_sign,,,null,,,,,,,,,,,,,,,,,,,
null,,learn_phase(without_color)2,659975,,,,,,,,black_plus_sign,,,null,object_05b.png,object_11c.png,,,,,,,,,,,,,,,,,
null,,black_cross(without_color)2,660689,,,,,,,,blue,,,null,object_05b.png,object_11c.png,,,,,,,,,,,,,,,,,
null,,rt_plussign_withcolor2,661191,,,,,,,,blue,,,null,object_05b.png,object_11c.png,,,,,,,,,,,,,,,,,
1629.800000011921,,rt_thecrossant_black2,662484,,,,,,,,black_plus_sign,,,49,,,1,,,,,,,1,,,,,,,,,
null,,color_black2,662587,,,,,,,,black_plus_sign,,,null,,,,,,,,,,,,,,,,,,,
null,,learn_phase(without_color)2,666092,,,,,,,,black_plus_sign,,,null,object_01c.png,object_10c.png,,,,,,,,,,,,,,,,,
null,,black_cross(without_color)2,667092,,,,,,,,green,,,null,object_01c.png,object_10c.png,,,,,,,,,,,,,,,,,
null,,rt_plussign_withcolor2,667594,,,,,,,,green,,,null,object_01c.png,object_10c.png,,,,,,,,,,,,,,,,,
848,,rt_thecrossant_black2,668600,,,,,,,,black_plus_sign,,,50,,,1,,,,,,,1,,,,,,,,,
null,,color_black2,668703,,,,,,,,black_plus_sign,,,null,,,,,,,,,,,,,,,,,,,
null,,learn_phase(without_color)2,672206,,,,,,,,black_plus_sign,,,null,object_04c.png,object_12c.png,,,,,,,,,,,,,,,,,
null,,black_cross(without_color)2,672789,,,,,,,,green,,,null,object_04c.png,object_12c.png,,,,,,,,,,,,,,,,,
null,,rt_plussign_withcolor2,673292,,,,,,,,green,,,null,object_04c.png,object_12c.png,,,,,,,,,,,,,,,,,
1285.699999988079,,rt_thecrossant_black2,674717,,,,,,,,black_plus_sign,,,50,,,1,,,,,,,1,,,,,,,,,
null,,color_black2,674820,,,,,,,,black_plus_sign,,,null,,,,,,,,,,,,,,,,,,,
null,,learn_phase(without_color)2,678325,,,,,,,,black_plus_sign,,,null,object_06b.png,object_02c.png,,,,,,,,,,,,,,,,,
null,,black_cross(without_color)2,679153,,,,,,,,green,,,null,object_06b.png,object_02c.png,,,,,,,,,,,,,,,,,
null,,rt_plussign_withcolor2,679655,,,,,,,,green,,,null,object_06b.png,object_02c.png,,,,,,,,,,,,,,,,,
883.7999999821186,,rt_thecrossant_black2,680833,,,,,,,,black_plus_sign,,,50,,,1,,,,,,,1,,,,,,,,,
null,,color_black2,680936,,,,,,,,black_plus_sign,,,null,,,,,,,,,,,,,,,,,,,
null,,learn_phase(without_color)2,684440,,,,,,,,black_plus_sign,,,null,object_15a.png,object_04b.png,,,,,,,,,,,,,,,,,
null,,black_cross(without_color)2,684883,,,,,,,,blue,,,null,object_15a.png,object_04b.png,,,,,,,,,,,,,,,,,
null,,rt_plussign_withcolor2,685385,,,,,,,,blue,,,null,object_15a.png,object_04b.png,,,,,,,,,,,,,,,,,
1688.300000011921,,rt_thecrossant_black2,686949,,,,,,,,black_plus_sign,,,49,,,1,,,,,,,1,,,,,,,,,
null,,color_black2,687053,,,,,,,,black_plus_sign,,,null,,,,,,,,,,,,,,,,,,,
null,,learn_phase(without_color)2,690557,,,,,,,,black_plus_sign,,,null,object_04a.png,object_15c.png,,,,,,,,,,,,,,,,,
null,,black_cross(without_color)2,691551,,,,,,,,green,,,null,object_04a.png,object_15c.png,,,,,,,,,,,,,,,,,
461.2999999821186,,rt_plussign_withcolor2,692053,,,,,,,,green,,,50,object_04a.png,object_15c.png,,,,,,,,,,,,,,,,,
null,,rt_thecrossant_black2,693069,,,,,,,,black_plus_sign,,,null,,,1,,,,,,,1,,,,,,,,,
null,,color_black2,693174,,,,,,,,black_plus_sign,,,null,,,,,,,,,,,,,,,,,,,
null,,learn_phase(without_color)2,696678,,,,,,,,black_plus_sign,,,null,object_11a.png,object_10a.png,,,,,,,,,,,,,,,,,
null,,black_cross(without_color)2,697092,,,,,,,,blue,,,null,object_11a.png,object_10a.png,,,,,,,,,,,,,,,,,
null,,rt_plussign_withcolor2,697594,,,,,,,,blue,,,null,object_11a.png,object_10a.png,,,,,,,,,,,,,,,,,
1614.5,,rt_thecrossant_black2,699186,,,,,,,,black_plus_sign,,,49,,,1,,,,,,,1,,,,,,,,,
null,,color_black2,699290,,,,,,,,black_plus_sign,,,null,,,,,,,,,,,,,,,,,,,
null,,learn_phase(without_color)2,702796,,,,,,,,black_plus_sign,,,null,object_08c.png,object_14a.png,,,,,,,,,,,,,,,,,
null,,black_cross(without_color)2,703293,,,,,,,,blue,,,null,object_08c.png,object_14a.png,,,,,,,,,,,,,,,,,
null,,rt_plussign_withcolor2,703795,,,,,,,,blue,,,null,object_08c.png,object_14a.png,,,,,,,,,,,,,,,,,
928.0999999940395,,rt_thecrossant_black2,705306,,,,,,,,black_plus_sign,,,49,,,1,,,,,,,1,,,,,,,,,
null,,color_black2,705408,,,,,,,,black_plus_sign,,,null,,,,,,,,,,,,,,,,,,,
null,,learn_phase(without_color)2,708913,,,,,,,,black_plus_sign,,,null,object_02a.png,object_13a.png,,,,,,,,,,,,,,,,,
null,,black_cross(without_color)2,709374,,,,,,,,blue,,,null,object_02a.png,object_13a.png,,,,,,,,,,,,,,,,,
null,,rt_plussign_withcolor2,709876,,,,,,,,blue,,,null,object_02a.png,object_13a.png,,,,,,,,,,,,,,,,,
750.3000000119209,,rt_thecrossant_black2,711421,,,,,,,,black_plus_sign,,,49,,,1,,,,,,,1,,,,,,,,,
null,,color_black2,711525,,,,,,,,black_plus_sign,,,null,,,,,,,,,,,,,,,,,,,
null,,learn_phase(without_color)2,715029,,,,,,,,black_plus_sign,,,null,object_02b.png,object_05a.png,,,,,,,,,,,,,,,,,
null,,black_cross(without_color)2,715622,,,,,,,,blue,,,null,object_02b.png,object_05a.png,,,,,,,,,,,,,,,,,
null,,rt_plussign_withcolor2,716124,,,,,,,,blue,,,null,object_02b.png,object_05a.png,,,,,,,,,,,,,,,,,
712.2000000178814,,rt_thecrossant_black2,717538,,,,,,,,black_plus_sign,,,49,,,1,,,,,,,1,,,,,,,,,
null,,color_black2,717642,,,,,,,,black_plus_sign,,,null,,,,,,,,,,,,,,,,,,,
null,,learn_phase(without_color)2,721145,,,,,,,,black_plus_sign,,,null,object_13b.png,object_09c.png,,,,,,,,,,,,,,,,,
null,,black_cross(without_color)2,722137,,,,,,,,green,,,null,object_13b.png,object_09c.png,,,,,,,,,,,,,,,,,
null,,rt_plussign_withcolor2,722638,,,,,,,,green,,,null,object_13b.png,object_09c.png,,,,,,,,,,,,,,,,,
932,,rt_thecrossant_black2,723653,,,,,,,,black_plus_sign,,,50,,,1,,,,,,,1,,,,,,,,,
null,,color_black2,723756,,,,,,,,black_plus_sign,,,null,,,,,,,,,,,,,,,,,,,
null,,learn_phase(without_color)2,727260,,,,,,,,black_plus_sign,,,null,object_07c.png,object_08a.png,,,,,,,,,,,,,,,,,
null,,black_cross(without_color)2,728159,,,,,,,,green,,,null,object_07c.png,object_08a.png,,,,,,,,,,,,,,,,,
null,,rt_plussign_withcolor2,728661,,,,,,,,green,,,null,object_07c.png,object_08a.png,,,,,,,,,,,,,,,,,
2060.899999976158,,rt_thecrossant_black2,729769,,,,,,,,black_plus_sign,,,50,,,1,,,,,,,1,,,,,,,,,
null,,color_black2,729875,,,,,,,,black_plus_sign,,,null,,,,,,,,,,,,,,,,,,,
null,,learn_phase(without_color)2,733379,,,,,,,,black_plus_sign,,,null,object_06c.png,object_10b.png,,,,,,,,,,,,,,,,,
null,,black_cross(without_color)2,734359,,,,,,,,green,,,null,object_06c.png,object_10b.png,,,,,,,,,,,,,,,,,
null,,rt_plussign_withcolor2,734860,,,,,,,,green,,,null,object_06c.png,object_10b.png,,,,,,,,,,,,,,,,,
1115.5999999940395,,rt_thecrossant_black2,735888,,,,,,,,black_plus_sign,,,50,,,1,,,,,,,1,,,,,,,,,
null,,color_black2,735991,,,,,,,,black_plus_sign,,,null,,,,,,,,,,,,,,,,,,,
null,,thebreak,736095,,,,,,,,<p></p>,,,null,,,,,,,,,,,,,,,,,,,
6551.200000017881,,intro_0,742648,,,,,,,,instruct,,,32,,,,,,,,,,,,,,,,,,,
7157.9000000059605,,directmemory_phase2,749808,,,,,,,,object_12c.png,,,50,,,1,,object_13c.png,object_04c.png,object_09b.png,object_04c.png,,0.875,1,,,,,,,,
0.5999999940395355,,directmemory_phase2,749813,,,,,,,,object_14a.png,,,51,,,1,,object_04a.png,object_02b.png,object_08c.png,object_08c.png,,0.8823529411764706,1,,,,,,,,
6683.4000000059605,,directmemory_phase2,756499,,,,,,,,object_08a.png,,,51,,,0,,object_05b.png,object_07c.png,object_01c.png,object_07c.png,,0.8333333333333334,0,,,,,,,,
4589.4000000059605,,directmemory_phase2,761095,,,,,,,,object_02c.png,,,49,,,1,,object_06b.png,object_02a.png,object_02b.png,object_06b.png,,0.8421052631578947,1,,,,,,,,
5354.5999999940395,,directmemory_phase2,766454,,,,,,,,object_05a.png,,,50,,,1,,object_09b.png,object_02b.png,object_13c.png,object_02b.png,,0.85,1,,,,,,,,
5818.200000017881,,directmemory_phase2,772276,,,,,,,,object_10a.png,,,49,,,1,,object_11a.png,object_06c.png,object_05b.png,object_11a.png,,0.8571428571428571,1,,,,,,,,
4208.300000011921,,directmemory_phase2,776488,,,,,,,,object_09c.png,,,50,,,1,,object_11a.png,object_13b.png,object_08c.png,object_13b.png,,0.8636363636363636,1,,,,,,,,
10902.699999988079,,directmemory_phase2,787395,,,,,,,,object_07b.png,,,50,,,1,,object_09b.png,object_13c.png,object_13b.png,object_13c.png,,0.8695652173913043,1,,,,,,,,
2070.699999988079,,directmemory_phase2,789469,,,,,,,,object_04b.png,,,49,,,1,,object_15a.png,object_13b.png,object_08c.png,object_15a.png,,0.875,1,,,,,,,,
8045.800000011921,,directmemory_phase2,797519,,,,,,,,object_10b.png,,,51,,,0,,object_06c.png,object_05b.png,object_02a.png,object_06c.png,,0.84,0,,,,,,,,
4340.5,,directmemory_phase2,801864,,,,,,,,object_13a.png,,,50,,,1,,object_11a.png,object_02a.png,object_08c.png,object_02a.png,,0.8461538461538461,1,,,,,,,,
11262.700000017881,,directmemory_phase2,813132,,,,,,,,object_10c.png,,,49,,,1,,object_01c.png,object_06c.png,object_09b.png,object_01c.png,,0.8518518518518519,1,,,,,,,,
9281.59999999404,,directmemory_phase2,822418,,,,,,,,object_15c.png,,,51,,,1,,object_15a.png,object_02a.png,object_04a.png,object_04a.png,,0.8571428571428571,1,,,,,,,,
5333,,directmemory_phase2,827755,,,,,,,,object_11c.png,,,51,,,0,,object_05b.png,object_02b.png,object_13c.png,object_05b.png,,0.8275862068965517,0,,,,,,,,
10129.699999988079,,directmemory_phase2,837891,,,,,,,,object_05c.png,,,51,,,1,,object_02a.png,object_13b.png,object_09b.png,object_09b.png,,0.8333333333333334,1,,,,,,,,
null,,thebreak,837995,,,,,,,,<p></p>,,,null,,,,,,,,,,,,,,,,,,,
7629.5999999940395,,intro_0,845627,,,,,,,,instruct,,,32,,,,,,,,,,,,,,,,,,,
null,,learn_phase(without_color)3,849130,,,,,,,,black_plus_sign,,,null,object_13c.png,object_07b.png,,,,,,,,,,,,,,,,,
null,,black_cross(without_color)3,849671,,,,,,,,green,,,null,object_13c.png,object_07b.png,,,,,,,,,,,,,,,,,
null,,rt_plussign_withcolor3,850174,,,,,,,,green,,,null,object_13c.png,object_07b.png,,,,,,,,,,,,,,,,,
818.5999999940395,,rt_thecrossant_black3,851639,,,,,,,,black_plus_sign,,,50,,,1,,,,,,,1,,,,,,,,,
null,,color_black3,851743,,,,,,,,black_plus_sign,,,null,,,,,,,,,,,,,,,,,,,
null,,learn_phase(without_color)3,855247,,,,,,,,black_plus_sign,,,null,object_11a.png,object_10a.png,,,,,,,,,,,,,,,,,
null,,black_cross(without_color)3,855743,,,,,,,,green,,,null,object_11a.png,object_10a.png,,,,,,,,,,,,,,,,,
null,,rt_plussign_withcolor3,856245,,,,,,,,green,,,null,object_11a.png,object_10a.png,,,,,,,,,,,,,,,,,
751.3000000119209,,rt_thecrossant_black3,857756,,,,,,,,black_plus_sign,,,50,,,1,,,,,,,1,,,,,,,,,
null,,color_black3,857859,,,,,,,,black_plus_sign,,,null,,,,,,,,,,,,,,,,,,,
null,,learn_phase(without_color)3,861364,,,,,,,,black_plus_sign,,,null,object_04a.png,object_15c.png,,,,,,,,,,,,,,,,,
null,,black_cross(without_color)3,862035,,,,,,,,green,,,null,object_04a.png,object_15c.png,,,,,,,,,,,,,,,,,
479.7999999821186,,rt_plussign_withcolor3,862537,,,,,,,,green,,,50,object_04a.png,object_15c.png,,,,,,,,,,,,,,,,,
null,,rt_thecrossant_black3,863873,,,,,,,,black_plus_sign,,,null,,,1,,,,,,,1,,,,,,,,,
null,,color_black3,863977,,,,,,,,black_plus_sign,,,null,,,,,,,,,,,,,,,,,,,
null,,learn_phase(without_color)3,867481,,,,,,,,black_plus_sign,,,null,object_15a.png,object_04b.png,,,,,,,,,,,,,,,,,
null,,black_cross(without_color)3,867992,,,,,,,,blue,,,null,object_15a.png,object_04b.png,,,,,,,,,,,,,,,,,
475.5,,rt_plussign_withcolor3,868496,,,,,,,,blue,,,49,object_15a.png,object_04b.png,,,,,,,,,,,,,,,,,
null,,rt_thecrossant_black3,869990,,,,,,,,black_plus_sign,,,null,,,1,,,,,,,1,,,,,,,,,
null,,color_black3,870094,,,,,,,,black_plus_sign,,,null,,,,,,,,,,,,,,,,,,,
null,,learn_phase(without_color)3,873599,,,,,,,,black_plus_sign,,,null,object_01c.png,object_10c.png,,,,,,,,,,,,,,,,,
null,,black_cross(without_color)3,874261,,,,,,,,green,,,null,object_01c.png,object_10c.png,,,,,,,,,,,,,,,,,
null,,rt_plussign_withcolor3,874763,,,,,,,,green,,,null,object_01c.png,object_10c.png,,,,,,,,,,,,,,,,,
893.4000000059605,,rt_thecrossant_black3,876106,,,,,,,,black_plus_sign,,,50,,,1,,,,,,,1,,,,,,,,,
null,,color_black3,876209,,,,,,,,black_plus_sign,,,null,,,,,,,,,,,,,,,,,,,
null,,learn_phase(without_color)3,879713,,,,,,,,black_plus_sign,,,null,object_13b.png,object_09c.png,,,,,,,,,,,,,,,,,
null,,black_cross(without_color)3,880179,,,,,,,,green,,,null,object_13b.png,object_09c.png,,,,,,,,,,,,,,,,,
null,,rt_plussign_withcolor3,880695,,,,,,,,green,,,null,object_13b.png,object_09c.png,,,,,,,,,,,,,,,,,
1004.9000000059605,,rt_thecrossant_black3,882237,,,,,,,,black_plus_sign,,,50,,,1,,,,,,,1,,,,,,,,,
null,,color_black3,882341,,,,,,,,black_plus_sign,,,null,,,,,,,,,,,,,,,,,,,
null,,learn_phase(without_color)3,885845,,,,,,,,black_plus_sign,,,null,object_04c.png,object_12c.png,,,,,,,,,,,,,,,,,
null,,black_cross(without_color)3,886730,,,,,,,,green,,,null,object_04c.png,object_12c.png,,,,,,,,,,,,,,,,,
null,,rt_plussign_withcolor3,887232,,,,,,,,green,,,null,object_04c.png,object_12c.png,,,,,,,,,,,,,,,,,
670.3000000119209,,rt_thecrossant_black3,888357,,,,,,,,black_plus_sign,,,50,,,1,,,,,,,1,,,,,,,,,
null,,color_black3,888460,,,,,,,,black_plus_sign,,,null,,,,,,,,,,,,,,,,,,,
null,,learn_phase(without_color)3,891964,,,,,,,,black_plus_sign,,,null,object_05b.png,object_11c.png,,,,,,,,,,,,,,,,,
null,,black_cross(without_color)3,892524,,,,,,,,green,,,null,object_05b.png,object_11c.png,,,,,,,,,,,,,,,,,
null,,rt_plussign_withcolor3,893026,,,,,,,,green,,,null,object_05b.png,object_11c.png,,,,,,,,,,,,,,,,,
1180.6000000238419,,rt_thecrossant_black3,894474,,,,,,,,black_plus_sign,,,50,,,1,,,,,,,1,,,,,,,,,
null,,color_black3,894577,,,,,,,,black_plus_sign,,,null,,,,,,,,,,,,,,,,,,,
null,,learn_phase(without_color)3,898081,,,,,,,,black_plus_sign,,,null,object_09b.png,object_05c.png,,,,,,,,,,,,,,,,,
null,,black_cross(without_color)3,898728,,,,,,,,green,,,null,object_09b.png,object_05c.png,,,,,,,,,,,,,,,,,
null,,rt_plussign_withcolor3,899230,,,,,,,,green,,,null,object_09b.png,object_05c.png,,,,,,,,,,,,,,,,,
963.0999999940395,,rt_thecrossant_black3,900590,,,,,,,,black_plus_sign,,,50,,,1,,,,,,,1,,,,,,,,,
null,,color_black3,900692,,,,,,,,black_plus_sign,,,null,,,,,,,,,,,,,,,,,,,
null,,learn_phase(without_color)3,904196,,,,,,,,black_plus_sign,,,null,object_06b.png,object_02c.png,,,,,,,,,,,,,,,,,
null,,black_cross(without_color)3,905202,,,,,,,,blue,,,null,object_06b.png,object_02c.png,,,,,,,,,,,,,,,,,
429.09999999403954,,rt_plussign_withcolor3,905704,,,,,,,,blue,,,49,object_06b.png,object_02c.png,,,,,,,,,,,,,,,,,
null,,rt_thecrossant_black3,906705,,,,,,,,black_plus_sign,,,null,,,1,,,,,,,1,,,,,,,,,
null,,color_black3,906808,,,,,,,,black_plus_sign,,,null,,,,,,,,,,,,,,,,,,,
null,,learn_phase(without_color)3,910313,,,,,,,,black_plus_sign,,,null,object_06c.png,object_10b.png,,,,,,,,,,,,,,,,,
null,,black_cross(without_color)3,910936,,,,,,,,blue,,,null,object_06c.png,object_10b.png,,,,,,,,,,,,,,,,,
null,,rt_plussign_withcolor3,911438,,,,,,,,blue,,,null,object_06c.png,object_10b.png,,,,,,,,,,,,,,,,,
1585.2999999821186,,rt_thecrossant_black3,912821,,,,,,,,black_plus_sign,,,49,,,1,,,,,,,1,,,,,,,,,
null,,color_black3,912925,,,,,,,,black_plus_sign,,,null,,,,,,,,,,,,,,,,,,,
null,,learn_phase(without_color)3,916429,,,,,,,,black_plus_sign,,,null,object_02b.png,object_05a.png,,,,,,,,,,,,,,,,,
null,,black_cross(without_color)3,916882,,,,,,,,blue,,,null,object_02b.png,object_05a.png,,,,,,,,,,,,,,,,,
null,,rt_plussign_withcolor3,917384,,,,,,,,blue,,,null,object_02b.png,object_05a.png,,,,,,,,,,,,,,,,,
1067.9000000059605,,rt_thecrossant_black3,918939,,,,,,,,black_plus_sign,,,49,,,1,,,,,,,1,,,,,,,,,
null,,color_black3,919042,,,,,,,,black_plus_sign,,,null,,,,,,,,,,,,,,,,,,,
null,,learn_phase(without_color)3,922546,,,,,,,,black_plus_sign,,,null,object_02a.png,object_13a.png,,,,,,,,,,,,,,,,,
null,,black_cross(without_color)3,923026,,,,,,,,green,,,null,object_02a.png,object_13a.png,,,,,,,,,,,,,,,,,
null,,rt_plussign_withcolor3,923528,,,,,,,,green,,,null,object_02a.png,object_13a.png,,,,,,,,,,,,,,,,,
1133.5,,rt_thecrossant_black3,925054,,,,,,,,black_plus_sign,,,50,,,1,,,,,,,1,,,,,,,,,
null,,color_black3,925158,,,,,,,,black_plus_sign,,,null,,,,,,,,,,,,,,,,,,,
null,,learn_phase(without_color)3,928662,,,,,,,,black_plus_sign,,,null,object_08c.png,object_14a.png,,,,,,,,,,,,,,,,,
null,,black_cross(without_color)3,929255,,,,,,,,blue,,,null,object_08c.png,object_14a.png,,,,,,,,,,,,,,,,,
null,,rt_plussign_withcolor3,929757,,,,,,,,blue,,,null,object_08c.png,object_14a.png,,,,,,,,,,,,,,,,,
915.3999999761581,,rt_thecrossant_black3,931171,,,,,,,,black_plus_sign,,,49,,,1,,,,,,,1,,,,,,,,,
null,,color_black3,931274,,,,,,,,black_plus_sign,,,null,,,,,,,,,,,,,,,,,,,
null,,learn_phase(without_color)3,934780,,,,,,,,black_plus_sign,,,null,object_07c.png,object_08a.png,,,,,,,,,,,,,,,,,
null,,black_cross(without_color)3,935436,,,,,,,,green,,,null,object_07c.png,object_08a.png,,,,,,,,,,,,,,,,,
null,,rt_plussign_withcolor3,935939,,,,,,,,green,,,null,object_07c.png,object_08a.png,,,,,,,,,,,,,,,,,
1416.5,,rt_thecrossant_black3,937288,,,,,,,,black_plus_sign,,,50,,,1,,,,,,,1,,,,,,,,,
null,,color_black3,937391,,,,,,,,black_plus_sign,,,null,,,,,,,,,,,,,,,,,,,
null,,thebreak,937495,,,,,,,,<p></p>,,,null,,,,,,,,,,,,,,,,,,,
9268,,intro_0,946765,,,,,,,,instruct,,,32,,,,,,,,,,,,,,,,,,,
8173.5,,directmemory_phase3,954941,,,,,,,,object_15c.png,,,50,,,1,,object_05b.png,object_04a.png,object_06c.png,object_04a.png,,0.8387096774193549,1,,,,,,,,
4843,,directmemory_phase3,959790,,,,,,,,object_10a.png,,,50,,,1,,object_08c.png,object_11a.png,object_02b.png,object_11a.png,,0.84375,1,,,,,,,,
7512.300000011921,,directmemory_phase3,967306,,,,,,,,object_05c.png,,,51,,,0,,object_09b.png,object_13c.png,object_08c.png,object_09b.png,,0.8181818181818182,0,,,,,,,,
3328.300000011921,,directmemory_phase3,970638,,,,,,,,object_09c.png,,,49,,,1,,object_13b.png,object_05b.png,object_06b.png,object_13b.png,,0.8235294117647058,1,,,,,,,,
8512.90000000596,,directmemory_phase3,979155,,,,,,,,object_07b.png,,,51,,,1,,object_13b.png,object_09b.png,object_13c.png,object_13c.png,,0.8285714285714286,1,,,,,,,,
5696.799999982119,,directmemory_phase3,984856,,,,,,,,object_11c.png,,,49,,,1,,object_05b.png,object_02b.png,object_15a.png,object_05b.png,,0.8333333333333334,1,,,,,,,,
6487.5,,directmemory_phase3,991349,,,,,,,,object_14a.png,,,51,,,1,,object_07c.png,object_02a.png,object_08c.png,object_08c.png,,0.8378378378378378,1,,,,,,,,
7692.799999982119,,directmemory_phase3,999046,,,,,,,,object_10c.png,,,51,,,1,,object_07c.png,object_02a.png,object_01c.png,object_01c.png,,0.8421052631578947,1,,,,,,,,
7114.799999982119,,directmemory_phase3,1006166,,,,,,,,object_12c.png,,,50,,,1,,object_06c.png,object_04c.png,object_05b.png,object_04c.png,,0.8461538461538461,1,,,,,,,,
5655.700000017881,,directmemory_phase3,1011827,,,,,,,,object_10b.png,,,51,,,1,,object_05b.png,object_13b.png,object_06c.png,object_06c.png,,0.85,1,,,,,,,,
7753.5,,directmemory_phase3,1019585,,,,,,,,object_04b.png,,,50,,,1,,object_08c.png,object_15a.png,object_07c.png,object_15a.png,,0.8536585365853658,1,,,,,,,,
7692.0999999940395,,directmemory_phase3,1027282,,,,,,,,object_08a.png,,,49,,,1,,object_07c.png,object_09b.png,object_01c.png,object_07c.png,,0.8571428571428571,1,,,,,,,,
5636.399999976158,,directmemory_phase3,1032922,,,,,,,,object_13a.png,,,51,,,1,,object_11a.png,object_08c.png,object_02a.png,object_02a.png,,0.8604651162790697,1,,,,,,,,
3498.7999999821186,,directmemory_phase3,1036426,,,,,,,,object_05a.png,,,49,,,1,,object_02b.png,object_13c.png,object_15a.png,object_02b.png,,0.8636363636363636,1,,,,,,,,
3529.300000011921,,directmemory_phase3,1039960,,,,,,,,object_02c.png,,,49,,,1,,object_06b.png,object_11a.png,object_08c.png,object_06b.png,,0.8666666666666667,1,,,,,,,,
null,,thebreak,1040063,,,,,,,,<p></p>,,,null,,,,,,,,,,,,,,,,,,,
7410.5,,intro_0,1047476,,,,,,,,instruct,,,32,,,,,,,,,,,,,,,,,,,
null,,learn_phase(without_color)4,1050979,,,,,,,,black_plus_sign,,,null,object_11a.png,object_10a.png,,,,,,,,,,,,,,,,,
null,,black_cross(without_color)4,1051818,,,,,,,,blue,,,null,object_11a.png,object_10a.png,,,,,,,,,,,,,,,,,
null,,rt_plussign_withcolor4,1052320,,,,,,,,blue,,,null,object_11a.png,object_10a.png,,,,,,,,,,,,,,,,,
991.1000000238419,,rt_thecrossant_black4,1053488,,,,,,,,black_plus_sign,,,49,,,1,,,,,,,1,,,,,,,,,
null,,color_black4,1053591,,,,,,,,black_plus_sign,,,null,,,,,,,,,,,,,,,,,,,
null,,learn_phase(without_color)4,1057096,,,,,,,,black_plus_sign,,,null,object_02a.png,object_13a.png,,,,,,,,,,,,,,,,,
null,,black_cross(without_color)4,1057964,,,,,,,,blue,,,null,object_02a.png,object_13a.png,,,,,,,,,,,,,,,,,
null,,rt_plussign_withcolor4,1058466,,,,,,,,blue,,,null,object_02a.png,object_13a.png,,,,,,,,,,,,,,,,,
1327.5,,rt_thecrossant_black4,1059605,,,,,,,,black_plus_sign,,,49,,,1,,,,,,,1,,,,,,,,,
null,,color_black4,1059708,,,,,,,,black_plus_sign,,,null,,,,,,,,,,,,,,,,,,,
null,,learn_phase(without_color)4,1063212,,,,,,,,black_plus_sign,,,null,object_15a.png,object_04b.png,,,,,,,,,,,,,,,,,
null,,black_cross(without_color)4,1064137,,,,,,,,green,,,null,object_15a.png,object_04b.png,,,,,,,,,,,,,,,,,
464.5,,rt_plussign_withcolor4,1064640,,,,,,,,green,,,50,object_15a.png,object_04b.png,,,,,,,,,,,,,,,,,
null,,rt_thecrossant_black4,1065720,,,,,,,,black_plus_sign,,,null,,,1,,,,,,,1,,,,,,,,,
null,,color_black4,1065832,,,,,,,,black_plus_sign,,,null,,,,,,,,,,,,,,,,,,,
null,,learn_phase(without_color)4,1069338,,,,,,,,black_plus_sign,,,null,object_06c.png,object_10b.png,,,,,,,,,,,,,,,,,
null,,black_cross(without_color)4,1069802,,,,,,,,green,,,null,object_06c.png,object_10b.png,,,,,,,,,,,,,,,,,
null,,rt_plussign_withcolor4,1070305,,,,,,,,green,,,null,object_06c.png,object_10b.png,,,,,,,,,,,,,,,,,
1131.5,,rt_thecrossant_black4,1071856,,,,,,,,black_plus_sign,,,50,,,1,,,,,,,1,,,,,,,,,
null,,color_black4,1071959,,,,,,,,black_plus_sign,,,null,,,,,,,,,,,,,,,,,,,
null,,learn_phase(without_color)4,1075463,,,,,,,,black_plus_sign,,,null,object_04c.png,object_12c.png,,,,,,,,,,,,,,,,,
null,,black_cross(without_color)4,1076100,,,,,,,,blue,,,null,object_04c.png,object_12c.png,,,,,,,,,,,,,,,,,
null,,rt_plussign_withcolor4,1076602,,,,,,,,blue,,,null,object_04c.png,object_12c.png,,,,,,,,,,,,,,,,,
937.7999999821186,,rt_thecrossant_black4,1077971,,,,,,,,black_plus_sign,,,49,,,1,,,,,,,1,,,,,,,,,
null,,color_black4,1078074,,,,,,,,black_plus_sign,,,null,,,,,,,,,,,,,,,,,,,
null,,learn_phase(without_color)4,1081578,,,,,,,,black_plus_sign,,,null,object_04a.png,object_15c.png,,,,,,,,,,,,,,,,,
null,,black_cross(without_color)4,1082526,,,,,,,,blue,,,null,object_04a.png,object_15c.png,,,,,,,,,,,,,,,,,
null,,rt_plussign_withcolor4,1083028,,,,,,,,blue,,,null,object_04a.png,object_15c.png,,,,,,,,,,,,,,,,,
1102.6000000238419,,rt_thecrossant_black4,1084087,,,,,,,,black_plus_sign,,,49,,,1,,,,,,,1,,,,,,,,,
null,,color_black4,1084190,,,,,,,,black_plus_sign,,,null,,,,,,,,,,,,,,,,,,,
null,,learn_phase(without_color)4,1087694,,,,,,,,black_plus_sign,,,null,object_13c.png,object_07b.png,,,,,,,,,,,,,,,,,
null,,black_cross(without_color)4,1088127,,,,,,,,green,,,null,object_13c.png,object_07b.png,,,,,,,,,,,,,,,,,
null,,rt_plussign_withcolor4,1088630,,,,,,,,green,,,null,object_13c.png,object_07b.png,,,,,,,,,,,,,,,,,
1535.2000000178814,,rt_thecrossant_black4,1090203,,,,,,,,black_plus_sign,,,50,,,1,,,,,,,1,,,,,,,,,
null,,color_black4,1090306,,,,,,,,black_plus_sign,,,null,,,,,,,,,,,,,,,,,,,
null,,learn_phase(without_color)4,1093810,,,,,,,,black_plus_sign,,,null,object_07c.png,object_08a.png,,,,,,,,,,,,,,,,,
null,,black_cross(without_color)4,1094462,,,,,,,,blue,,,null,object_07c.png,object_08a.png,,,,,,,,,,,,,,,,,
483.40000000596046,,rt_plussign_withcolor4,1094964,,,,,,,,blue,,,49,object_07c.png,object_08a.png,,,,,,,,,,,,,,,,,
null,,rt_thecrossant_black4,1096319,,,,,,,,black_plus_sign,,,null,,,1,,,,,,,1,,,,,,,,,
null,,color_black4,1096422,,,,,,,,black_plus_sign,,,null,,,,,,,,,,,,,,,,,,,
null,,learn_phase(without_color)4,1099925,,,,,,,,black_plus_sign,,,null,object_01c.png,object_10c.png,,,,,,,,,,,,,,,,,
null,,black_cross(without_color)4,1100505,,,,,,,,blue,,,null,object_01c.png,object_10c.png,,,,,,,,,,,,,,,,,
null,,rt_plussign_withcolor4,1101009,,,,,,,,blue,,,null,object_01c.png,object_10c.png,,,,,,,,,,,,,,,,,
1502.2000000178814,,rt_thecrossant_black4,1102443,,,,,,,,black_plus_sign,,,49,,,1,,,,,,,1,,,,,,,,,
null,,color_black4,1102546,,,,,,,,black_plus_sign,,,null,,,,,,,,,,,,,,,,,,,
null,,learn_phase(without_color)4,1106050,,,,,,,,black_plus_sign,,,null,object_09b.png,object_05c.png,,,,,,,,,,,,,,,,,
null,,black_cross(without_color)4,1106636,,,,,,,,blue,,,null,object_09b.png,object_05c.png,,,,,,,,,,,,,,,,,
null,,rt_plussign_withcolor4,1107138,,,,,,,,blue,,,null,object_09b.png,object_05c.png,,,,,,,,,,,,,,,,,
998.5,,rt_thecrossant_black4,1108559,,,,,,,,black_plus_sign,,,49,,,1,,,,,,,1,,,,,,,,,
null,,color_black4,1108664,,,,,,,,black_plus_sign,,,null,,,,,,,,,,,,,,,,,,,
null,,learn_phase(without_color)4,1112168,,,,,,,,black_plus_sign,,,null,object_08c.png,object_14a.png,,,,,,,,,,,,,,,,,
null,,black_cross(without_color)4,1112700,,,,,,,,green,,,null,object_08c.png,object_14a.png,,,,,,,,,,,,,,,,,
476.40000000596046,,rt_plussign_withcolor4,1113202,,,,,,,,green,,,50,object_08c.png,object_14a.png,,,,,,,,,,,,,,,,,
null,,rt_thecrossant_black4,1114677,,,,,,,,black_plus_sign,,,null,,,1,,,,,,,1,,,,,,,,,
null,,color_black4,1114781,,,,,,,,black_plus_sign,,,null,,,,,,,,,,,,,,,,,,,
null,,learn_phase(without_color)4,1118286,,,,,,,,black_plus_sign,,,null,object_13b.png,object_09c.png,,,,,,,,,,,,,,,,,
null,,black_cross(without_color)4,1119051,,,,,,,,blue,,,null,object_13b.png,object_09c.png,,,,,,,,,,,,,,,,,
null,,rt_plussign_withcolor4,1119553,,,,,,,,blue,,,null,object_13b.png,object_09c.png,,,,,,,,,,,,,,,,,
912.9000000059605,,rt_thecrossant_black4,1120795,,,,,,,,black_plus_sign,,,49,,,1,,,,,,,1,,,,,,,,,
null,,color_black4,1120899,,,,,,,,black_plus_sign,,,null,,,,,,,,,,,,,,,,,,,
null,,learn_phase(without_color)4,1124404,,,,,,,,black_plus_sign,,,null,object_06b.png,object_02c.png,,,,,,,,,,,,,,,,,
null,,black_cross(without_color)4,1125273,,,,,,,,blue,,,null,object_06b.png,object_02c.png,,,,,,,,,,,,,,,,,
null,,rt_plussign_withcolor4,1125775,,,,,,,,blue,,,null,object_06b.png,object_02c.png,,,,,,,,,,,,,,,,,
1174.199999988079,,rt_thecrossant_black4,1126913,,,,,,,,black_plus_sign,,,49,,,1,,,,,,,1,,,,,,,,,
null,,color_black4,1127017,,,,,,,,black_plus_sign,,,null,,,,,,,,,,,,,,,,,,,
null,,learn_phase(without_color)4,1130522,,,,,,,,black_plus_sign,,,null,object_05b.png,object_11c.png,,,,,,,,,,,,,,,,,
null,,black_cross(without_color)4,1131478,,,,,,,,blue,,,null,object_05b.png,object_11c.png,,,,,,,,,,,,,,,,,
null,,rt_plussign_withcolor4,1131981,,,,,,,,blue,,,null,object_05b.png,object_11c.png,,,,,,,,,,,,,,,,,
1050,,rt_thecrossant_black4,1133031,,,,,,,,black_plus_sign,,,49,,,1,,,,,,,1,,,,,,,,,
null,,color_black4,1133134,,,,,,,,black_plus_sign,,,null,,,,,,,,,,,,,,,,,,,
null,,learn_phase(without_color)4,1136638,,,,,,,,black_plus_sign,,,null,object_02b.png,object_05a.png,,,,,,,,,,,,,,,,,
null,,black_cross(without_color)4,1137207,,,,,,,,green,,,null,object_02b.png,object_05a.png,,,,,,,,,,,,,,,,,
null,,rt_plussign_withcolor4,1137710,,,,,,,,green,,,null,object_02b.png,object_05a.png,,,,,,,,,,,,,,,,,
1272.199999988079,,rt_thecrossant_black4,1139147,,,,,,,,black_plus_sign,,,50,,,1,,,,,,,1,,,,,,,,,
null,,color_black4,1139250,,,,,,,,black_plus_sign,,,null,,,,,,,,,,,,,,,,,,,
null,,thebreak,1139355,,,,,,,,<p></p>,,,null,,,,,,,,,,,,,,,,,,,
5280.4000000059605,,intro_0,1144638,,,,,,,,instruct,,,32,,,,,,,,,,,,,,,,,,,
8009.800000011921,,directmemory_phase4,1152650,,,,,,,,object_10b.png,,,49,,,1,,object_06c.png,object_07c.png,object_09b.png,object_06c.png,,0.8695652173913043,1,,,,,,,,
9201.399999976158,,directmemory_phase4,1161856,,,,,,,,object_05a.png,,,49,,,1,,object_02b.png,object_02a.png,object_13b.png,object_02b.png,,0.8723404255319149,1,,,,,,,,
2284.300000011921,,directmemory_phase4,1164145,,,,,,,,object_11c.png,,,49,,,1,,object_05b.png,object_06c.png,object_11a.png,object_05b.png,,0.875,1,,,,,,,,
4583.4000000059605,,directmemory_phase4,1168733,,,,,,,,object_14a.png,,,51,,,1,,object_06c.png,object_01c.png,object_08c.png,object_08c.png,,0.8775510204081632,1,,,,,,,,
4643.699999988079,,directmemory_phase4,1173381,,,,,,,,object_07b.png,,,51,,,1,,object_15a.png,object_06c.png,object_13c.png,object_13c.png,,0.88,1,,,,,,,,
2983.7000000178814,,directmemory_phase4,1176370,,,,,,,,object_12c.png,,,49,,,1,,object_04c.png,object_08c.png,object_09b.png,object_04c.png,,0.8823529411764706,1,,,,,,,,
11144.5,,directmemory_phase4,1187519,,,,,,,,object_08a.png,,,50,,,1,,object_08c.png,object_07c.png,object_04a.png,object_07c.png,,0.8846153846153846,1,,,,,,,,
4572,,directmemory_phase4,1192096,,,,,,,,object_13a.png,,,49,,,1,,object_02a.png,object_08c.png,object_06c.png,object_02a.png,,0.8867924528301887,1,,,,,,,,
12600.90000000596,,directmemory_phase4,1204700,,,,,,,,object_10a.png,,,51,,,1,,object_05b.png,object_06c.png,object_11a.png,object_11a.png,,0.8888888888888888,1,,,,,,,,
7645.299999982119,,directmemory_phase4,1212348,,,,,,,,object_02c.png,,,49,,,1,,object_06b.png,object_02b.png,object_04a.png,object_06b.png,,0.8909090909090909,1,,,,,,,,
6674,,directmemory_phase4,1219027,,,,,,,,object_09c.png,,,50,,,1,,object_02a.png,object_13b.png,object_11a.png,object_13b.png,,0.8928571428571429,1,,,,,,,,
3113.5999999940395,,directmemory_phase4,1222144,,,,,,,,object_05c.png,,,49,,,1,,object_09b.png,object_11a.png,object_06c.png,object_09b.png,,0.8947368421052632,1,,,,,,,,
4272.799999982119,,directmemory_phase4,1226420,,,,,,,,object_15c.png,,,51,,,1,,object_06b.png,object_08c.png,object_04a.png,object_04a.png,,0.896551724137931,1,,,,,,,,
10842.799999982119,,directmemory_phase4,1237266,,,,,,,,object_10c.png,,,51,,,1,,object_02b.png,object_13c.png,object_01c.png,object_01c.png,,0.8983050847457628,1,,,,,,,,
1484.5,,directmemory_phase4,1238755,,,,,,,,object_04b.png,,,51,,,1,,object_06b.png,object_13b.png,object_15a.png,object_15a.png,,0.9,1,,,,,,,,
null,,thebreak,1238860,,,,,,,,<p></p>,,,null,,,,,,,,,,,,,,,,,,,
7551.4000000059605,,intro_0,1246413,,,,,,,,instruct,,,32,,,,,,,,,,,,,,,,,,,
null,,learn_phase(without_color)5,1249916,,,,,,,,black_plus_sign,,,null,object_14a.png,object_01b.png,,,,,,,,,,,,,,,,,
null,,black_cross(without_color)5,1250505,,,,,,,,green,,,null,object_14a.png,object_01b.png,,,,,,,,,,,,,,,,,
null,,rt_plussign_withcolor5,1251007,,,,,,,,green,,,null,object_14a.png,object_01b.png,,,,,,,,,,,,,,,,,
815.8000000119209,,rt_thecrossant_black5,1252425,,,,,,,,black_plus_sign,,,50,,,1,,,,,,,1,,,,,,,,,
null,,color_black5,1252529,,,,,,,,black_plus_sign,,,null,,,,,,,,,,,,,,,,,,,
null,,learn_phase(without_color)5,1256034,,,,,,,,black_plus_sign,,,null,object_09c.png,object_06a.png,,,,,,,,,,,,,,,,,
null,,black_cross(without_color)5,1256944,,,,,,,,green,,,null,object_09c.png,object_06a.png,,,,,,,,,,,,,,,,,
null,,rt_plussign_withcolor5,1257447,,,,,,,,green,,,null,object_09c.png,object_06a.png,,,,,,,,,,,,,,,,,
991.5,,rt_thecrossant_black5,1258543,,,,,,,,black_plus_sign,,,50,,,1,,,,,,,1,,,,,,,,,
null,,color_black5,1258647,,,,,,,,black_plus_sign,,,null,,,,,,,,,,,,,,,,,,,
null,,learn_phase(without_color)5,1262152,,,,,,,,black_plus_sign,,,null,object_04b.png,object_03a.png,,,,,,,,,,,,,,,,,
null,,black_cross(without_color)5,1262618,,,,,,,,blue,,,null,object_04b.png,object_03a.png,,,,,,,,,,,,,,,,,
null,,rt_plussign_withcolor5,1263120,,,,,,,,blue,,,null,object_04b.png,object_03a.png,,,,,,,,,,,,,,,,,
1058.699999988079,,rt_thecrossant_black5,1264662,,,,,,,,black_plus_sign,,,49,,,1,,,,,,,1,,,,,,,,,
null,,color_black5,1264765,,,,,,,,black_plus_sign,,,null,,,,,,,,,,,,,,,,,,,
null,,learn_phase(without_color)5,1268270,,,,,,,,black_plus_sign,,,null,object_13a.png,object_03b.png,,,,,,,,,,,,,,,,,
null,,black_cross(without_color)5,1269239,,,,,,,,blue,,,null,object_13a.png,object_03b.png,,,,,,,,,,,,,,,,,
null,,rt_plussign_withcolor5,1269743,,,,,,,,blue,,,null,object_13a.png,object_03b.png,,,,,,,,,,,,,,,,,
905.3000000119209,,rt_thecrossant_black5,1270781,,,,,,,,black_plus_sign,,,49,,,1,,,,,,,1,,,,,,,,,
null,,color_black5,1270885,,,,,,,,black_plus_sign,,,null,,,,,,,,,,,,,,,,,,,
null,,learn_phase(without_color)5,1274390,,,,,,,,black_plus_sign,,,null,object_07b.png,object_12b.png,,,,,,,,,,,,,,,,,
null,,black_cross(without_color)5,1275462,,,,,,,,blue,,,null,object_07b.png,object_12b.png,,,,,,,,,,,,,,,,,
null,,rt_plussign_withcolor5,1275965,,,,,,,,blue,,,null,object_07b.png,object_12b.png,,,,,,,,,,,,,,,,,
1363.4000000059605,,rt_thecrossant_black5,1276900,,,,,,,,black_plus_sign,,,49,,,1,,,,,,,1,,,,,,,,,
null,,color_black5,1277003,,,,,,,,black_plus_sign,,,null,,,,,,,,,,,,,,,,,,,
null,,learn_phase(without_color)5,1280507,,,,,,,,black_plus_sign,,,null,object_10b.png,object_08b.png,,,,,,,,,,,,,,,,,
null,,black_cross(without_color)5,1280982,,,,,,,,green,,,null,object_10b.png,object_08b.png,,,,,,,,,,,,,,,,,
439.09999999403954,,rt_plussign_withcolor5,1281484,,,,,,,,green,,,50,object_10b.png,object_08b.png,,,,,,,,,,,,,,,,,
null,,rt_thecrossant_black5,1283016,,,,,,,,black_plus_sign,,,null,,,1,,,,,,,1,,,,,,,,,
null,,color_black5,1283119,,,,,,,,black_plus_sign,,,null,,,,,,,,,,,,,,,,,,,
null,,learn_phase(without_color)5,1286624,,,,,,,,black_plus_sign,,,null,object_05c.png,object_11b.png,,,,,,,,,,,,,,,,,
null,,black_cross(without_color)5,1287663,,,,,,,,green,,,null,object_05c.png,object_11b.png,,,,,,,,,,,,,,,,,
null,,rt_plussign_withcolor5,1288165,,,,,,,,green,,,null,object_05c.png,object_11b.png,,,,,,,,,,,,,,,,,
727.3999999761581,,rt_thecrossant_black5,1289135,,,,,,,,black_plus_sign,,,50,,,1,,,,,,,1,,,,,,,,,
null,,color_black5,1289238,,,,,,,,black_plus_sign,,,null,,,,,,,,,,,,,,,,,,,
null,,learn_phase(without_color)5,1292744,,,,,,,,black_plus_sign,,,null,object_15c.png,object_01a.png,,,,,,,,,,,,,,,,,
null,,black_cross(without_color)5,1293815,,,,,,,,green,,,null,object_15c.png,object_01a.png,,,,,,,,,,,,,,,,,
null,,rt_plussign_withcolor5,1294317,,,,,,,,green,,,null,object_15c.png,object_01a.png,,,,,,,,,,,,,,,,,
1277.199999988079,,rt_thecrossant_black5,1295254,,,,,,,,black_plus_sign,,,50,,,1,,,,,,,1,,,,,,,,,
null,,color_black5,1295357,,,,,,,,black_plus_sign,,,null,,,,,,,,,,,,,,,,,,,
null,,learn_phase(without_color)5,1298861,,,,,,,,black_plus_sign,,,null,object_11c.png,object_12a.png,,,,,,,,,,,,,,,,,
null,,black_cross(without_color)5,1299310,,,,,,,,green,,,null,object_11c.png,object_12a.png,,,,,,,,,,,,,,,,,
null,,rt_plussign_withcolor5,1299813,,,,,,,,green,,,null,object_11c.png,object_12a.png,,,,,,,,,,,,,,,,,
1418.8999999761581,,rt_thecrossant_black5,1301370,,,,,,,,black_plus_sign,,,50,,,1,,,,,,,1,,,,,,,,,
null,,color_black5,1301473,,,,,,,,black_plus_sign,,,null,,,,,,,,,,,,,,,,,,,
null,,learn_phase(without_color)5,1304978,,,,,,,,black_plus_sign,,,null,object_02c.png,object_14b.png,,,,,,,,,,,,,,,,,
null,,black_cross(without_color)5,1305878,,,,,,,,blue,,,null,object_02c.png,object_14b.png,,,,,,,,,,,,,,,,,
null,,rt_plussign_withcolor5,1306381,,,,,,,,blue,,,null,object_02c.png,object_14b.png,,,,,,,,,,,,,,,,,
649.2999999821186,,rt_thecrossant_black5,1307489,,,,,,,,black_plus_sign,,,49,,,1,,,,,,,1,,,,,,,,,
null,,color_black5,1307593,,,,,,,,black_plus_sign,,,null,,,,,,,,,,,,,,,,,,,
null,,learn_phase(without_color)5,1311098,,,,,,,,black_plus_sign,,,null,object_08a.png,object_14c.png,,,,,,,,,,,,,,,,,
null,,black_cross(without_color)5,1311707,,,,,,,,green,,,null,object_08a.png,object_14c.png,,,,,,,,,,,,,,,,,
null,,rt_plussign_withcolor5,1312210,,,,,,,,green,,,null,object_08a.png,object_14c.png,,,,,,,,,,,,,,,,,
1319,,rt_thecrossant_black5,1313609,,,,,,,,black_plus_sign,,,50,,,1,,,,,,,1,,,,,,,,,
null,,color_black5,1313712,,,,,,,,black_plus_sign,,,null,,,,,,,,,,,,,,,,,,,
null,,learn_phase(without_color)5,1317216,,,,,,,,black_plus_sign,,,null,object_10a.png,object_07a.png,,,,,,,,,,,,,,,,,
null,,black_cross(without_color)5,1317881,,,,,,,,blue,,,null,object_10a.png,object_07a.png,,,,,,,,,,,,,,,,,
null,,rt_plussign_withcolor5,1318384,,,,,,,,blue,,,null,object_10a.png,object_07a.png,,,,,,,,,,,,,,,,,
1176,,rt_thecrossant_black5,1319726,,,,,,,,black_plus_sign,,,49,,,1,,,,,,,1,,,,,,,,,
null,,color_black5,1319829,,,,,,,,black_plus_sign,,,null,,,,,,,,,,,,,,,,,,,
null,,learn_phase(without_color)5,1323334,,,,,,,,black_plus_sign,,,null,object_05a.png,object_15b.png,,,,,,,,,,,,,,,,,
null,,black_cross(without_color)5,1324325,,,,,,,,blue,,,null,object_05a.png,object_15b.png,,,,,,,,,,,,,,,,,
null,,rt_plussign_withcolor5,1324827,,,,,,,,blue,,,null,object_05a.png,object_15b.png,,,,,,,,,,,,,,,,,
845.0999999940395,,rt_thecrossant_black5,1325843,,,,,,,,black_plus_sign,,,49,,,1,,,,,,,1,,,,,,,,,
null,,color_black5,1325946,,,,,,,,black_plus_sign,,,null,,,,,,,,,,,,,,,,,,,
null,,learn_phase(without_color)5,1329451,,,,,,,,black_plus_sign,,,null,object_12c.png,object_09a.png,,,,,,,,,,,,,,,,,
null,,black_cross(without_color)5,1330169,,,,,,,,green,,,null,object_12c.png,object_09a.png,,,,,,,,,,,,,,,,,
null,,rt_plussign_withcolor5,1330671,,,,,,,,green,,,null,object_12c.png,object_09a.png,,,,,,,,,,,,,,,,,
1465.699999988079,,rt_thecrossant_black5,1331959,,,,,,,,black_plus_sign,,,50,,,1,,,,,,,1,,,,,,,,,
null,,color_black5,1332062,,,,,,,,black_plus_sign,,,null,,,,,,,,,,,,,,,,,,,
null,,learn_phase(without_color)5,1335567,,,,,,,,black_plus_sign,,,null,object_10c.png,object_03c.png,,,,,,,,,,,,,,,,,
null,,black_cross(without_color)5,1336087,,,,,,,,green,,,null,object_10c.png,object_03c.png,,,,,,,,,,,,,,,,,
null,,rt_plussign_withcolor5,1336589,,,,,,,,green,,,null,object_10c.png,object_03c.png,,,,,,,,,,,,,,,,,
1077.7999999821186,,rt_thecrossant_black5,1338077,,,,,,,,black_plus_sign,,,50,,,1,,,,,,,1,,,,,,,,,
null,,color_black5,1338180,,,,,,,,black_plus_sign,,,null,,,,,,,,,,,,,,,,,,,
null,,thebreak,1338283,,,,,,,,<p></p>,,,null,,,,,,,,,,,,,,,,,,,
12495.59999999404,,intro_0,1350781,,,,,,,,instruct,,,32,,,,,,,,,,,,,,,,,,,
6395.0999999940395,,directmemory_phase5,1357178,,,,,,,,object_12a.png,,,50,,,1,,object_07b.png,object_11c.png,object_10c.png,object_11c.png,,0.9016393442622951,1,,,,,,,,
7496.300000011921,,directmemory_phase5,1364677,,,,,,,,object_11b.png,,,49,,,1,,object_05c.png,object_02c.png,object_04b.png,object_05c.png,,0.9032258064516129,1,,,,,,,,
8411.699999988079,,directmemory_phase5,1373093,,,,,,,,object_15b.png,,,49,,,1,,object_05a.png,object_11c.png,object_10b.png,object_05a.png,,0.9047619047619048,1,,,,,,,,
5853.800000011921,,directmemory_phase5,1378949,,,,,,,,object_07a.png,,,51,,,1,,object_05c.png,object_15c.png,object_10a.png,object_10a.png,,0.90625,1,,,,,,,,
5837,,directmemory_phase5,1384793,,,,,,,,object_03c.png,,,51,,,1,,object_05a.png,object_08a.png,object_10c.png,object_10c.png,,0.9076923076923077,1,,,,,,,,
7610.4000000059605,,directmemory_phase5,1392408,,,,,,,,object_01a.png,,,49,,,1,,object_15c.png,object_05a.png,object_10a.png,object_15c.png,,0.9090909090909091,1,,,,,,,,
4573.5,,directmemory_phase5,1396986,,,,,,,,object_03b.png,,,50,,,1,,object_14a.png,object_13a.png,object_07b.png,object_13a.png,,0.9104477611940298,1,,,,,,,,
8967.699999988079,,directmemory_phase5,1405960,,,,,,,,object_08b.png,,,49,,,1,,object_10b.png,object_13a.png,object_09c.png,object_10b.png,,0.9117647058823529,1,,,,,,,,
8995.300000011921,,directmemory_phase5,1414962,,,,,,,,object_01b.png,,,50,,,1,,object_13a.png,object_14a.png,object_02c.png,object_14a.png,,0.9130434782608695,1,,,,,,,,
5442.200000017881,,directmemory_phase5,1420410,,,,,,,,object_06a.png,,,49,,,1,,object_09c.png,object_05c.png,object_10b.png,object_09c.png,,0.9142857142857143,1,,,,,,,,
7678.5,,directmemory_phase5,1428093,,,,,,,,object_14c.png,,,51,,,1,,object_05c.png,object_15c.png,object_08a.png,object_08a.png,,0.9154929577464789,1,,,,,,,,
7450.0999999940395,,directmemory_phase5,1435547,,,,,,,,object_03a.png,,,49,,,1,,object_04b.png,object_05c.png,object_05a.png,object_04b.png,,0.9166666666666666,1,,,,,,,,
7550.199999988079,,directmemory_phase5,1443103,,,,,,,,object_12b.png,,,50,,,1,,object_05a.png,object_07b.png,object_09c.png,object_07b.png,,0.9178082191780822,1,,,,,,,,
4219.299999982119,,directmemory_phase5,1447327,,,,,,,,object_14b.png,,,50,,,1,,object_07b.png,object_02c.png,object_14a.png,object_02c.png,,0.918918918918919,1,,,,,,,,
4664,,directmemory_phase5,1451997,,,,,,,,object_09a.png,,,51,,,1,,object_10c.png,object_14a.png,object_12c.png,object_12c.png,,0.92,1,,,,,,,,
null,,thebreak,1452102,,,,,,,,<p></p>,,,null,,,,,,,,,,,,,,,,,,,
9038.90000000596,,intro_0,1461144,,,,,,,,instruct,,,32,,,,,,,,,,,,,,,,,,,
null,,learn_phase(without_color)6,1464646,,,,,,,,black_plus_sign,,,null,object_08a.png,object_14c.png,,,,,,,,,,,,,,,,,
null,,black_cross(without_color)6,1465683,,,,,,,,blue,,,null,object_08a.png,object_14c.png,,,,,,,,,,,,,,,,,
null,,rt_plussign_withcolor6,1466185,,,,,,,,blue,,,null,object_08a.png,object_14c.png,,,,,,,,,,,,,,,,,
1860.5,,rt_thecrossant_black6,1467156,,,,,,,,black_plus_sign,,,49,,,1,,,,,,,1,,,,,,,,,
null,,color_black6,1467260,,,,,,,,black_plus_sign,,,null,,,,,,,,,,,,,,,,,,,
null,,learn_phase(without_color)6,1470765,,,,,,,,black_plus_sign,,,null,object_09c.png,object_06a.png,,,,,,,,,,,,,,,,,
null,,black_cross(without_color)6,1471758,,,,,,,,green,,,null,object_09c.png,object_06a.png,,,,,,,,,,,,,,,,,
null,,rt_plussign_withcolor6,1472260,,,,,,,,green,,,null,object_09c.png,object_06a.png,,,,,,,,,,,,,,,,,
1365.300000011921,,rt_thecrossant_black6,1473274,,,,,,,,black_plus_sign,,,50,,,1,,,,,,,1,,,,,,,,,
null,,color_black6,1473378,,,,,,,,black_plus_sign,,,null,,,,,,,,,,,,,,,,,,,
null,,learn_phase(without_color)6,1476883,,,,,,,,black_plus_sign,,,null,object_14a.png,object_01b.png,,,,,,,,,,,,,,,,,
null,,black_cross(without_color)6,1477555,,,,,,,,blue,,,null,object_14a.png,object_01b.png,,,,,,,,,,,,,,,,,
null,,rt_plussign_withcolor6,1478057,,,,,,,,blue,,,null,object_14a.png,object_01b.png,,,,,,,,,,,,,,,,,
1359.7000000178814,,rt_thecrossant_black6,1479393,,,,,,,,black_plus_sign,,,49,,,1,,,,,,,1,,,,,,,,,
null,,color_black6,1479497,,,,,,,,black_plus_sign,,,null,,,,,,,,,,,,,,,,,,,
null,,learn_phase(without_color)6,1483001,,,,,,,,black_plus_sign,,,null,object_15c.png,object_01a.png,,,,,,,,,,,,,,,,,
null,,black_cross(without_color)6,1483908,,,,,,,,blue,,,null,object_15c.png,object_01a.png,,,,,,,,,,,,,,,,,
null,,rt_plussign_withcolor6,1484410,,,,,,,,blue,,,null,object_15c.png,object_01a.png,,,,,,,,,,,,,,,,,
1066.5999999940395,,rt_thecrossant_black6,1485511,,,,,,,,black_plus_sign,,,49,,,1,,,,,,,1,,,,,,,,,
null,,color_black6,1485615,,,,,,,,black_plus_sign,,,null,,,,,,,,,,,,,,,,,,,
null,,learn_phase(without_color)6,1489120,,,,,,,,black_plus_sign,,,null,object_07b.png,object_12b.png,,,,,,,,,,,,,,,,,
null,,black_cross(without_color)6,1489737,,,,,,,,blue,,,null,object_07b.png,object_12b.png,,,,,,,,,,,,,,,,,
null,,rt_plussign_withcolor6,1490239,,,,,,,,blue,,,null,object_07b.png,object_12b.png,,,,,,,,,,,,,,,,,
1276.5,,rt_thecrossant_black6,1491630,,,,,,,,black_plus_sign,,,49,,,1,,,,,,,1,,,,,,,,,
null,,color_black6,1491734,,,,,,,,black_plus_sign,,,null,,,,,,,,,,,,,,,,,,,
null,,learn_phase(without_color)6,1495239,,,,,,,,black_plus_sign,,,null,object_05a.png,object_15b.png,,,,,,,,,,,,,,,,,
null,,black_cross(without_color)6,1496289,,,,,,,,blue,,,null,object_05a.png,object_15b.png,,,,,,,,,,,,,,,,,
null,,rt_plussign_withcolor6,1496803,,,,,,,,blue,,,null,object_05a.png,object_15b.png,,,,,,,,,,,,,,,,,
925.7000000178814,,rt_thecrossant_black6,1497761,,,,,,,,black_plus_sign,,,49,,,1,,,,,,,1,,,,,,,,,
null,,color_black6,1497865,,,,,,,,black_plus_sign,,,null,,,,,,,,,,,,,,,,,,,
null,,learn_phase(without_color)6,1501369,,,,,,,,black_plus_sign,,,null,object_05c.png,object_11b.png,,,,,,,,,,,,,,,,,
null,,black_cross(without_color)6,1502394,,,,,,,,blue,,,null,object_05c.png,object_11b.png,,,,,,,,,,,,,,,,,
null,,rt_plussign_withcolor6,1502897,,,,,,,,blue,,,null,object_05c.png,object_11b.png,,,,,,,,,,,,,,,,,
1272.2000000178814,,rt_thecrossant_black6,1503880,,,,,,,,black_plus_sign,,,49,,,1,,,,,,,1,,,,,,,,,
null,,color_black6,1503983,,,,,,,,black_plus_sign,,,null,,,,,,,,,,,,,,,,,,,
null,,learn_phase(without_color)6,1507487,,,,,,,,black_plus_sign,,,null,object_12c.png,object_09a.png,,,,,,,,,,,,,,,,,
null,,black_cross(without_color)6,1508145,,,,,,,,blue,,,null,object_12c.png,object_09a.png,,,,,,,,,,,,,,,,,
null,,rt_plussign_withcolor6,1508648,,,,,,,,blue,,,null,object_12c.png,object_09a.png,,,,,,,,,,,,,,,,,
1290.699999988079,,rt_thecrossant_black6,1509997,,,,,,,,black_plus_sign,,,49,,,1,,,,,,,1,,,,,,,,,
null,,color_black6,1510100,,,,,,,,black_plus_sign,,,null,,,,,,,,,,,,,,,,,,,
null,,learn_phase(without_color)6,1513606,,,,,,,,black_plus_sign,,,null,object_02c.png,object_14b.png,,,,,,,,,,,,,,,,,
null,,black_cross(without_color)6,1514466,,,,,,,,blue,,,null,object_02c.png,object_14b.png,,,,,,,,,,,,,,,,,
null,,rt_plussign_withcolor6,1514968,,,,,,,,blue,,,null,object_02c.png,object_14b.png,,,,,,,,,,,,,,,,,
834.2000000178814,,rt_thecrossant_black6,1516115,,,,,,,,black_plus_sign,,,49,,,1,,,,,,,1,,,,,,,,,
null,,color_black6,1516218,,,,,,,,black_plus_sign,,,null,,,,,,,,,,,,,,,,,,,
null,,learn_phase(without_color)6,1519721,,,,,,,,black_plus_sign,,,null,object_13a.png,object_03b.png,,,,,,,,,,,,,,,,,
null,,black_cross(without_color)6,1520157,,,,,,,,blue,,,null,object_13a.png,object_03b.png,,,,,,,,,,,,,,,,,
null,,rt_plussign_withcolor6,1520660,,,,,,,,blue,,,null,object_13a.png,object_03b.png,,,,,,,,,,,,,,,,,
1323.7000000178814,,rt_thecrossant_black6,1522232,,,,,,,,black_plus_sign,,,49,,,1,,,,,,,1,,,,,,,,,
null,,color_black6,1522335,,,,,,,,black_plus_sign,,,null,,,,,,,,,,,,,,,,,,,
null,,learn_phase(without_color)6,1525840,,,,,,,,black_plus_sign,,,null,object_10a.png,object_07a.png,,,,,,,,,,,,,,,,,
null,,black_cross(without_color)6,1526708,,,,,,,,green,,,null,object_10a.png,object_07a.png,,,,,,,,,,,,,,,,,
null,,rt_plussign_withcolor6,1527210,,,,,,,,green,,,null,object_10a.png,object_07a.png,,,,,,,,,,,,,,,,,
1042.5999999940395,,rt_thecrossant_black6,1528358,,,,,,,,black_plus_sign,,,50,,,1,,,,,,,1,,,,,,,,,
null,,color_black6,1528461,,,,,,,,black_plus_sign,,,null,,,,,,,,,,,,,,,,,,,
null,,learn_phase(without_color)6,1531965,,,,,,,,black_plus_sign,,,null,object_10b.png,object_08b.png,,,,,,,,,,,,,,,,,
null,,black_cross(without_color)6,1532519,,,,,,,,green,,,null,object_10b.png,object_08b.png,,,,,,,,,,,,,,,,,
null,,rt_plussign_withcolor6,1533022,,,,,,,,green,,,null,object_10b.png,object_08b.png,,,,,,,,,,,,,,,,,
1246.300000011921,,rt_thecrossant_black6,1534475,,,,,,,,black_plus_sign,,,50,,,1,,,,,,,1,,,,,,,,,
null,,color_black6,1534578,,,,,,,,black_plus_sign,,,null,,,,,,,,,,,,,,,,,,,
null,,learn_phase(without_color)6,1538083,,,,,,,,black_plus_sign,,,null,object_10c.png,object_03c.png,,,,,,,,,,,,,,,,,
null,,black_cross(without_color)6,1538546,,,,,,,,green,,,null,object_10c.png,object_03c.png,,,,,,,,,,,,,,,,,
null,,rt_plussign_withcolor6,1539049,,,,,,,,green,,,null,object_10c.png,object_03c.png,,,,,,,,,,,,,,,,,
983.5,,rt_thecrossant_black6,1540594,,,,,,,,black_plus_sign,,,50,,,1,,,,,,,1,,,,,,,,,
null,,color_black6,1540697,,,,,,,,black_plus_sign,,,null,,,,,,,,,,,,,,,,,,,
null,,learn_phase(without_color)6,1544215,,,,,,,,black_plus_sign,,,null,object_11c.png,object_12a.png,,,,,,,,,,,,,,,,,
null,,black_cross(without_color)6,1545031,,,,,,,,blue,,,null,object_11c.png,object_12a.png,,,,,,,,,,,,,,,,,
null,,rt_plussign_withcolor6,1545534,,,,,,,,blue,,,null,object_11c.png,object_12a.png,,,,,,,,,,,,,,,,,
864.9000000059605,,rt_thecrossant_black6,1546725,,,,,,,,black_plus_sign,,,49,,,1,,,,,,,1,,,,,,,,,
null,,color_black6,1546829,,,,,,,,black_plus_sign,,,null,,,,,,,,,,,,,,,,,,,
null,,learn_phase(without_color)6,1550333,,,,,,,,black_plus_sign,,,null,object_04b.png,object_03a.png,,,,,,,,,,,,,,,,,
null,,black_cross(without_color)6,1551103,,,,,,,,blue,,,null,object_04b.png,object_03a.png,,,,,,,,,,,,,,,,,
null,,rt_plussign_withcolor6,1551605,,,,,,,,blue,,,null,object_04b.png,object_03a.png,,,,,,,,,,,,,,,,,
1228.2000000178814,,rt_thecrossant_black6,1552842,,,,,,,,black_plus_sign,,,49,,,1,,,,,,,1,,,,,,,,,
null,,color_black6,1552945,,,,,,,,black_plus_sign,,,null,,,,,,,,,,,,,,,,,,,
null,,thebreak,1553050,,,,,,,,<p></p>,,,null,,,,,,,,,,,,,,,,,,,
14415.199999988079,,intro_0,1567468,,,,,,,,instruct,,,32,,,,,,,,,,,,,,,,,,,
8338.600000023842,,directmemory_phase6,1575809,,,,,,,,object_01b.png,,,50,,,1,,object_05c.png,object_14a.png,object_10b.png,object_14a.png,,0.9210526315789473,1,,,,,,,,
7980.5999999940395,,directmemory_phase6,1583795,,,,,,,,object_08b.png,,,50,,,1,,object_07b.png,object_10b.png,object_08a.png,object_10b.png,,0.922077922077922,1,,,,,,,,
8759,,directmemory_phase6,1592559,,,,,,,,object_15b.png,,,50,,,1,,object_10b.png,object_05a.png,object_02c.png,object_05a.png,,0.9230769230769231,1,,,,,,,,
8895.299999982119,,directmemory_phase6,1601460,,,,,,,,object_14b.png,,,50,,,1,,object_14a.png,object_02c.png,object_05a.png,object_02c.png,,0.9240506329113924,1,,,,,,,,
10444.699999988079,,directmemory_phase6,1611909,,,,,,,,object_06a.png,,,51,,,1,,object_14a.png,object_10c.png,object_09c.png,object_09c.png,,0.925,1,,,,,,,,
9126.699999988079,,directmemory_phase6,1621041,,,,,,,,object_03c.png,,,50,,,1,,object_09c.png,object_10c.png,object_05c.png,object_10c.png,,0.9259259259259259,1,,,,,,,,
5741.5,,directmemory_phase6,1626788,,,,,,,,object_09a.png,,,50,,,1,,object_07b.png,object_12c.png,object_05a.png,object_12c.png,,0.926829268292683,1,,,,,,,,
8030.0999999940395,,directmemory_phase6,1634823,,,,,,,,object_03a.png,,,49,,,0,,object_10a.png,object_04b.png,object_08a.png,object_04b.png,,0.9156626506024096,0,,,,,,,,
2257.7000000178814,,directmemory_phase6,1637084,,,,,,,,object_03b.png,,,49,,,1,,object_13a.png,object_14a.png,object_10c.png,object_13a.png,,0.9166666666666666,1,,,,,,,,
11470.199999988079,,directmemory_phase6,1648559,,,,,,,,object_12b.png,,,49,,,1,,object_07b.png,object_09c.png,object_10b.png,object_07b.png,,0.9176470588235294,1,,,,,,,,
3728,,directmemory_phase6,1652289,,,,,,,,object_14c.png,,,49,,,1,,object_08a.png,object_09c.png,object_10a.png,object_08a.png,,0.9186046511627907,1,,,,,,,,
8394.799999982119,,directmemory_phase6,1660689,,,,,,,,object_07a.png,,,51,,,1,,object_08a.png,object_04b.png,object_10a.png,object_10a.png,,0.9195402298850575,1,,,,,,,,
7924.4000000059605,,directmemory_phase6,1668616,,,,,,,,object_11b.png,,,51,,,1,,object_13a.png,object_10b.png,object_05c.png,object_05c.png,,0.9204545454545454,1,,,,,,,,
3178,,directmemory_phase6,1671799,,,,,,,,object_01a.png,,,49,,,1,,object_15c.png,object_09c.png,object_05a.png,object_15c.png,,0.9213483146067416,1,,,,,,,,
2741.399999976158,,directmemory_phase6,1674545,,,,,,,,object_12a.png,,,49,,,1,,object_11c.png,object_14a.png,object_08a.png,object_11c.png,,0.9222222222222223,1,,,,,,,,
null,,thebreak,1674650,,,,,,,,<p></p>,,,null,,,,,,,,,,,,,,,,,,,
67149.79999998212,,intro_0,1741803,,,,,,,,instruct,,,32,,,,,,,,,,,,,,,,,,,
null,,learn_phase(without_color)7,1745305,,,,,,,,black_plus_sign,,,null,object_15c.png,object_01a.png,,,,,,,,,,,,,,,,,
null,,black_cross(without_color)7,1746188,,,,,,,,green,,,null,object_15c.png,object_01a.png,,,,,,,,,,,,,,,,,
null,,rt_plussign_withcolor7,1746693,,,,,,,,green,,,null,object_15c.png,object_01a.png,,,,,,,,,,,,,,,,,
1437.5,,rt_thecrossant_black7,1747817,,,,,,,,black_plus_sign,,,50,,,1,,,,,,,1,,,,,,,,,
null,,color_black7,1747921,,,,,,,,black_plus_sign,,,null,,,,,,,,,,,,,,,,,,,
null,,learn_phase(without_color)7,1751426,,,,,,,,black_plus_sign,,,null,object_14a.png,object_01b.png,,,,,,,,,,,,,,,,,
null,,black_cross(without_color)7,1752213,,,,,,,,blue,,,null,object_14a.png,object_01b.png,,,,,,,,,,,,,,,,,
373.19999998807907,,rt_plussign_withcolor7,1752716,,,,,,,,blue,,,49,object_14a.png,object_01b.png,,,,,,,,,,,,,,,,,
null,,rt_thecrossant_black7,1753947,,,,,,,,black_plus_sign,,,null,,,1,,,,,,,1,,,,,,,,,
null,,color_black7,1754051,,,,,,,,black_plus_sign,,,null,,,,,,,,,,,,,,,,,,,
null,,learn_phase(without_color)7,1757557,,,,,,,,black_plus_sign,,,null,object_08a.png,object_14c.png,,,,,,,,,,,,,,,,,
null,,black_cross(without_color)7,1758625,,,,,,,,green,,,null,object_08a.png,object_14c.png,,,,,,,,,,,,,,,,,
null,,rt_plussign_withcolor7,1759127,,,,,,,,green,,,null,object_08a.png,object_14c.png,,,,,,,,,,,,,,,,,
1240.7999999821186,,rt_thecrossant_black7,1760067,,,,,,,,black_plus_sign,,,50,,,1,,,,,,,1,,,,,,,,,
null,,color_black7,1760171,,,,,,,,black_plus_sign,,,null,,,,,,,,,,,,,,,,,,,
null,,learn_phase(without_color)7,1763676,,,,,,,,black_plus_sign,,,null,object_10c.png,object_03c.png,,,,,,,,,,,,,,,,,
null,,black_cross(without_color)7,1764259,,,,,,,,blue,,,null,object_10c.png,object_03c.png,,,,,,,,,,,,,,,,,
null,,rt_plussign_withcolor7,1764761,,,,,,,,blue,,,null,object_10c.png,object_03c.png,,,,,,,,,,,,,,,,,
1289.300000011921,,rt_thecrossant_black7,1766186,,,,,,,,black_plus_sign,,,49,,,1,,,,,,,1,,,,,,,,,
null,,color_black7,1766289,,,,,,,,black_plus_sign,,,null,,,,,,,,,,,,,,,,,,,
null,,learn_phase(without_color)7,1769794,,,,,,,,black_plus_sign,,,null,object_02c.png,object_14b.png,,,,,,,,,,,,,,,,,
null,,black_cross(without_color)7,1770208,,,,,,,,green,,,null,object_02c.png,object_14b.png,,,,,,,,,,,,,,,,,
null,,rt_plussign_withcolor7,1770710,,,,,,,,green,,,null,object_02c.png,object_14b.png,,,,,,,,,,,,,,,,,
1157.2999999821186,,rt_thecrossant_black7,1772303,,,,,,,,black_plus_sign,,,50,,,1,,,,,,,1,,,,,,,,,
null,,color_black7,1772408,,,,,,,,black_plus_sign,,,null,,,,,,,,,,,,,,,,,,,
null,,learn_phase(without_color)7,1775913,,,,,,,,black_plus_sign,,,null,object_10b.png,object_08b.png,,,,,,,,,,,,,,,,,
null,,black_cross(without_color)7,1776419,,,,,,,,green,,,null,object_10b.png,object_08b.png,,,,,,,,,,,,,,,,,
null,,rt_plussign_withcolor7,1776921,,,,,,,,green,,,null,object_10b.png,object_08b.png,,,,,,,,,,,,,,,,,
757,,rt_thecrossant_black7,1778423,,,,,,,,black_plus_sign,,,50,,,1,,,,,,,1,,,,,,,,,
null,,color_black7,1778526,,,,,,,,black_plus_sign,,,null,,,,,,,,,,,,,,,,,,,
null,,learn_phase(without_color)7,1782034,,,,,,,,black_plus_sign,,,null,object_07b.png,object_12b.png,,,,,,,,,,,,,,,,,
null,,black_cross(without_color)7,1783030,,,,,,,,green,,,null,object_07b.png,object_12b.png,,,,,,,,,,,,,,,,,
null,,rt_plussign_withcolor7,1783533,,,,,,,,green,,,null,object_07b.png,object_12b.png,,,,,,,,,,,,,,,,,
831.8999999761581,,rt_thecrossant_black7,1784546,,,,,,,,black_plus_sign,,,50,,,1,,,,,,,1,,,,,,,,,
null,,color_black7,1784649,,,,,,,,black_plus_sign,,,null,,,,,,,,,,,,,,,,,,,
null,,learn_phase(without_color)7,1788154,,,,,,,,black_plus_sign,,,null,object_09c.png,object_06a.png,,,,,,,,,,,,,,,,,
null,,black_cross(without_color)7,1788790,,,,,,,,green,,,null,object_09c.png,object_06a.png,,,,,,,,,,,,,,,,,
null,,rt_plussign_withcolor7,1789293,,,,,,,,green,,,null,object_09c.png,object_06a.png,,,,,,,,,,,,,,,,,
1207.5,,rt_thecrossant_black7,1790665,,,,,,,,black_plus_sign,,,50,,,1,,,,,,,1,,,,,,,,,
null,,color_black7,1790769,,,,,,,,black_plus_sign,,,null,,,,,,,,,,,,,,,,,,,
null,,learn_phase(without_color)7,1794274,,,,,,,,black_plus_sign,,,null,object_05a.png,object_15b.png,,,,,,,,,,,,,,,,,
null,,black_cross(without_color)7,1794818,,,,,,,,blue,,,null,object_05a.png,object_15b.png,,,,,,,,,,,,,,,,,
null,,rt_plussign_withcolor7,1795320,,,,,,,,blue,,,null,object_05a.png,object_15b.png,,,,,,,,,,,,,,,,,
828.5999999940395,,rt_thecrossant_black7,1796781,,,,,,,,black_plus_sign,,,49,,,1,,,,,,,1,,,,,,,,,
null,,color_black7,1796886,,,,,,,,black_plus_sign,,,null,,,,,,,,,,,,,,,,,,,
null,,learn_phase(without_color)7,1800391,,,,,,,,black_plus_sign,,,null,object_05c.png,object_11b.png,,,,,,,,,,,,,,,,,
null,,black_cross(without_color)7,1801150,,,,,,,,green,,,null,object_05c.png,object_11b.png,,,,,,,,,,,,,,,,,
null,,rt_plussign_withcolor7,1801653,,,,,,,,green,,,null,object_05c.png,object_11b.png,,,,,,,,,,,,,,,,,
921.5999999940395,,rt_thecrossant_black7,1802902,,,,,,,,black_plus_sign,,,50,,,1,,,,,,,1,,,,,,,,,
null,,color_black7,1803005,,,,,,,,black_plus_sign,,,null,,,,,,,,,,,,,,,,,,,
null,,learn_phase(without_color)7,1806512,,,,,,,,black_plus_sign,,,null,object_11c.png,object_12a.png,,,,,,,,,,,,,,,,,
null,,black_cross(without_color)7,1807436,,,,,,,,green,,,null,object_11c.png,object_12a.png,,,,,,,,,,,,,,,,,
null,,rt_plussign_withcolor7,1807938,,,,,,,,green,,,null,object_11c.png,object_12a.png,,,,,,,,,,,,,,,,,
1183.0999999940395,,rt_thecrossant_black7,1809020,,,,,,,,black_plus_sign,,,50,,,1,,,,,,,1,,,,,,,,,
null,,color_black7,1809123,,,,,,,,black_plus_sign,,,null,,,,,,,,,,,,,,,,,,,
null,,learn_phase(without_color)7,1812627,,,,,,,,black_plus_sign,,,null,object_13a.png,object_03b.png,,,,,,,,,,,,,,,,,
null,,black_cross(without_color)7,1813484,,,,,,,,green,,,null,object_13a.png,object_03b.png,,,,,,,,,,,,,,,,,
null,,rt_plussign_withcolor7,1813987,,,,,,,,green,,,null,object_13a.png,object_03b.png,,,,,,,,,,,,,,,,,
1300.5999999940395,,rt_thecrossant_black7,1815137,,,,,,,,black_plus_sign,,,50,,,1,,,,,,,1,,,,,,,,,
null,,color_black7,1815241,,,,,,,,black_plus_sign,,,null,,,,,,,,,,,,,,,,,,,
null,,learn_phase(without_color)7,1818745,,,,,,,,black_plus_sign,,,null,object_04b.png,object_03a.png,,,,,,,,,,,,,,,,,
null,,black_cross(without_color)7,1819779,,,,,,,,green,,,null,object_04b.png,object_03a.png,,,,,,,,,,,,,,,,,
null,,rt_plussign_withcolor7,1820282,,,,,,,,green,,,null,object_04b.png,object_03a.png,,,,,,,,,,,,,,,,,
1277.5,,rt_thecrossant_black7,1821257,,,,,,,,black_plus_sign,,,50,,,1,,,,,,,1,,,,,,,,,
null,,color_black7,1821360,,,,,,,,black_plus_sign,,,null,,,,,,,,,,,,,,,,,,,
null,,learn_phase(without_color)7,1824867,,,,,,,,black_plus_sign,,,null,object_12c.png,object_09a.png,,,,,,,,,,,,,,,,,
null,,black_cross(without_color)7,1825961,,,,,,,,blue,,,null,object_12c.png,object_09a.png,,,,,,,,,,,,,,,,,
null,,rt_plussign_withcolor7,1826464,,,,,,,,blue,,,null,object_12c.png,object_09a.png,,,,,,,,,,,,,,,,,
1434.9000000059605,,rt_thecrossant_black7,1827377,,,,,,,,black_plus_sign,,,49,,,1,,,,,,,1,,,,,,,,,
null,,color_black7,1827480,,,,,,,,black_plus_sign,,,null,,,,,,,,,,,,,,,,,,,
null,,learn_phase(without_color)7,1830984,,,,,,,,black_plus_sign,,,null,object_10a.png,object_07a.png,,,,,,,,,,,,,,,,,
null,,black_cross(without_color)7,1831815,,,,,,,,blue,,,null,object_10a.png,object_07a.png,,,,,,,,,,,,,,,,,
null,,rt_plussign_withcolor7,1832318,,,,,,,,blue,,,null,object_10a.png,object_07a.png,,,,,,,,,,,,,,,,,
1446.9000000059605,,rt_thecrossant_black7,1833495,,,,,,,,black_plus_sign,,,49,,,1,,,,,,,1,,,,,,,,,
null,,color_black7,1833598,,,,,,,,black_plus_sign,,,null,,,,,,,,,,,,,,,,,,,
null,,thebreak,1833702,,,,,,,,<p></p>,,,null,,,,,,,,,,,,,,,,,,,
19730.100000023842,,intro_0,1853435,,,,,,,,instruct,,,32,,,,,,,,,,,,,,,,,,,
3473.100000023842,,directmemory_phase7,1856911,,,,,,,,object_03b.png,,,50,,,1,,object_08a.png,object_13a.png,object_02c.png,object_13a.png,,0.9230769230769231,1,,,,,,,,
4897.200000017881,,directmemory_phase7,1861812,,,,,,,,object_11b.png,,,51,,,1,,object_08a.png,object_11c.png,object_05c.png,object_05c.png,,0.9239130434782609,1,,,,,,,,
3952.0999999940395,,directmemory_phase7,1865766,,,,,,,,object_14b.png,,,51,,,1,,object_13a.png,object_05c.png,object_02c.png,object_02c.png,,0.9247311827956989,1,,,,,,,,
9674.300000011921,,directmemory_phase7,1875443,,,,,,,,object_07a.png,,,49,,,1,,object_10a.png,object_05a.png,object_11c.png,object_10a.png,,0.925531914893617,1,,,,,,,,
7987.5999999940395,,directmemory_phase7,1883434,,,,,,,,object_14c.png,,,49,,,1,,object_08a.png,object_13a.png,object_02c.png,object_08a.png,,0.9263157894736842,1,,,,,,,,
2704.5,,directmemory_phase7,1886142,,,,,,,,object_01a.png,,,51,,,1,,object_10b.png,object_05c.png,object_15c.png,object_15c.png,,0.9270833333333334,1,,,,,,,,
8413,,directmemory_phase7,1894558,,,,,,,,object_03a.png,,,49,,,1,,object_04b.png,object_05c.png,object_14a.png,object_04b.png,,0.9278350515463918,1,,,,,,,,
6713.0999999940395,,directmemory_phase7,1901276,,,,,,,,object_03c.png,,,49,,,0,,object_10b.png,object_10a.png,object_10c.png,object_10c.png,,0.9183673469387755,0,,,,,,,,
6309.5999999940395,,directmemory_phase7,1907591,,,,,,,,object_01b.png,,,49,,,1,,object_14a.png,object_08a.png,object_10b.png,object_14a.png,,0.9191919191919192,1,,,,,,,,
5788.800000011921,,directmemory_phase7,1913386,,,,,,,,object_12b.png,,,49,,,1,,object_07b.png,object_15c.png,object_02c.png,object_07b.png,,0.92,1,,,,,,,,
4320.0999999940395,,directmemory_phase7,1917712,,,,,,,,object_09a.png,,,51,,,1,,object_10c.png,object_05a.png,object_12c.png,object_12c.png,,0.9207920792079208,1,,,,,,,,
6739.600000023842,,directmemory_phase7,1924456,,,,,,,,object_08b.png,,,51,,,1,,object_10a.png,object_04b.png,object_10b.png,object_10b.png,,0.9215686274509803,1,,,,,,,,
11112.40000000596,,directmemory_phase7,1935574,,,,,,,,object_12a.png,,,49,,,1,,object_11c.png,object_13a.png,object_10a.png,object_11c.png,,0.9223300970873787,1,,,,,,,,
4530.9000000059605,,directmemory_phase7,1940110,,,,,,,,object_06a.png,,,50,,,1,,object_13a.png,object_09c.png,object_11c.png,object_09c.png,,0.9230769230769231,1,,,,,,,,
6524.4000000059605,,directmemory_phase7,1946640,,,,,,,,object_15b.png,,,51,,,1,,object_02c.png,object_09c.png,object_05a.png,object_05a.png,,0.9238095238095239,1,,,,,,,,
null,,thebreak,1946745,,,,,,,,<p></p>,,,null,,,,,,,,,,,,,,,,,,,
12280.09999999404,,intro_0,1959029,,,,,,,,instruct,,,32,,,,,,,,,,,,,,,,,,,
null,,learn_phase(without_color)8,1962532,,,,,,,,black_plus_sign,,,null,object_07b.png,object_12b.png,,,,,,,,,,,,,,,,,
null,,black_cross(without_color)8,1963011,,,,,,,,blue,,,null,object_07b.png,object_12b.png,,,,,,,,,,,,,,,,,
null,,rt_plussign_withcolor8,1963513,,,,,,,,blue,,,null,object_07b.png,object_12b.png,,,,,,,,,,,,,,,,,
745.5,,rt_thecrossant_black8,1965041,,,,,,,,black_plus_sign,,,49,,,1,,,,,,,1,,,,,,,,,
null,,color_black8,1965145,,,,,,,,black_plus_sign,,,null,,,,,,,,,,,,,,,,,,,
null,,learn_phase(without_color)8,1968650,,,,,,,,black_plus_sign,,,null,object_10b.png,object_08b.png,,,,,,,,,,,,,,,,,
null,,black_cross(without_color)8,1969521,,,,,,,,blue,,,null,object_10b.png,object_08b.png,,,,,,,,,,,,,,,,,
null,,rt_plussign_withcolor8,1970024,,,,,,,,blue,,,null,object_10b.png,object_08b.png,,,,,,,,,,,,,,,,,
729.5999999940395,,rt_thecrossant_black8,1971161,,,,,,,,black_plus_sign,,,49,,,1,,,,,,,1,,,,,,,,,
null,,color_black8,1971265,,,,,,,,black_plus_sign,,,null,,,,,,,,,,,,,,,,,,,
null,,learn_phase(without_color)8,1974770,,,,,,,,black_plus_sign,,,null,object_11c.png,object_12a.png,,,,,,,,,,,,,,,,,
null,,black_cross(without_color)8,1975480,,,,,,,,green,,,null,object_11c.png,object_12a.png,,,,,,,,,,,,,,,,,
null,,rt_plussign_withcolor8,1975983,,,,,,,,green,,,null,object_11c.png,object_12a.png,,,,,,,,,,,,,,,,,
1180.300000011921,,rt_thecrossant_black8,1977290,,,,,,,,black_plus_sign,,,50,,,1,,,,,,,1,,,,,,,,,
null,,color_black8,1977395,,,,,,,,black_plus_sign,,,null,,,,,,,,,,,,,,,,,,,
null,,learn_phase(without_color)8,1980901,,,,,,,,black_plus_sign,,,null,object_09c.png,object_06a.png,,,,,,,,,,,,,,,,,
null,,black_cross(without_color)8,1981790,,,,,,,,green,,,null,object_09c.png,object_06a.png,,,,,,,,,,,,,,,,,
null,,rt_plussign_withcolor8,1982293,,,,,,,,green,,,null,object_09c.png,object_06a.png,,,,,,,,,,,,,,,,,
994.6000000238419,,rt_thecrossant_black8,1983411,,,,,,,,black_plus_sign,,,50,,,1,,,,,,,1,,,,,,,,,
null,,color_black8,1983515,,,,,,,,black_plus_sign,,,null,,,,,,,,,,,,,,,,,,,
null,,learn_phase(without_color)8,1987019,,,,,,,,black_plus_sign,,,null,object_05a.png,object_15b.png,,,,,,,,,,,,,,,,,
null,,black_cross(without_color)8,1987749,,,,,,,,blue,,,null,object_05a.png,object_15b.png,,,,,,,,,,,,,,,,,
null,,rt_plussign_withcolor8,1988252,,,,,,,,blue,,,null,object_05a.png,object_15b.png,,,,,,,,,,,,,,,,,
1140,,rt_thecrossant_black8,1989529,,,,,,,,black_plus_sign,,,49,,,1,,,,,,,1,,,,,,,,,
null,,color_black8,1989633,,,,,,,,black_plus_sign,,,null,,,,,,,,,,,,,,,,,,,
null,,learn_phase(without_color)8,1993138,,,,,,,,black_plus_sign,,,null,object_02c.png,object_14b.png,,,,,,,,,,,,,,,,,
null,,black_cross(without_color)8,1993836,,,,,,,,green,,,null,object_02c.png,object_14b.png,,,,,,,,,,,,,,,,,
null,,rt_plussign_withcolor8,1994338,,,,,,,,green,,,null,object_02c.png,object_14b.png,,,,,,,,,,,,,,,,,
1186.0999999940395,,rt_thecrossant_black8,1995648,,,,,,,,black_plus_sign,,,50,,,1,,,,,,,1,,,,,,,,,
null,,color_black8,1995752,,,,,,,,black_plus_sign,,,null,,,,,,,,,,,,,,,,,,,
null,,learn_phase(without_color)8,1999257,,,,,,,,black_plus_sign,,,null,object_14a.png,object_01b.png,,,,,,,,,,,,,,,,,
null,,black_cross(without_color)8,1999711,,,,,,,,blue,,,null,object_14a.png,object_01b.png,,,,,,,,,,,,,,,,,
null,,rt_plussign_withcolor8,2000213,,,,,,,,blue,,,null,object_14a.png,object_01b.png,,,,,,,,,,,,,,,,,
1181.6000000238419,,rt_thecrossant_black8,2001765,,,,,,,,black_plus_sign,,,49,,,1,,,,,,,1,,,,,,,,,
null,,color_black8,2001868,,,,,,,,black_plus_sign,,,null,,,,,,,,,,,,,,,,,,,
null,,learn_phase(without_color)8,2005371,,,,,,,,black_plus_sign,,,null,object_04b.png,object_03a.png,,,,,,,,,,,,,,,,,
null,,black_cross(without_color)8,2006371,,,,,,,,green,,,null,object_04b.png,object_03a.png,,,,,,,,,,,,,,,,,
null,,rt_plussign_withcolor8,2006875,,,,,,,,green,,,null,object_04b.png,object_03a.png,,,,,,,,,,,,,,,,,
721.8000000119209,,rt_thecrossant_black8,2007883,,,,,,,,black_plus_sign,,,50,,,1,,,,,,,1,,,,,,,,,
null,,color_black8,2007986,,,,,,,,black_plus_sign,,,null,,,,,,,,,,,,,,,,,,,
null,,learn_phase(without_color)8,2011492,,,,,,,,black_plus_sign,,,null,object_10c.png,object_03c.png,,,,,,,,,,,,,,,,,
null,,black_cross(without_color)8,2011917,,,,,,,,green,,,null,object_10c.png,object_03c.png,,,,,,,,,,,,,,,,,
null,,rt_plussign_withcolor8,2012418,,,,,,,,green,,,null,object_10c.png,object_03c.png,,,,,,,,,,,,,,,,,
1363.5,,rt_thecrossant_black8,2014000,,,,,,,,black_plus_sign,,,50,,,1,,,,,,,1,,,,,,,,,
null,,color_black8,2014102,,,,,,,,black_plus_sign,,,null,,,,,,,,,,,,,,,,,,,
null,,learn_phase(without_color)8,2017607,,,,,,,,black_plus_sign,,,null,object_10a.png,object_07a.png,,,,,,,,,,,,,,,,,
null,,black_cross(without_color)8,2018336,,,,,,,,green,,,null,object_10a.png,object_07a.png,,,,,,,,,,,,,,,,,
null,,rt_plussign_withcolor8,2018839,,,,,,,,green,,,null,object_10a.png,object_07a.png,,,,,,,,,,,,,,,,,
830.5,,rt_thecrossant_black8,2020118,,,,,,,,black_plus_sign,,,50,,,1,,,,,,,1,,,,,,,,,
null,,color_black8,2020221,,,,,,,,black_plus_sign,,,null,,,,,,,,,,,,,,,,,,,
null,,learn_phase(without_color)8,2023726,,,,,,,,black_plus_sign,,,null,object_08a.png,object_14c.png,,,,,,,,,,,,,,,,,
null,,black_cross(without_color)8,2024374,,,,,,,,green,,,null,object_08a.png,object_14c.png,,,,,,,,,,,,,,,,,
null,,rt_plussign_withcolor8,2024877,,,,,,,,green,,,null,object_08a.png,object_14c.png,,,,,,,,,,,,,,,,,
1174.800000011921,,rt_thecrossant_black8,2026236,,,,,,,,black_plus_sign,,,50,,,1,,,,,,,1,,,,,,,,,
null,,color_black8,2026339,,,,,,,,black_plus_sign,,,null,,,,,,,,,,,,,,,,,,,
null,,learn_phase(without_color)8,2029844,,,,,,,,black_plus_sign,,,null,object_15c.png,object_01a.png,,,,,,,,,,,,,,,,,
null,,black_cross(without_color)8,2030629,,,,,,,,blue,,,null,object_15c.png,object_01a.png,,,,,,,,,,,,,,,,,
null,,rt_plussign_withcolor8,2031131,,,,,,,,blue,,,null,object_15c.png,object_01a.png,,,,,,,,,,,,,,,,,
1059.699999988079,,rt_thecrossant_black8,2032355,,,,,,,,black_plus_sign,,,49,,,1,,,,,,,1,,,,,,,,,
null,,color_black8,2032459,,,,,,,,black_plus_sign,,,null,,,,,,,,,,,,,,,,,,,
null,,learn_phase(without_color)8,2035964,,,,,,,,black_plus_sign,,,null,object_12c.png,object_09a.png,,,,,,,,,,,,,,,,,
null,,black_cross(without_color)8,2036411,,,,,,,,green,,,null,object_12c.png,object_09a.png,,,,,,,,,,,,,,,,,
null,,rt_plussign_withcolor8,2036914,,,,,,,,green,,,null,object_12c.png,object_09a.png,,,,,,,,,,,,,,,,,
1306,,rt_thecrossant_black8,2038474,,,,,,,,black_plus_sign,,,50,,,1,,,,,,,1,,,,,,,,,
null,,color_black8,2038577,,,,,,,,black_plus_sign,,,null,,,,,,,,,,,,,,,,,,,
null,,learn_phase(without_color)8,2042083,,,,,,,,black_plus_sign,,,null,object_13a.png,object_03b.png,,,,,,,,,,,,,,,,,
null,,black_cross(without_color)8,2043129,,,,,,,,green,,,null,object_13a.png,object_03b.png,,,,,,,,,,,,,,,,,
null,,rt_plussign_withcolor8,2043632,,,,,,,,green,,,null,object_13a.png,object_03b.png,,,,,,,,,,,,,,,,,
917.7000000178814,,rt_thecrossant_black8,2044594,,,,,,,,black_plus_sign,,,50,,,1,,,,,,,1,,,,,,,,,
null,,color_black8,2044697,,,,,,,,black_plus_sign,,,null,,,,,,,,,,,,,,,,,,,
null,,learn_phase(without_color)8,2048202,,,,,,,,black_plus_sign,,,null,object_05c.png,object_11b.png,,,,,,,,,,,,,,,,,
null,,black_cross(without_color)8,2048630,,,,,,,,green,,,null,object_05c.png,object_11b.png,,,,,,,,,,,,,,,,,
null,,rt_plussign_withcolor8,2049133,,,,,,,,green,,,null,object_05c.png,object_11b.png,,,,,,,,,,,,,,,,,
1412,,rt_thecrossant_black8,2050711,,,,,,,,black_plus_sign,,,50,,,1,,,,,,,1,,,,,,,,,
null,,color_black8,2050816,,,,,,,,black_plus_sign,,,null,,,,,,,,,,,,,,,,,,,
null,,thebreak,2050920,,,,,,,,<p></p>,,,null,,,,,,,,,,,,,,,,,,,
10581.300000011921,,intro_0,2061504,,,,,,,,instruct,,,32,,,,,,,,,,,,,,,,,,,
6605.399999976158,,directmemory_phase8,2068113,,,,,,,,object_06a.png,,,50,,,1,,object_05c.png,object_09c.png,object_10a.png,object_09c.png,,0.9245283018867925,1,,,,,,,,
8761.699999988079,,directmemory_phase8,2076879,,,,,,,,object_03c.png,,,50,,,1,,object_02c.png,object_10c.png,object_15c.png,object_10c.png,,0.9252336448598131,1,,,,,,,,
1488,,directmemory_phase8,2078370,,,,,,,,object_03b.png,,,49,,,1,,object_13a.png,object_05a.png,object_15c.png,object_13a.png,,0.9259259259259259,1,,,,,,,,
2744.699999988079,,directmemory_phase8,2081120,,,,,,,,object_01a.png,,,50,,,1,,object_08a.png,object_15c.png,object_10a.png,object_15c.png,,0.926605504587156,1,,,,,,,,
9467.600000023842,,directmemory_phase8,2090593,,,,,,,,object_08b.png,,,51,,,1,,object_09c.png,object_13a.png,object_10b.png,object_10b.png,,0.9272727272727272,1,,,,,,,,
4743.0999999940395,,directmemory_phase8,2095341,,,,,,,,object_12a.png,,,49,,,1,,object_11c.png,object_02c.png,object_10a.png,object_11c.png,,0.9279279279279279,1,,,,,,,,
5686.100000023842,,directmemory_phase8,2101033,,,,,,,,object_09a.png,,,49,,,1,,object_12c.png,object_14a.png,object_09c.png,object_12c.png,,0.9285714285714286,1,,,,,,,,
11429.800000011921,,directmemory_phase8,2112468,,,,,,,,object_11b.png,,,50,,,1,,object_13a.png,object_05c.png,object_11c.png,object_05c.png,,0.9292035398230089,1,,,,,,,,
3706.9000000059605,,directmemory_phase8,2116180,,,,,,,,object_07a.png,,,51,,,1,,object_14a.png,object_10b.png,object_10a.png,object_10a.png,,0.9298245614035088,1,,,,,,,,
7705.399999976158,,directmemory_phase8,2123890,,,,,,,,object_14b.png,,,50,,,1,,object_14a.png,object_02c.png,object_11c.png,object_02c.png,,0.9304347826086956,1,,,,,,,,
2766,,directmemory_phase8,2126659,,,,,,,,object_15b.png,,,50,,,1,,object_10b.png,object_05a.png,object_07b.png,object_05a.png,,0.9310344827586207,1,,,,,,,,
8251.299999982119,,directmemory_phase8,2134915,,,,,,,,object_03a.png,,,51,,,1,,object_05c.png,object_07b.png,object_04b.png,object_04b.png,,0.9316239316239316,1,,,,,,,,
6601.5,,directmemory_phase8,2141522,,,,,,,,object_12b.png,,,51,,,0,,object_10b.png,object_07b.png,object_14a.png,object_07b.png,,0.923728813559322,0,,,,,,,,
4324.9000000059605,,directmemory_phase8,2145852,,,,,,,,object_14c.png,,,49,,,1,,object_08a.png,object_15c.png,object_10c.png,object_08a.png,,0.9243697478991597,1,,,,,,,,
3939.899999976158,,directmemory_phase8,2149798,,,,,,,,object_01b.png,,,49,,,1,,object_14a.png,object_11c.png,object_08a.png,object_14a.png,,0.925,1,,,,,,,,
null,,thebreak,2149902,,,,,,,,<p></p>,,,null,,,,,,,,,,,,,,,,,,,
4964.5999999940395,,intro_0,2154870,,,,,,,,instruct,,,32,,,,,,,,,,,,,,,,,,,
23313.09999999404,,intro_1,2178185,,,,,,,,instruct,,,32,,,,,,,,,,,,,,,,,,,
34679.40000000596,,intro_2,2212867,,,,,,,,instruct,,,32,,,,,,,,,,,,,,,,,,,
,,intro_3,2249742,,,,,,,,instruct,,,,,,,,,,,,,,,,,,,,,,
4220.100000023842,,intro_4,2253965,,,,,,,,instruct,,,32,,,,,,,,,,,,,,,,,,,
8577,,inference_phase,2262544,,,,,,,,object_12a.png,,,51,object_01c.png,object_13c.png,0,,,,,object_05b.png,,0,,object_05b.png,,,,,,,
3861.699999988079,,inference_phase,2266409,,,,,,,,object_11b.png,,,50,object_02b.png,object_06b.png,1,,,,,object_09b.png,,0.5,,object_09b.png,,,,,,,
4014.800000011921,,inference_phase,2270429,,,,,,,,object_01b.png,,,49,object_09b.png,object_07c.png,0,,,,,object_08c.png,,0.3333333333333333,,object_08c.png,,,,,,,
6427.199999988079,,inference_phase,2276861,,,,,,,,object_01a.png,,,51,object_04a.png,object_11a.png,0,,,,,object_04a.png,,0.25,,object_05b.png,,,,,,,
8153.800000011921,,inference_phase,2285017,,,,,,,,object_09a.png,,,50,object_02a.png,object_04c.png,0,,,,,object_04c.png,,0.2,,object_13c.png,,,,,,,
3324.5999999940395,,inference_phase,2288347,,,,,,,,object_08b.png,,,50,object_13c.png,object_02b.png,1,,,,,object_06c.png,,0.3333333333333333,,object_06c.png,,,,,,,
6852.299999982119,,inference_phase,2295205,,,,,,,,object_03c.png,,,51,object_06c.png,object_01c.png,1,,,,,object_01c.png,,0.42857142857142855,,object_13b.png,,,,,,,
4185.299999982119,,inference_phase,2299395,,,,,,,,object_12b.png,,,49,object_06b.png,object_05b.png,0,,,,,object_13c.png,,0.375,,object_13c.png,,,,,,,
4071.2999999821186,,inference_phase,2303471,,,,,,,,object_15b.png,,,49,object_02b.png,object_15a.png,1,,,,,object_02b.png,,0.4444444444444444,,object_07c.png,,,,,,,
4419.9000000059605,,inference_phase,2307894,,,,,,,,object_14c.png,,,51,object_07c.png,object_04a.png,0,,,,,object_07c.png,,0.4,,object_08c.png,,,,,,,
3495.600000023842,,inference_phase,2311395,,,,,,,,object_03b.png,,,49,object_02a.png,object_07c.png,1,,,,,object_02a.png,,0.45454545454545453,,object_05b.png,,,,,,,
3903,,inference_phase,2315303,,,,,,,,object_06a.png,,,51,object_04a.png,object_13b.png,1,,,,,object_13b.png,,0.5,,object_06b.png,,,,,,,
4181.0999999940395,,inference_phase,2319489,,,,,,,,object_14b.png,,,51,object_06b.png,object_06c.png,0,,,,,object_06b.png,,0.46153846153846156,,object_01c.png,,,,,,,
2358.300000011921,,inference_phase,2321853,,,,,,,,object_07a.png,,,49,object_11a.png,object_09b.png,1,,,,,object_11a.png,,0.5,,object_06c.png,,,,,,,
3921.199999988079,,inference_phase,2325778,,,,,,,,object_03a.png,,,51,object_08c.png,object_15a.png,1,,,,,object_15a.png,,0.5333333333333333,,object_07c.png,,,,,,,
,,survey,2464347,,,,,,,,survey-questions,,,,,,,,,,,,,,,,none,high,NO,I memorized how the shaped looked like and how they were matched with the other objects.,They were all the same.,No,The task was fun, good, and enjoyable.
