rt,responses,trial_type,time_elapsed,identifier_a,identifier_b,identifier_c,stimulus,button_pressed,response,key_press,stimulus_left,stimulus_right,accuracy,practice_cumulative_accuracy,stimulus_down_left,stimulus_down_mid,stimulus_down_right,stimulus_correct,prac_weighted_accuracy,cumulative_accuracy,failed_practice
7761.199999999953,{worker_id:66be78ef3ca75af1251ce936},id_enter,7772,object_11a.png; object_10a.png; object_01b.png; object_13b.png; object_10c.png; object_12c.png; object_09b.png; object_05a.png; object_10b.png; object_12a.png; object_08a.png; object_12b.png; object_06a.png; object_02c.png; object_08c.png,object_01c.png; object_08b.png; object_15c.png; object_03a.png; object_11c.png; object_03c.png; object_14a.png; object_01a.png; object_15a.png; object_09a.png; object_05b.png; object_05c.png; object_09c.png; object_07a.png; object_14b.png,object_06c.png; object_07b.png; object_04b.png; object_03b.png; object_11b.png; object_13a.png; object_02b.png; object_04c.png; object_13c.png; object_06b.png; object_07c.png; object_02a.png; object_15b.png; object_04a.png; object_14c.png,,,,,,,,,,,,,,,
27482.300000000047,,make_fullscreen,35278,,,,fullscreen,0,,,,,,,,,,,,,
9824.100000000093,,instruct_1,45114,,,,instruct,0,Next,,,,,,,,,,,,
37939.19999999995,,instruct_2,83068,,,,instruct,1,Next,,,,,,,,,,,,
273736.79999999993,,instruct_3,356812,,,,instruct,1,Next,,,,,,,,,,,,
67702.09999999998,,instruct_4,424522,,,,instruct,1,Next,,,,,,,,,,,,
28296.699999999953,,instruct_5,452830,,,,instruct,1,Next,,,,,,,,,,,,
7554.100000000093,,instruct_6,460395,,,,instruct,1,Next,,,,,,,,,,,,
67591.6000000001,,instruct_7,527997,,,,instruct,1,Next,,,,,,,,,,,,
null,,prac_atten_color_black,528615,,,,black_plus_sign,,,null,,,,,,,,,,,
null,,prac_atten_color,529417,,,,<p style='position:absolute;top: 50%;right: 50%;transform: translate(50%, -50%);font-size: 125px;color: blue;'>+</p>,,,null,,,,,,,,,,,
87.4000000001397,,prac_atten_color_black,531426,,,,black_plus_sign,,,49,,,,,,,,,,,
null,,prac_atten_color_black,532049,,,,black_plus_sign,,,null,,,,,,,,,,,
687.8000000000466,,prac_atten_color,532803,,,,<p style='position:absolute;top: 50%;right: 50%;transform: translate(50%, -50%);font-size: 125px;color: green;'>+</p>,,,50,,,,,,,,,,,
null,,prac_atten_color_black,534812,,,,black_plus_sign,,,null,,,,,,,,,,,
null,,prac_atten_color_black,535480,,,,black_plus_sign,,,null,,,,,,,,,,,
746.6000000000931,,prac_atten_color,536323,,,,<p style='position:absolute;top: 50%;right: 50%;transform: translate(50%, -50%);font-size: 125px;color: green;'>+</p>,,,50,,,,,,,,,,,
null,,prac_atten_color_black,538330,,,,black_plus_sign,,,null,,,,,,,,,,,
null,,prac_atten_color_black,538906,,,,black_plus_sign,,,null,,,,,,,,,,,
622.8000000000466,,prac_atten_color,539927,,,,<p style='position:absolute;top: 50%;right: 50%;transform: translate(50%, -50%);font-size: 125px;color: blue;'>+</p>,,,49,,,,,,,,,,,
null,,prac_atten_color_black,541937,,,,black_plus_sign,,,null,,,,,,,,,,,
null,,prac_atten_color_black,542343,,,,black_plus_sign,,,null,,,,,,,,,,,
null,,prac_atten_color,543131,,,,<p style='position:absolute;top: 50%;right: 50%;transform: translate(50%, -50%);font-size: 125px;color: green;'>+</p>,,,null,,,,,,,,,,,
25.399999999906868,,prac_atten_color_black,545141,,,,black_plus_sign,,,50,,,,,,,,,,,
null,,prac_atten_color_black,545775,,,,black_plus_sign,,,null,,,,,,,,,,,
669.3999999999069,,prac_atten_color,546505,,,,<p style='position:absolute;top: 50%;right: 50%;transform: translate(50%, -50%);font-size: 125px;color: green;'>+</p>,,,50,,,,,,,,,,,
null,,prac_atten_color_black,548512,,,,black_plus_sign,,,null,,,,,,,,,,,
null,,prac_atten_color_black,549205,,,,black_plus_sign,,,null,,,,,,,,,,,
717.9000000001397,,prac_atten_color,550079,,,,<p style='position:absolute;top: 50%;right: 50%;transform: translate(50%, -50%);font-size: 125px;color: blue;'>+</p>,,,49,,,,,,,,,,,
null,,prac_atten_color_black,552092,,,,black_plus_sign,,,null,,,,,,,,,,,
null,,prac_atten_color_black,552640,,,,black_plus_sign,,,null,,,,,,,,,,,
555.2999999998137,,prac_atten_color,553240,,,,<p style='position:absolute;top: 50%;right: 50%;transform: translate(50%, -50%);font-size: 125px;color: green;'>+</p>,,,50,,,,,,,,,,,
null,,prac_atten_color_black,555246,,,,black_plus_sign,,,null,,,,,,,,,,,
null,,prac_atten_color_black,556069,,,,black_plus_sign,,,null,,,,,,,,,,,
null,,prac_atten_color,556570,,,,<p style='position:absolute;top: 50%;right: 50%;transform: translate(50%, -50%);font-size: 125px;color: blue;'>+</p>,,,null,,,,,,,,,,,
292.80000000004657,,prac_atten_color_black,558573,,,,black_plus_sign,,,49,,,,,,,,,,,
null,,prac_atten_color_black,559491,,,,black_plus_sign,,,null,,,,,,,,,,,
null,,prac_atten_color,559983,,,,<p style='position:absolute;top: 50%;right: 50%;transform: translate(50%, -50%);font-size: 125px;color: blue;'>+</p>,,,null,,,,,,,,,,,
378.19999999995343,,prac_atten_color_black,561988,,,,black_plus_sign,,,49,,,,,,,,,,,
217477.09999999986,,attentioncheck_feedback,779479,,,,cross_check_feedback,0,,,,,,,,,,,,,
39281.69999999995,,last_instruct,818765,,,,instruct,,,32,,,,,,,,,,,
null,,prac_learn_phase(without_color),822273,,,,black_plus_sign,,,null,object_15a.png,object_10b.png,,,,,,,,,
null,,prac_black_cross(without_color),822862,,,,blue,,,null,object_15a.png,object_10b.png,,,,,,,,,
null,,prac_rt_plussign_withcolor,823368,,,,blue,,,null,object_15a.png,object_10b.png,,,,,,,,,
1627.1999999999534,,prac_rt_thecrossant_black,824797,,,,black_plus_sign,,,49,,,1,1,,,,,,,
null,,prac_color_black,824908,,,,black_plus_sign,,,null,,,,,,,,,,,
null,,prac_learn_phase(without_color),828423,,,,black_plus_sign,,,null,object_07b.png,object_08b.png,,,,,,,,,
null,,black_cross(without_color)1,829144,,,,green,,,null,object_15a.png,object_10b.png,,,,,,,,,
null,,prac_rt_plussign_withcolor,829653,,,,green,,,null,object_07b.png,object_08b.png,,,,,,,,,
862.2000000001863,,prac_rt_thecrossant_black,830608,,,,black_plus_sign,,,50,,,1,1,,,,,,,
null,,prac_color_black,830717,,,,black_plus_sign,,,null,,,,,,,,,,,
null,,prac_learn_phase(without_color),834227,,,,black_plus_sign,,,null,object_05b.png,object_08a.png,,,,,,,,,
null,,black_cross(without_color)1,834945,,,,green,,,null,object_15a.png,object_10b.png,,,,,,,,,
null,,prac_rt_plussign_withcolor,835455,,,,blue,,,null,object_05b.png,object_08a.png,,,,,,,,,
1523.5,,prac_rt_thecrossant_black,836402,,,,black_plus_sign,,,49,,,1,1,,,,,,,
null,,prac_color_black,836513,,,,black_plus_sign,,,null,,,,,,,,,,,
null,,prac_learn_phase(without_color),840023,,,,black_plus_sign,,,null,object_04a.png,object_07a.png,,,,,,,,,
null,,black_cross(without_color)1,840739,,,,green,,,null,object_15a.png,object_10b.png,,,,,,,,,
null,,prac_rt_plussign_withcolor,841248,,,,green,,,null,object_04a.png,object_07a.png,,,,,,,,,
1392.3000000000466,,prac_rt_thecrossant_black,842375,,,,black_plus_sign,,,50,,,1,1,,,,,,,
null,,prac_color_black,842488,,,,black_plus_sign,,,null,,,,,,,,,,,
17241.59999999986,,instruct_dir_01,859743,,,,instruct,0,Next,,,,,,,,,,,,
16210,,instruct_dir_2,875963,,,,instruct,1,Next,,,,,,,,,,,,
10277.5,,instruct_dir_3,886251,,,,instruct,1,Next,,,,,,,,,,,,
16849.199999999953,,instruct_dir_4,903110,,,,instruct,1,Start,,,,,,,,,,,,
null,,thebreak,903217,,,,<p></p>,,,null,,,,,,,,,,,
3322,,intro_0,906545,,,,instruct,,,32,,,,,,,,,,,
2727.5,,prac_directmemory_phase,909280,,,,practice/object_01a.png,,,50,,,0,,practice/object_01b.png,practice/object_03b.png,practice/object_03a.png,practice/object_01b.png,0,0,
2296.4000000001397,,prac_directmemory_phase,911590,,,,practice/object_02a.png,,,49,,,1,,practice/object_02b.png,practice/object_04b.png,practice/object_01a.png,practice/object_02b.png,1,0.5,
2740.7000000001863,,prac_directmemory_phase,914338,,,,practice/object_04a.png,,,51,,,1,,practice/object_01b.png,practice/object_03a.png,practice/object_04b.png,practice/object_04b.png,1,0.6666666666666666,
3205.5,,prac_directmemory_phase,917553,,,,practice/object_03a.png,,,49,,,0,,practice/object_02b.png,practice/object_04a.png,practice/object_03b.png,practice/object_03b.png,0,0.5,
34219.89999999991,,practice_feedback_force_restart,951785,,,,practice_feedback,0,,,,,,,,,,,,,1
9491,,last_instruct,961280,,,,instruct,,,32,,,,,,,,,,,
null,,prac_learn_phase(without_color),964788,,,,black_plus_sign,,,null,object_15a.png,object_10b.png,,,,,,,,,
null,,prac_black_cross(without_color),965411,,,,blue,,,null,object_15a.png,object_10b.png,,,,,,,,,
null,,prac_rt_plussign_withcolor,965917,,,,blue,,,null,object_15a.png,object_10b.png,,,,,,,,,
1057.8000000000466,,prac_rt_thecrossant_black,967314,,,,black_plus_sign,,,49,,,1,1,,,,,,,
null,,prac_color_black,967424,,,,black_plus_sign,,,null,,,,,,,,,,,
null,,prac_learn_phase(without_color),970931,,,,black_plus_sign,,,null,object_07b.png,object_08b.png,,,,,,,,,
null,,black_cross(without_color)1,971652,,,,green,,,null,object_15a.png,object_10b.png,,,,,,,,,
null,,prac_rt_plussign_withcolor,972162,,,,green,,,null,object_07b.png,object_08b.png,,,,,,,,,
1167.3000000000466,,prac_rt_thecrossant_black,973523,,,,black_plus_sign,,,50,,,1,1,,,,,,,
null,,prac_color_black,973637,,,,black_plus_sign,,,null,,,,,,,,,,,
null,,prac_learn_phase(without_color),977149,,,,black_plus_sign,,,null,object_05b.png,object_08a.png,,,,,,,,,
null,,black_cross(without_color)1,977871,,,,green,,,null,object_15a.png,object_10b.png,,,,,,,,,
null,,prac_rt_plussign_withcolor,978377,,,,blue,,,null,object_05b.png,object_08a.png,,,,,,,,,
1034.3000000000466,,prac_rt_thecrossant_black,979640,,,,black_plus_sign,,,49,,,1,1,,,,,,,
null,,prac_color_black,979752,,,,black_plus_sign,,,null,,,,,,,,,,,
null,,prac_learn_phase(without_color),983263,,,,black_plus_sign,,,null,object_04a.png,object_07a.png,,,,,,,,,
null,,black_cross(without_color)1,983981,,,,green,,,null,object_15a.png,object_10b.png,,,,,,,,,
null,,prac_rt_plussign_withcolor,984487,,,,green,,,null,object_04a.png,object_07a.png,,,,,,,,,
1102.5,,prac_rt_thecrossant_black,985696,,,,black_plus_sign,,,50,,,1,1,,,,,,,
null,,prac_color_black,985802,,,,black_plus_sign,,,null,,,,,,,,,,,
5309.899999999907,,instruct_dir_01,991121,,,,instruct,0,Next,,,,,,,,,,,,
3769.2000000001863,,instruct_dir_2,994900,,,,instruct,1,Next,,,,,,,,,,,,
3797.2000000001863,,instruct_dir_3,998709,,,,instruct,1,Next,,,,,,,,,,,,
3568.9000000001397,,instruct_dir_4,1002283,,,,instruct,1,Start,,,,,,,,,,,,
null,,thebreak,1002387,,,,<p></p>,,,null,,,,,,,,,,,
2395.6999999999534,,intro_0,1004786,,,,instruct,,,32,,,,,,,,,,,
2144.8000000000466,,prac_directmemory_phase,1006937,,,,practice/object_01a.png,,,50,,,0,,practice/object_01b.png,practice/object_03b.png,practice/object_03a.png,practice/object_01b.png,0,0,
3400.899999999907,,prac_directmemory_phase,1010346,,,,practice/object_02a.png,,,51,,,0,,practice/object_02b.png,practice/object_04b.png,practice/object_01a.png,practice/object_02b.png,0,0,
2664.3000000000466,,prac_directmemory_phase,1013024,,,,practice/object_04a.png,,,50,,,0,,practice/object_01b.png,practice/object_03a.png,practice/object_04b.png,practice/object_04b.png,0,0,
1888.7999999998137,,prac_directmemory_phase,1014923,,,,practice/object_03a.png,,,49,,,0,,practice/object_02b.png,practice/object_04a.png,practice/object_03b.png,practice/object_03b.png,0,0,
8154.199999999953,,practice_feedback_force_restart,1023091,,,,practice_feedback,0,,,,,,,,,,,,,2
8466,,last_instruct,1031561,,,,instruct,,,32,,,,,,,,,,,
null,,prac_learn_phase(without_color),1035067,,,,black_plus_sign,,,null,object_15a.png,object_10b.png,,,,,,,,,
null,,prac_black_cross(without_color),1036070,,,,blue,,,null,object_15a.png,object_10b.png,,,,,,,,,
null,,prac_rt_plussign_withcolor,1036576,,,,blue,,,null,object_15a.png,object_10b.png,,,,,,,,,
1467.3000000000466,,prac_rt_thecrossant_black,1037595,,,,black_plus_sign,,,49,,,1,1,,,,,,,
null,,prac_color_black,1037706,,,,black_plus_sign,,,null,,,,,,,,,,,
null,,prac_learn_phase(without_color),1041217,,,,black_plus_sign,,,null,object_07b.png,object_08b.png,,,,,,,,,
null,,black_cross(without_color)1,1041941,,,,green,,,null,object_15a.png,object_10b.png,,,,,,,,,
null,,prac_rt_plussign_withcolor,1042453,,,,green,,,null,object_07b.png,object_08b.png,,,,,,,,,
null,,prac_rt_thecrossant_black,1043489,,,,black_plus_sign,,,null,,,,1,,,,,,,
null,,prac_color_black,1043599,,,,black_plus_sign,,,null,,,,,,,,,,,
null,,prac_learn_phase(without_color),1047110,,,,black_plus_sign,,,null,object_05b.png,object_08a.png,,,,,,,,,
null,,black_cross(without_color)1,1047830,,,,green,,,null,object_15a.png,object_10b.png,,,,,,,,,
null,,prac_rt_plussign_withcolor,1048339,,,,blue,,,null,object_05b.png,object_08a.png,,,,,,,,,
1699.3999999999069,,prac_rt_thecrossant_black,1049460,,,,black_plus_sign,,,49,,,1,1,,,,,,,
null,,prac_color_black,1049572,,,,black_plus_sign,,,null,,,,,,,,,,,
null,,prac_learn_phase(without_color),1053081,,,,black_plus_sign,,,null,object_04a.png,object_07a.png,,,,,,,,,
null,,black_cross(without_color)1,1053801,,,,green,,,null,object_15a.png,object_10b.png,,,,,,,,,
null,,prac_rt_plussign_withcolor,1054306,,,,green,,,null,object_04a.png,object_07a.png,,,,,,,,,
null,,prac_rt_thecrossant_black,1055218,,,,black_plus_sign,,,null,,,,1,,,,,,,
null,,prac_color_black,1055328,,,,black_plus_sign,,,null,,,,,,,,,,,
7790.799999999814,,instruct_dir_01,1063132,,,,instruct,0,Next,,,,,,,,,,,,
4147.5,,instruct_dir_2,1067287,,,,instruct,1,Next,,,,,,,,,,,,
2218.9000000003725,,instruct_dir_3,1069514,,,,instruct,1,Next,,,,,,,,,,,,
4801.199999999721,,instruct_dir_4,1074322,,,,instruct,1,Start,,,,,,,,,,,,
null,,thebreak,1074428,,,,<p></p>,,,null,,,,,,,,,,,
2164.2000000001863,,intro_0,1076600,,,,instruct,,,32,,,,,,,,,,,
2671.899999999907,,prac_directmemory_phase,1079279,,,,practice/object_01a.png,,,49,,,1,,practice/object_01b.png,practice/object_03b.png,practice/object_03a.png,practice/object_01b.png,1,1,
3534.399999999907,,prac_directmemory_phase,1082821,,,,practice/object_02a.png,,,50,,,0,,practice/object_02b.png,practice/object_04b.png,practice/object_01a.png,practice/object_02b.png,0,0.5,
3225.600000000093,,prac_directmemory_phase,1086056,,,,practice/object_04a.png,,,51,,,1,,practice/object_01b.png,practice/object_03a.png,practice/object_04b.png,practice/object_04b.png,1,0.6666666666666666,
2498.100000000093,,prac_directmemory_phase,1088564,,,,practice/object_03a.png,,,49,,,0,,practice/object_02b.png,practice/object_04a.png,practice/object_03b.png,practice/object_03b.png,0,0.5,
