rt,responses,trial_type,time_elapsed,identifier_a,identifier_b,identifier_c,tasktype,browser_type,local_time,UTC_time,stimulus,button_pressed,response,key_press,stimulus_left,stimulus_right,accuracy,practice_cumulative_accuracy,stimulus_down_left,stimulus_down_mid,stimulus_down_right,stimulus_correct,prac_weighted_accuracy,cumulative_accuracy,weighted_accuracy,stimulus_middle,problems,smooth,distraction,strategies,easier,similar,comments,detectfocus,breakfocus,completion_code
15779.900000035763,{worker_id:5bc913d99427200001dd47f5},id_enter,15788,object_03b.png; object_02a.png; object_08a.png; object_14a.png; object_13b.png; object_08c.png; object_06b.png; object_06c.png; object_07c.png; object_10b.png; object_10a.png; object_05a.png; object_15b.png; object_01c.png; object_13a.png,object_11a.png; object_11b.png; object_07a.png; object_09b.png; object_01a.png; object_12c.png; object_10c.png; object_04a.png; object_01b.png; object_06a.png; object_14b.png; object_03a.png; object_12a.png; object_04c.png; object_11c.png,object_13c.png; object_09a.png; object_09c.png; object_15a.png; object_15c.png; object_05c.png; object_12b.png; object_02c.png; object_05b.png; object_03c.png; object_08b.png; object_04b.png; object_14c.png; object_07b.png; object_02b.png,interleaved,Mozilla/5.0 (Windows NT 10.0; Win64; x64) AppleWebKit/537.36 (KHTML, like Gecko) Chrome/134.0.0.0 Safari/537.36 Avast/134.0.0.0,4/28/2025, 9:31:01 PM,2025-04-29 01:31:01.296,,,,,,,,,,,,,,,,,,,,,,,,,,
18993.099999964237,,make_fullscreen,34807,,,,,,,,fullscreen,0,,,,,,,,,,,,,,,,,,,,,,,,
11766.899999976158,,instruct_1,46581,,,,,,,,instruct,0,Next,,,,,,,,,,,,,,,,,,,,,,,
11377.599999964237,,instruct_2,57969,,,,,,,,instruct,1,Next,,,,,,,,,,,,,,,,,,,,,,,
7482.899999976158,,instruct_3,65454,,,,,,,,instruct,1,Next,,,,,,,,,,,,,,,,,,,,,,,
19051.69999998808,,instruct_4,84507,,,,,,,,instruct,1,Next,,,,,,,,,,,,,,,,,,,,,,,
13120,,instruct_5,97637,,,,,,,,instruct,1,Next,,,,,,,,,,,,,,,,,,,,,,,
4692.600000023842,,instruct_6,102330,,,,,,,,instruct,1,Next,,,,,,,,,,,,,,,,,,,,,,,
27366.399999976158,,instruct_7,129699,,,,,,,,instruct,1,Next,,,,,,,,,,,,,,,,,,,,,,,
null,,prac_atten_color_black,130039,,,,,,,,black_plus_sign,,,null,,,,,,,,,,,,,,,,,,,,,,
1009.1000000238419,,prac_atten_color,131108,,,,,,,,<p style='position:absolute;top: 50%;right: 50%;transform: translate(50%, -50%);font-size: 125px;color: blue;'>+</p>,,,49,,,,,,,,,,,,,,,,,,,,,,
null,,prac_atten_color_black,133110,,,,,,,,black_plus_sign,,,null,,,,,,,,,,,,,,,,,,,,,,
null,,prac_atten_color_black,133448,,,,,,,,black_plus_sign,,,null,,,,,,,,,,,,,,,,,,,,,,
null,,prac_atten_color,133872,,,,,,,,<p style='position:absolute;top: 50%;right: 50%;transform: translate(50%, -50%);font-size: 125px;color: green;'>+</p>,,,null,,,,,,,,,,,,,,,,,,,,,,
354.69999998807907,,prac_atten_color_black,135873,,,,,,,,black_plus_sign,,,50,,,,,,,,,,,,,,,,,,,,,,
null,,prac_atten_color_black,136856,,,,,,,,black_plus_sign,,,null,,,,,,,,,,,,,,,,,,,,,,
null,,prac_atten_color,137273,,,,,,,,<p style='position:absolute;top: 50%;right: 50%;transform: translate(50%, -50%);font-size: 125px;color: green;'>+</p>,,,null,,,,,,,,,,,,,,,,,,,,,,
763.6000000238419,,prac_atten_color_black,139275,,,,,,,,black_plus_sign,,,50,,,,,,,,,,,,,,,,,,,,,,
null,,prac_atten_color_black,140268,,,,,,,,black_plus_sign,,,null,,,,,,,,,,,,,,,,,,,,,,
599.1999999880791,,prac_atten_color,140895,,,,,,,,<p style='position:absolute;top: 50%;right: 50%;transform: translate(50%, -50%);font-size: 125px;color: blue;'>+</p>,,,49,,,,,,,,,,,,,,,,,,,,,,
null,,prac_atten_color_black,142897,,,,,,,,black_plus_sign,,,null,,,,,,,,,,,,,,,,,,,,,,
null,,prac_atten_color_black,143676,,,,,,,,black_plus_sign,,,null,,,,,,,,,,,,,,,,,,,,,,
null,,prac_atten_color,144233,,,,,,,,<p style='position:absolute;top: 50%;right: 50%;transform: translate(50%, -50%);font-size: 125px;color: green;'>+</p>,,,null,,,,,,,,,,,,,,,,,,,,,,
79.69999998807907,,prac_atten_color_black,146235,,,,,,,,black_plus_sign,,,50,,,,,,,,,,,,,,,,,,,,,,
null,,prac_atten_color_black,147081,,,,,,,,black_plus_sign,,,null,,,,,,,,,,,,,,,,,,,,,,
575.9000000357628,,prac_atten_color,147877,,,,,,,,<p style='position:absolute;top: 50%;right: 50%;transform: translate(50%, -50%);font-size: 125px;color: green;'>+</p>,,,49,,,,,,,,,,,,,,,,,,,,,,
null,,prac_atten_color_black,149879,,,,,,,,black_plus_sign,,,null,,,,,,,,,,,,,,,,,,,,,,
7166.800000011921,,attentioncheck_help,157047,,,,,,,,instruct,,,32,,,,,,,,,,,,,,,,,,,,,,
null,,prac_atten_color_black,157668,,,,,,,,black_plus_sign,,,null,,,,,,,,,,,,,,,,,,,,,,
null,,prac_atten_color,158371,,,,,,,,<p style='position:absolute;top: 50%;right: 50%;transform: translate(50%, -50%);font-size: 125px;color: blue;'>+</p>,,,null,,,,,,,,,,,,,,,,,,,,,,
479.19999998807907,,prac_atten_color_black,160373,,,,,,,,black_plus_sign,,,49,,,,,,,,,,,,,,,,,,,,,,
null,,prac_atten_color_black,161077,,,,,,,,black_plus_sign,,,null,,,,,,,,,,,,,,,,,,,,,,
916.5999999642372,,prac_atten_color,162097,,,,,,,,<p style='position:absolute;top: 50%;right: 50%;transform: translate(50%, -50%);font-size: 125px;color: green;'>+</p>,,,50,,,,,,,,,,,,,,,,,,,,,,
null,,prac_atten_color_black,164099,,,,,,,,black_plus_sign,,,null,,,,,,,,,,,,,,,,,,,,,,
null,,prac_atten_color_black,164486,,,,,,,,black_plus_sign,,,null,,,,,,,,,,,,,,,,,,,,,,
null,,prac_atten_color,164915,,,,,,,,<p style='position:absolute;top: 50%;right: 50%;transform: translate(50%, -50%);font-size: 125px;color: blue;'>+</p>,,,null,,,,,,,,,,,,,,,,,,,,,,
288.80000001192093,,prac_atten_color_black,166917,,,,,,,,black_plus_sign,,,49,,,,,,,,,,,,,,,,,,,,,,
null,,prac_atten_color_black,167902,,,,,,,,black_plus_sign,,,null,,,,,,,,,,,,,,,,,,,,,,
null,,prac_atten_color,168645,,,,,,,,<p style='position:absolute;top: 50%;right: 50%;transform: translate(50%, -50%);font-size: 125px;color: blue;'>+</p>,,,null,,,,,,,,,,,,,,,,,,,,,,
253,,prac_atten_color_black,170647,,,,,,,,black_plus_sign,,,49,,,,,,,,,,,,,,,,,,,,,,
7911.799999952316,,attentioncheck_feedback,178563,,,,,,,,cross_check_feedback,0,,,,,,,,,,,,,,,,,,,,,,,,
12171.599999964237,,last_instruct,190736,,,,,,,,instruct,,,32,,,,,,,,,,,,,,,,,,,,,,
null,,prac_learn_phase(without_color),194238,,,,,,,,black_plus_sign,,,null,object_07a.png,object_09c.png,,,,,,,,,,,,,,,,,,,,
null,,prac_black_cross(without_color),194910,,,,,,,,green,,,null,object_07a.png,object_09c.png,,,,,,,,,,,,,,,,,,,,
null,,prac_rt_plussign_withcolor,195412,,,,,,,,green,,,null,object_07a.png,object_09c.png,,,,,,,,,,,,,,,,,,,,
1765.9000000357628,,prac_rt_thecrossant_black,196747,,,,,,,,black_plus_sign,,,50,,,1,1,,,,,,,,,,,,,,,,,,
null,,prac_color_black,196851,,,,,,,,black_plus_sign,,,null,,,,,,,,,,,,,,,,,,,,,,
null,,prac_learn_phase(without_color),200354,,,,,,,,black_plus_sign,,,null,object_03b.png,object_11a.png,,,,,,,,,,,,,,,,,,,,
null,,black_cross(without_color)1,201158,,,,,,,,blue,,,null,object_07a.png,object_09c.png,,,,,,,,,,,,,,,,,,,,
null,,prac_rt_plussign_withcolor,201660,,,,,,,,blue,,,null,object_03b.png,object_11a.png,,,,,,,,,,,,,,,,,,,,
1573.4000000357628,,prac_rt_thecrossant_black,203036,,,,,,,,black_plus_sign,,,49,,,1,1,,,,,,,,,,,,,,,,,,
null,,prac_color_black,203139,,,,,,,,black_plus_sign,,,null,,,,,,,,,,,,,,,,,,,,,,
null,,prac_learn_phase(without_color),206642,,,,,,,,black_plus_sign,,,null,object_13b.png,object_01a.png,,,,,,,,,,,,,,,,,,,,
null,,black_cross(without_color)1,207444,,,,,,,,blue,,,null,object_07a.png,object_09c.png,,,,,,,,,,,,,,,,,,,,
null,,prac_rt_plussign_withcolor,207946,,,,,,,,blue,,,null,object_13b.png,object_01a.png,,,,,,,,,,,,,,,,,,,,
1755.800000011921,,prac_rt_thecrossant_black,209242,,,,,,,,black_plus_sign,,,49,,,1,1,,,,,,,,,,,,,,,,,,
null,,prac_color_black,209345,,,,,,,,black_plus_sign,,,null,,,,,,,,,,,,,,,,,,,,,,
null,,prac_learn_phase(without_color),212847,,,,,,,,black_plus_sign,,,null,object_10b.png,object_06a.png,,,,,,,,,,,,,,,,,,,,
null,,black_cross(without_color)1,213647,,,,,,,,blue,,,null,object_07a.png,object_09c.png,,,,,,,,,,,,,,,,,,,,
null,,prac_rt_plussign_withcolor,214147,,,,,,,,green,,,null,object_10b.png,object_06a.png,,,,,,,,,,,,,,,,,,,,
1568.9000000357628,,prac_rt_thecrossant_black,215480,,,,,,,,black_plus_sign,,,50,,,1,1,,,,,,,,,,,,,,,,,,
null,,prac_color_black,215583,,,,,,,,black_plus_sign,,,null,,,,,,,,,,,,,,,,,,,,,,
8950.900000035763,,instruct_dir_01,224537,,,,,,,,instruct,0,Next,,,,,,,,,,,,,,,,,,,,,,,
33155.69999998808,,instruct_dir_2,257696,,,,,,,,instruct,1,Next,,,,,,,,,,,,,,,,,,,,,,,
5868.300000011921,,instruct_dir_3,263566,,,,,,,,instruct,1,Next,,,,,,,,,,,,,,,,,,,,,,,
11765.300000011921,,instruct_dir_4,275334,,,,,,,,instruct,1,Start,,,,,,,,,,,,,,,,,,,,,,,
null,,thebreak,275437,,,,,,,,<p></p>,,,null,,,,,,,,,,,,,,,,,,,,,,
6322.199999988079,,intro_0,281760,,,,,,,,instruct,,,32,,,,,,,,,,,,,,,,,,,,,,
null,,prac_directmemory_phase,296762,,,,,,,,practice/object_04b.png,,,null,,,0,,practice/object_01a.png,practice/object_04a.png,practice/object_02a.png,practice/object_04a.png,0,0,,,,,,,,,,,,
null,,warning_page,301766,,,,,,,,warning,,,null,,,,,,,,,,,,,,,,,,,,,,
8562.5,,prac_directmemory_phase,310330,,,,,,,,practice/object_02b.png,,,51,,,1,,practice/object_03a.png,practice/object_04a.png,practice/object_02a.png,practice/object_02a.png,1,0.5,,,,,,,,,,,,
4146.5,,prac_directmemory_phase,314479,,,,,,,,practice/object_01b.png,,,50,,,1,,practice/object_02a.png,practice/object_01a.png,practice/object_03a.png,practice/object_01a.png,1,0.6666666666666666,,,,,,,,,,,,
4739.199999988079,,prac_directmemory_phase,319221,,,,,,,,practice/object_03b.png,,,50,,,1,,practice/object_04a.png,practice/object_03a.png,practice/object_01a.png,practice/object_03a.png,1,0.75,,,,,,,,,,,,
16824.600000023842,,practice_feedback,336048,,,,,,,,practice_feedback,1,,,,,,,,,,,,,,,,,,,,,,,,
12043.399999976158,,proceed_actualTask,348093,,,,,,,,proceed_actualTask,1,Continue,,,,,,,,,,,,,,,,,,,,,,,
10330.200000047684,,last_inst,358424,,,,,,,,last_inst,,,32,,,,,,,,,,,,,,,,,,,,,,
null,,learn_phase(without_color)1,361926,,,,,,,,black_plus_sign,,,null,object_07a.png,object_09c.png,,,,,,,,,,,,,,,,,,,,
null,,black_cross(without_color)1,362729,,,,,,,,blue,,,null,object_07a.png,object_09c.png,,,,,,,,,,,,,,,,,,,,
null,,rt_plussign_withcolor1,363231,,,,,,,,blue,,,null,object_07a.png,object_09c.png,,,,,,,,,,,,,,,,,,,,
1153.800000011921,,rt_thecrossant_black1,364437,,,,,,,,black_plus_sign,,,49,,,1,,,,,,,1,,,,,,,,,,,,
null,,color_black1,364539,,,,,,,,black_plus_sign,,,null,,,,,,,,,,,,,,,,,,,,,,
null,,learn_phase(without_color)1,368043,,,,,,,,black_plus_sign,,,null,object_03b.png,object_11a.png,,,,,,,,,,,,,,,,,,,,
null,,black_cross(without_color)1,368593,,,,,,,,green,,,null,object_03b.png,object_11a.png,,,,,,,,,,,,,,,,,,,,
null,,rt_plussign_withcolor1,369094,,,,,,,,green,,,null,object_03b.png,object_11a.png,,,,,,,,,,,,,,,,,,,,
null,,rt_thecrossant_black1,370551,,,,,,,,black_plus_sign,,,null,,,,,,,,,,1,,,,,,,,,,,,
null,,color_black1,370654,,,,,,,,black_plus_sign,,,null,,,,,,,,,,,,,,,,,,,,,,
null,,learn_phase(without_color)1,374158,,,,,,,,black_plus_sign,,,null,object_13b.png,object_01a.png,,,,,,,,,,,,,,,,,,,,
null,,black_cross(without_color)1,374832,,,,,,,,green,,,null,object_13b.png,object_01a.png,,,,,,,,,,,,,,,,,,,,
null,,rt_plussign_withcolor1,375334,,,,,,,,green,,,null,object_13b.png,object_01a.png,,,,,,,,,,,,,,,,,,,,
1229.199999988079,,rt_thecrossant_black1,376680,,,,,,,,black_plus_sign,,,50,,,1,,,,,,,1,,,,,,,,,,,,
null,,color_black1,376783,,,,,,,,black_plus_sign,,,null,,,,,,,,,,,,,,,,,,,,,,
null,,learn_phase(without_color)1,380287,,,,,,,,black_plus_sign,,,null,object_10b.png,object_06a.png,,,,,,,,,,,,,,,,,,,,
null,,black_cross(without_color)1,381154,,,,,,,,blue,,,null,object_10b.png,object_06a.png,,,,,,,,,,,,,,,,,,,,
null,,rt_plussign_withcolor1,381657,,,,,,,,blue,,,null,object_10b.png,object_06a.png,,,,,,,,,,,,,,,,,,,,
1280.4000000357628,,rt_thecrossant_black1,382796,,,,,,,,black_plus_sign,,,49,,,1,,,,,,,1,,,,,,,,,,,,
null,,color_black1,382899,,,,,,,,black_plus_sign,,,null,,,,,,,,,,,,,,,,,,,,,,
null,,learn_phase(without_color)1,386402,,,,,,,,black_plus_sign,,,null,object_03a.png,object_04b.png,,,,,,,,,,,,,,,,,,,,
null,,black_cross(without_color)1,387240,,,,,,,,blue,,,null,object_03a.png,object_04b.png,,,,,,,,,,,,,,,,,,,,
null,,rt_plussign_withcolor1,387742,,,,,,,,blue,,,null,object_03a.png,object_04b.png,,,,,,,,,,,,,,,,,,,,
1371.300000011921,,rt_thecrossant_black1,388912,,,,,,,,black_plus_sign,,,49,,,1,,,,,,,1,,,,,,,,,,,,
null,,color_black1,389014,,,,,,,,black_plus_sign,,,null,,,,,,,,,,,,,,,,,,,,,,
null,,learn_phase(without_color)1,392517,,,,,,,,black_plus_sign,,,null,object_14a.png,object_09b.png,,,,,,,,,,,,,,,,,,,,
null,,black_cross(without_color)1,393280,,,,,,,,blue,,,null,object_14a.png,object_09b.png,,,,,,,,,,,,,,,,,,,,
null,,rt_plussign_withcolor1,393782,,,,,,,,blue,,,null,object_14a.png,object_09b.png,,,,,,,,,,,,,,,,,,,,
1257.699999988079,,rt_thecrossant_black1,395024,,,,,,,,black_plus_sign,,,49,,,1,,,,,,,1,,,,,,,,,,,,
null,,color_black1,395126,,,,,,,,black_plus_sign,,,null,,,,,,,,,,,,,,,,,,,,,,
null,,learn_phase(without_color)1,398630,,,,,,,,black_plus_sign,,,null,object_04c.png,object_07b.png,,,,,,,,,,,,,,,,,,,,
null,,black_cross(without_color)1,399341,,,,,,,,green,,,null,object_04c.png,object_07b.png,,,,,,,,,,,,,,,,,,,,
null,,rt_plussign_withcolor1,399843,,,,,,,,green,,,null,object_04c.png,object_07b.png,,,,,,,,,,,,,,,,,,,,
1344.3999999761581,,rt_thecrossant_black1,401146,,,,,,,,black_plus_sign,,,50,,,1,,,,,,,1,,,,,,,,,,,,
null,,color_black1,401247,,,,,,,,black_plus_sign,,,null,,,,,,,,,,,,,,,,,,,,,,
null,,learn_phase(without_color)1,404751,,,,,,,,black_plus_sign,,,null,object_12c.png,object_05c.png,,,,,,,,,,,,,,,,,,,,
null,,black_cross(without_color)1,405483,,,,,,,,blue,,,null,object_12c.png,object_05c.png,,,,,,,,,,,,,,,,,,,,
null,,rt_plussign_withcolor1,405985,,,,,,,,blue,,,null,object_12c.png,object_05c.png,,,,,,,,,,,,,,,,,,,,
1260,,rt_thecrossant_black1,407260,,,,,,,,black_plus_sign,,,49,,,1,,,,,,,1,,,,,,,,,,,,
null,,color_black1,407364,,,,,,,,black_plus_sign,,,null,,,,,,,,,,,,,,,,,,,,,,
null,,learn_phase(without_color)1,410865,,,,,,,,black_plus_sign,,,null,object_08a.png,object_07a.png,,,,,,,,,,,,,,,,,,,,
null,,black_cross(without_color)1,411848,,,,,,,,green,,,null,object_08a.png,object_07a.png,,,,,,,,,,,,,,,,,,,,
null,,rt_plussign_withcolor1,412361,,,,,,,,green,,,null,object_08a.png,object_07a.png,,,,,,,,,,,,,,,,,,,,
1085.0999999642372,,rt_thecrossant_black1,413383,,,,,,,,black_plus_sign,,,50,,,1,,,,,,,1,,,,,,,,,,,,
null,,color_black1,413486,,,,,,,,black_plus_sign,,,null,,,,,,,,,,,,,,,,,,,,,,
null,,learn_phase(without_color)1,416989,,,,,,,,black_plus_sign,,,null,object_09b.png,object_15a.png,,,,,,,,,,,,,,,,,,,,
null,,black_cross(without_color)1,417801,,,,,,,,blue,,,null,object_09b.png,object_15a.png,,,,,,,,,,,,,,,,,,,,
null,,rt_plussign_withcolor1,418303,,,,,,,,blue,,,null,object_09b.png,object_15a.png,,,,,,,,,,,,,,,,,,,,
1450.0999999642372,,rt_thecrossant_black1,419498,,,,,,,,black_plus_sign,,,49,,,1,,,,,,,1,,,,,,,,,,,,
null,,color_black1,419601,,,,,,,,black_plus_sign,,,null,,,,,,,,,,,,,,,,,,,,,,
null,,learn_phase(without_color)1,423104,,,,,,,,black_plus_sign,,,null,object_08c.png,object_12c.png,,,,,,,,,,,,,,,,,,,,
null,,black_cross(without_color)1,424134,,,,,,,,green,,,null,object_08c.png,object_12c.png,,,,,,,,,,,,,,,,,,,,
null,,rt_plussign_withcolor1,424637,,,,,,,,green,,,null,object_08c.png,object_12c.png,,,,,,,,,,,,,,,,,,,,
1214.5999999642372,,rt_thecrossant_black1,425620,,,,,,,,black_plus_sign,,,50,,,1,,,,,,,1,,,,,,,,,,,,
null,,color_black1,425722,,,,,,,,black_plus_sign,,,null,,,,,,,,,,,,,,,,,,,,,,
null,,learn_phase(without_color)1,429234,,,,,,,,black_plus_sign,,,null,object_01c.png,object_04c.png,,,,,,,,,,,,,,,,,,,,
null,,black_cross(without_color)1,429997,,,,,,,,green,,,null,object_01c.png,object_04c.png,,,,,,,,,,,,,,,,,,,,
null,,rt_plussign_withcolor1,430498,,,,,,,,green,,,null,object_01c.png,object_04c.png,,,,,,,,,,,,,,,,,,,,
1744.8999999761581,,rt_thecrossant_black1,431743,,,,,,,,black_plus_sign,,,50,,,1,,,,,,,1,,,,,,,,,,,,
null,,color_black1,431846,,,,,,,,black_plus_sign,,,null,,,,,,,,,,,,,,,,,,,,,,
null,,learn_phase(without_color)1,435351,,,,,,,,black_plus_sign,,,null,object_15b.png,object_12a.png,,,,,,,,,,,,,,,,,,,,
null,,black_cross(without_color)1,436448,,,,,,,,green,,,null,object_15b.png,object_12a.png,,,,,,,,,,,,,,,,,,,,
null,,rt_plussign_withcolor1,436950,,,,,,,,green,,,null,object_15b.png,object_12a.png,,,,,,,,,,,,,,,,,,,,
1254.5,,rt_thecrossant_black1,437867,,,,,,,,black_plus_sign,,,50,,,1,,,,,,,1,,,,,,,,,,,,
null,,color_black1,437971,,,,,,,,black_plus_sign,,,null,,,,,,,,,,,,,,,,,,,,,,
null,,learn_phase(without_color)1,441474,,,,,,,,black_plus_sign,,,null,object_05a.png,object_03a.png,,,,,,,,,,,,,,,,,,,,
null,,black_cross(without_color)1,442465,,,,,,,,green,,,null,object_05a.png,object_03a.png,,,,,,,,,,,,,,,,,,,,
null,,rt_plussign_withcolor1,442968,,,,,,,,green,,,null,object_05a.png,object_03a.png,,,,,,,,,,,,,,,,,,,,
1521.699999988079,,rt_thecrossant_black1,443993,,,,,,,,black_plus_sign,,,50,,,1,,,,,,,1,,,,,,,,,,,,
null,,color_black1,444096,,,,,,,,black_plus_sign,,,null,,,,,,,,,,,,,,,,,,,,,,
null,,learn_phase(without_color)1,447599,,,,,,,,black_plus_sign,,,null,object_06b.png,object_10c.png,,,,,,,,,,,,,,,,,,,,
null,,black_cross(without_color)1,448424,,,,,,,,blue,,,null,object_06b.png,object_10c.png,,,,,,,,,,,,,,,,,,,,
null,,rt_plussign_withcolor1,448926,,,,,,,,blue,,,null,object_06b.png,object_10c.png,,,,,,,,,,,,,,,,,,,,
2159.2999999523163,,rt_thecrossant_black1,450107,,,,,,,,black_plus_sign,,,49,,,1,,,,,,,1,,,,,,,,,,,,
null,,color_black1,450208,,,,,,,,black_plus_sign,,,null,,,,,,,,,,,,,,,,,,,,,,
null,,learn_phase(without_color)1,453709,,,,,,,,black_plus_sign,,,null,object_10c.png,object_12b.png,,,,,,,,,,,,,,,,,,,,
null,,black_cross(without_color)1,454736,,,,,,,,blue,,,null,object_10c.png,object_12b.png,,,,,,,,,,,,,,,,,,,,
null,,rt_plussign_withcolor1,455238,,,,,,,,blue,,,null,object_10c.png,object_12b.png,,,,,,,,,,,,,,,,,,,,
1342.7999999523163,,rt_thecrossant_black1,456217,,,,,,,,black_plus_sign,,,49,,,1,,,,,,,1,,,,,,,,,,,,
null,,color_black1,456320,,,,,,,,black_plus_sign,,,null,,,,,,,,,,,,,,,,,,,,,,
null,,learn_phase(without_color)1,459823,,,,,,,,black_plus_sign,,,null,object_07c.png,object_01b.png,,,,,,,,,,,,,,,,,,,,
null,,black_cross(without_color)1,460839,,,,,,,,green,,,null,object_07c.png,object_01b.png,,,,,,,,,,,,,,,,,,,,
null,,rt_plussign_withcolor1,461341,,,,,,,,green,,,null,object_07c.png,object_01b.png,,,,,,,,,,,,,,,,,,,,
1439.6000000238419,,rt_thecrossant_black1,462332,,,,,,,,black_plus_sign,,,50,,,1,,,,,,,1,,,,,,,,,,,,
null,,color_black1,462448,,,,,,,,black_plus_sign,,,null,,,,,,,,,,,,,,,,,,,,,,
null,,learn_phase(without_color)1,465952,,,,,,,,black_plus_sign,,,null,object_04a.png,object_02c.png,,,,,,,,,,,,,,,,,,,,
null,,black_cross(without_color)1,466357,,,,,,,,blue,,,null,object_04a.png,object_02c.png,,,,,,,,,,,,,,,,,,,,
null,,rt_plussign_withcolor1,466859,,,,,,,,blue,,,null,object_04a.png,object_02c.png,,,,,,,,,,,,,,,,,,,,
1686.699999988079,,rt_thecrossant_black1,468460,,,,,,,,black_plus_sign,,,49,,,1,,,,,,,1,,,,,,,,,,,,
null,,color_black1,468563,,,,,,,,black_plus_sign,,,null,,,,,,,,,,,,,,,,,,,,,,
null,,learn_phase(without_color)1,472066,,,,,,,,black_plus_sign,,,null,object_06a.png,object_03c.png,,,,,,,,,,,,,,,,,,,,
null,,black_cross(without_color)1,472614,,,,,,,,green,,,null,object_06a.png,object_03c.png,,,,,,,,,,,,,,,,,,,,
null,,rt_plussign_withcolor1,473116,,,,,,,,green,,,null,object_06a.png,object_03c.png,,,,,,,,,,,,,,,,,,,,
850.6999999880791,,rt_thecrossant_black1,474584,,,,,,,,black_plus_sign,,,50,,,1,,,,,,,1,,,,,,,,,,,,
null,,color_black1,474686,,,,,,,,black_plus_sign,,,null,,,,,,,,,,,,,,,,,,,,,,
null,,learn_phase(without_color)1,478190,,,,,,,,black_plus_sign,,,null,object_11c.png,object_02b.png,,,,,,,,,,,,,,,,,,,,
null,,black_cross(without_color)1,479179,,,,,,,,green,,,null,object_11c.png,object_02b.png,,,,,,,,,,,,,,,,,,,,
null,,rt_plussign_withcolor1,479681,,,,,,,,green,,,null,object_11c.png,object_02b.png,,,,,,,,,,,,,,,,,,,,
919.1000000238419,,rt_thecrossant_black1,480699,,,,,,,,black_plus_sign,,,50,,,1,,,,,,,1,,,,,,,,,,,,
null,,color_black1,480802,,,,,,,,black_plus_sign,,,null,,,,,,,,,,,,,,,,,,,,,,
null,,learn_phase(without_color)1,484306,,,,,,,,black_plus_sign,,,null,object_14b.png,object_08b.png,,,,,,,,,,,,,,,,,,,,
null,,black_cross(without_color)1,484752,,,,,,,,blue,,,null,object_14b.png,object_08b.png,,,,,,,,,,,,,,,,,,,,
null,,rt_plussign_withcolor1,485254,,,,,,,,blue,,,null,object_14b.png,object_08b.png,,,,,,,,,,,,,,,,,,,,
1859.699999988079,,rt_thecrossant_black1,486815,,,,,,,,black_plus_sign,,,49,,,1,,,,,,,1,,,,,,,,,,,,
null,,color_black1,486917,,,,,,,,black_plus_sign,,,null,,,,,,,,,,,,,,,,,,,,,,
null,,learn_phase(without_color)1,490420,,,,,,,,black_plus_sign,,,null,object_10a.png,object_14b.png,,,,,,,,,,,,,,,,,,,,
null,,black_cross(without_color)1,490975,,,,,,,,blue,,,null,object_10a.png,object_14b.png,,,,,,,,,,,,,,,,,,,,
null,,rt_plussign_withcolor1,491478,,,,,,,,blue,,,null,object_10a.png,object_14b.png,,,,,,,,,,,,,,,,,,,,
945.0999999642372,,rt_thecrossant_black1,492929,,,,,,,,black_plus_sign,,,49,,,1,,,,,,,1,,,,,,,,,,,,
null,,color_black1,493031,,,,,,,,black_plus_sign,,,null,,,,,,,,,,,,,,,,,,,,,,
null,,learn_phase(without_color)1,496536,,,,,,,,black_plus_sign,,,null,object_01b.png,object_05b.png,,,,,,,,,,,,,,,,,,,,
null,,black_cross(without_color)1,497475,,,,,,,,green,,,null,object_01b.png,object_05b.png,,,,,,,,,,,,,,,,,,,,
null,,rt_plussign_withcolor1,497977,,,,,,,,green,,,null,object_01b.png,object_05b.png,,,,,,,,,,,,,,,,,,,,
1008.6999999880791,,rt_thecrossant_black1,499044,,,,,,,,black_plus_sign,,,50,,,1,,,,,,,1,,,,,,,,,,,,
null,,color_black1,499147,,,,,,,,black_plus_sign,,,null,,,,,,,,,,,,,,,,,,,,,,
null,,learn_phase(without_color)1,502651,,,,,,,,black_plus_sign,,,null,object_12a.png,object_14c.png,,,,,,,,,,,,,,,,,,,,
null,,black_cross(without_color)1,503678,,,,,,,,blue,,,null,object_12a.png,object_14c.png,,,,,,,,,,,,,,,,,,,,
null,,rt_plussign_withcolor1,504181,,,,,,,,blue,,,null,object_12a.png,object_14c.png,,,,,,,,,,,,,,,,,,,,
1645.5999999642372,,rt_thecrossant_black1,505160,,,,,,,,black_plus_sign,,,50,,,0,,,,,,,0.9565217391304348,,,,,,,,,,,,
null,,color_black1,505265,,,,,,,,black_plus_sign,,,null,,,,,,,,,,,,,,,,,,,,,,
null,,learn_phase(without_color)1,508768,,,,,,,,black_plus_sign,,,null,object_06c.png,object_04a.png,,,,,,,,,,,,,,,,,,,,
null,,black_cross(without_color)1,509565,,,,,,,,green,,,null,object_06c.png,object_04a.png,,,,,,,,,,,,,,,,,,,,
null,,rt_plussign_withcolor1,510066,,,,,,,,green,,,null,object_06c.png,object_04a.png,,,,,,,,,,,,,,,,,,,,
1480.3999999761581,,rt_thecrossant_black1,511275,,,,,,,,black_plus_sign,,,50,,,1,,,,,,,0.9583333333333334,,,,,,,,,,,,
null,,color_black1,511377,,,,,,,,black_plus_sign,,,null,,,,,,,,,,,,,,,,,,,,,,
null,,learn_phase(without_color)1,514880,,,,,,,,black_plus_sign,,,null,object_11b.png,object_09a.png,,,,,,,,,,,,,,,,,,,,
null,,black_cross(without_color)1,515806,,,,,,,,green,,,null,object_11b.png,object_09a.png,,,,,,,,,,,,,,,,,,,,
null,,rt_plussign_withcolor1,516308,,,,,,,,green,,,null,object_11b.png,object_09a.png,,,,,,,,,,,,,,,,,,,,
1156.3999999761581,,rt_thecrossant_black1,517385,,,,,,,,black_plus_sign,,,50,,,1,,,,,,,0.96,,,,,,,,,,,,
null,,color_black1,517488,,,,,,,,black_plus_sign,,,null,,,,,,,,,,,,,,,,,,,,,,
null,,learn_phase(without_color)1,520992,,,,,,,,black_plus_sign,,,null,object_01a.png,object_15c.png,,,,,,,,,,,,,,,,,,,,
null,,black_cross(without_color)1,521666,,,,,,,,green,,,null,object_01a.png,object_15c.png,,,,,,,,,,,,,,,,,,,,
null,,rt_plussign_withcolor1,522168,,,,,,,,green,,,null,object_01a.png,object_15c.png,,,,,,,,,,,,,,,,,,,,
1307.3999999761581,,rt_thecrossant_black1,523500,,,,,,,,black_plus_sign,,,50,,,1,,,,,,,0.9615384615384616,,,,,,,,,,,,
null,,color_black1,523603,,,,,,,,black_plus_sign,,,null,,,,,,,,,,,,,,,,,,,,,,
null,,learn_phase(without_color)1,527108,,,,,,,,black_plus_sign,,,null,object_13a.png,object_11c.png,,,,,,,,,,,,,,,,,,,,
null,,black_cross(without_color)1,527608,,,,,,,,green,,,null,object_13a.png,object_11c.png,,,,,,,,,,,,,,,,,,,,
null,,rt_plussign_withcolor1,528110,,,,,,,,green,,,null,object_13a.png,object_11c.png,,,,,,,,,,,,,,,,,,,,
1243.5,,rt_thecrossant_black1,529617,,,,,,,,black_plus_sign,,,50,,,1,,,,,,,0.9629629629629629,,,,,,,,,,,,
null,,color_black1,529720,,,,,,,,black_plus_sign,,,null,,,,,,,,,,,,,,,,,,,,,,
null,,learn_phase(without_color)1,533223,,,,,,,,black_plus_sign,,,null,object_11a.png,object_13c.png,,,,,,,,,,,,,,,,,,,,
null,,black_cross(without_color)1,534062,,,,,,,,green,,,null,object_11a.png,object_13c.png,,,,,,,,,,,,,,,,,,,,
null,,rt_plussign_withcolor1,534564,,,,,,,,green,,,null,object_11a.png,object_13c.png,,,,,,,,,,,,,,,,,,,,
1048.4000000357628,,rt_thecrossant_black1,535732,,,,,,,,black_plus_sign,,,50,,,1,,,,,,,0.9642857142857143,,,,,,,,,,,,
null,,color_black1,535834,,,,,,,,black_plus_sign,,,null,,,,,,,,,,,,,,,,,,,,,,
null,,learn_phase(without_color)1,539337,,,,,,,,black_plus_sign,,,null,object_02a.png,object_11b.png,,,,,,,,,,,,,,,,,,,,
null,,black_cross(without_color)1,539922,,,,,,,,blue,,,null,object_02a.png,object_11b.png,,,,,,,,,,,,,,,,,,,,
null,,rt_plussign_withcolor1,540424,,,,,,,,blue,,,null,object_02a.png,object_11b.png,,,,,,,,,,,,,,,,,,,,
1242.8999999761581,,rt_thecrossant_black1,541846,,,,,,,,black_plus_sign,,,49,,,1,,,,,,,0.9655172413793104,,,,,,,,,,,,
null,,color_black1,541949,,,,,,,,black_plus_sign,,,null,,,,,,,,,,,,,,,,,,,,,,
null,,thebreak,542060,,,,,,,,<p></p>,,,null,,,,,,,,,,,,,,,,,,,,,,
2181.099999964237,,intro_0,544243,,,,,,,,instruct,,,32,,,,,,,,,,,,,,,,,,,,,,
5938.800000011921,,directmemory_phase1,550183,,,,,,,,object_12c.png,,,50,,,1,,object_15b.png,object_08c.png,object_08a.png,object_08c.png,,1,1,,,,,,,,,,,
5527.300000011921,,directmemory_phase1,555712,,,,,,,,object_11c.png,,,50,,,1,,object_08c.png,object_13a.png,object_06c.png,object_13a.png,,1,1,,,,,,,,,,,
4235.800000011921,,directmemory_phase1,559950,,,,,,,,object_09b.png,,,49,,,1,,object_14a.png,object_01c.png,object_03b.png,object_14a.png,,1,1,,,,,,,,,,,
5342.199999988079,,directmemory_phase1,565295,,,,,,,,object_09a.png,,,51,,,0,,object_11b.png,object_07a.png,object_01b.png,object_11b.png,,0.75,0,,,,,,,,,,,
5969.699999988079,,directmemory_phase1,571268,,,,,,,,object_12a.png,,,49,,,0,,object_02a.png,object_07c.png,object_15b.png,object_15b.png,,0.6,0,,,,,,,,,,,
6715.100000023842,,directmemory_phase1,577985,,,,,,,,object_08b.png,,,49,,,0,,object_04c.png,object_12c.png,object_14b.png,object_14b.png,,0.5,0,,,,,,,,,,,
3337.699999988079,,directmemory_phase1,581325,,,,,,,,object_03c.png,,,50,,,1,,object_04a.png,object_06a.png,object_14b.png,object_06a.png,,0.5714285714285714,1,,,,,,,,,,,
8730.399999976158,,directmemory_phase1,590057,,,,,,,,object_04c.png,,,51,,,0,,object_06c.png,object_01c.png,object_14a.png,object_01c.png,,0.5,0,,,,,,,,,,,
4984.899999976158,,directmemory_phase1,595044,,,,,,,,object_14c.png,,,51,,,1,,object_10c.png,object_09b.png,object_12a.png,object_12a.png,,0.5555555555555556,1,,,,,,,,,,,
6706.600000023842,,directmemory_phase1,601754,,,,,,,,object_04a.png,,,51,,,0,,object_06c.png,object_08a.png,object_01c.png,object_06c.png,,0.5,0,,,,,,,,,,,
7863.199999988079,,directmemory_phase1,609621,,,,,,,,object_09c.png,,,49,,,1,,object_07a.png,object_03a.png,object_04a.png,object_07a.png,,0.5454545454545454,1,,,,,,,,,,,
4093.899999976158,,directmemory_phase1,613719,,,,,,,,object_07b.png,,,50,,,1,,object_03a.png,object_04c.png,object_04a.png,object_04c.png,,0.5833333333333334,1,,,,,,,,,,,
4625.800000011921,,directmemory_phase1,618348,,,,,,,,object_03a.png,,,49,,,0,,object_07c.png,object_01c.png,object_05a.png,object_05a.png,,0.5384615384615384,0,,,,,,,,,,,
5899.099999964237,,directmemory_phase1,624250,,,,,,,,object_01b.png,,,49,,,0,,object_15b.png,object_07c.png,object_08a.png,object_07c.png,,0.5,0,,,,,,,,,,,
5760.199999988079,,directmemory_phase1,630012,,,,,,,,object_13c.png,,,49,,,1,,object_11a.png,object_03a.png,object_07a.png,object_11a.png,,0.5333333333333333,1,,,,,,,,,,,
5094.400000035763,,directmemory_phase1,635108,,,,,,,,object_05b.png,,,50,,,1,,object_12a.png,object_01b.png,object_09b.png,object_01b.png,,0.5625,1,,,,,,,,,,,
3604.5,,directmemory_phase1,638715,,,,,,,,object_04b.png,,,49,,,1,,object_03a.png,object_06a.png,object_09b.png,object_03a.png,,0.5882352941176471,1,,,,,,,,,,,
6052.400000035763,,directmemory_phase1,644771,,,,,,,,object_14b.png,,,49,,,1,,object_10a.png,object_01c.png,object_07c.png,object_10a.png,,0.6111111111111112,1,,,,,,,,,,,
10383.600000023842,,directmemory_phase1,655157,,,,,,,,object_10c.png,,,50,,,1,,object_07c.png,object_06b.png,object_15b.png,object_06b.png,,0.631578947368421,1,,,,,,,,,,,
5958.900000035763,,directmemory_phase1,661119,,,,,,,,object_01a.png,,,49,,,1,,object_13b.png,object_07c.png,object_01c.png,object_13b.png,,0.65,1,,,,,,,,,,,
6807.800000011921,,directmemory_phase1,667931,,,,,,,,object_15a.png,,,50,,,0,,object_09b.png,object_01a.png,object_12a.png,object_09b.png,,0.6190476190476191,0,,,,,,,,,,,
7517.199999988079,,directmemory_phase1,675452,,,,,,,,object_06a.png,,,50,,,0,,object_10b.png,object_06c.png,object_10a.png,object_10b.png,,0.5909090909090909,0,,,,,,,,,,,
5663.299999952316,,directmemory_phase1,681117,,,,,,,,object_15c.png,,,49,,,1,,object_01a.png,object_12c.png,object_10c.png,object_01a.png,,0.6086956521739131,1,,,,,,,,,,,
6170.600000023842,,directmemory_phase1,687289,,,,,,,,object_02b.png,,,49,,,1,,object_11c.png,object_09b.png,object_01a.png,object_11c.png,,0.625,1,,,,,,,,,,,
8801.300000011921,,directmemory_phase1,696093,,,,,,,,object_02c.png,,,51,,,1,,object_11b.png,object_03a.png,object_04a.png,object_04a.png,,0.64,1,,,,,,,,,,,
5877,,directmemory_phase1,701975,,,,,,,,object_12b.png,,,50,,,1,,object_04c.png,object_10c.png,object_09b.png,object_10c.png,,0.6538461538461539,1,,,,,,,,,,,
4756.599999964237,,directmemory_phase1,706735,,,,,,,,object_11b.png,,,51,,,0,,object_02a.png,object_05a.png,object_10b.png,object_02a.png,,0.6296296296296297,0,,,,,,,,,,,
4448.199999988079,,directmemory_phase1,711186,,,,,,,,object_11a.png,,,50,,,1,,object_08a.png,object_03b.png,object_06c.png,object_03b.png,,0.6428571428571429,1,,,,,,,,,,,
4997,,directmemory_phase1,716186,,,,,,,,object_07a.png,,,51,,,1,,object_15b.png,object_08c.png,object_08a.png,object_08a.png,,0.6551724137931034,1,,,,,,,,,,,
8668.800000011921,,directmemory_phase1,724858,,,,,,,,object_05c.png,,,49,,,1,,object_12c.png,object_04c.png,object_12a.png,object_12c.png,,0.6666666666666666,1,,,,,,,,,,,
null,,thebreak,724963,,,,,,,,<p></p>,,,null,,,,,,,,,,,,,,,,,,,,,,
2953.099999964237,,intro_0,727918,,,,,,,,instruct,,,32,,,,,,,,,,,,,,,,,,,,,,
null,,learn_phase(without_color)2,731420,,,,,,,,black_plus_sign,,,null,object_06b.png,object_10c.png,,,,,,,,,,,,,,,,,,,,
null,,black_cross(without_color)2,732421,,,,,,,,green,,,null,object_06b.png,object_10c.png,,,,,,,,,,,,,,,,,,,,
null,,rt_plussign_withcolor2,732923,,,,,,,,green,,,null,object_06b.png,object_10c.png,,,,,,,,,,,,,,,,,,,,
null,,rt_thecrossant_black2,733929,,,,,,,,black_plus_sign,,,null,,,,,,,,,,NaN,,,,,,,,,,,,
null,,color_black2,734031,,,,,,,,black_plus_sign,,,null,,,,,,,,,,,,,,,,,,,,,,
null,,learn_phase(without_color)2,737549,,,,,,,,black_plus_sign,,,null,object_11b.png,object_09a.png,,,,,,,,,,,,,,,,,,,,
null,,black_cross(without_color)2,738538,,,,,,,,green,,,null,object_11b.png,object_09a.png,,,,,,,,,,,,,,,,,,,,
null,,rt_plussign_withcolor2,739040,,,,,,,,green,,,null,object_11b.png,object_09a.png,,,,,,,,,,,,,,,,,,,,
null,,rt_thecrossant_black2,740058,,,,,,,,black_plus_sign,,,null,,,,,,,,,,NaN,,,,,,,,,,,,
null,,warning_page,745060,,,,,,,,warning,,,null,,,,,,,,,,,,,,,,,,,,,,
null,,color_black2,745163,,,,,,,,black_plus_sign,,,null,,,,,,,,,,,,,,,,,,,,,,
null,,learn_phase(without_color)2,748667,,,,,,,,black_plus_sign,,,null,object_13a.png,object_11c.png,,,,,,,,,,,,,,,,,,,,
null,,black_cross(without_color)2,749178,,,,,,,,green,,,null,object_13a.png,object_11c.png,,,,,,,,,,,,,,,,,,,,
null,,rt_plussign_withcolor2,749681,,,,,,,,green,,,null,object_13a.png,object_11c.png,,,,,,,,,,,,,,,,,,,,
1377.7999999523163,,rt_thecrossant_black2,751182,,,,,,,,black_plus_sign,,,50,,,1,,,,,,,1,,,,,,,,,,,,
null,,color_black2,751285,,,,,,,,black_plus_sign,,,null,,,,,,,,,,,,,,,,,,,,,,
null,,learn_phase(without_color)2,754788,,,,,,,,black_plus_sign,,,null,object_07c.png,object_01b.png,,,,,,,,,,,,,,,,,,,,
null,,black_cross(without_color)2,755346,,,,,,,,blue,,,null,object_07c.png,object_01b.png,,,,,,,,,,,,,,,,,,,,
null,,rt_plussign_withcolor2,755849,,,,,,,,blue,,,null,object_07c.png,object_01b.png,,,,,,,,,,,,,,,,,,,,
905.4000000357628,,rt_thecrossant_black2,757296,,,,,,,,black_plus_sign,,,49,,,1,,,,,,,1,,,,,,,,,,,,
null,,color_black2,757399,,,,,,,,black_plus_sign,,,null,,,,,,,,,,,,,,,,,,,,,,
null,,learn_phase(without_color)2,760903,,,,,,,,black_plus_sign,,,null,object_11a.png,object_13c.png,,,,,,,,,,,,,,,,,,,,
null,,black_cross(without_color)2,761708,,,,,,,,blue,,,null,object_11a.png,object_13c.png,,,,,,,,,,,,,,,,,,,,
null,,rt_plussign_withcolor2,762217,,,,,,,,blue,,,null,object_11a.png,object_13c.png,,,,,,,,,,,,,,,,,,,,
1029.300000011921,,rt_thecrossant_black2,763419,,,,,,,,black_plus_sign,,,49,,,1,,,,,,,1,,,,,,,,,,,,
null,,color_black2,763522,,,,,,,,black_plus_sign,,,null,,,,,,,,,,,,,,,,,,,,,,
null,,learn_phase(without_color)2,767037,,,,,,,,black_plus_sign,,,null,object_14a.png,object_09b.png,,,,,,,,,,,,,,,,,,,,
null,,black_cross(without_color)2,767635,,,,,,,,green,,,null,object_14a.png,object_09b.png,,,,,,,,,,,,,,,,,,,,
null,,rt_plussign_withcolor2,768137,,,,,,,,green,,,null,object_14a.png,object_09b.png,,,,,,,,,,,,,,,,,,,,
1187.5999999642372,,rt_thecrossant_black2,769547,,,,,,,,black_plus_sign,,,50,,,1,,,,,,,1,,,,,,,,,,,,
null,,color_black2,769649,,,,,,,,black_plus_sign,,,null,,,,,,,,,,,,,,,,,,,,,,
null,,learn_phase(without_color)2,773153,,,,,,,,black_plus_sign,,,null,object_10a.png,object_14b.png,,,,,,,,,,,,,,,,,,,,
null,,black_cross(without_color)2,774045,,,,,,,,green,,,null,object_10a.png,object_14b.png,,,,,,,,,,,,,,,,,,,,
null,,rt_plussign_withcolor2,774546,,,,,,,,green,,,null,object_10a.png,object_14b.png,,,,,,,,,,,,,,,,,,,,
1040.699999988079,,rt_thecrossant_black2,775666,,,,,,,,black_plus_sign,,,50,,,1,,,,,,,1,,,,,,,,,,,,
null,,color_black2,775769,,,,,,,,black_plus_sign,,,null,,,,,,,,,,,,,,,,,,,,,,
null,,learn_phase(without_color)2,779271,,,,,,,,black_plus_sign,,,null,object_10b.png,object_06a.png,,,,,,,,,,,,,,,,,,,,
null,,black_cross(without_color)2,780213,,,,,,,,green,,,null,object_10b.png,object_06a.png,,,,,,,,,,,,,,,,,,,,
null,,rt_plussign_withcolor2,780715,,,,,,,,green,,,null,object_10b.png,object_06a.png,,,,,,,,,,,,,,,,,,,,
1201.5,,rt_thecrossant_black2,781785,,,,,,,,black_plus_sign,,,50,,,1,,,,,,,1,,,,,,,,,,,,
null,,color_black2,781887,,,,,,,,black_plus_sign,,,null,,,,,,,,,,,,,,,,,,,,,,
null,,learn_phase(without_color)2,785391,,,,,,,,black_plus_sign,,,null,object_04a.png,object_02c.png,,,,,,,,,,,,,,,,,,,,
null,,black_cross(without_color)2,786097,,,,,,,,blue,,,null,object_04a.png,object_02c.png,,,,,,,,,,,,,,,,,,,,
null,,rt_plussign_withcolor2,786598,,,,,,,,blue,,,null,object_04a.png,object_02c.png,,,,,,,,,,,,,,,,,,,,
1260.0999999642372,,rt_thecrossant_black2,787900,,,,,,,,black_plus_sign,,,49,,,1,,,,,,,1,,,,,,,,,,,,
null,,color_black2,788003,,,,,,,,black_plus_sign,,,null,,,,,,,,,,,,,,,,,,,,,,
null,,learn_phase(without_color)2,791508,,,,,,,,black_plus_sign,,,null,object_13b.png,object_01a.png,,,,,,,,,,,,,,,,,,,,
null,,black_cross(without_color)2,792290,,,,,,,,blue,,,null,object_13b.png,object_01a.png,,,,,,,,,,,,,,,,,,,,
null,,rt_plussign_withcolor2,792792,,,,,,,,blue,,,null,object_13b.png,object_01a.png,,,,,,,,,,,,,,,,,,,,
1152.199999988079,,rt_thecrossant_black2,794016,,,,,,,,black_plus_sign,,,49,,,1,,,,,,,1,,,,,,,,,,,,
null,,color_black2,794119,,,,,,,,black_plus_sign,,,null,,,,,,,,,,,,,,,,,,,,,,
null,,learn_phase(without_color)2,797622,,,,,,,,black_plus_sign,,,null,object_09b.png,object_15a.png,,,,,,,,,,,,,,,,,,,,
null,,black_cross(without_color)2,798583,,,,,,,,green,,,null,object_09b.png,object_15a.png,,,,,,,,,,,,,,,,,,,,
null,,rt_plussign_withcolor2,799086,,,,,,,,green,,,null,object_09b.png,object_15a.png,,,,,,,,,,,,,,,,,,,,
1364.199999988079,,rt_thecrossant_black2,800131,,,,,,,,black_plus_sign,,,50,,,1,,,,,,,1,,,,,,,,,,,,
null,,color_black2,800234,,,,,,,,black_plus_sign,,,null,,,,,,,,,,,,,,,,,,,,,,
null,,learn_phase(without_color)2,803736,,,,,,,,black_plus_sign,,,null,object_12a.png,object_14c.png,,,,,,,,,,,,,,,,,,,,
null,,black_cross(without_color)2,804773,,,,,,,,green,,,null,object_12a.png,object_14c.png,,,,,,,,,,,,,,,,,,,,
null,,rt_plussign_withcolor2,805275,,,,,,,,green,,,null,object_12a.png,object_14c.png,,,,,,,,,,,,,,,,,,,,
1308.5,,rt_thecrossant_black2,806242,,,,,,,,black_plus_sign,,,50,,,1,,,,,,,1,,,,,,,,,,,,
null,,color_black2,806343,,,,,,,,black_plus_sign,,,null,,,,,,,,,,,,,,,,,,,,,,
null,,learn_phase(without_color)2,809845,,,,,,,,black_plus_sign,,,null,object_15b.png,object_12a.png,,,,,,,,,,,,,,,,,,,,
null,,black_cross(without_color)2,810468,,,,,,,,green,,,null,object_15b.png,object_12a.png,,,,,,,,,,,,,,,,,,,,
null,,rt_plussign_withcolor2,810977,,,,,,,,green,,,null,object_15b.png,object_12a.png,,,,,,,,,,,,,,,,,,,,
1585,,rt_thecrossant_black2,812358,,,,,,,,black_plus_sign,,,50,,,1,,,,,,,1,,,,,,,,,,,,
null,,color_black2,812460,,,,,,,,black_plus_sign,,,null,,,,,,,,,,,,,,,,,,,,,,
null,,learn_phase(without_color)2,815962,,,,,,,,black_plus_sign,,,null,object_08a.png,object_07a.png,,,,,,,,,,,,,,,,,,,,
null,,black_cross(without_color)2,816387,,,,,,,,green,,,null,object_08a.png,object_07a.png,,,,,,,,,,,,,,,,,,,,
null,,rt_plussign_withcolor2,816901,,,,,,,,green,,,null,object_08a.png,object_07a.png,,,,,,,,,,,,,,,,,,,,
1088.7000000476837,,rt_thecrossant_black2,818481,,,,,,,,black_plus_sign,,,50,,,1,,,,,,,1,,,,,,,,,,,,
null,,color_black2,818590,,,,,,,,black_plus_sign,,,null,,,,,,,,,,,,,,,,,,,,,,
null,,learn_phase(without_color)2,822094,,,,,,,,black_plus_sign,,,null,object_03b.png,object_11a.png,,,,,,,,,,,,,,,,,,,,
null,,black_cross(without_color)2,822592,,,,,,,,blue,,,null,object_03b.png,object_11a.png,,,,,,,,,,,,,,,,,,,,
null,,rt_plussign_withcolor2,823094,,,,,,,,blue,,,null,object_03b.png,object_11a.png,,,,,,,,,,,,,,,,,,,,
1175.1000000238419,,rt_thecrossant_black2,824603,,,,,,,,black_plus_sign,,,49,,,1,,,,,,,1,,,,,,,,,,,,
null,,color_black2,824705,,,,,,,,black_plus_sign,,,null,,,,,,,,,,,,,,,,,,,,,,
null,,learn_phase(without_color)2,828209,,,,,,,,black_plus_sign,,,null,object_01b.png,object_05b.png,,,,,,,,,,,,,,,,,,,,
null,,black_cross(without_color)2,829177,,,,,,,,green,,,null,object_01b.png,object_05b.png,,,,,,,,,,,,,,,,,,,,
null,,rt_plussign_withcolor2,829678,,,,,,,,green,,,null,object_01b.png,object_05b.png,,,,,,,,,,,,,,,,,,,,
1004.1999999880791,,rt_thecrossant_black2,830728,,,,,,,,black_plus_sign,,,50,,,1,,,,,,,1,,,,,,,,,,,,
null,,color_black2,830831,,,,,,,,black_plus_sign,,,null,,,,,,,,,,,,,,,,,,,,,,
null,,learn_phase(without_color)2,834346,,,,,,,,black_plus_sign,,,null,object_11c.png,object_02b.png,,,,,,,,,,,,,,,,,,,,
null,,black_cross(without_color)2,834989,,,,,,,,blue,,,null,object_11c.png,object_02b.png,,,,,,,,,,,,,,,,,,,,
null,,rt_plussign_withcolor2,835491,,,,,,,,blue,,,null,object_11c.png,object_02b.png,,,,,,,,,,,,,,,,,,,,
1299.699999988079,,rt_thecrossant_black2,836853,,,,,,,,black_plus_sign,,,49,,,1,,,,,,,1,,,,,,,,,,,,
null,,color_black2,836957,,,,,,,,black_plus_sign,,,null,,,,,,,,,,,,,,,,,,,,,,
null,,learn_phase(without_color)2,840461,,,,,,,,black_plus_sign,,,null,object_06a.png,object_03c.png,,,,,,,,,,,,,,,,,,,,
null,,black_cross(without_color)2,841037,,,,,,,,blue,,,null,object_06a.png,object_03c.png,,,,,,,,,,,,,,,,,,,,
null,,rt_plussign_withcolor2,841539,,,,,,,,blue,,,null,object_06a.png,object_03c.png,,,,,,,,,,,,,,,,,,,,
1635.1000000238419,,rt_thecrossant_black2,842983,,,,,,,,black_plus_sign,,,49,,,1,,,,,,,1,,,,,,,,,,,,
null,,color_black2,843087,,,,,,,,black_plus_sign,,,null,,,,,,,,,,,,,,,,,,,,,,
null,,learn_phase(without_color)2,846591,,,,,,,,black_plus_sign,,,null,object_12c.png,object_05c.png,,,,,,,,,,,,,,,,,,,,
null,,black_cross(without_color)2,847537,,,,,,,,green,,,null,object_12c.png,object_05c.png,,,,,,,,,,,,,,,,,,,,
null,,rt_plussign_withcolor2,848053,,,,,,,,green,,,null,object_12c.png,object_05c.png,,,,,,,,,,,,,,,,,,,,
884.8000000119209,,rt_thecrossant_black2,849115,,,,,,,,black_plus_sign,,,50,,,1,,,,,,,1,,,,,,,,,,,,
null,,color_black2,849219,,,,,,,,black_plus_sign,,,null,,,,,,,,,,,,,,,,,,,,,,
null,,learn_phase(without_color)2,852723,,,,,,,,black_plus_sign,,,null,object_05a.png,object_03a.png,,,,,,,,,,,,,,,,,,,,
null,,black_cross(without_color)2,853306,,,,,,,,green,,,null,object_05a.png,object_03a.png,,,,,,,,,,,,,,,,,,,,
null,,rt_plussign_withcolor2,853807,,,,,,,,green,,,null,object_05a.png,object_03a.png,,,,,,,,,,,,,,,,,,,,
1639.5,,rt_thecrossant_black2,855242,,,,,,,,black_plus_sign,,,50,,,1,,,,,,,1,,,,,,,,,,,,
null,,color_black2,855344,,,,,,,,black_plus_sign,,,null,,,,,,,,,,,,,,,,,,,,,,
null,,learn_phase(without_color)2,858848,,,,,,,,black_plus_sign,,,null,object_14b.png,object_08b.png,,,,,,,,,,,,,,,,,,,,
null,,black_cross(without_color)2,859719,,,,,,,,blue,,,null,object_14b.png,object_08b.png,,,,,,,,,,,,,,,,,,,,
null,,rt_plussign_withcolor2,860222,,,,,,,,blue,,,null,object_14b.png,object_08b.png,,,,,,,,,,,,,,,,,,,,
1448.300000011921,,rt_thecrossant_black2,861357,,,,,,,,black_plus_sign,,,49,,,1,,,,,,,1,,,,,,,,,,,,
null,,color_black2,861460,,,,,,,,black_plus_sign,,,null,,,,,,,,,,,,,,,,,,,,,,
null,,learn_phase(without_color)2,864964,,,,,,,,black_plus_sign,,,null,object_08c.png,object_12c.png,,,,,,,,,,,,,,,,,,,,
null,,black_cross(without_color)2,865662,,,,,,,,blue,,,null,object_08c.png,object_12c.png,,,,,,,,,,,,,,,,,,,,
null,,rt_plussign_withcolor2,866164,,,,,,,,blue,,,null,object_08c.png,object_12c.png,,,,,,,,,,,,,,,,,,,,
1267.2000000476837,,rt_thecrossant_black2,867472,,,,,,,,black_plus_sign,,,49,,,1,,,,,,,1,,,,,,,,,,,,
null,,color_black2,867575,,,,,,,,black_plus_sign,,,null,,,,,,,,,,,,,,,,,,,,,,
null,,learn_phase(without_color)2,871077,,,,,,,,black_plus_sign,,,null,object_01a.png,object_15c.png,,,,,,,,,,,,,,,,,,,,
null,,black_cross(without_color)2,872111,,,,,,,,green,,,null,object_01a.png,object_15c.png,,,,,,,,,,,,,,,,,,,,
null,,rt_plussign_withcolor2,872614,,,,,,,,green,,,null,object_01a.png,object_15c.png,,,,,,,,,,,,,,,,,,,,
1095.5999999642372,,rt_thecrossant_black2,873583,,,,,,,,black_plus_sign,,,50,,,1,,,,,,,1,,,,,,,,,,,,
null,,color_black2,873686,,,,,,,,black_plus_sign,,,null,,,,,,,,,,,,,,,,,,,,,,
null,,learn_phase(without_color)2,877189,,,,,,,,black_plus_sign,,,null,object_01c.png,object_04c.png,,,,,,,,,,,,,,,,,,,,
null,,black_cross(without_color)2,877605,,,,,,,,green,,,null,object_01c.png,object_04c.png,,,,,,,,,,,,,,,,,,,,
null,,rt_plussign_withcolor2,878107,,,,,,,,green,,,null,object_01c.png,object_04c.png,,,,,,,,,,,,,,,,,,,,
1786.699999988079,,rt_thecrossant_black2,879705,,,,,,,,black_plus_sign,,,50,,,1,,,,,,,1,,,,,,,,,,,,
null,,color_black2,879808,,,,,,,,black_plus_sign,,,null,,,,,,,,,,,,,,,,,,,,,,
null,,learn_phase(without_color)2,883311,,,,,,,,black_plus_sign,,,null,object_06c.png,object_04a.png,,,,,,,,,,,,,,,,,,,,
null,,black_cross(without_color)2,884059,,,,,,,,blue,,,null,object_06c.png,object_04a.png,,,,,,,,,,,,,,,,,,,,
null,,rt_plussign_withcolor2,884570,,,,,,,,blue,,,null,object_06c.png,object_04a.png,,,,,,,,,,,,,,,,,,,,
894.6000000238419,,rt_thecrossant_black2,885826,,,,,,,,black_plus_sign,,,49,,,1,,,,,,,1,,,,,,,,,,,,
null,,color_black2,885929,,,,,,,,black_plus_sign,,,null,,,,,,,,,,,,,,,,,,,,,,
null,,learn_phase(without_color)2,889431,,,,,,,,black_plus_sign,,,null,object_02a.png,object_11b.png,,,,,,,,,,,,,,,,,,,,
null,,black_cross(without_color)2,889999,,,,,,,,green,,,null,object_02a.png,object_11b.png,,,,,,,,,,,,,,,,,,,,
null,,rt_plussign_withcolor2,890511,,,,,,,,green,,,null,object_02a.png,object_11b.png,,,,,,,,,,,,,,,,,,,,
1122.699999988079,,rt_thecrossant_black2,891950,,,,,,,,black_plus_sign,,,50,,,1,,,,,,,1,,,,,,,,,,,,
null,,color_black2,892052,,,,,,,,black_plus_sign,,,null,,,,,,,,,,,,,,,,,,,,,,
null,,learn_phase(without_color)2,895559,,,,,,,,black_plus_sign,,,null,object_07a.png,object_09c.png,,,,,,,,,,,,,,,,,,,,
null,,black_cross(without_color)2,896257,,,,,,,,green,,,null,object_07a.png,object_09c.png,,,,,,,,,,,,,,,,,,,,
null,,rt_plussign_withcolor2,896759,,,,,,,,green,,,null,object_07a.png,object_09c.png,,,,,,,,,,,,,,,,,,,,
966.7000000476837,,rt_thecrossant_black2,898067,,,,,,,,black_plus_sign,,,50,,,1,,,,,,,1,,,,,,,,,,,,
null,,color_black2,898170,,,,,,,,black_plus_sign,,,null,,,,,,,,,,,,,,,,,,,,,,
null,,learn_phase(without_color)2,901674,,,,,,,,black_plus_sign,,,null,object_10c.png,object_12b.png,,,,,,,,,,,,,,,,,,,,
null,,black_cross(without_color)2,902203,,,,,,,,green,,,null,object_10c.png,object_12b.png,,,,,,,,,,,,,,,,,,,,
null,,rt_plussign_withcolor2,902719,,,,,,,,green,,,null,object_10c.png,object_12b.png,,,,,,,,,,,,,,,,,,,,
1223.1000000238419,,rt_thecrossant_black2,904200,,,,,,,,black_plus_sign,,,50,,,1,,,,,,,1,,,,,,,,,,,,
null,,color_black2,904303,,,,,,,,black_plus_sign,,,null,,,,,,,,,,,,,,,,,,,,,,
null,,learn_phase(without_color)2,907806,,,,,,,,black_plus_sign,,,null,object_03a.png,object_04b.png,,,,,,,,,,,,,,,,,,,,
null,,black_cross(without_color)2,908559,,,,,,,,green,,,null,object_03a.png,object_04b.png,,,,,,,,,,,,,,,,,,,,
null,,rt_plussign_withcolor2,909061,,,,,,,,green,,,null,object_03a.png,object_04b.png,,,,,,,,,,,,,,,,,,,,
864.5,,rt_thecrossant_black2,910315,,,,,,,,black_plus_sign,,,50,,,1,,,,,,,1,,,,,,,,,,,,
null,,color_black2,910419,,,,,,,,black_plus_sign,,,null,,,,,,,,,,,,,,,,,,,,,,
null,,learn_phase(without_color)2,913922,,,,,,,,black_plus_sign,,,null,object_04c.png,object_07b.png,,,,,,,,,,,,,,,,,,,,
null,,black_cross(without_color)2,914890,,,,,,,,blue,,,null,object_04c.png,object_07b.png,,,,,,,,,,,,,,,,,,,,
null,,rt_plussign_withcolor2,915392,,,,,,,,blue,,,null,object_04c.png,object_07b.png,,,,,,,,,,,,,,,,,,,,
1482.800000011921,,rt_thecrossant_black2,916431,,,,,,,,black_plus_sign,,,49,,,1,,,,,,,1,,,,,,,,,,,,
null,,color_black2,916535,,,,,,,,black_plus_sign,,,null,,,,,,,,,,,,,,,,,,,,,,
null,,thebreak,916640,,,,,,,,<p></p>,,,null,,,,,,,,,,,,,,,,,,,,,,
1957.300000011921,,intro_0,918599,,,,,,,,instruct,,,32,,,,,,,,,,,,,,,,,,,,,,
11088.800000011921,,directmemory_phase2,929690,,,,,,,,object_10c.png,,,51,,,1,,object_01c.png,object_15b.png,object_06b.png,object_06b.png,,0.6774193548387096,1,,,,,,,,,,,
2438.5,,directmemory_phase2,932130,,,,,,,,object_07a.png,,,49,,,1,,object_08a.png,object_06c.png,object_13b.png,object_08a.png,,0.6875,1,,,,,,,,,,,
12550.600000023842,,directmemory_phase2,944682,,,,,,,,object_09a.png,,,50,,,1,,object_12c.png,object_11b.png,object_14b.png,object_11b.png,,0.696969696969697,1,,,,,,,,,,,
6522.600000023842,,directmemory_phase2,951208,,,,,,,,object_15c.png,,,50,,,1,,object_10c.png,object_01a.png,object_01b.png,object_01a.png,,0.7058823529411765,1,,,,,,,,,,,
7824.100000023842,,directmemory_phase2,959036,,,,,,,,object_12a.png,,,51,,,1,,object_06b.png,object_10b.png,object_15b.png,object_15b.png,,0.7142857142857143,1,,,,,,,,,,,
4762.400000035763,,directmemory_phase2,963800,,,,,,,,object_03c.png,,,51,,,1,,object_11a.png,object_12c.png,object_06a.png,object_06a.png,,0.7222222222222222,1,,,,,,,,,,,
4670.299999952316,,directmemory_phase2,968474,,,,,,,,object_01a.png,,,51,,,1,,object_03b.png,object_02a.png,object_13b.png,object_13b.png,,0.7297297297297297,1,,,,,,,,,,,
3132.099999964237,,directmemory_phase2,971610,,,,,,,,object_09b.png,,,50,,,1,,object_01c.png,object_14a.png,object_10a.png,object_14a.png,,0.7368421052631579,1,,,,,,,,,,,
2292.800000011921,,directmemory_phase2,973906,,,,,,,,object_12b.png,,,49,,,1,,object_10c.png,object_11b.png,object_09b.png,object_10c.png,,0.7435897435897436,1,,,,,,,,,,,
1836.4000000357628,,directmemory_phase2,975746,,,,,,,,object_07b.png,,,49,,,1,,object_04c.png,object_14b.png,object_01a.png,object_04c.png,,0.75,1,,,,,,,,,,,
13616.800000011921,,directmemory_phase2,989366,,,,,,,,object_01b.png,,,49,,,0,,object_02a.png,object_07c.png,object_03b.png,object_07c.png,,0.7317073170731707,0,,,,,,,,,,,
7617.199999988079,,directmemory_phase2,996986,,,,,,,,object_12c.png,,,49,,,1,,object_08c.png,object_03b.png,object_01c.png,object_08c.png,,0.7380952380952381,1,,,,,,,,,,,
9475.399999976158,,directmemory_phase2,1006464,,,,,,,,object_04a.png,,,51,,,1,,object_13b.png,object_07c.png,object_06c.png,object_06c.png,,0.7441860465116279,1,,,,,,,,,,,
6964.200000047684,,directmemory_phase2,1013432,,,,,,,,object_02c.png,,,49,,,1,,object_04a.png,object_14b.png,object_11a.png,object_04a.png,,0.75,1,,,,,,,,,,,
11397.800000011921,,directmemory_phase2,1024831,,,,,,,,object_04c.png,,,51,,,0,,object_01c.png,object_08c.png,object_03b.png,object_01c.png,,0.7333333333333333,0,,,,,,,,,,,
10719.899999976158,,directmemory_phase2,1035555,,,,,,,,object_13c.png,,,50,,,0,,object_07a.png,object_11b.png,object_11a.png,object_11a.png,,0.717391304347826,0,,,,,,,,,,,
2243.900000035763,,directmemory_phase2,1037803,,,,,,,,object_04b.png,,,51,,,1,,object_04a.png,object_04c.png,object_03a.png,object_03a.png,,0.723404255319149,1,,,,,,,,,,,
11271.699999988079,,directmemory_phase2,1049076,,,,,,,,object_11a.png,,,51,,,0,,object_03b.png,object_06b.png,object_08a.png,object_03b.png,,0.7083333333333334,0,,,,,,,,,,,
3596,,directmemory_phase2,1052674,,,,,,,,object_05b.png,,,51,,,1,,object_04a.png,object_14b.png,object_01b.png,object_01b.png,,0.7142857142857143,1,,,,,,,,,,,
4561.800000011921,,directmemory_phase2,1057237,,,,,,,,object_02b.png,,,49,,,1,,object_11c.png,object_12c.png,object_04c.png,object_11c.png,,0.72,1,,,,,,,,,,,
3892.5,,directmemory_phase2,1061134,,,,,,,,object_11b.png,,,49,,,1,,object_02a.png,object_08a.png,object_14a.png,object_02a.png,,0.7254901960784313,1,,,,,,,,,,,
6804.699999988079,,directmemory_phase2,1067942,,,,,,,,object_11c.png,,,49,,,0,,object_14a.png,object_03b.png,object_13a.png,object_13a.png,,0.7115384615384616,0,,,,,,,,,,,
8142.5,,directmemory_phase2,1076087,,,,,,,,object_14c.png,,,51,,,1,,object_12c.png,object_04a.png,object_12a.png,object_12a.png,,0.7169811320754716,1,,,,,,,,,,,
3333.5,,directmemory_phase2,1079425,,,,,,,,object_14b.png,,,49,,,1,,object_10a.png,object_01c.png,object_08a.png,object_10a.png,,0.7222222222222222,1,,,,,,,,,,,
6568.800000011921,,directmemory_phase2,1085995,,,,,,,,object_09c.png,,,51,,,0,,object_07a.png,object_11b.png,object_12c.png,object_07a.png,,0.7090909090909091,0,,,,,,,,,,,
5242.400000035763,,directmemory_phase2,1091241,,,,,,,,object_05c.png,,,49,,,1,,object_12c.png,object_06a.png,object_04a.png,object_12c.png,,0.7142857142857143,1,,,,,,,,,,,
3502.100000023842,,directmemory_phase2,1094746,,,,,,,,object_08b.png,,,51,,,1,,object_11a.png,object_04a.png,object_14b.png,object_14b.png,,0.7192982456140351,1,,,,,,,,,,,
8495.400000035763,,directmemory_phase2,1103245,,,,,,,,object_15a.png,,,49,,,1,,object_09b.png,object_11a.png,object_04a.png,object_09b.png,,0.7241379310344828,1,,,,,,,,,,,
10534.5,,directmemory_phase2,1113781,,,,,,,,object_06a.png,,,51,,,1,,object_15b.png,object_08a.png,object_10b.png,object_10b.png,,0.7288135593220338,1,,,,,,,,,,,
9913.800000011921,,directmemory_phase2,1123699,,,,,,,,object_03a.png,,,49,,,0,,object_13b.png,object_05a.png,object_10b.png,object_05a.png,,0.7166666666666667,0,,,,,,,,,,,
null,,thebreak,1123803,,,,,,,,<p></p>,,,null,,,,,,,,,,,,,,,,,,,,,,
3090.599999964237,,intro_0,1126894,,,,,,,,instruct,,,32,,,,,,,,,,,,,,,,,,,,,,
null,,learn_phase(without_color)3,1130396,,,,,,,,black_plus_sign,,,null,object_02a.png,object_11b.png,,,,,,,,,,,,,,,,,,,,
null,,black_cross(without_color)3,1131483,,,,,,,,green,,,null,object_02a.png,object_11b.png,,,,,,,,,,,,,,,,,,,,
null,,rt_plussign_withcolor3,1131986,,,,,,,,green,,,null,object_02a.png,object_11b.png,,,,,,,,,,,,,,,,,,,,
1678.7999999523163,,rt_thecrossant_black3,1132913,,,,,,,,black_plus_sign,,,50,,,1,,,,,,,1,,,,,,,,,,,,
null,,color_black3,1133016,,,,,,,,black_plus_sign,,,null,,,,,,,,,,,,,,,,,,,,,,
null,,learn_phase(without_color)3,1136521,,,,,,,,black_plus_sign,,,null,object_01b.png,object_05b.png,,,,,,,,,,,,,,,,,,,,
null,,black_cross(without_color)3,1137164,,,,,,,,blue,,,null,object_01b.png,object_05b.png,,,,,,,,,,,,,,,,,,,,
null,,rt_plussign_withcolor3,1137667,,,,,,,,blue,,,null,object_01b.png,object_05b.png,,,,,,,,,,,,,,,,,,,,
1931.7000000476837,,rt_thecrossant_black3,1139034,,,,,,,,black_plus_sign,,,49,,,1,,,,,,,1,,,,,,,,,,,,
null,,color_black3,1139142,,,,,,,,black_plus_sign,,,null,,,,,,,,,,,,,,,,,,,,,,
null,,learn_phase(without_color)3,1142647,,,,,,,,black_plus_sign,,,null,object_11c.png,object_02b.png,,,,,,,,,,,,,,,,,,,,
null,,black_cross(without_color)3,1143286,,,,,,,,blue,,,null,object_11c.png,object_02b.png,,,,,,,,,,,,,,,,,,,,
null,,rt_plussign_withcolor3,1143790,,,,,,,,blue,,,null,object_11c.png,object_02b.png,,,,,,,,,,,,,,,,,,,,
1346.0999999642372,,rt_thecrossant_black3,1145156,,,,,,,,black_plus_sign,,,49,,,1,,,,,,,1,,,,,,,,,,,,
null,,color_black3,1145260,,,,,,,,black_plus_sign,,,null,,,,,,,,,,,,,,,,,,,,,,
null,,learn_phase(without_color)3,1148764,,,,,,,,black_plus_sign,,,null,object_15b.png,object_12a.png,,,,,,,,,,,,,,,,,,,,
null,,black_cross(without_color)3,1149629,,,,,,,,blue,,,null,object_15b.png,object_12a.png,,,,,,,,,,,,,,,,,,,,
null,,rt_plussign_withcolor3,1150147,,,,,,,,blue,,,null,object_15b.png,object_12a.png,,,,,,,,,,,,,,,,,,,,
1370.3999999761581,,rt_thecrossant_black3,1151289,,,,,,,,black_plus_sign,,,49,,,1,,,,,,,1,,,,,,,,,,,,
null,,color_black3,1151393,,,,,,,,black_plus_sign,,,null,,,,,,,,,,,,,,,,,,,,,,
null,,learn_phase(without_color)3,1154898,,,,,,,,black_plus_sign,,,null,object_06a.png,object_03c.png,,,,,,,,,,,,,,,,,,,,
null,,black_cross(without_color)3,1155730,,,,,,,,green,,,null,object_06a.png,object_03c.png,,,,,,,,,,,,,,,,,,,,
null,,rt_plussign_withcolor3,1156234,,,,,,,,green,,,null,object_06a.png,object_03c.png,,,,,,,,,,,,,,,,,,,,
1260.699999988079,,rt_thecrossant_black3,1157421,,,,,,,,black_plus_sign,,,50,,,1,,,,,,,1,,,,,,,,,,,,
null,,color_black3,1157538,,,,,,,,black_plus_sign,,,null,,,,,,,,,,,,,,,,,,,,,,
null,,learn_phase(without_color)3,1161042,,,,,,,,black_plus_sign,,,null,object_03b.png,object_11a.png,,,,,,,,,,,,,,,,,,,,
null,,black_cross(without_color)3,1161775,,,,,,,,green,,,null,object_03b.png,object_11a.png,,,,,,,,,,,,,,,,,,,,
null,,rt_plussign_withcolor3,1162277,,,,,,,,green,,,null,object_03b.png,object_11a.png,,,,,,,,,,,,,,,,,,,,
1596.699999988079,,rt_thecrossant_black3,1163552,,,,,,,,black_plus_sign,,,50,,,1,,,,,,,1,,,,,,,,,,,,
null,,color_black3,1163655,,,,,,,,black_plus_sign,,,null,,,,,,,,,,,,,,,,,,,,,,
null,,learn_phase(without_color)3,1167159,,,,,,,,black_plus_sign,,,null,object_01c.png,object_04c.png,,,,,,,,,,,,,,,,,,,,
null,,black_cross(without_color)3,1168161,,,,,,,,blue,,,null,object_01c.png,object_04c.png,,,,,,,,,,,,,,,,,,,,
null,,rt_plussign_withcolor3,1168665,,,,,,,,blue,,,null,object_01c.png,object_04c.png,,,,,,,,,,,,,,,,,,,,
1144.5,,rt_thecrossant_black3,1169682,,,,,,,,black_plus_sign,,,49,,,1,,,,,,,1,,,,,,,,,,,,
null,,color_black3,1169785,,,,,,,,black_plus_sign,,,null,,,,,,,,,,,,,,,,,,,,,,
null,,learn_phase(without_color)3,1173287,,,,,,,,black_plus_sign,,,null,object_10a.png,object_14b.png,,,,,,,,,,,,,,,,,,,,
null,,black_cross(without_color)3,1173792,,,,,,,,blue,,,null,object_10a.png,object_14b.png,,,,,,,,,,,,,,,,,,,,
null,,rt_plussign_withcolor3,1174294,,,,,,,,blue,,,null,object_10a.png,object_14b.png,,,,,,,,,,,,,,,,,,,,
1423.7999999523163,,rt_thecrossant_black3,1175792,,,,,,,,black_plus_sign,,,49,,,1,,,,,,,1,,,,,,,,,,,,
null,,color_black3,1175895,,,,,,,,black_plus_sign,,,null,,,,,,,,,,,,,,,,,,,,,,
null,,learn_phase(without_color)3,1179397,,,,,,,,black_plus_sign,,,null,object_12a.png,object_14c.png,,,,,,,,,,,,,,,,,,,,
null,,black_cross(without_color)3,1180124,,,,,,,,blue,,,null,object_12a.png,object_14c.png,,,,,,,,,,,,,,,,,,,,
null,,rt_plussign_withcolor3,1180625,,,,,,,,blue,,,null,object_12a.png,object_14c.png,,,,,,,,,,,,,,,,,,,,
917.3000000119209,,rt_thecrossant_black3,1181904,,,,,,,,black_plus_sign,,,49,,,1,,,,,,,1,,,,,,,,,,,,
null,,color_black3,1182007,,,,,,,,black_plus_sign,,,null,,,,,,,,,,,,,,,,,,,,,,
null,,learn_phase(without_color)3,1185511,,,,,,,,black_plus_sign,,,null,object_13b.png,object_01a.png,,,,,,,,,,,,,,,,,,,,
null,,black_cross(without_color)3,1186206,,,,,,,,blue,,,null,object_13b.png,object_01a.png,,,,,,,,,,,,,,,,,,,,
null,,rt_plussign_withcolor3,1186709,,,,,,,,blue,,,null,object_13b.png,object_01a.png,,,,,,,,,,,,,,,,,,,,
1052.300000011921,,rt_thecrossant_black3,1188021,,,,,,,,black_plus_sign,,,49,,,1,,,,,,,1,,,,,,,,,,,,
null,,color_black3,1188126,,,,,,,,black_plus_sign,,,null,,,,,,,,,,,,,,,,,,,,,,
null,,learn_phase(without_color)3,1191630,,,,,,,,black_plus_sign,,,null,object_04c.png,object_07b.png,,,,,,,,,,,,,,,,,,,,
null,,black_cross(without_color)3,1192306,,,,,,,,green,,,null,object_04c.png,object_07b.png,,,,,,,,,,,,,,,,,,,,
null,,rt_plussign_withcolor3,1192809,,,,,,,,green,,,null,object_04c.png,object_07b.png,,,,,,,,,,,,,,,,,,,,
1029.0999999642372,,rt_thecrossant_black3,1194150,,,,,,,,black_plus_sign,,,50,,,1,,,,,,,1,,,,,,,,,,,,
null,,color_black3,1194253,,,,,,,,black_plus_sign,,,null,,,,,,,,,,,,,,,,,,,,,,
null,,learn_phase(without_color)3,1197758,,,,,,,,black_plus_sign,,,null,object_10c.png,object_12b.png,,,,,,,,,,,,,,,,,,,,
null,,black_cross(without_color)3,1198645,,,,,,,,blue,,,null,object_10c.png,object_12b.png,,,,,,,,,,,,,,,,,,,,
null,,rt_plussign_withcolor3,1199146,,,,,,,,blue,,,null,object_10c.png,object_12b.png,,,,,,,,,,,,,,,,,,,,
1053.5999999642372,,rt_thecrossant_black3,1200266,,,,,,,,black_plus_sign,,,49,,,1,,,,,,,1,,,,,,,,,,,,
null,,color_black3,1200369,,,,,,,,black_plus_sign,,,null,,,,,,,,,,,,,,,,,,,,,,
null,,learn_phase(without_color)3,1203873,,,,,,,,black_plus_sign,,,null,object_05a.png,object_03a.png,,,,,,,,,,,,,,,,,,,,
null,,black_cross(without_color)3,1204481,,,,,,,,blue,,,null,object_05a.png,object_03a.png,,,,,,,,,,,,,,,,,,,,
null,,rt_plussign_withcolor3,1204984,,,,,,,,blue,,,null,object_05a.png,object_03a.png,,,,,,,,,,,,,,,,,,,,
1247.800000011921,,rt_thecrossant_black3,1206382,,,,,,,,black_plus_sign,,,49,,,1,,,,,,,1,,,,,,,,,,,,
null,,color_black3,1206489,,,,,,,,black_plus_sign,,,null,,,,,,,,,,,,,,,,,,,,,,
null,,learn_phase(without_color)3,1209994,,,,,,,,black_plus_sign,,,null,object_01a.png,object_15c.png,,,,,,,,,,,,,,,,,,,,
null,,black_cross(without_color)3,1210838,,,,,,,,green,,,null,object_01a.png,object_15c.png,,,,,,,,,,,,,,,,,,,,
null,,rt_plussign_withcolor3,1211354,,,,,,,,green,,,null,object_01a.png,object_15c.png,,,,,,,,,,,,,,,,,,,,
1052.6000000238419,,rt_thecrossant_black3,1212519,,,,,,,,black_plus_sign,,,50,,,1,,,,,,,1,,,,,,,,,,,,
null,,color_black3,1212623,,,,,,,,black_plus_sign,,,null,,,,,,,,,,,,,,,,,,,,,,
null,,learn_phase(without_color)3,1216129,,,,,,,,black_plus_sign,,,null,object_06b.png,object_10c.png,,,,,,,,,,,,,,,,,,,,
null,,black_cross(without_color)3,1216832,,,,,,,,blue,,,null,object_06b.png,object_10c.png,,,,,,,,,,,,,,,,,,,,
null,,rt_plussign_withcolor3,1217335,,,,,,,,blue,,,null,object_06b.png,object_10c.png,,,,,,,,,,,,,,,,,,,,
1318.6000000238419,,rt_thecrossant_black3,1218638,,,,,,,,black_plus_sign,,,49,,,1,,,,,,,1,,,,,,,,,,,,
null,,color_black3,1218742,,,,,,,,black_plus_sign,,,null,,,,,,,,,,,,,,,,,,,,,,
null,,learn_phase(without_color)3,1222247,,,,,,,,black_plus_sign,,,null,object_12c.png,object_05c.png,,,,,,,,,,,,,,,,,,,,
null,,black_cross(without_color)3,1223302,,,,,,,,blue,,,null,object_12c.png,object_05c.png,,,,,,,,,,,,,,,,,,,,
null,,rt_plussign_withcolor3,1223805,,,,,,,,blue,,,null,object_12c.png,object_05c.png,,,,,,,,,,,,,,,,,,,,
1395.0999999642372,,rt_thecrossant_black3,1224756,,,,,,,,black_plus_sign,,,49,,,1,,,,,,,1,,,,,,,,,,,,
null,,color_black3,1224859,,,,,,,,black_plus_sign,,,null,,,,,,,,,,,,,,,,,,,,,,
null,,learn_phase(without_color)3,1228365,,,,,,,,black_plus_sign,,,null,object_06c.png,object_04a.png,,,,,,,,,,,,,,,,,,,,
null,,black_cross(without_color)3,1228785,,,,,,,,blue,,,null,object_06c.png,object_04a.png,,,,,,,,,,,,,,,,,,,,
null,,rt_plussign_withcolor3,1229287,,,,,,,,blue,,,null,object_06c.png,object_04a.png,,,,,,,,,,,,,,,,,,,,
null,,rt_thecrossant_black3,1230873,,,,,,,,black_plus_sign,,,null,,,,,,,,,,1,,,,,,,,,,,,
null,,color_black3,1230975,,,,,,,,black_plus_sign,,,null,,,,,,,,,,,,,,,,,,,,,,
null,,learn_phase(without_color)3,1234477,,,,,,,,black_plus_sign,,,null,object_11a.png,object_13c.png,,,,,,,,,,,,,,,,,,,,
null,,black_cross(without_color)3,1235493,,,,,,,,blue,,,null,object_11a.png,object_13c.png,,,,,,,,,,,,,,,,,,,,
null,,rt_plussign_withcolor3,1235996,,,,,,,,blue,,,null,object_11a.png,object_13c.png,,,,,,,,,,,,,,,,,,,,
787.5,,rt_thecrossant_black3,1236986,,,,,,,,black_plus_sign,,,49,,,1,,,,,,,1,,,,,,,,,,,,
null,,color_black3,1237089,,,,,,,,black_plus_sign,,,null,,,,,,,,,,,,,,,,,,,,,,
null,,learn_phase(without_color)3,1240593,,,,,,,,black_plus_sign,,,null,object_08a.png,object_07a.png,,,,,,,,,,,,,,,,,,,,
null,,black_cross(without_color)3,1241664,,,,,,,,green,,,null,object_08a.png,object_07a.png,,,,,,,,,,,,,,,,,,,,
null,,rt_plussign_withcolor3,1242168,,,,,,,,green,,,null,object_08a.png,object_07a.png,,,,,,,,,,,,,,,,,,,,
1474.5,,rt_thecrossant_black3,1243104,,,,,,,,black_plus_sign,,,50,,,1,,,,,,,1,,,,,,,,,,,,
null,,color_black3,1243208,,,,,,,,black_plus_sign,,,null,,,,,,,,,,,,,,,,,,,,,,
null,,learn_phase(without_color)3,1246712,,,,,,,,black_plus_sign,,,null,object_09b.png,object_15a.png,,,,,,,,,,,,,,,,,,,,
null,,black_cross(without_color)3,1247350,,,,,,,,blue,,,null,object_09b.png,object_15a.png,,,,,,,,,,,,,,,,,,,,
null,,rt_plussign_withcolor3,1247852,,,,,,,,blue,,,null,object_09b.png,object_15a.png,,,,,,,,,,,,,,,,,,,,
1573.3999999761581,,rt_thecrossant_black3,1249222,,,,,,,,black_plus_sign,,,49,,,1,,,,,,,1,,,,,,,,,,,,
null,,color_black3,1249324,,,,,,,,black_plus_sign,,,null,,,,,,,,,,,,,,,,,,,,,,
null,,learn_phase(without_color)3,1252827,,,,,,,,black_plus_sign,,,null,object_13a.png,object_11c.png,,,,,,,,,,,,,,,,,,,,
null,,black_cross(without_color)3,1253815,,,,,,,,blue,,,null,object_13a.png,object_11c.png,,,,,,,,,,,,,,,,,,,,
null,,rt_plussign_withcolor3,1254318,,,,,,,,blue,,,null,object_13a.png,object_11c.png,,,,,,,,,,,,,,,,,,,,
1156,,rt_thecrossant_black3,1255337,,,,,,,,black_plus_sign,,,49,,,1,,,,,,,1,,,,,,,,,,,,
null,,color_black3,1255440,,,,,,,,black_plus_sign,,,null,,,,,,,,,,,,,,,,,,,,,,
null,,learn_phase(without_color)3,1258943,,,,,,,,black_plus_sign,,,null,object_11b.png,object_09a.png,,,,,,,,,,,,,,,,,,,,
null,,black_cross(without_color)3,1260027,,,,,,,,green,,,null,object_11b.png,object_09a.png,,,,,,,,,,,,,,,,,,,,
null,,rt_plussign_withcolor3,1260529,,,,,,,,green,,,null,object_11b.png,object_09a.png,,,,,,,,,,,,,,,,,,,,
1367.9000000357628,,rt_thecrossant_black3,1261452,,,,,,,,black_plus_sign,,,50,,,1,,,,,,,1,,,,,,,,,,,,
null,,color_black3,1261555,,,,,,,,black_plus_sign,,,null,,,,,,,,,,,,,,,,,,,,,,
null,,learn_phase(without_color)3,1265059,,,,,,,,black_plus_sign,,,null,object_04a.png,object_02c.png,,,,,,,,,,,,,,,,,,,,
null,,black_cross(without_color)3,1265507,,,,,,,,green,,,null,object_04a.png,object_02c.png,,,,,,,,,,,,,,,,,,,,
null,,rt_plussign_withcolor3,1266010,,,,,,,,green,,,null,object_04a.png,object_02c.png,,,,,,,,,,,,,,,,,,,,
2022.699999988079,,rt_thecrossant_black3,1267568,,,,,,,,black_plus_sign,,,50,,,1,,,,,,,1,,,,,,,,,,,,
null,,color_black3,1267671,,,,,,,,black_plus_sign,,,null,,,,,,,,,,,,,,,,,,,,,,
null,,learn_phase(without_color)3,1271176,,,,,,,,black_plus_sign,,,null,object_10b.png,object_06a.png,,,,,,,,,,,,,,,,,,,,
null,,black_cross(without_color)3,1272042,,,,,,,,green,,,null,object_10b.png,object_06a.png,,,,,,,,,,,,,,,,,,,,
null,,rt_plussign_withcolor3,1272545,,,,,,,,green,,,null,object_10b.png,object_06a.png,,,,,,,,,,,,,,,,,,,,
790.5,,rt_thecrossant_black3,1273688,,,,,,,,black_plus_sign,,,50,,,1,,,,,,,1,,,,,,,,,,,,
null,,color_black3,1273792,,,,,,,,black_plus_sign,,,null,,,,,,,,,,,,,,,,,,,,,,
null,,learn_phase(without_color)3,1277303,,,,,,,,black_plus_sign,,,null,object_14b.png,object_08b.png,,,,,,,,,,,,,,,,,,,,
null,,black_cross(without_color)3,1278289,,,,,,,,blue,,,null,object_14b.png,object_08b.png,,,,,,,,,,,,,,,,,,,,
null,,rt_plussign_withcolor3,1278791,,,,,,,,blue,,,null,object_14b.png,object_08b.png,,,,,,,,,,,,,,,,,,,,
1421.5999999642372,,rt_thecrossant_black3,1279811,,,,,,,,black_plus_sign,,,49,,,1,,,,,,,1,,,,,,,,,,,,
null,,color_black3,1279913,,,,,,,,black_plus_sign,,,null,,,,,,,,,,,,,,,,,,,,,,
null,,learn_phase(without_color)3,1283415,,,,,,,,black_plus_sign,,,null,object_14a.png,object_09b.png,,,,,,,,,,,,,,,,,,,,
null,,black_cross(without_color)3,1284390,,,,,,,,green,,,null,object_14a.png,object_09b.png,,,,,,,,,,,,,,,,,,,,
null,,rt_plussign_withcolor3,1284892,,,,,,,,green,,,null,object_14a.png,object_09b.png,,,,,,,,,,,,,,,,,,,,
1707.199999988079,,rt_thecrossant_black3,1285921,,,,,,,,black_plus_sign,,,50,,,1,,,,,,,1,,,,,,,,,,,,
null,,color_black3,1286023,,,,,,,,black_plus_sign,,,null,,,,,,,,,,,,,,,,,,,,,,
null,,learn_phase(without_color)3,1289526,,,,,,,,black_plus_sign,,,null,object_08c.png,object_12c.png,,,,,,,,,,,,,,,,,,,,
null,,black_cross(without_color)3,1289962,,,,,,,,green,,,null,object_08c.png,object_12c.png,,,,,,,,,,,,,,,,,,,,
null,,rt_plussign_withcolor3,1290474,,,,,,,,green,,,null,object_08c.png,object_12c.png,,,,,,,,,,,,,,,,,,,,
1672.1000000238419,,rt_thecrossant_black3,1292042,,,,,,,,black_plus_sign,,,50,,,1,,,,,,,1,,,,,,,,,,,,
null,,color_black3,1292152,,,,,,,,black_plus_sign,,,null,,,,,,,,,,,,,,,,,,,,,,
null,,learn_phase(without_color)3,1295654,,,,,,,,black_plus_sign,,,null,object_07a.png,object_09c.png,,,,,,,,,,,,,,,,,,,,
null,,black_cross(without_color)3,1296451,,,,,,,,blue,,,null,object_07a.png,object_09c.png,,,,,,,,,,,,,,,,,,,,
null,,rt_plussign_withcolor3,1296953,,,,,,,,blue,,,null,object_07a.png,object_09c.png,,,,,,,,,,,,,,,,,,,,
883.7999999523163,,rt_thecrossant_black3,1298163,,,,,,,,black_plus_sign,,,49,,,1,,,,,,,1,,,,,,,,,,,,
null,,color_black3,1298266,,,,,,,,black_plus_sign,,,null,,,,,,,,,,,,,,,,,,,,,,
null,,learn_phase(without_color)3,1301771,,,,,,,,black_plus_sign,,,null,object_03a.png,object_04b.png,,,,,,,,,,,,,,,,,,,,
null,,black_cross(without_color)3,1302389,,,,,,,,green,,,null,object_03a.png,object_04b.png,,,,,,,,,,,,,,,,,,,,
null,,rt_plussign_withcolor3,1302891,,,,,,,,green,,,null,object_03a.png,object_04b.png,,,,,,,,,,,,,,,,,,,,
1361.699999988079,,rt_thecrossant_black3,1304281,,,,,,,,black_plus_sign,,,50,,,1,,,,,,,1,,,,,,,,,,,,
null,,color_black3,1304384,,,,,,,,black_plus_sign,,,null,,,,,,,,,,,,,,,,,,,,,,
null,,learn_phase(without_color)3,1307902,,,,,,,,black_plus_sign,,,null,object_07c.png,object_01b.png,,,,,,,,,,,,,,,,,,,,
null,,black_cross(without_color)3,1308568,,,,,,,,green,,,null,object_07c.png,object_01b.png,,,,,,,,,,,,,,,,,,,,
null,,rt_plussign_withcolor3,1309070,,,,,,,,green,,,null,object_07c.png,object_01b.png,,,,,,,,,,,,,,,,,,,,
1196.8999999761581,,rt_thecrossant_black3,1310425,,,,,,,,black_plus_sign,,,50,,,1,,,,,,,1,,,,,,,,,,,,
null,,color_black3,1310534,,,,,,,,black_plus_sign,,,null,,,,,,,,,,,,,,,,,,,,,,
null,,thebreak,1310645,,,,,,,,<p></p>,,,null,,,,,,,,,,,,,,,,,,,,,,
1895.7000000476837,,intro_0,1312542,,,,,,,,instruct,,,32,,,,,,,,,,,,,,,,,,,,,,
4217.199999988079,,directmemory_phase3,1316762,,,,,,,,object_09a.png,,,51,,,1,,object_07a.png,object_12c.png,object_11b.png,object_11b.png,,0.7213114754098361,1,,,,,,,,,,,
5086.700000047684,,directmemory_phase3,1321852,,,,,,,,object_11c.png,,,49,,,1,,object_13a.png,object_10b.png,object_02a.png,object_13a.png,,0.7258064516129032,1,,,,,,,,,,,
2544.400000035763,,directmemory_phase3,1324401,,,,,,,,object_12b.png,,,50,,,1,,object_07a.png,object_10c.png,object_04c.png,object_10c.png,,0.7301587301587301,1,,,,,,,,,,,
1951.5999999642372,,directmemory_phase3,1326357,,,,,,,,object_08b.png,,,50,,,1,,object_01a.png,object_14b.png,object_03a.png,object_14b.png,,0.734375,1,,,,,,,,,,,
4775.300000011921,,directmemory_phase3,1331135,,,,,,,,object_04c.png,,,50,,,1,,object_10a.png,object_01c.png,object_06b.png,object_01c.png,,0.7384615384615385,1,,,,,,,,,,,
4564.300000011921,,directmemory_phase3,1335704,,,,,,,,object_12c.png,,,50,,,1,,object_10a.png,object_08c.png,object_15b.png,object_08c.png,,0.7424242424242424,1,,,,,,,,,,,
4128.5,,directmemory_phase3,1339836,,,,,,,,object_02b.png,,,50,,,1,,object_01b.png,object_11c.png,object_01a.png,object_11c.png,,0.746268656716418,1,,,,,,,,,,,
5983.300000011921,,directmemory_phase3,1345823,,,,,,,,object_03a.png,,,51,,,1,,object_06c.png,object_14a.png,object_05a.png,object_05a.png,,0.75,1,,,,,,,,,,,
3122.599999964237,,directmemory_phase3,1348949,,,,,,,,object_07a.png,,,51,,,1,,object_10a.png,object_03b.png,object_08a.png,object_08a.png,,0.7536231884057971,1,,,,,,,,,,,
2778.199999988079,,directmemory_phase3,1351729,,,,,,,,object_09c.png,,,49,,,1,,object_07a.png,object_06a.png,object_14b.png,object_07a.png,,0.7571428571428571,1,,,,,,,,,,,
6164.900000035763,,directmemory_phase3,1357896,,,,,,,,object_11b.png,,,50,,,1,,object_05a.png,object_02a.png,object_07c.png,object_02a.png,,0.7605633802816901,1,,,,,,,,,,,
2533.699999988079,,directmemory_phase3,1360434,,,,,,,,object_14b.png,,,51,,,1,,object_01c.png,object_10b.png,object_10a.png,object_10a.png,,0.7638888888888888,1,,,,,,,,,,,
2315,,directmemory_phase3,1362752,,,,,,,,object_05b.png,,,50,,,1,,object_06a.png,object_01b.png,object_01a.png,object_01b.png,,0.7671232876712328,1,,,,,,,,,,,
5187.800000011921,,directmemory_phase3,1367944,,,,,,,,object_09b.png,,,50,,,1,,object_13b.png,object_14a.png,object_06b.png,object_14a.png,,0.7702702702702703,1,,,,,,,,,,,
6773.600000023842,,directmemory_phase3,1374722,,,,,,,,object_01b.png,,,51,,,1,,object_14a.png,object_06b.png,object_07c.png,object_07c.png,,0.7733333333333333,1,,,,,,,,,,,
6444.899999976158,,directmemory_phase3,1381171,,,,,,,,object_04a.png,,,51,,,1,,object_10a.png,object_06b.png,object_06c.png,object_06c.png,,0.7763157894736842,1,,,,,,,,,,,
5563.800000011921,,directmemory_phase3,1386739,,,,,,,,object_12a.png,,,50,,,0,,object_10a.png,object_05a.png,object_15b.png,object_15b.png,,0.7662337662337663,0,,,,,,,,,,,
4822.899999976158,,directmemory_phase3,1391566,,,,,,,,object_06a.png,,,51,,,1,,object_06b.png,object_05a.png,object_10b.png,object_10b.png,,0.7692307692307693,1,,,,,,,,,,,
4945.099999964237,,directmemory_phase3,1396515,,,,,,,,object_13c.png,,,50,,,1,,object_11b.png,object_11a.png,object_12a.png,object_11a.png,,0.7721518987341772,1,,,,,,,,,,,
2934.399999976158,,directmemory_phase3,1399454,,,,,,,,object_05c.png,,,51,,,1,,object_10c.png,object_03a.png,object_12c.png,object_12c.png,,0.775,1,,,,,,,,,,,
2183.699999988079,,directmemory_phase3,1401642,,,,,,,,object_04b.png,,,51,,,1,,object_14b.png,object_01b.png,object_03a.png,object_03a.png,,0.7777777777777778,1,,,,,,,,,,,
7437.599999964237,,directmemory_phase3,1409084,,,,,,,,object_11a.png,,,51,,,0,,object_03b.png,object_10a.png,object_06c.png,object_03b.png,,0.7682926829268293,0,,,,,,,,,,,
5652.899999976158,,directmemory_phase3,1414740,,,,,,,,object_02c.png,,,50,,,1,,object_10c.png,object_04a.png,object_12c.png,object_04a.png,,0.7710843373493976,1,,,,,,,,,,,
11503.5,,directmemory_phase3,1426248,,,,,,,,object_10c.png,,,51,,,0,,object_06b.png,object_07c.png,object_15b.png,object_06b.png,,0.7619047619047619,0,,,,,,,,,,,
5175.100000023842,,directmemory_phase3,1431427,,,,,,,,object_14c.png,,,49,,,1,,object_12a.png,object_01b.png,object_04c.png,object_12a.png,,0.7647058823529411,1,,,,,,,,,,,
2261,,directmemory_phase3,1433692,,,,,,,,object_07b.png,,,51,,,1,,object_01b.png,object_07a.png,object_04c.png,object_04c.png,,0.7674418604651163,1,,,,,,,,,,,
3826.100000023842,,directmemory_phase3,1437523,,,,,,,,object_03c.png,,,50,,,1,,object_04c.png,object_06a.png,object_11b.png,object_06a.png,,0.7701149425287356,1,,,,,,,,,,,
6964.5,,directmemory_phase3,1444490,,,,,,,,object_15c.png,,,50,,,1,,object_11b.png,object_01a.png,object_04a.png,object_01a.png,,0.7727272727272727,1,,,,,,,,,,,
3127.5,,directmemory_phase3,1447621,,,,,,,,object_15a.png,,,49,,,1,,object_09b.png,object_14b.png,object_11b.png,object_09b.png,,0.7752808988764045,1,,,,,,,,,,,
3050.399999976158,,directmemory_phase3,1450676,,,,,,,,object_01a.png,,,50,,,1,,object_01c.png,object_13b.png,object_08c.png,object_13b.png,,0.7777777777777778,1,,,,,,,,,,,
null,,thebreak,1450782,,,,,,,,<p></p>,,,null,,,,,,,,,,,,,,,,,,,,,,
2187.399999976158,,intro_0,1452972,,,,,,,,instruct,,,32,,,,,,,,,,,,,,,,,,,,,,
null,,learn_phase(without_color)4,1456475,,,,,,,,black_plus_sign,,,null,object_07a.png,object_09c.png,,,,,,,,,,,,,,,,,,,,
null,,black_cross(without_color)4,1457248,,,,,,,,green,,,null,object_07a.png,object_09c.png,,,,,,,,,,,,,,,,,,,,
null,,rt_plussign_withcolor4,1457765,,,,,,,,green,,,null,object_07a.png,object_09c.png,,,,,,,,,,,,,,,,,,,,
1204.300000011921,,rt_thecrossant_black4,1459000,,,,,,,,black_plus_sign,,,50,,,1,,,,,,,1,,,,,,,,,,,,
null,,color_black4,1459112,,,,,,,,black_plus_sign,,,null,,,,,,,,,,,,,,,,,,,,,,
null,,learn_phase(without_color)4,1462619,,,,,,,,black_plus_sign,,,null,object_05a.png,object_03a.png,,,,,,,,,,,,,,,,,,,,
null,,black_cross(without_color)4,1463665,,,,,,,,blue,,,null,object_05a.png,object_03a.png,,,,,,,,,,,,,,,,,,,,
null,,rt_plussign_withcolor4,1464169,,,,,,,,blue,,,null,object_05a.png,object_03a.png,,,,,,,,,,,,,,,,,,,,
1398.0999999642372,,rt_thecrossant_black4,1465131,,,,,,,,black_plus_sign,,,49,,,1,,,,,,,1,,,,,,,,,,,,
null,,color_black4,1465234,,,,,,,,black_plus_sign,,,null,,,,,,,,,,,,,,,,,,,,,,
null,,learn_phase(without_color)4,1468739,,,,,,,,black_plus_sign,,,null,object_14a.png,object_09b.png,,,,,,,,,,,,,,,,,,,,
null,,black_cross(without_color)4,1469345,,,,,,,,green,,,null,object_14a.png,object_09b.png,,,,,,,,,,,,,,,,,,,,
null,,rt_plussign_withcolor4,1469847,,,,,,,,green,,,null,object_14a.png,object_09b.png,,,,,,,,,,,,,,,,,,,,
1622.1000000238419,,rt_thecrossant_black4,1471248,,,,,,,,black_plus_sign,,,50,,,1,,,,,,,1,,,,,,,,,,,,
null,,color_black4,1471350,,,,,,,,black_plus_sign,,,null,,,,,,,,,,,,,,,,,,,,,,
null,,learn_phase(without_color)4,1474857,,,,,,,,black_plus_sign,,,null,object_03b.png,object_11a.png,,,,,,,,,,,,,,,,,,,,
null,,black_cross(without_color)4,1475861,,,,,,,,green,,,null,object_03b.png,object_11a.png,,,,,,,,,,,,,,,,,,,,
null,,rt_plussign_withcolor4,1476362,,,,,,,,green,,,null,object_03b.png,object_11a.png,,,,,,,,,,,,,,,,,,,,
962.0999999642372,,rt_thecrossant_black4,1477363,,,,,,,,black_plus_sign,,,50,,,1,,,,,,,1,,,,,,,,,,,,
null,,color_black4,1477467,,,,,,,,black_plus_sign,,,null,,,,,,,,,,,,,,,,,,,,,,
null,,learn_phase(without_color)4,1480971,,,,,,,,black_plus_sign,,,null,object_06c.png,object_04a.png,,,,,,,,,,,,,,,,,,,,
null,,black_cross(without_color)4,1481840,,,,,,,,green,,,null,object_06c.png,object_04a.png,,,,,,,,,,,,,,,,,,,,
null,,rt_plussign_withcolor4,1482344,,,,,,,,green,,,null,object_06c.png,object_04a.png,,,,,,,,,,,,,,,,,,,,
1392.9000000357628,,rt_thecrossant_black4,1483482,,,,,,,,black_plus_sign,,,50,,,1,,,,,,,1,,,,,,,,,,,,
null,,color_black4,1483585,,,,,,,,black_plus_sign,,,null,,,,,,,,,,,,,,,,,,,,,,
null,,learn_phase(without_color)4,1487090,,,,,,,,black_plus_sign,,,null,object_12a.png,object_14c.png,,,,,,,,,,,,,,,,,,,,
null,,black_cross(without_color)4,1487511,,,,,,,,green,,,null,object_12a.png,object_14c.png,,,,,,,,,,,,,,,,,,,,
null,,rt_plussign_withcolor4,1488015,,,,,,,,green,,,null,object_12a.png,object_14c.png,,,,,,,,,,,,,,,,,,,,
1274.699999988079,,rt_thecrossant_black4,1489607,,,,,,,,black_plus_sign,,,50,,,1,,,,,,,1,,,,,,,,,,,,
null,,color_black4,1489709,,,,,,,,black_plus_sign,,,null,,,,,,,,,,,,,,,,,,,,,,
null,,learn_phase(without_color)4,1493214,,,,,,,,black_plus_sign,,,null,object_10a.png,object_14b.png,,,,,,,,,,,,,,,,,,,,
null,,black_cross(without_color)4,1494218,,,,,,,,green,,,null,object_10a.png,object_14b.png,,,,,,,,,,,,,,,,,,,,
null,,rt_plussign_withcolor4,1494720,,,,,,,,green,,,null,object_10a.png,object_14b.png,,,,,,,,,,,,,,,,,,,,
923.1000000238419,,rt_thecrossant_black4,1495732,,,,,,,,black_plus_sign,,,50,,,1,,,,,,,1,,,,,,,,,,,,
null,,color_black4,1495841,,,,,,,,black_plus_sign,,,null,,,,,,,,,,,,,,,,,,,,,,
null,,learn_phase(without_color)4,1499346,,,,,,,,black_plus_sign,,,null,object_01c.png,object_04c.png,,,,,,,,,,,,,,,,,,,,
null,,black_cross(without_color)4,1499815,,,,,,,,blue,,,null,object_01c.png,object_04c.png,,,,,,,,,,,,,,,,,,,,
null,,rt_plussign_withcolor4,1500317,,,,,,,,blue,,,null,object_01c.png,object_04c.png,,,,,,,,,,,,,,,,,,,,
1741.5,,rt_thecrossant_black4,1501855,,,,,,,,black_plus_sign,,,49,,,1,,,,,,,1,,,,,,,,,,,,
null,,color_black4,1501962,,,,,,,,black_plus_sign,,,null,,,,,,,,,,,,,,,,,,,,,,
null,,learn_phase(without_color)4,1505467,,,,,,,,black_plus_sign,,,null,object_08c.png,object_12c.png,,,,,,,,,,,,,,,,,,,,
null,,black_cross(without_color)4,1506083,,,,,,,,blue,,,null,object_08c.png,object_12c.png,,,,,,,,,,,,,,,,,,,,
null,,rt_plussign_withcolor4,1506585,,,,,,,,blue,,,null,object_08c.png,object_12c.png,,,,,,,,,,,,,,,,,,,,
930.6999999880791,,rt_thecrossant_black4,1507978,,,,,,,,black_plus_sign,,,49,,,1,,,,,,,1,,,,,,,,,,,,
null,,color_black4,1508080,,,,,,,,black_plus_sign,,,null,,,,,,,,,,,,,,,,,,,,,,
null,,learn_phase(without_color)4,1511586,,,,,,,,black_plus_sign,,,null,object_01a.png,object_15c.png,,,,,,,,,,,,,,,,,,,,
null,,black_cross(without_color)4,1512526,,,,,,,,blue,,,null,object_01a.png,object_15c.png,,,,,,,,,,,,,,,,,,,,
null,,rt_plussign_withcolor4,1513030,,,,,,,,blue,,,null,object_01a.png,object_15c.png,,,,,,,,,,,,,,,,,,,,
1376.300000011921,,rt_thecrossant_black4,1514103,,,,,,,,black_plus_sign,,,49,,,1,,,,,,,1,,,,,,,,,,,,
null,,color_black4,1514207,,,,,,,,black_plus_sign,,,null,,,,,,,,,,,,,,,,,,,,,,
null,,learn_phase(without_color)4,1517712,,,,,,,,black_plus_sign,,,null,object_13b.png,object_01a.png,,,,,,,,,,,,,,,,,,,,
null,,black_cross(without_color)4,1518592,,,,,,,,blue,,,null,object_13b.png,object_01a.png,,,,,,,,,,,,,,,,,,,,
null,,rt_plussign_withcolor4,1519095,,,,,,,,blue,,,null,object_13b.png,object_01a.png,,,,,,,,,,,,,,,,,,,,
1651.5999999642372,,rt_thecrossant_black4,1520220,,,,,,,,black_plus_sign,,,49,,,1,,,,,,,1,,,,,,,,,,,,
null,,color_black4,1520322,,,,,,,,black_plus_sign,,,null,,,,,,,,,,,,,,,,,,,,,,
null,,learn_phase(without_color)4,1523825,,,,,,,,black_plus_sign,,,null,object_10b.png,object_06a.png,,,,,,,,,,,,,,,,,,,,
null,,black_cross(without_color)4,1524863,,,,,,,,green,,,null,object_10b.png,object_06a.png,,,,,,,,,,,,,,,,,,,,
null,,rt_plussign_withcolor4,1525366,,,,,,,,green,,,null,object_10b.png,object_06a.png,,,,,,,,,,,,,,,,,,,,
1520.300000011921,,rt_thecrossant_black4,1526335,,,,,,,,black_plus_sign,,,50,,,1,,,,,,,1,,,,,,,,,,,,
null,,color_black4,1526439,,,,,,,,black_plus_sign,,,null,,,,,,,,,,,,,,,,,,,,,,
null,,learn_phase(without_color)4,1529943,,,,,,,,black_plus_sign,,,null,object_06b.png,object_10c.png,,,,,,,,,,,,,,,,,,,,
null,,black_cross(without_color)4,1530648,,,,,,,,green,,,null,object_06b.png,object_10c.png,,,,,,,,,,,,,,,,,,,,
null,,rt_plussign_withcolor4,1531150,,,,,,,,green,,,null,object_06b.png,object_10c.png,,,,,,,,,,,,,,,,,,,,
1552.5,,rt_thecrossant_black4,1532451,,,,,,,,black_plus_sign,,,50,,,1,,,,,,,1,,,,,,,,,,,,
null,,color_black4,1532553,,,,,,,,black_plus_sign,,,null,,,,,,,,,,,,,,,,,,,,,,
null,,learn_phase(without_color)4,1536056,,,,,,,,black_plus_sign,,,null,object_04a.png,object_02c.png,,,,,,,,,,,,,,,,,,,,
null,,black_cross(without_color)4,1536613,,,,,,,,green,,,null,object_04a.png,object_02c.png,,,,,,,,,,,,,,,,,,,,
null,,rt_plussign_withcolor4,1537116,,,,,,,,green,,,null,object_04a.png,object_02c.png,,,,,,,,,,,,,,,,,,,,
1102,,rt_thecrossant_black4,1538566,,,,,,,,black_plus_sign,,,50,,,1,,,,,,,1,,,,,,,,,,,,
null,,color_black4,1538669,,,,,,,,black_plus_sign,,,null,,,,,,,,,,,,,,,,,,,,,,
null,,learn_phase(without_color)4,1542172,,,,,,,,black_plus_sign,,,null,object_13a.png,object_11c.png,,,,,,,,,,,,,,,,,,,,
null,,black_cross(without_color)4,1542809,,,,,,,,blue,,,null,object_13a.png,object_11c.png,,,,,,,,,,,,,,,,,,,,
null,,rt_plussign_withcolor4,1543312,,,,,,,,blue,,,null,object_13a.png,object_11c.png,,,,,,,,,,,,,,,,,,,,
1457.3999999761581,,rt_thecrossant_black4,1544684,,,,,,,,black_plus_sign,,,49,,,1,,,,,,,1,,,,,,,,,,,,
null,,color_black4,1544787,,,,,,,,black_plus_sign,,,null,,,,,,,,,,,,,,,,,,,,,,
null,,learn_phase(without_color)4,1548291,,,,,,,,black_plus_sign,,,null,object_12c.png,object_05c.png,,,,,,,,,,,,,,,,,,,,
null,,black_cross(without_color)4,1549365,,,,,,,,blue,,,null,object_12c.png,object_05c.png,,,,,,,,,,,,,,,,,,,,
null,,rt_plussign_withcolor4,1549868,,,,,,,,blue,,,null,object_12c.png,object_05c.png,,,,,,,,,,,,,,,,,,,,
null,,rt_thecrossant_black4,1550800,,,,,,,,black_plus_sign,,,null,,,,,,,,,,1,,,,,,,,,,,,
null,,color_black4,1550903,,,,,,,,black_plus_sign,,,null,,,,,,,,,,,,,,,,,,,,,,
null,,learn_phase(without_color)4,1554407,,,,,,,,black_plus_sign,,,null,object_11b.png,object_09a.png,,,,,,,,,,,,,,,,,,,,
null,,black_cross(without_color)4,1555366,,,,,,,,green,,,null,object_11b.png,object_09a.png,,,,,,,,,,,,,,,,,,,,
null,,rt_plussign_withcolor4,1555869,,,,,,,,green,,,null,object_11b.png,object_09a.png,,,,,,,,,,,,,,,,,,,,
1432.8999999761581,,rt_thecrossant_black4,1556918,,,,,,,,black_plus_sign,,,50,,,1,,,,,,,1,,,,,,,,,,,,
null,,color_black4,1557022,,,,,,,,black_plus_sign,,,null,,,,,,,,,,,,,,,,,,,,,,
null,,learn_phase(without_color)4,1560527,,,,,,,,black_plus_sign,,,null,object_07c.png,object_01b.png,,,,,,,,,,,,,,,,,,,,
null,,black_cross(without_color)4,1561173,,,,,,,,blue,,,null,object_07c.png,object_01b.png,,,,,,,,,,,,,,,,,,,,
null,,rt_plussign_withcolor4,1561675,,,,,,,,blue,,,null,object_07c.png,object_01b.png,,,,,,,,,,,,,,,,,,,,
1493.699999988079,,rt_thecrossant_black4,1563044,,,,,,,,black_plus_sign,,,49,,,1,,,,,,,1,,,,,,,,,,,,
null,,color_black4,1563148,,,,,,,,black_plus_sign,,,null,,,,,,,,,,,,,,,,,,,,,,
null,,learn_phase(without_color)4,1566653,,,,,,,,black_plus_sign,,,null,object_09b.png,object_15a.png,,,,,,,,,,,,,,,,,,,,
null,,black_cross(without_color)4,1567280,,,,,,,,green,,,null,object_09b.png,object_15a.png,,,,,,,,,,,,,,,,,,,,
null,,rt_plussign_withcolor4,1567782,,,,,,,,green,,,null,object_09b.png,object_15a.png,,,,,,,,,,,,,,,,,,,,
959.9000000357628,,rt_thecrossant_black4,1569164,,,,,,,,black_plus_sign,,,50,,,1,,,,,,,1,,,,,,,,,,,,
null,,color_black4,1569267,,,,,,,,black_plus_sign,,,null,,,,,,,,,,,,,,,,,,,,,,
null,,learn_phase(without_color)4,1572772,,,,,,,,black_plus_sign,,,null,object_11c.png,object_02b.png,,,,,,,,,,,,,,,,,,,,
null,,black_cross(without_color)4,1573517,,,,,,,,green,,,null,object_11c.png,object_02b.png,,,,,,,,,,,,,,,,,,,,
null,,rt_plussign_withcolor4,1574019,,,,,,,,green,,,null,object_11c.png,object_02b.png,,,,,,,,,,,,,,,,,,,,
1140.699999988079,,rt_thecrossant_black4,1575283,,,,,,,,black_plus_sign,,,50,,,1,,,,,,,1,,,,,,,,,,,,
null,,color_black4,1575389,,,,,,,,black_plus_sign,,,null,,,,,,,,,,,,,,,,,,,,,,
null,,learn_phase(without_color)4,1578895,,,,,,,,black_plus_sign,,,null,object_03a.png,object_04b.png,,,,,,,,,,,,,,,,,,,,
null,,black_cross(without_color)4,1579610,,,,,,,,green,,,null,object_03a.png,object_04b.png,,,,,,,,,,,,,,,,,,,,
null,,rt_plussign_withcolor4,1580114,,,,,,,,green,,,null,object_03a.png,object_04b.png,,,,,,,,,,,,,,,,,,,,
1322.9000000357628,,rt_thecrossant_black4,1581407,,,,,,,,black_plus_sign,,,50,,,1,,,,,,,1,,,,,,,,,,,,
null,,color_black4,1581511,,,,,,,,black_plus_sign,,,null,,,,,,,,,,,,,,,,,,,,,,
null,,learn_phase(without_color)4,1585016,,,,,,,,black_plus_sign,,,null,object_14b.png,object_08b.png,,,,,,,,,,,,,,,,,,,,
null,,black_cross(without_color)4,1585796,,,,,,,,green,,,null,object_14b.png,object_08b.png,,,,,,,,,,,,,,,,,,,,
null,,rt_plussign_withcolor4,1586299,,,,,,,,green,,,null,object_14b.png,object_08b.png,,,,,,,,,,,,,,,,,,,,
995,,rt_thecrossant_black4,1587527,,,,,,,,black_plus_sign,,,50,,,1,,,,,,,1,,,,,,,,,,,,
null,,color_black4,1587631,,,,,,,,black_plus_sign,,,null,,,,,,,,,,,,,,,,,,,,,,
null,,learn_phase(without_color)4,1591136,,,,,,,,black_plus_sign,,,null,object_01b.png,object_05b.png,,,,,,,,,,,,,,,,,,,,
null,,black_cross(without_color)4,1592001,,,,,,,,green,,,null,object_01b.png,object_05b.png,,,,,,,,,,,,,,,,,,,,
null,,rt_plussign_withcolor4,1592503,,,,,,,,green,,,null,object_01b.png,object_05b.png,,,,,,,,,,,,,,,,,,,,
1136.2000000476837,,rt_thecrossant_black4,1593650,,,,,,,,black_plus_sign,,,50,,,1,,,,,,,1,,,,,,,,,,,,
null,,color_black4,1593753,,,,,,,,black_plus_sign,,,null,,,,,,,,,,,,,,,,,,,,,,
null,,learn_phase(without_color)4,1597256,,,,,,,,black_plus_sign,,,null,object_02a.png,object_11b.png,,,,,,,,,,,,,,,,,,,,
null,,black_cross(without_color)4,1597678,,,,,,,,green,,,null,object_02a.png,object_11b.png,,,,,,,,,,,,,,,,,,,,
null,,rt_plussign_withcolor4,1598192,,,,,,,,green,,,null,object_02a.png,object_11b.png,,,,,,,,,,,,,,,,,,,,
1215.4000000357628,,rt_thecrossant_black4,1599778,,,,,,,,black_plus_sign,,,50,,,1,,,,,,,1,,,,,,,,,,,,
null,,color_black4,1599881,,,,,,,,black_plus_sign,,,null,,,,,,,,,,,,,,,,,,,,,,
null,,learn_phase(without_color)4,1603385,,,,,,,,black_plus_sign,,,null,object_10c.png,object_12b.png,,,,,,,,,,,,,,,,,,,,
null,,black_cross(without_color)4,1604004,,,,,,,,green,,,null,object_10c.png,object_12b.png,,,,,,,,,,,,,,,,,,,,
null,,rt_plussign_withcolor4,1604508,,,,,,,,green,,,null,object_10c.png,object_12b.png,,,,,,,,,,,,,,,,,,,,
792.4000000357628,,rt_thecrossant_black4,1605897,,,,,,,,black_plus_sign,,,50,,,1,,,,,,,1,,,,,,,,,,,,
null,,color_black4,1606001,,,,,,,,black_plus_sign,,,null,,,,,,,,,,,,,,,,,,,,,,
null,,learn_phase(without_color)4,1609506,,,,,,,,black_plus_sign,,,null,object_08a.png,object_07a.png,,,,,,,,,,,,,,,,,,,,
null,,black_cross(without_color)4,1610329,,,,,,,,blue,,,null,object_08a.png,object_07a.png,,,,,,,,,,,,,,,,,,,,
null,,rt_plussign_withcolor4,1610832,,,,,,,,blue,,,null,object_08a.png,object_07a.png,,,,,,,,,,,,,,,,,,,,
1153.8999999761581,,rt_thecrossant_black4,1612018,,,,,,,,black_plus_sign,,,49,,,1,,,,,,,1,,,,,,,,,,,,
null,,color_black4,1612122,,,,,,,,black_plus_sign,,,null,,,,,,,,,,,,,,,,,,,,,,
null,,learn_phase(without_color)4,1615627,,,,,,,,black_plus_sign,,,null,object_04c.png,object_07b.png,,,,,,,,,,,,,,,,,,,,
null,,black_cross(without_color)4,1616686,,,,,,,,blue,,,null,object_04c.png,object_07b.png,,,,,,,,,,,,,,,,,,,,
null,,rt_plussign_withcolor4,1617189,,,,,,,,blue,,,null,object_04c.png,object_07b.png,,,,,,,,,,,,,,,,,,,,
1749.5,,rt_thecrossant_black4,1618138,,,,,,,,black_plus_sign,,,49,,,1,,,,,,,1,,,,,,,,,,,,
null,,color_black4,1618242,,,,,,,,black_plus_sign,,,null,,,,,,,,,,,,,,,,,,,,,,
null,,learn_phase(without_color)4,1621746,,,,,,,,black_plus_sign,,,null,object_11a.png,object_13c.png,,,,,,,,,,,,,,,,,,,,
null,,black_cross(without_color)4,1622310,,,,,,,,green,,,null,object_11a.png,object_13c.png,,,,,,,,,,,,,,,,,,,,
null,,rt_plussign_withcolor4,1622813,,,,,,,,green,,,null,object_11a.png,object_13c.png,,,,,,,,,,,,,,,,,,,,
1939.300000011921,,rt_thecrossant_black4,1624256,,,,,,,,black_plus_sign,,,50,,,1,,,,,,,1,,,,,,,,,,,,
null,,color_black4,1624360,,,,,,,,black_plus_sign,,,null,,,,,,,,,,,,,,,,,,,,,,
null,,learn_phase(without_color)4,1627866,,,,,,,,black_plus_sign,,,null,object_06a.png,object_03c.png,,,,,,,,,,,,,,,,,,,,
null,,black_cross(without_color)4,1628741,,,,,,,,green,,,null,object_06a.png,object_03c.png,,,,,,,,,,,,,,,,,,,,
null,,rt_plussign_withcolor4,1629244,,,,,,,,green,,,null,object_06a.png,object_03c.png,,,,,,,,,,,,,,,,,,,,
968.8999999761581,,rt_thecrossant_black4,1630375,,,,,,,,black_plus_sign,,,50,,,1,,,,,,,1,,,,,,,,,,,,
null,,color_black4,1630479,,,,,,,,black_plus_sign,,,null,,,,,,,,,,,,,,,,,,,,,,
null,,learn_phase(without_color)4,1633983,,,,,,,,black_plus_sign,,,null,object_15b.png,object_12a.png,,,,,,,,,,,,,,,,,,,,
null,,black_cross(without_color)4,1634920,,,,,,,,green,,,null,object_15b.png,object_12a.png,,,,,,,,,,,,,,,,,,,,
null,,rt_plussign_withcolor4,1635423,,,,,,,,green,,,null,object_15b.png,object_12a.png,,,,,,,,,,,,,,,,,,,,
1525.699999988079,,rt_thecrossant_black4,1636494,,,,,,,,black_plus_sign,,,50,,,1,,,,,,,1,,,,,,,,,,,,
null,,color_black4,1636598,,,,,,,,black_plus_sign,,,null,,,,,,,,,,,,,,,,,,,,,,
null,,thebreak,1636704,,,,,,,,<p></p>,,,null,,,,,,,,,,,,,,,,,,,,,,
1809.800000011921,,intro_0,1638517,,,,,,,,instruct,,,32,,,,,,,,,,,,,,,,,,,,,,
2489.399999976158,,directmemory_phase4,1641008,,,,,,,,object_11a.png,,,49,,,1,,object_03b.png,object_13b.png,object_10b.png,object_03b.png,,0.7802197802197802,1,,,,,,,,,,,
5821.200000047684,,directmemory_phase4,1646831,,,,,,,,object_15c.png,,,49,,,1,,object_01a.png,object_12a.png,object_03a.png,object_01a.png,,0.782608695652174,1,,,,,,,,,,,
3843.300000011921,,directmemory_phase4,1650676,,,,,,,,object_02c.png,,,51,,,1,,object_09b.png,object_06a.png,object_04a.png,object_04a.png,,0.7849462365591398,1,,,,,,,,,,,
5075.299999952316,,directmemory_phase4,1655753,,,,,,,,object_04c.png,,,51,,,1,,object_05a.png,object_03b.png,object_01c.png,object_01c.png,,0.7872340425531915,1,,,,,,,,,,,
2604.899999976158,,directmemory_phase4,1658362,,,,,,,,object_09c.png,,,50,,,1,,object_06a.png,object_07a.png,object_14b.png,object_07a.png,,0.7894736842105263,1,,,,,,,,,,,
5100.800000011921,,directmemory_phase4,1663465,,,,,,,,object_13c.png,,,49,,,1,,object_11a.png,object_04a.png,object_06a.png,object_11a.png,,0.7916666666666666,1,,,,,,,,,,,
3796.7000000476837,,directmemory_phase4,1667266,,,,,,,,object_11b.png,,,50,,,1,,object_10b.png,object_02a.png,object_05a.png,object_02a.png,,0.7938144329896907,1,,,,,,,,,,,
3059,,directmemory_phase4,1670329,,,,,,,,object_01b.png,,,49,,,1,,object_07c.png,object_05a.png,object_10a.png,object_07c.png,,0.7959183673469388,1,,,,,,,,,,,
3072.199999988079,,directmemory_phase4,1673406,,,,,,,,object_12a.png,,,51,,,1,,object_06c.png,object_03b.png,object_15b.png,object_15b.png,,0.797979797979798,1,,,,,,,,,,,
4985.300000011921,,directmemory_phase4,1678396,,,,,,,,object_03a.png,,,49,,,1,,object_05a.png,object_10a.png,object_10b.png,object_05a.png,,0.8,1,,,,,,,,,,,
2790.7000000476837,,directmemory_phase4,1681191,,,,,,,,object_07a.png,,,49,,,1,,object_08a.png,object_10b.png,object_08c.png,object_08a.png,,0.801980198019802,1,,,,,,,,,,,
3142.099999964237,,directmemory_phase4,1684338,,,,,,,,object_07b.png,,,51,,,1,,object_11b.png,object_01a.png,object_04c.png,object_04c.png,,0.803921568627451,1,,,,,,,,,,,
2228.2999999523163,,directmemory_phase4,1686571,,,,,,,,object_09a.png,,,51,,,1,,object_01b.png,object_14b.png,object_11b.png,object_11b.png,,0.8058252427184466,1,,,,,,,,,,,
3416.699999988079,,directmemory_phase4,1689992,,,,,,,,object_09b.png,,,51,,,1,,object_02a.png,object_15b.png,object_14a.png,object_14a.png,,0.8076923076923077,1,,,,,,,,,,,
3414.399999976158,,directmemory_phase4,1693411,,,,,,,,object_03c.png,,,49,,,1,,object_06a.png,object_01b.png,object_01a.png,object_06a.png,,0.8095238095238095,1,,,,,,,,,,,
2645.199999988079,,directmemory_phase4,1696060,,,,,,,,object_14b.png,,,51,,,1,,object_03b.png,object_14a.png,object_10a.png,object_10a.png,,0.8113207547169812,1,,,,,,,,,,,
6501.300000011921,,directmemory_phase4,1702567,,,,,,,,object_06a.png,,,51,,,1,,object_07c.png,object_03b.png,object_10b.png,object_10b.png,,0.8130841121495327,1,,,,,,,,,,,
2685.199999988079,,directmemory_phase4,1705257,,,,,,,,object_08b.png,,,50,,,1,,object_06a.png,object_14b.png,object_11b.png,object_14b.png,,0.8148148148148148,1,,,,,,,,,,,
1869.5,,directmemory_phase4,1707129,,,,,,,,object_12b.png,,,49,,,1,,object_10c.png,object_11a.png,object_07a.png,object_10c.png,,0.8165137614678899,1,,,,,,,,,,,
6595.800000011921,,directmemory_phase4,1713729,,,,,,,,object_04a.png,,,49,,,1,,object_06c.png,object_02a.png,object_10a.png,object_06c.png,,0.8181818181818182,1,,,,,,,,,,,
4222.399999976158,,directmemory_phase4,1717953,,,,,,,,object_12c.png,,,51,,,1,,object_14a.png,object_13b.png,object_08c.png,object_08c.png,,0.8198198198198198,1,,,,,,,,,,,
6270,,directmemory_phase4,1724227,,,,,,,,object_10c.png,,,51,,,1,,object_01c.png,object_07c.png,object_06b.png,object_06b.png,,0.8214285714285714,1,,,,,,,,,,,
3996.099999964237,,directmemory_phase4,1728226,,,,,,,,object_01a.png,,,49,,,1,,object_13b.png,object_08c.png,object_05a.png,object_13b.png,,0.8230088495575221,1,,,,,,,,,,,
2344.5,,directmemory_phase4,1730575,,,,,,,,object_02b.png,,,50,,,1,,object_01a.png,object_11c.png,object_04c.png,object_11c.png,,0.8245614035087719,1,,,,,,,,,,,
2116.100000023842,,directmemory_phase4,1732696,,,,,,,,object_04b.png,,,50,,,1,,object_01a.png,object_03a.png,object_09b.png,object_03a.png,,0.8260869565217391,1,,,,,,,,,,,
1932.7999999523163,,directmemory_phase4,1734634,,,,,,,,object_05c.png,,,49,,,1,,object_12c.png,object_10c.png,object_14b.png,object_12c.png,,0.8275862068965517,1,,,,,,,,,,,
1981.0999999642372,,directmemory_phase4,1736620,,,,,,,,object_05b.png,,,50,,,1,,object_06a.png,object_01b.png,object_04a.png,object_01b.png,,0.8290598290598291,1,,,,,,,,,,,
2692.100000023842,,directmemory_phase4,1739317,,,,,,,,object_11c.png,,,50,,,1,,object_07c.png,object_13a.png,object_01c.png,object_13a.png,,0.8305084745762712,1,,,,,,,,,,,
2575.199999988079,,directmemory_phase4,1741897,,,,,,,,object_15a.png,,,49,,,1,,object_09b.png,object_12c.png,object_10c.png,object_09b.png,,0.8319327731092437,1,,,,,,,,,,,
2999.199999988079,,directmemory_phase4,1744901,,,,,,,,object_14c.png,,,51,,,1,,object_06a.png,object_11a.png,object_12a.png,object_12a.png,,0.8333333333333334,1,,,,,,,,,,,
null,,thebreak,1745006,,,,,,,,<p></p>,,,null,,,,,,,,,,,,,,,,,,,,,,
4219.700000047684,,intro_0,1749229,,,,,,,,instruct,,,32,,,,,,,,,,,,,,,,,,,,,,
15895.400000035763,,intro_1,1765126,,,,,,,,instruct,,,32,,,,,,,,,,,,,,,,,,,,,,
6365.199999988079,,intro_2,1771492,,,,,,,,instruct,,,32,,,,,,,,,,,,,,,,,,,,,,
,,intro_3,1807057,,,,,,,,instruct,,,,,,,,,,,,,,,,,,,,,,,,,
12396.100000023842,,intro_4,1819456,,,,,,,,instruct,,,32,,,,,,,,,,,,,,,,,,,,,,
null,,thebreak,1819560,,,,,,,,<p></p>,,,null,,,,,,,,,,,,,,,,,,,,,,
4888.699999988079,,intro_0,1824451,,,,,,,,instruct,,,32,,,,,,,,,,,,,,,,,,,,,,
18849.100000023842,,intro_1,1843303,,,,,,,,instruct,,,32,,,,,,,,,,,,,,,,,,,,,,
3386.599999964237,,intro_2,1846691,,,,,,,,instruct,,,32,,,,,,,,,,,,,,,,,,,,,,
,,intro_3,1869591,,,,,,,,instruct,,,,,,,,,,,,,,,,,,,,,,,,,
1874.5999999642372,,intro_4,1871468,,,,,,,,instruct,,,32,,,,,,,,,,,,,,,,,,,,,,
null,,inference_phase,1886471,,,,,,,,object_07b.png,,,null,object_10b.png,object_06c.png,0,,,,,object_01c.png,,0,,object_01c.png,,,,,,,,,,
null,,warning_page,1891473,,,,,,,,warning,,,null,,,,,,,,,,,,,,,,,,,,,,
4312,,inference_phase,1895786,,,,,,,,object_05c.png,,,49,object_08c.png,object_07c.png,1,,,,,object_08c.png,,0.5,,object_14a.png,,,,,,,,,,
6110.700000047684,,inference_phase,1901901,,,,,,,,object_05b.png,,,51,object_01c.png,object_07c.png,1,,,,,object_07c.png,,0.6666666666666666,,object_06c.png,,,,,,,,,,
4485.5,,inference_phase,1906391,,,,,,,,object_15c.png,,,51,object_10b.png,object_05a.png,0,,,,,object_13b.png,,0.5,,object_13b.png,,,,,,,,,,
3954.599999964237,,inference_phase,1910351,,,,,,,,object_09a.png,,,50,object_01c.png,object_03b.png,1,,,,,object_02a.png,,0.6,,object_02a.png,,,,,,,,,,
3067.600000023842,,inference_phase,1913422,,,,,,,,object_02b.png,,,49,object_13a.png,object_02a.png,1,,,,,object_13a.png,,0.6666666666666666,,object_01c.png,,,,,,,,,,
2942.600000023842,,inference_phase,1916367,,,,,,,,object_08b.png,,,50,object_02a.png,object_08c.png,1,,,,,object_10a.png,,0.7142857142857143,,object_10a.png,,,,,,,,,,
4509.599999964237,,inference_phase,1920878,,,,,,,,object_09c.png,,,51,object_08a.png,object_07c.png,0,,,,,object_08a.png,,0.625,,object_08c.png,,,,,,,,,,
2681.199999988079,,inference_phase,1923564,,,,,,,,object_02c.png,,,50,object_06c.png,object_10b.png,0,,,,,object_06c.png,,0.5555555555555556,,object_07c.png,,,,,,,,,,
4855.699999988079,,inference_phase,1928425,,,,,,,,object_12b.png,,,51,object_14a.png,object_06b.png,1,,,,,object_06b.png,,0.6,,object_06c.png,,,,,,,,,,
5003.900000035763,,inference_phase,1933432,,,,,,,,object_13c.png,,,50,object_08c.png,object_08a.png,1,,,,,object_03b.png,,0.6363636363636364,,object_03b.png,,,,,,,,,,
3860.599999964237,,inference_phase,1937295,,,,,,,,object_03c.png,,,50,object_06c.png,object_14a.png,1,,,,,object_10b.png,,0.6666666666666666,,object_10b.png,,,,,,,,,,
5014.300000011921,,inference_phase,1942314,,,,,,,,object_04b.png,,,50,object_06b.png,object_05a.png,0,,,,,object_05a.png,,0.6153846153846154,,object_07c.png,,,,,,,,,,
5185.200000047684,,inference_phase,1947503,,,,,,,,object_14c.png,,,51,object_10b.png,object_15b.png,1,,,,,object_15b.png,,0.6428571428571429,,object_08c.png,,,,,,,,,,
3282.199999988079,,inference_phase,1950789,,,,,,,,object_15a.png,,,51,object_01c.png,object_14a.png,1,,,,,object_14a.png,,0.6666666666666666,,object_05a.png,,,,,,,,,,
,,survey,2063226,,,,,,,,survey-questions,,,,,,,,,,,,,,,,none,high,no, how could you if you had to see the color of the +,tried to make a story,yes, some had an easy connection and others none,no,all good,,,
14629.099999964237,,thank_you,2077883,,,,,,,,<p> Congratulations, you are all done!</p><p> <strong>Please click space on your keyboard to end the experiment!</strong> The secret code to enter at the beginning screen is: <strong>CIMBPENS</strong></p><p> Please make sure to submit the HIT and email uciccnl@gmail.com if you had any issues! </p><br><p>Please remember to submit this data by clicking space after copying the code. Failure of submission will lead to in-complete payment</p>,,,32,,,,,,,,,,,,,,,,,,,,3,0,C78LSMTN
