rt,responses,trial_type,time_elapsed,identifier_a,identifier_b,identifier_c,tasktype,browser_type,local_time,UTC_time,stimulus,button_pressed,response,key_press,stimulus_left,stimulus_right,accuracy,practice_cumulative_accuracy,stimulus_down_left,stimulus_down_mid,stimulus_down_right,stimulus_correct,prac_weighted_accuracy,cumulative_accuracy,weighted_accuracy,stimulus_middle,problems,smooth,distraction,strategies,easier,similar,comments,detectfocus,breakfocus,completion_code
16725.89999999851,{worker_id:5dcfe5ec41fb3f0de0080f1a},id_enter,16714,object_05a.png; object_08c.png; object_01a.png; object_14b.png; object_08a.png; object_05c.png; object_13a.png; object_15b.png; object_11a.png; object_05b.png; object_10c.png; object_15a.png; object_10b.png; object_13b.png; object_06b.png,object_14c.png; object_07a.png; object_03b.png; object_14a.png; object_15c.png; object_08b.png; object_09a.png; object_02a.png; object_04a.png; object_06c.png; object_03c.png; object_04c.png; object_02b.png; object_09c.png; object_13c.png,object_04b.png; object_11b.png; object_10a.png; object_12c.png; object_07c.png; object_01b.png; object_11c.png; object_12a.png; object_01c.png; object_12b.png; object_06a.png; object_09b.png; object_03a.png; object_02c.png; object_07b.png,blocked,Mozilla/5.0 (Macintosh; Intel Mac OS X 10_15_7) AppleWebKit/537.36 (KHTML, like Gecko) Chrome/135.0.0.0 Safari/537.36,4/28/2025, 7:38:19 PM,2025-04-29 00:38:19.745,,,,,,,,,,,,,,,,,,,,,,,,,,
35703.60000000149,,make_fullscreen,52425,,,,,,,,fullscreen,0,,,,,,,,,,,,,,,,,,,,,,,,
3880.7000000029802,,instruct_1,56308,,,,,,,,instruct,0,Next,,,,,,,,,,,,,,,,,,,,,,,
8665.39999999851,,instruct_2,64975,,,,,,,,instruct,1,Next,,,,,,,,,,,,,,,,,,,,,,,
6647.39999999851,,instruct_3,71624,,,,,,,,instruct,1,Next,,,,,,,,,,,,,,,,,,,,,,,
17214.5,,instruct_4,88840,,,,,,,,instruct,1,Next,,,,,,,,,,,,,,,,,,,,,,,
11616.20000000298,,instruct_5,100458,,,,,,,,instruct,1,Next,,,,,,,,,,,,,,,,,,,,,,,
3031,,instruct_6,103491,,,,,,,,instruct,1,Next,,,,,,,,,,,,,,,,,,,,,,,
20031.80000000447,,instruct_7,123525,,,,,,,,instruct,1,Next,,,,,,,,,,,,,,,,,,,,,,,
null,,prac_atten_color_black,124341,,,,,,,,black_plus_sign,,,null,,,,,,,,,,,,,,,,,,,,,,
null,,prac_atten_color,124933,,,,,,,,<p style='position:absolute;top: 50%;right: 50%;transform: translate(50%, -50%);font-size: 125px;color: blue;'>+</p>,,,null,,,,,,,,,,,,,,,,,,,,,,
334.5,,prac_atten_color_black,126936,,,,,,,,black_plus_sign,,,49,,,,,,,,,,,,,,,,,,,,,,
null,,prac_atten_color_black,127752,,,,,,,,black_plus_sign,,,null,,,,,,,,,,,,,,,,,,,,,,
368.40000000596046,,prac_atten_color,128514,,,,,,,,<p style='position:absolute;top: 50%;right: 50%;transform: translate(50%, -50%);font-size: 125px;color: green;'>+</p>,,,50,,,,,,,,,,,,,,,,,,,,,,
null,,prac_atten_color_black,130517,,,,,,,,black_plus_sign,,,null,,,,,,,,,,,,,,,,,,,,,,
null,,prac_atten_color_black,131163,,,,,,,,black_plus_sign,,,null,,,,,,,,,,,,,,,,,,,,,,
671.1000000014901,,prac_atten_color,132046,,,,,,,,<p style='position:absolute;top: 50%;right: 50%;transform: translate(50%, -50%);font-size: 125px;color: green;'>+</p>,,,50,,,,,,,,,,,,,,,,,,,,,,
null,,prac_atten_color_black,134049,,,,,,,,black_plus_sign,,,null,,,,,,,,,,,,,,,,,,,,,,
null,,prac_atten_color_black,134573,,,,,,,,black_plus_sign,,,null,,,,,,,,,,,,,,,,,,,,,,
388.3999999985099,,prac_atten_color,135525,,,,,,,,<p style='position:absolute;top: 50%;right: 50%;transform: translate(50%, -50%);font-size: 125px;color: blue;'>+</p>,,,49,,,,,,,,,,,,,,,,,,,,,,
null,,prac_atten_color_black,137528,,,,,,,,black_plus_sign,,,null,,,,,,,,,,,,,,,,,,,,,,
null,,prac_atten_color_black,137982,,,,,,,,black_plus_sign,,,null,,,,,,,,,,,,,,,,,,,,,,
442.20000000298023,,prac_atten_color,138466,,,,,,,,<p style='position:absolute;top: 50%;right: 50%;transform: translate(50%, -50%);font-size: 125px;color: green;'>+</p>,,,50,,,,,,,,,,,,,,,,,,,,,,
241.29999999701977,,prac_atten_color_black,140469,,,,,,,,black_plus_sign,,,50,,,,,,,,,,,,,,,,,,,,,,
null,,prac_atten_color_black,141393,,,,,,,,black_plus_sign,,,null,,,,,,,,,,,,,,,,,,,,,,
null,,prac_atten_color,141896,,,,,,,,<p style='position:absolute;top: 50%;right: 50%;transform: translate(50%, -50%);font-size: 125px;color: green;'>+</p>,,,null,,,,,,,,,,,,,,,,,,,,,,
259,,prac_atten_color_black,143899,,,,,,,,black_plus_sign,,,50,,,,,,,,,,,,,,,,,,,,,,
null,,prac_atten_color_black,144803,,,,,,,,black_plus_sign,,,null,,,,,,,,,,,,,,,,,,,,,,
624.3000000044703,,prac_atten_color,145518,,,,,,,,<p style='position:absolute;top: 50%;right: 50%;transform: translate(50%, -50%);font-size: 125px;color: blue;'>+</p>,,,49,,,,,,,,,,,,,,,,,,,,,,
null,,prac_atten_color_black,147520,,,,,,,,black_plus_sign,,,null,,,,,,,,,,,,,,,,,,,,,,
null,,prac_atten_color_black,148212,,,,,,,,black_plus_sign,,,null,,,,,,,,,,,,,,,,,,,,,,
512.6999999955297,,prac_atten_color,149220,,,,,,,,<p style='position:absolute;top: 50%;right: 50%;transform: translate(50%, -50%);font-size: 125px;color: green;'>+</p>,,,50,,,,,,,,,,,,,,,,,,,,,,
null,,prac_atten_color_black,151224,,,,,,,,black_plus_sign,,,null,,,,,,,,,,,,,,,,,,,,,,
null,,prac_atten_color_black,151624,,,,,,,,black_plus_sign,,,null,,,,,,,,,,,,,,,,,,,,,,
null,,prac_atten_color,152042,,,,,,,,<p style='position:absolute;top: 50%;right: 50%;transform: translate(50%, -50%);font-size: 125px;color: blue;'>+</p>,,,null,,,,,,,,,,,,,,,,,,,,,,
858.8999999985099,,prac_atten_color_black,154045,,,,,,,,black_plus_sign,,,49,,,,,,,,,,,,,,,,,,,,,,
null,,prac_atten_color_black,155034,,,,,,,,black_plus_sign,,,null,,,,,,,,,,,,,,,,,,,,,,
564,,prac_atten_color,155950,,,,,,,,<p style='position:absolute;top: 50%;right: 50%;transform: translate(50%, -50%);font-size: 125px;color: blue;'>+</p>,,,49,,,,,,,,,,,,,,,,,,,,,,
null,,prac_atten_color_black,157954,,,,,,,,black_plus_sign,,,null,,,,,,,,,,,,,,,,,,,,,,
5768.70000000298,,attentioncheck_feedback,163725,,,,,,,,cross_check_feedback,0,,,,,,,,,,,,,,,,,,,,,,,,
8661,,last_instruct,172387,,,,,,,,instruct,,,32,,,,,,,,,,,,,,,,,,,,,,
null,,prac_learn_phase(without_color),175889,,,,,,,,black_plus_sign,,,null,object_10c.png,object_03c.png,,,,,,,,,,,,,,,,,,,,
null,,prac_black_cross(without_color),176663,,,,,,,,green,,,null,object_10c.png,object_03c.png,,,,,,,,,,,,,,,,,,,,
null,,prac_rt_plussign_withcolor,177166,,,,,,,,green,,,null,object_10c.png,object_03c.png,,,,,,,,,,,,,,,,,,,,
1270.2999999970198,,prac_rt_thecrossant_black,178399,,,,,,,,black_plus_sign,,,50,,,1,1,,,,,,,,,,,,,,,,,,
null,,prac_color_black,178504,,,,,,,,black_plus_sign,,,null,,,,,,,,,,,,,,,,,,,,,,
null,,prac_learn_phase(without_color),182008,,,,,,,,black_plus_sign,,,null,object_08a.png,object_15c.png,,,,,,,,,,,,,,,,,,,,
null,,black_cross(without_color)1,182741,,,,,,,,green,,,null,object_10c.png,object_03c.png,,,,,,,,,,,,,,,,,,,,
null,,prac_rt_plussign_withcolor,183243,,,,,,,,blue,,,null,object_08a.png,object_15c.png,,,,,,,,,,,,,,,,,,,,
null,,prac_rt_thecrossant_black,184798,,,,,,,,black_plus_sign,,,null,,,,1,,,,,,,,,,,,,,,,,,
null,,prac_color_black,184902,,,,,,,,black_plus_sign,,,null,,,,,,,,,,,,,,,,,,,,,,
null,,prac_learn_phase(without_color),188406,,,,,,,,black_plus_sign,,,null,object_05a.png,object_14c.png,,,,,,,,,,,,,,,,,,,,
null,,black_cross(without_color)1,189139,,,,,,,,green,,,null,object_10c.png,object_03c.png,,,,,,,,,,,,,,,,,,,,
null,,prac_rt_plussign_withcolor,189642,,,,,,,,blue,,,null,object_05a.png,object_14c.png,,,,,,,,,,,,,,,,,,,,
null,,prac_rt_thecrossant_black,190762,,,,,,,,black_plus_sign,,,null,,,,1,,,,,,,,,,,,,,,,,,
null,,warning_page,195766,,,,,,,,warning,,,null,,,,,,,,,,,,,,,,,,,,,,
null,,prac_color_black,195869,,,,,,,,black_plus_sign,,,null,,,,,,,,,,,,,,,,,,,,,,
null,,prac_learn_phase(without_color),199373,,,,,,,,black_plus_sign,,,null,object_15b.png,object_02a.png,,,,,,,,,,,,,,,,,,,,
null,,black_cross(without_color)1,200106,,,,,,,,green,,,null,object_10c.png,object_03c.png,,,,,,,,,,,,,,,,,,,,
null,,prac_rt_plussign_withcolor,200609,,,,,,,,green,,,null,object_15b.png,object_02a.png,,,,,,,,,,,,,,,,,,,,
null,,prac_rt_thecrossant_black,202095,,,,,,,,black_plus_sign,,,null,,,,1,,,,,,,,,,,,,,,,,,
null,,warning_page,207099,,,,,,,,warning,,,null,,,,,,,,,,,,,,,,,,,,,,
null,,prac_color_black,207202,,,,,,,,black_plus_sign,,,null,,,,,,,,,,,,,,,,,,,,,,
8236.59999999404,,instruct_dir_01,215441,,,,,,,,instruct,0,Next,,,,,,,,,,,,,,,,,,,,,,,
9980.79999999702,,instruct_dir_2,225424,,,,,,,,instruct,1,Next,,,,,,,,,,,,,,,,,,,,,,,
5032.39999999851,,instruct_dir_3,230458,,,,,,,,instruct,1,Next,,,,,,,,,,,,,,,,,,,,,,,
4097.10000000149,,instruct_dir_4,234557,,,,,,,,instruct,1,Start,,,,,,,,,,,,,,,,,,,,,,,
null,,thebreak,234661,,,,,,,,<p></p>,,,null,,,,,,,,,,,,,,,,,,,,,,
1486.7000000029802,,intro_0,236149,,,,,,,,instruct,,,32,,,,,,,,,,,,,,,,,,,,,,
2710.8000000044703,,prac_directmemory_phase,238862,,,,,,,,practice/object_02b.png,,,50,,,1,,practice/object_01a.png,practice/object_02a.png,practice/object_04a.png,practice/object_02a.png,1,1,,,,,,,,,,,,
4972.30000000447,,prac_directmemory_phase,243837,,,,,,,,practice/object_04b.png,,,50,,,0,,practice/object_04a.png,practice/object_01a.png,practice/object_02a.png,practice/object_04a.png,0,0.5,,,,,,,,,,,,
4884.80000000447,,prac_directmemory_phase,248725,,,,,,,,practice/object_03b.png,,,51,,,1,,practice/object_04a.png,practice/object_02a.png,practice/object_03a.png,practice/object_03a.png,1,0.6666666666666666,,,,,,,,,,,,
5676.29999999702,,prac_directmemory_phase,254404,,,,,,,,practice/object_01b.png,,,49,,,1,,practice/object_01a.png,practice/object_04a.png,practice/object_02a.png,practice/object_01a.png,1,0.75,,,,,,,,,,,,
5218.79999999702,,practice_feedback,259624,,,,,,,,practice_feedback,1,,,,,,,,,,,,,,,,,,,,,,,,
10297.89999999851,,proceed_actualTask,269923,,,,,,,,proceed_actualTask,1,Continue,,,,,,,,,,,,,,,,,,,,,,,
7014.39999999851,,last_inst,276939,,,,,,,,last_inst,,,32,,,,,,,,,,,,,,,,,,,,,,
null,,learn_phase(without_color)1,280443,,,,,,,,black_plus_sign,,,null,object_10c.png,object_03c.png,,,,,,,,,,,,,,,,,,,,
null,,black_cross(without_color)1,281175,,,,,,,,green,,,null,object_10c.png,object_03c.png,,,,,,,,,,,,,,,,,,,,
null,,rt_plussign_withcolor1,281678,,,,,,,,green,,,null,object_10c.png,object_03c.png,,,,,,,,,,,,,,,,,,,,
1022.2999999970198,,rt_thecrossant_black1,282953,,,,,,,,black_plus_sign,,,50,,,1,,,,,,,1,,,,,,,,,,,,
null,,color_black1,283058,,,,,,,,black_plus_sign,,,null,,,,,,,,,,,,,,,,,,,,,,
null,,learn_phase(without_color)1,286562,,,,,,,,black_plus_sign,,,null,object_08a.png,object_15c.png,,,,,,,,,,,,,,,,,,,,
null,,black_cross(without_color)1,287186,,,,,,,,green,,,null,object_08a.png,object_15c.png,,,,,,,,,,,,,,,,,,,,
null,,rt_plussign_withcolor1,287689,,,,,,,,green,,,null,object_08a.png,object_15c.png,,,,,,,,,,,,,,,,,,,,
1791.5999999940395,,rt_thecrossant_black1,289073,,,,,,,,black_plus_sign,,,50,,,1,,,,,,,1,,,,,,,,,,,,
null,,color_black1,289177,,,,,,,,black_plus_sign,,,null,,,,,,,,,,,,,,,,,,,,,,
null,,learn_phase(without_color)1,292681,,,,,,,,black_plus_sign,,,null,object_05a.png,object_14c.png,,,,,,,,,,,,,,,,,,,,
null,,black_cross(without_color)1,293142,,,,,,,,blue,,,null,object_05a.png,object_14c.png,,,,,,,,,,,,,,,,,,,,
null,,rt_plussign_withcolor1,293645,,,,,,,,blue,,,null,object_05a.png,object_14c.png,,,,,,,,,,,,,,,,,,,,
1366.3999999985099,,rt_thecrossant_black1,295192,,,,,,,,black_plus_sign,,,50,,,0,,,,,,,0.6666666666666666,,,,,,,,,,,,
null,,color_black1,295296,,,,,,,,black_plus_sign,,,null,,,,,,,,,,,,,,,,,,,,,,
null,,learn_phase(without_color)1,298800,,,,,,,,black_plus_sign,,,null,object_15b.png,object_02a.png,,,,,,,,,,,,,,,,,,,,
null,,black_cross(without_color)1,299271,,,,,,,,green,,,null,object_15b.png,object_02a.png,,,,,,,,,,,,,,,,,,,,
449.3999999985099,,rt_plussign_withcolor1,299774,,,,,,,,green,,,50,object_15b.png,object_02a.png,,,,,,,,,,,,,,,,,,,,
null,,rt_thecrossant_black1,301310,,,,,,,,black_plus_sign,,,null,,,1,,,,,,,0.75,,,,,,,,,,,,
null,,color_black1,301413,,,,,,,,black_plus_sign,,,null,,,,,,,,,,,,,,,,,,,,,,
null,,learn_phase(without_color)1,304918,,,,,,,,black_plus_sign,,,null,object_10b.png,object_02b.png,,,,,,,,,,,,,,,,,,,,
null,,black_cross(without_color)1,305920,,,,,,,,blue,,,null,object_10b.png,object_02b.png,,,,,,,,,,,,,,,,,,,,
null,,rt_plussign_withcolor1,306423,,,,,,,,blue,,,null,object_10b.png,object_02b.png,,,,,,,,,,,,,,,,,,,,
680.8999999985099,,rt_thecrossant_black1,307429,,,,,,,,black_plus_sign,,,49,,,1,,,,,,,0.8,,,,,,,,,,,,
null,,color_black1,307533,,,,,,,,black_plus_sign,,,null,,,,,,,,,,,,,,,,,,,,,,
null,,learn_phase(without_color)1,311038,,,,,,,,black_plus_sign,,,null,object_06b.png,object_13c.png,,,,,,,,,,,,,,,,,,,,
null,,black_cross(without_color)1,311909,,,,,,,,green,,,null,object_06b.png,object_13c.png,,,,,,,,,,,,,,,,,,,,
null,,rt_plussign_withcolor1,312413,,,,,,,,green,,,null,object_06b.png,object_13c.png,,,,,,,,,,,,,,,,,,,,
1170.6999999955297,,rt_thecrossant_black1,313548,,,,,,,,black_plus_sign,,,50,,,1,,,,,,,0.8333333333333334,,,,,,,,,,,,
null,,color_black1,313652,,,,,,,,black_plus_sign,,,null,,,,,,,,,,,,,,,,,,,,,,
null,,learn_phase(without_color)1,317157,,,,,,,,black_plus_sign,,,null,object_05c.png,object_08b.png,,,,,,,,,,,,,,,,,,,,
null,,black_cross(without_color)1,317740,,,,,,,,green,,,null,object_05c.png,object_08b.png,,,,,,,,,,,,,,,,,,,,
null,,rt_plussign_withcolor1,318244,,,,,,,,green,,,null,object_05c.png,object_08b.png,,,,,,,,,,,,,,,,,,,,
1116.6999999955297,,rt_thecrossant_black1,319668,,,,,,,,black_plus_sign,,,50,,,1,,,,,,,0.8571428571428571,,,,,,,,,,,,
null,,color_black1,319772,,,,,,,,black_plus_sign,,,null,,,,,,,,,,,,,,,,,,,,,,
null,,learn_phase(without_color)1,323276,,,,,,,,black_plus_sign,,,null,object_01a.png,object_03b.png,,,,,,,,,,,,,,,,,,,,
null,,black_cross(without_color)1,323842,,,,,,,,green,,,null,object_01a.png,object_03b.png,,,,,,,,,,,,,,,,,,,,
null,,rt_plussign_withcolor1,324346,,,,,,,,green,,,null,object_01a.png,object_03b.png,,,,,,,,,,,,,,,,,,,,
1083.2999999970198,,rt_thecrossant_black1,325785,,,,,,,,black_plus_sign,,,50,,,1,,,,,,,0.875,,,,,,,,,,,,
null,,color_black1,325889,,,,,,,,black_plus_sign,,,null,,,,,,,,,,,,,,,,,,,,,,
null,,learn_phase(without_color)1,329393,,,,,,,,black_plus_sign,,,null,object_13b.png,object_09c.png,,,,,,,,,,,,,,,,,,,,
null,,black_cross(without_color)1,329853,,,,,,,,green,,,null,object_13b.png,object_09c.png,,,,,,,,,,,,,,,,,,,,
null,,rt_plussign_withcolor1,330356,,,,,,,,green,,,null,object_13b.png,object_09c.png,,,,,,,,,,,,,,,,,,,,
null,,rt_thecrossant_black1,331903,,,,,,,,black_plus_sign,,,null,,,,,,,,,,0.875,,,,,,,,,,,,
null,,color_black1,332007,,,,,,,,black_plus_sign,,,null,,,,,,,,,,,,,,,,,,,,,,
null,,learn_phase(without_color)1,335511,,,,,,,,black_plus_sign,,,null,object_08c.png,object_07a.png,,,,,,,,,,,,,,,,,,,,
null,,black_cross(without_color)1,336334,,,,,,,,blue,,,null,object_08c.png,object_07a.png,,,,,,,,,,,,,,,,,,,,
null,,rt_plussign_withcolor1,336837,,,,,,,,blue,,,null,object_08c.png,object_07a.png,,,,,,,,,,,,,,,,,,,,
1404.7999999970198,,rt_thecrossant_black1,338022,,,,,,,,black_plus_sign,,,49,,,1,,,,,,,0.8888888888888888,,,,,,,,,,,,
null,,color_black1,338126,,,,,,,,black_plus_sign,,,null,,,,,,,,,,,,,,,,,,,,,,
null,,learn_phase(without_color)1,341630,,,,,,,,black_plus_sign,,,null,object_13a.png,object_09a.png,,,,,,,,,,,,,,,,,,,,
null,,black_cross(without_color)1,342116,,,,,,,,green,,,null,object_13a.png,object_09a.png,,,,,,,,,,,,,,,,,,,,
null,,rt_plussign_withcolor1,342619,,,,,,,,green,,,null,object_13a.png,object_09a.png,,,,,,,,,,,,,,,,,,,,
1975.8999999985099,,rt_thecrossant_black1,344141,,,,,,,,black_plus_sign,,,50,,,1,,,,,,,0.9,,,,,,,,,,,,
null,,color_black1,344244,,,,,,,,black_plus_sign,,,null,,,,,,,,,,,,,,,,,,,,,,
null,,learn_phase(without_color)1,347748,,,,,,,,black_plus_sign,,,null,object_05b.png,object_06c.png,,,,,,,,,,,,,,,,,,,,
null,,black_cross(without_color)1,348652,,,,,,,,green,,,null,object_05b.png,object_06c.png,,,,,,,,,,,,,,,,,,,,
null,,rt_plussign_withcolor1,349155,,,,,,,,green,,,null,object_05b.png,object_06c.png,,,,,,,,,,,,,,,,,,,,
708.1000000014901,,rt_thecrossant_black1,350258,,,,,,,,black_plus_sign,,,50,,,1,,,,,,,0.9090909090909091,,,,,,,,,,,,
null,,color_black1,350361,,,,,,,,black_plus_sign,,,null,,,,,,,,,,,,,,,,,,,,,,
null,,learn_phase(without_color)1,353865,,,,,,,,black_plus_sign,,,null,object_15a.png,object_04c.png,,,,,,,,,,,,,,,,,,,,
null,,black_cross(without_color)1,354435,,,,,,,,green,,,null,object_15a.png,object_04c.png,,,,,,,,,,,,,,,,,,,,
null,,rt_plussign_withcolor1,354938,,,,,,,,green,,,null,object_15a.png,object_04c.png,,,,,,,,,,,,,,,,,,,,
1043.5,,rt_thecrossant_black1,356375,,,,,,,,black_plus_sign,,,50,,,1,,,,,,,0.9166666666666666,,,,,,,,,,,,
null,,color_black1,356479,,,,,,,,black_plus_sign,,,null,,,,,,,,,,,,,,,,,,,,,,
null,,learn_phase(without_color)1,359983,,,,,,,,black_plus_sign,,,null,object_14b.png,object_14a.png,,,,,,,,,,,,,,,,,,,,
null,,black_cross(without_color)1,360581,,,,,,,,green,,,null,object_14b.png,object_14a.png,,,,,,,,,,,,,,,,,,,,
null,,rt_plussign_withcolor1,361085,,,,,,,,green,,,null,object_14b.png,object_14a.png,,,,,,,,,,,,,,,,,,,,
null,,rt_thecrossant_black1,362494,,,,,,,,black_plus_sign,,,null,,,,,,,,,,0.9166666666666666,,,,,,,,,,,,
null,,color_black1,362598,,,,,,,,black_plus_sign,,,null,,,,,,,,,,,,,,,,,,,,,,
null,,learn_phase(without_color)1,366102,,,,,,,,black_plus_sign,,,null,object_11a.png,object_04a.png,,,,,,,,,,,,,,,,,,,,
null,,black_cross(without_color)1,367001,,,,,,,,green,,,null,object_11a.png,object_04a.png,,,,,,,,,,,,,,,,,,,,
null,,rt_plussign_withcolor1,367505,,,,,,,,green,,,null,object_11a.png,object_04a.png,,,,,,,,,,,,,,,,,,,,
780.3999999985099,,rt_thecrossant_black1,368613,,,,,,,,black_plus_sign,,,50,,,1,,,,,,,0.9230769230769231,,,,,,,,,,,,
null,,color_black1,368716,,,,,,,,black_plus_sign,,,null,,,,,,,,,,,,,,,,,,,,,,
null,,thebreak,368822,,,,,,,,<p></p>,,,null,,,,,,,,,,,,,,,,,,,,,,
1419.2000000029802,,intro_0,370243,,,,,,,,instruct,,,32,,,,,,,,,,,,,,,,,,,,,,
4968.60000000149,,directmemory_phase1,375213,,,,,,,,object_13c.png,,,49,,,1,,object_06b.png,object_10c.png,object_11a.png,object_06b.png,,1,1,,,,,,,,,,,
4560.20000000298,,directmemory_phase1,379777,,,,,,,,object_04c.png,,,50,,,0,,object_10b.png,object_05b.png,object_15a.png,object_15a.png,,0.5,0,,,,,,,,,,,
2538.5,,directmemory_phase1,382318,,,,,,,,object_14c.png,,,49,,,1,,object_05a.png,object_10b.png,object_13a.png,object_05a.png,,0.6666666666666666,1,,,,,,,,,,,
4731.5,,directmemory_phase1,387052,,,,,,,,object_15c.png,,,50,,,1,,object_10b.png,object_08a.png,object_15a.png,object_08a.png,,0.75,1,,,,,,,,,,,
6613.29999999702,,directmemory_phase1,393668,,,,,,,,object_04a.png,,,51,,,0,,object_05a.png,object_11a.png,object_08a.png,object_11a.png,,0.6,0,,,,,,,,,,,
6023.89999999851,,directmemory_phase1,399694,,,,,,,,object_02a.png,,,50,,,0,,object_13a.png,object_11a.png,object_15b.png,object_15b.png,,0.5,0,,,,,,,,,,,
3323,,directmemory_phase1,403020,,,,,,,,object_06c.png,,,51,,,1,,object_08c.png,object_13a.png,object_05b.png,object_05b.png,,0.5714285714285714,1,,,,,,,,,,,
6653.79999999702,,directmemory_phase1,409676,,,,,,,,object_03c.png,,,49,,,0,,object_01a.png,object_10c.png,object_05b.png,object_10c.png,,0.5,0,,,,,,,,,,,
6323.69999999553,,directmemory_phase1,416003,,,,,,,,object_07a.png,,,50,,,0,,object_08c.png,object_13b.png,object_10b.png,object_08c.png,,0.4444444444444444,0,,,,,,,,,,,
5087.39999999851,,directmemory_phase1,421092,,,,,,,,object_08b.png,,,50,,,0,,object_15b.png,object_01a.png,object_05c.png,object_05c.png,,0.4,0,,,,,,,,,,,
6172.79999999702,,directmemory_phase1,427268,,,,,,,,object_09a.png,,,50,,,0,,object_13a.png,object_13b.png,object_08c.png,object_13a.png,,0.36363636363636365,0,,,,,,,,,,,
6732,,directmemory_phase1,434002,,,,,,,,object_14a.png,,,51,,,0,,object_14b.png,object_15b.png,object_13b.png,object_14b.png,,0.3333333333333333,0,,,,,,,,,,,
3697.2000000029802,,directmemory_phase1,437702,,,,,,,,object_03b.png,,,50,,,0,,object_01a.png,object_05a.png,object_11a.png,object_01a.png,,0.3076923076923077,0,,,,,,,,,,,
5300.10000000149,,directmemory_phase1,443004,,,,,,,,object_02b.png,,,51,,,0,,object_10b.png,object_08a.png,object_13a.png,object_10b.png,,0.2857142857142857,0,,,,,,,,,,,
6068.29999999702,,directmemory_phase1,449075,,,,,,,,object_09c.png,,,50,,,0,,object_05c.png,object_15b.png,object_13b.png,object_13b.png,,0.26666666666666666,0,,,,,,,,,,,
null,,thebreak,449179,,,,,,,,<p></p>,,,null,,,,,,,,,,,,,,,,,,,,,,
1640.1000000014901,,intro_0,450821,,,,,,,,instruct,,,32,,,,,,,,,,,,,,,,,,,,,,
null,,learn_phase(without_color)2,454324,,,,,,,,black_plus_sign,,,null,object_01a.png,object_03b.png,,,,,,,,,,,,,,,,,,,,
null,,black_cross(without_color)2,455143,,,,,,,,blue,,,null,object_01a.png,object_03b.png,,,,,,,,,,,,,,,,,,,,
null,,rt_plussign_withcolor2,455646,,,,,,,,blue,,,null,object_01a.png,object_03b.png,,,,,,,,,,,,,,,,,,,,
null,,rt_thecrossant_black2,456835,,,,,,,,black_plus_sign,,,null,,,,,,,,,,NaN,,,,,,,,,,,,
null,,color_black2,456938,,,,,,,,black_plus_sign,,,null,,,,,,,,,,,,,,,,,,,,,,
null,,learn_phase(without_color)2,460442,,,,,,,,black_plus_sign,,,null,object_10c.png,object_03c.png,,,,,,,,,,,,,,,,,,,,
null,,black_cross(without_color)2,461164,,,,,,,,green,,,null,object_10c.png,object_03c.png,,,,,,,,,,,,,,,,,,,,
null,,rt_plussign_withcolor2,461668,,,,,,,,green,,,null,object_10c.png,object_03c.png,,,,,,,,,,,,,,,,,,,,
1410,,rt_thecrossant_black2,462953,,,,,,,,black_plus_sign,,,50,,,1,,,,,,,1,,,,,,,,,,,,
null,,color_black2,463056,,,,,,,,black_plus_sign,,,null,,,,,,,,,,,,,,,,,,,,,,
null,,learn_phase(without_color)2,466560,,,,,,,,black_plus_sign,,,null,object_08c.png,object_07a.png,,,,,,,,,,,,,,,,,,,,
null,,black_cross(without_color)2,467208,,,,,,,,blue,,,null,object_08c.png,object_07a.png,,,,,,,,,,,,,,,,,,,,
null,,rt_plussign_withcolor2,467710,,,,,,,,blue,,,null,object_08c.png,object_07a.png,,,,,,,,,,,,,,,,,,,,
977.1999999955297,,rt_thecrossant_black2,469070,,,,,,,,black_plus_sign,,,49,,,1,,,,,,,1,,,,,,,,,,,,
null,,color_black2,469174,,,,,,,,black_plus_sign,,,null,,,,,,,,,,,,,,,,,,,,,,
null,,learn_phase(without_color)2,472678,,,,,,,,black_plus_sign,,,null,object_05b.png,object_06c.png,,,,,,,,,,,,,,,,,,,,
null,,black_cross(without_color)2,473626,,,,,,,,green,,,null,object_05b.png,object_06c.png,,,,,,,,,,,,,,,,,,,,
null,,rt_plussign_withcolor2,474129,,,,,,,,green,,,null,object_05b.png,object_06c.png,,,,,,,,,,,,,,,,,,,,
1130.6000000014901,,rt_thecrossant_black2,475189,,,,,,,,black_plus_sign,,,50,,,1,,,,,,,1,,,,,,,,,,,,
null,,color_black2,475292,,,,,,,,black_plus_sign,,,null,,,,,,,,,,,,,,,,,,,,,,
null,,learn_phase(without_color)2,478797,,,,,,,,black_plus_sign,,,null,object_15a.png,object_04c.png,,,,,,,,,,,,,,,,,,,,
null,,black_cross(without_color)2,479530,,,,,,,,green,,,null,object_15a.png,object_04c.png,,,,,,,,,,,,,,,,,,,,
null,,rt_plussign_withcolor2,480034,,,,,,,,green,,,null,object_15a.png,object_04c.png,,,,,,,,,,,,,,,,,,,,
1293.3000000044703,,rt_thecrossant_black2,481308,,,,,,,,black_plus_sign,,,50,,,1,,,,,,,1,,,,,,,,,,,,
null,,color_black2,481411,,,,,,,,black_plus_sign,,,null,,,,,,,,,,,,,,,,,,,,,,
null,,learn_phase(without_color)2,484916,,,,,,,,black_plus_sign,,,null,object_06b.png,object_13c.png,,,,,,,,,,,,,,,,,,,,
null,,black_cross(without_color)2,485625,,,,,,,,green,,,null,object_06b.png,object_13c.png,,,,,,,,,,,,,,,,,,,,
null,,rt_plussign_withcolor2,486129,,,,,,,,green,,,null,object_06b.png,object_13c.png,,,,,,,,,,,,,,,,,,,,
850.5,,rt_thecrossant_black2,487426,,,,,,,,black_plus_sign,,,50,,,1,,,,,,,1,,,,,,,,,,,,
null,,color_black2,487529,,,,,,,,black_plus_sign,,,null,,,,,,,,,,,,,,,,,,,,,,
null,,learn_phase(without_color)2,491034,,,,,,,,black_plus_sign,,,null,object_11a.png,object_04a.png,,,,,,,,,,,,,,,,,,,,
null,,black_cross(without_color)2,492042,,,,,,,,blue,,,null,object_11a.png,object_04a.png,,,,,,,,,,,,,,,,,,,,
null,,rt_plussign_withcolor2,492545,,,,,,,,blue,,,null,object_11a.png,object_04a.png,,,,,,,,,,,,,,,,,,,,
884.7999999970198,,rt_thecrossant_black2,493544,,,,,,,,black_plus_sign,,,49,,,1,,,,,,,1,,,,,,,,,,,,
null,,color_black2,493647,,,,,,,,black_plus_sign,,,null,,,,,,,,,,,,,,,,,,,,,,
null,,learn_phase(without_color)2,497151,,,,,,,,black_plus_sign,,,null,object_14b.png,object_14a.png,,,,,,,,,,,,,,,,,,,,
null,,black_cross(without_color)2,498023,,,,,,,,blue,,,null,object_14b.png,object_14a.png,,,,,,,,,,,,,,,,,,,,
null,,rt_plussign_withcolor2,498526,,,,,,,,blue,,,null,object_14b.png,object_14a.png,,,,,,,,,,,,,,,,,,,,
1845.2000000029802,,rt_thecrossant_black2,499662,,,,,,,,black_plus_sign,,,49,,,1,,,,,,,1,,,,,,,,,,,,
null,,color_black2,499766,,,,,,,,black_plus_sign,,,null,,,,,,,,,,,,,,,,,,,,,,
null,,learn_phase(without_color)2,503270,,,,,,,,black_plus_sign,,,null,object_05a.png,object_14c.png,,,,,,,,,,,,,,,,,,,,
null,,black_cross(without_color)2,503955,,,,,,,,green,,,null,object_05a.png,object_14c.png,,,,,,,,,,,,,,,,,,,,
null,,rt_plussign_withcolor2,504458,,,,,,,,green,,,null,object_05a.png,object_14c.png,,,,,,,,,,,,,,,,,,,,
1551.6000000014901,,rt_thecrossant_black2,505780,,,,,,,,black_plus_sign,,,50,,,1,,,,,,,1,,,,,,,,,,,,
null,,color_black2,505884,,,,,,,,black_plus_sign,,,null,,,,,,,,,,,,,,,,,,,,,,
null,,learn_phase(without_color)2,509388,,,,,,,,black_plus_sign,,,null,object_10b.png,object_02b.png,,,,,,,,,,,,,,,,,,,,
null,,black_cross(without_color)2,509794,,,,,,,,green,,,null,object_10b.png,object_02b.png,,,,,,,,,,,,,,,,,,,,
null,,rt_plussign_withcolor2,510297,,,,,,,,green,,,null,object_10b.png,object_02b.png,,,,,,,,,,,,,,,,,,,,
944.2000000029802,,rt_thecrossant_black2,511899,,,,,,,,black_plus_sign,,,50,,,1,,,,,,,1,,,,,,,,,,,,
null,,color_black2,512003,,,,,,,,black_plus_sign,,,null,,,,,,,,,,,,,,,,,,,,,,
null,,learn_phase(without_color)2,515508,,,,,,,,black_plus_sign,,,null,object_08a.png,object_15c.png,,,,,,,,,,,,,,,,,,,,
null,,black_cross(without_color)2,516052,,,,,,,,blue,,,null,object_08a.png,object_15c.png,,,,,,,,,,,,,,,,,,,,
null,,rt_plussign_withcolor2,516555,,,,,,,,blue,,,null,object_08a.png,object_15c.png,,,,,,,,,,,,,,,,,,,,
1202.0999999940395,,rt_thecrossant_black2,518018,,,,,,,,black_plus_sign,,,49,,,1,,,,,,,1,,,,,,,,,,,,
null,,color_black2,518122,,,,,,,,black_plus_sign,,,null,,,,,,,,,,,,,,,,,,,,,,
null,,learn_phase(without_color)2,521627,,,,,,,,black_plus_sign,,,null,object_05c.png,object_08b.png,,,,,,,,,,,,,,,,,,,,
null,,black_cross(without_color)2,522728,,,,,,,,green,,,null,object_05c.png,object_08b.png,,,,,,,,,,,,,,,,,,,,
null,,rt_plussign_withcolor2,523231,,,,,,,,green,,,null,object_05c.png,object_08b.png,,,,,,,,,,,,,,,,,,,,
676.1000000014901,,rt_thecrossant_black2,524136,,,,,,,,black_plus_sign,,,50,,,1,,,,,,,1,,,,,,,,,,,,
null,,color_black2,524240,,,,,,,,black_plus_sign,,,null,,,,,,,,,,,,,,,,,,,,,,
null,,learn_phase(without_color)2,527744,,,,,,,,black_plus_sign,,,null,object_15b.png,object_02a.png,,,,,,,,,,,,,,,,,,,,
null,,black_cross(without_color)2,528316,,,,,,,,green,,,null,object_15b.png,object_02a.png,,,,,,,,,,,,,,,,,,,,
null,,rt_plussign_withcolor2,528819,,,,,,,,green,,,null,object_15b.png,object_02a.png,,,,,,,,,,,,,,,,,,,,
1639.3999999985099,,rt_thecrossant_black2,530254,,,,,,,,black_plus_sign,,,50,,,1,,,,,,,1,,,,,,,,,,,,
null,,color_black2,530357,,,,,,,,black_plus_sign,,,null,,,,,,,,,,,,,,,,,,,,,,
null,,learn_phase(without_color)2,533862,,,,,,,,black_plus_sign,,,null,object_13a.png,object_09a.png,,,,,,,,,,,,,,,,,,,,
null,,black_cross(without_color)2,534736,,,,,,,,blue,,,null,object_13a.png,object_09a.png,,,,,,,,,,,,,,,,,,,,
null,,rt_plussign_withcolor2,535239,,,,,,,,blue,,,null,object_13a.png,object_09a.png,,,,,,,,,,,,,,,,,,,,
1089.7999999970198,,rt_thecrossant_black2,536372,,,,,,,,black_plus_sign,,,49,,,1,,,,,,,1,,,,,,,,,,,,
null,,color_black2,536476,,,,,,,,black_plus_sign,,,null,,,,,,,,,,,,,,,,,,,,,,
null,,learn_phase(without_color)2,539980,,,,,,,,black_plus_sign,,,null,object_13b.png,object_09c.png,,,,,,,,,,,,,,,,,,,,
null,,black_cross(without_color)2,540782,,,,,,,,green,,,null,object_13b.png,object_09c.png,,,,,,,,,,,,,,,,,,,,
null,,rt_plussign_withcolor2,541286,,,,,,,,green,,,null,object_13b.png,object_09c.png,,,,,,,,,,,,,,,,,,,,
1686.2999999970198,,rt_thecrossant_black2,542491,,,,,,,,black_plus_sign,,,50,,,1,,,,,,,1,,,,,,,,,,,,
null,,color_black2,542595,,,,,,,,black_plus_sign,,,null,,,,,,,,,,,,,,,,,,,,,,
null,,thebreak,542698,,,,,,,,<p></p>,,,null,,,,,,,,,,,,,,,,,,,,,,
1476.6999999955297,,intro_0,544177,,,,,,,,instruct,,,32,,,,,,,,,,,,,,,,,,,,,,
8014.19999999553,,directmemory_phase2,552193,,,,,,,,object_15c.png,,,50,,,0,,object_13b.png,object_15b.png,object_08a.png,object_08a.png,,0.25,0,,,,,,,,,,,
2670.2000000029802,,directmemory_phase2,554866,,,,,,,,object_09c.png,,,49,,,1,,object_13b.png,object_15a.png,object_05a.png,object_13b.png,,0.29411764705882354,1,,,,,,,,,,,
2127.8000000044703,,directmemory_phase2,556996,,,,,,,,object_06c.png,,,51,,,1,,object_14b.png,object_08a.png,object_05b.png,object_05b.png,,0.3333333333333333,1,,,,,,,,,,,
4942.39999999851,,directmemory_phase2,561942,,,,,,,,object_14a.png,,,50,,,0,,object_14b.png,object_08c.png,object_08a.png,object_14b.png,,0.3157894736842105,0,,,,,,,,,,,
5446.60000000149,,directmemory_phase2,567391,,,,,,,,object_08b.png,,,51,,,0,,object_13b.png,object_05c.png,object_01a.png,object_05c.png,,0.3,0,,,,,,,,,,,
7180.79999999702,,directmemory_phase2,574575,,,,,,,,object_07a.png,,,50,,,0,,object_11a.png,object_01a.png,object_08c.png,object_08c.png,,0.2857142857142857,0,,,,,,,,,,,
5026.4000000059605,,directmemory_phase2,579604,,,,,,,,object_03c.png,,,50,,,0,,object_10c.png,object_11a.png,object_01a.png,object_10c.png,,0.2727272727272727,0,,,,,,,,,,,
3411.5,,directmemory_phase2,583018,,,,,,,,object_04c.png,,,51,,,0,,object_15a.png,object_05b.png,object_10c.png,object_15a.png,,0.2608695652173913,0,,,,,,,,,,,
3799.89999999851,,directmemory_phase2,586821,,,,,,,,object_03b.png,,,51,,,1,,object_13a.png,object_14b.png,object_01a.png,object_01a.png,,0.2916666666666667,1,,,,,,,,,,,
2859.3000000044703,,directmemory_phase2,589684,,,,,,,,object_04a.png,,,49,,,0,,object_10b.png,object_11a.png,object_13a.png,object_11a.png,,0.28,0,,,,,,,,,,,
5749.80000000447,,directmemory_phase2,595436,,,,,,,,object_13c.png,,,49,,,0,,object_10c.png,object_05b.png,object_06b.png,object_06b.png,,0.2692307692307692,0,,,,,,,,,,,
3290.1999999955297,,directmemory_phase2,598729,,,,,,,,object_14c.png,,,50,,,1,,object_15a.png,object_05a.png,object_08a.png,object_05a.png,,0.2962962962962963,1,,,,,,,,,,,
2434.5,,directmemory_phase2,601165,,,,,,,,object_02b.png,,,51,,,1,,object_05c.png,object_01a.png,object_10b.png,object_10b.png,,0.32142857142857145,1,,,,,,,,,,,
5827.70000000298,,directmemory_phase2,606996,,,,,,,,object_02a.png,,,49,,,1,,object_15b.png,object_14b.png,object_08a.png,object_15b.png,,0.3448275862068966,1,,,,,,,,,,,
8668.19999999553,,directmemory_phase2,615667,,,,,,,,object_09a.png,,,49,,,1,,object_13a.png,object_11a.png,object_08a.png,object_13a.png,,0.36666666666666664,1,,,,,,,,,,,
null,,thebreak,615771,,,,,,,,<p></p>,,,null,,,,,,,,,,,,,,,,,,,,,,
3553.2000000029802,,intro_0,619326,,,,,,,,instruct,,,32,,,,,,,,,,,,,,,,,,,,,,
null,,learn_phase(without_color)3,622830,,,,,,,,black_plus_sign,,,null,object_11a.png,object_04a.png,,,,,,,,,,,,,,,,,,,,
null,,black_cross(without_color)3,623618,,,,,,,,blue,,,null,object_11a.png,object_04a.png,,,,,,,,,,,,,,,,,,,,
null,,rt_plussign_withcolor3,624121,,,,,,,,blue,,,null,object_11a.png,object_04a.png,,,,,,,,,,,,,,,,,,,,
null,,rt_thecrossant_black3,625340,,,,,,,,black_plus_sign,,,null,,,,,,,,,,NaN,,,,,,,,,,,,
null,,color_black3,625444,,,,,,,,black_plus_sign,,,null,,,,,,,,,,,,,,,,,,,,,,
null,,learn_phase(without_color)3,628949,,,,,,,,black_plus_sign,,,null,object_05c.png,object_08b.png,,,,,,,,,,,,,,,,,,,,
null,,black_cross(without_color)3,629950,,,,,,,,green,,,null,object_05c.png,object_08b.png,,,,,,,,,,,,,,,,,,,,
null,,rt_plussign_withcolor3,630453,,,,,,,,green,,,null,object_05c.png,object_08b.png,,,,,,,,,,,,,,,,,,,,
1215.6999999955297,,rt_thecrossant_black3,631459,,,,,,,,black_plus_sign,,,50,,,1,,,,,,,1,,,,,,,,,,,,
null,,color_black3,631563,,,,,,,,black_plus_sign,,,null,,,,,,,,,,,,,,,,,,,,,,
null,,learn_phase(without_color)3,635067,,,,,,,,black_plus_sign,,,null,object_13a.png,object_09a.png,,,,,,,,,,,,,,,,,,,,
null,,black_cross(without_color)3,635886,,,,,,,,blue,,,null,object_13a.png,object_09a.png,,,,,,,,,,,,,,,,,,,,
null,,rt_plussign_withcolor3,636389,,,,,,,,blue,,,null,object_13a.png,object_09a.png,,,,,,,,,,,,,,,,,,,,
1332.5,,rt_thecrossant_black3,637578,,,,,,,,black_plus_sign,,,49,,,1,,,,,,,1,,,,,,,,,,,,
null,,color_black3,637682,,,,,,,,black_plus_sign,,,null,,,,,,,,,,,,,,,,,,,,,,
null,,learn_phase(without_color)3,641186,,,,,,,,black_plus_sign,,,null,object_10b.png,object_02b.png,,,,,,,,,,,,,,,,,,,,
null,,black_cross(without_color)3,641941,,,,,,,,green,,,null,object_10b.png,object_02b.png,,,,,,,,,,,,,,,,,,,,
454.8999999985099,,rt_plussign_withcolor3,642444,,,,,,,,green,,,50,object_10b.png,object_02b.png,,,,,,,,,,,,,,,,,,,,
null,,rt_thecrossant_black3,643697,,,,,,,,black_plus_sign,,,null,,,1,,,,,,,1,,,,,,,,,,,,
null,,color_black3,643800,,,,,,,,black_plus_sign,,,null,,,,,,,,,,,,,,,,,,,,,,
null,,learn_phase(without_color)3,647305,,,,,,,,black_plus_sign,,,null,object_15a.png,object_04c.png,,,,,,,,,,,,,,,,,,,,
null,,black_cross(without_color)3,647925,,,,,,,,green,,,null,object_15a.png,object_04c.png,,,,,,,,,,,,,,,,,,,,
null,,rt_plussign_withcolor3,648428,,,,,,,,green,,,null,object_15a.png,object_04c.png,,,,,,,,,,,,,,,,,,,,
1094.2999999970198,,rt_thecrossant_black3,649816,,,,,,,,black_plus_sign,,,50,,,1,,,,,,,1,,,,,,,,,,,,
null,,color_black3,649920,,,,,,,,black_plus_sign,,,null,,,,,,,,,,,,,,,,,,,,,,
null,,learn_phase(without_color)3,653424,,,,,,,,black_plus_sign,,,null,object_08c.png,object_07a.png,,,,,,,,,,,,,,,,,,,,
null,,black_cross(without_color)3,653927,,,,,,,,blue,,,null,object_08c.png,object_07a.png,,,,,,,,,,,,,,,,,,,,
null,,rt_plussign_withcolor3,654430,,,,,,,,blue,,,null,object_08c.png,object_07a.png,,,,,,,,,,,,,,,,,,,,
819.8999999985099,,rt_thecrossant_black3,655935,,,,,,,,black_plus_sign,,,49,,,1,,,,,,,1,,,,,,,,,,,,
null,,color_black3,656039,,,,,,,,black_plus_sign,,,null,,,,,,,,,,,,,,,,,,,,,,
null,,learn_phase(without_color)3,659544,,,,,,,,black_plus_sign,,,null,object_06b.png,object_13c.png,,,,,,,,,,,,,,,,,,,,
null,,black_cross(without_color)3,660247,,,,,,,,green,,,null,object_06b.png,object_13c.png,,,,,,,,,,,,,,,,,,,,
null,,rt_plussign_withcolor3,660750,,,,,,,,green,,,null,object_06b.png,object_13c.png,,,,,,,,,,,,,,,,,,,,
1091,,rt_thecrossant_black3,662055,,,,,,,,black_plus_sign,,,50,,,1,,,,,,,1,,,,,,,,,,,,
null,,color_black3,662159,,,,,,,,black_plus_sign,,,null,,,,,,,,,,,,,,,,,,,,,,
null,,learn_phase(without_color)3,665664,,,,,,,,black_plus_sign,,,null,object_13b.png,object_09c.png,,,,,,,,,,,,,,,,,,,,
null,,black_cross(without_color)3,666289,,,,,,,,blue,,,null,object_13b.png,object_09c.png,,,,,,,,,,,,,,,,,,,,
null,,rt_plussign_withcolor3,666792,,,,,,,,blue,,,null,object_13b.png,object_09c.png,,,,,,,,,,,,,,,,,,,,
1012.7999999970198,,rt_thecrossant_black3,668174,,,,,,,,black_plus_sign,,,49,,,1,,,,,,,1,,,,,,,,,,,,
null,,color_black3,668278,,,,,,,,black_plus_sign,,,null,,,,,,,,,,,,,,,,,,,,,,
null,,learn_phase(without_color)3,671783,,,,,,,,black_plus_sign,,,null,object_10c.png,object_03c.png,,,,,,,,,,,,,,,,,,,,
null,,black_cross(without_color)3,672632,,,,,,,,green,,,null,object_10c.png,object_03c.png,,,,,,,,,,,,,,,,,,,,
null,,rt_plussign_withcolor3,673135,,,,,,,,green,,,null,object_10c.png,object_03c.png,,,,,,,,,,,,,,,,,,,,
832.1999999955297,,rt_thecrossant_black3,674294,,,,,,,,black_plus_sign,,,50,,,1,,,,,,,1,,,,,,,,,,,,
null,,color_black3,674398,,,,,,,,black_plus_sign,,,null,,,,,,,,,,,,,,,,,,,,,,
null,,learn_phase(without_color)3,677902,,,,,,,,black_plus_sign,,,null,object_05a.png,object_14c.png,,,,,,,,,,,,,,,,,,,,
null,,black_cross(without_color)3,678642,,,,,,,,green,,,null,object_05a.png,object_14c.png,,,,,,,,,,,,,,,,,,,,
495.90000000596046,,rt_plussign_withcolor3,679144,,,,,,,,green,,,50,object_05a.png,object_14c.png,,,,,,,,,,,,,,,,,,,,
null,,rt_thecrossant_black3,680412,,,,,,,,black_plus_sign,,,null,,,1,,,,,,,1,,,,,,,,,,,,
null,,color_black3,680517,,,,,,,,black_plus_sign,,,null,,,,,,,,,,,,,,,,,,,,,,
null,,learn_phase(without_color)3,684021,,,,,,,,black_plus_sign,,,null,object_01a.png,object_03b.png,,,,,,,,,,,,,,,,,,,,
null,,black_cross(without_color)3,684537,,,,,,,,green,,,null,object_01a.png,object_03b.png,,,,,,,,,,,,,,,,,,,,
null,,rt_plussign_withcolor3,685040,,,,,,,,green,,,null,object_01a.png,object_03b.png,,,,,,,,,,,,,,,,,,,,
1021.8999999985099,,rt_thecrossant_black3,686532,,,,,,,,black_plus_sign,,,50,,,1,,,,,,,1,,,,,,,,,,,,
null,,color_black3,686635,,,,,,,,black_plus_sign,,,null,,,,,,,,,,,,,,,,,,,,,,
null,,learn_phase(without_color)3,690139,,,,,,,,black_plus_sign,,,null,object_14b.png,object_14a.png,,,,,,,,,,,,,,,,,,,,
null,,black_cross(without_color)3,690755,,,,,,,,green,,,null,object_14b.png,object_14a.png,,,,,,,,,,,,,,,,,,,,
null,,rt_plussign_withcolor3,691259,,,,,,,,green,,,null,object_14b.png,object_14a.png,,,,,,,,,,,,,,,,,,,,
1375.7999999970198,,rt_thecrossant_black3,692650,,,,,,,,black_plus_sign,,,50,,,1,,,,,,,1,,,,,,,,,,,,
null,,color_black3,692754,,,,,,,,black_plus_sign,,,null,,,,,,,,,,,,,,,,,,,,,,
null,,learn_phase(without_color)3,696258,,,,,,,,black_plus_sign,,,null,object_15b.png,object_02a.png,,,,,,,,,,,,,,,,,,,,
null,,black_cross(without_color)3,697320,,,,,,,,blue,,,null,object_15b.png,object_02a.png,,,,,,,,,,,,,,,,,,,,
null,,rt_plussign_withcolor3,697823,,,,,,,,blue,,,null,object_15b.png,object_02a.png,,,,,,,,,,,,,,,,,,,,
756,,rt_thecrossant_black3,698769,,,,,,,,black_plus_sign,,,49,,,1,,,,,,,1,,,,,,,,,,,,
null,,color_black3,698872,,,,,,,,black_plus_sign,,,null,,,,,,,,,,,,,,,,,,,,,,
null,,learn_phase(without_color)3,702376,,,,,,,,black_plus_sign,,,null,object_08a.png,object_15c.png,,,,,,,,,,,,,,,,,,,,
null,,black_cross(without_color)3,703395,,,,,,,,blue,,,null,object_08a.png,object_15c.png,,,,,,,,,,,,,,,,,,,,
null,,rt_plussign_withcolor3,703898,,,,,,,,blue,,,null,object_08a.png,object_15c.png,,,,,,,,,,,,,,,,,,,,
1930.7999999970198,,rt_thecrossant_black3,704887,,,,,,,,black_plus_sign,,,49,,,1,,,,,,,1,,,,,,,,,,,,
null,,color_black3,704991,,,,,,,,black_plus_sign,,,null,,,,,,,,,,,,,,,,,,,,,,
null,,learn_phase(without_color)3,708496,,,,,,,,black_plus_sign,,,null,object_05b.png,object_06c.png,,,,,,,,,,,,,,,,,,,,
null,,black_cross(without_color)3,709182,,,,,,,,green,,,null,object_05b.png,object_06c.png,,,,,,,,,,,,,,,,,,,,
null,,rt_plussign_withcolor3,709685,,,,,,,,green,,,null,object_05b.png,object_06c.png,,,,,,,,,,,,,,,,,,,,
1135.9000000059605,,rt_thecrossant_black3,711007,,,,,,,,black_plus_sign,,,50,,,1,,,,,,,1,,,,,,,,,,,,
null,,color_black3,711111,,,,,,,,black_plus_sign,,,null,,,,,,,,,,,,,,,,,,,,,,
null,,thebreak,711215,,,,,,,,<p></p>,,,null,,,,,,,,,,,,,,,,,,,,,,
1250.5,,intro_0,712467,,,,,,,,instruct,,,32,,,,,,,,,,,,,,,,,,,,,,
5162.10000000149,,directmemory_phase3,717631,,,,,,,,object_14c.png,,,49,,,1,,object_05a.png,object_15b.png,object_11a.png,object_05a.png,,0.3870967741935484,1,,,,,,,,,,,
3992.60000000149,,directmemory_phase3,721627,,,,,,,,object_15c.png,,,50,,,0,,object_13b.png,object_05b.png,object_08a.png,object_08a.png,,0.375,0,,,,,,,,,,,
6970.30000000447,,directmemory_phase3,728599,,,,,,,,object_14a.png,,,50,,,0,,object_11a.png,object_08a.png,object_14b.png,object_14b.png,,0.36363636363636365,0,,,,,,,,,,,
6325,,directmemory_phase3,734927,,,,,,,,object_07a.png,,,51,,,1,,object_14b.png,object_15a.png,object_08c.png,object_08c.png,,0.38235294117647056,1,,,,,,,,,,,
2949.8000000044703,,directmemory_phase3,737881,,,,,,,,object_02a.png,,,49,,,1,,object_15b.png,object_13b.png,object_08c.png,object_15b.png,,0.4,1,,,,,,,,,,,
6072.89999999851,,directmemory_phase3,743956,,,,,,,,object_03c.png,,,49,,,1,,object_10c.png,object_15a.png,object_05b.png,object_10c.png,,0.4166666666666667,1,,,,,,,,,,,
6473.0999999940395,,directmemory_phase3,750432,,,,,,,,object_09c.png,,,50,,,0,,object_13b.png,object_10b.png,object_05c.png,object_13b.png,,0.40540540540540543,0,,,,,,,,,,,
6140.19999999553,,directmemory_phase3,756576,,,,,,,,object_13c.png,,,50,,,0,,object_06b.png,object_13a.png,object_13b.png,object_06b.png,,0.39473684210526316,0,,,,,,,,,,,
4264.10000000149,,directmemory_phase3,760843,,,,,,,,object_04a.png,,,51,,,0,,object_11a.png,object_08a.png,object_14b.png,object_11a.png,,0.38461538461538464,0,,,,,,,,,,,
1530.7000000029802,,directmemory_phase3,762377,,,,,,,,object_03b.png,,,50,,,1,,object_11a.png,object_01a.png,object_15b.png,object_01a.png,,0.4,1,,,,,,,,,,,
7322.89999999851,,directmemory_phase3,769702,,,,,,,,object_08b.png,,,50,,,1,,object_08a.png,object_05c.png,object_11a.png,object_05c.png,,0.4146341463414634,1,,,,,,,,,,,
2038.2000000029802,,directmemory_phase3,771744,,,,,,,,object_06c.png,,,50,,,1,,object_11a.png,object_05b.png,object_08a.png,object_05b.png,,0.42857142857142855,1,,,,,,,,,,,
3691.2999999970198,,directmemory_phase3,775439,,,,,,,,object_09a.png,,,51,,,1,,object_13b.png,object_05c.png,object_13a.png,object_13a.png,,0.4418604651162791,1,,,,,,,,,,,
6552.30000000447,,directmemory_phase3,781994,,,,,,,,object_04c.png,,,49,,,0,,object_05a.png,object_15a.png,object_11a.png,object_15a.png,,0.4318181818181818,0,,,,,,,,,,,
4352.19999999553,,directmemory_phase3,786349,,,,,,,,object_02b.png,,,51,,,0,,object_13a.png,object_10b.png,object_15a.png,object_10b.png,,0.4222222222222222,0,,,,,,,,,,,
null,,thebreak,786453,,,,,,,,<p></p>,,,null,,,,,,,,,,,,,,,,,,,,,,
1777.7999999970198,,intro_0,788233,,,,,,,,instruct,,,32,,,,,,,,,,,,,,,,,,,,,,
null,,learn_phase(without_color)4,791737,,,,,,,,black_plus_sign,,,null,object_05a.png,object_14c.png,,,,,,,,,,,,,,,,,,,,
null,,black_cross(without_color)4,792394,,,,,,,,green,,,null,object_05a.png,object_14c.png,,,,,,,,,,,,,,,,,,,,
null,,rt_plussign_withcolor4,792897,,,,,,,,green,,,null,object_05a.png,object_14c.png,,,,,,,,,,,,,,,,,,,,
1806.6999999955297,,rt_thecrossant_black4,794248,,,,,,,,black_plus_sign,,,50,,,1,,,,,,,1,,,,,,,,,,,,
null,,color_black4,794351,,,,,,,,black_plus_sign,,,null,,,,,,,,,,,,,,,,,,,,,,
null,,learn_phase(without_color)4,797856,,,,,,,,black_plus_sign,,,null,object_06b.png,object_13c.png,,,,,,,,,,,,,,,,,,,,
null,,black_cross(without_color)4,798741,,,,,,,,green,,,null,object_06b.png,object_13c.png,,,,,,,,,,,,,,,,,,,,
null,,rt_plussign_withcolor4,799245,,,,,,,,green,,,null,object_06b.png,object_13c.png,,,,,,,,,,,,,,,,,,,,
1525,,rt_thecrossant_black4,800368,,,,,,,,black_plus_sign,,,50,,,1,,,,,,,1,,,,,,,,,,,,
null,,color_black4,800472,,,,,,,,black_plus_sign,,,null,,,,,,,,,,,,,,,,,,,,,,
null,,learn_phase(without_color)4,803977,,,,,,,,black_plus_sign,,,null,object_10b.png,object_02b.png,,,,,,,,,,,,,,,,,,,,
null,,black_cross(without_color)4,804877,,,,,,,,green,,,null,object_10b.png,object_02b.png,,,,,,,,,,,,,,,,,,,,
299.5,,rt_plussign_withcolor4,805380,,,,,,,,green,,,50,object_10b.png,object_02b.png,,,,,,,,,,,,,,,,,,,,
null,,rt_thecrossant_black4,806489,,,,,,,,black_plus_sign,,,null,,,1,,,,,,,1,,,,,,,,,,,,
null,,color_black4,806593,,,,,,,,black_plus_sign,,,null,,,,,,,,,,,,,,,,,,,,,,
null,,learn_phase(without_color)4,810097,,,,,,,,black_plus_sign,,,null,object_13b.png,object_09c.png,,,,,,,,,,,,,,,,,,,,
null,,black_cross(without_color)4,811117,,,,,,,,green,,,null,object_13b.png,object_09c.png,,,,,,,,,,,,,,,,,,,,
null,,rt_plussign_withcolor4,811620,,,,,,,,green,,,null,object_13b.png,object_09c.png,,,,,,,,,,,,,,,,,,,,
1138.9000000059605,,rt_thecrossant_black4,812608,,,,,,,,black_plus_sign,,,50,,,1,,,,,,,1,,,,,,,,,,,,
null,,color_black4,812712,,,,,,,,black_plus_sign,,,null,,,,,,,,,,,,,,,,,,,,,,
null,,learn_phase(without_color)4,816217,,,,,,,,black_plus_sign,,,null,object_11a.png,object_04a.png,,,,,,,,,,,,,,,,,,,,
null,,black_cross(without_color)4,816748,,,,,,,,green,,,null,object_11a.png,object_04a.png,,,,,,,,,,,,,,,,,,,,
null,,rt_plussign_withcolor4,817251,,,,,,,,green,,,null,object_11a.png,object_04a.png,,,,,,,,,,,,,,,,,,,,
1312.8999999985099,,rt_thecrossant_black4,818728,,,,,,,,black_plus_sign,,,50,,,1,,,,,,,1,,,,,,,,,,,,
null,,color_black4,818832,,,,,,,,black_plus_sign,,,null,,,,,,,,,,,,,,,,,,,,,,
null,,learn_phase(without_color)4,822337,,,,,,,,black_plus_sign,,,null,object_05c.png,object_08b.png,,,,,,,,,,,,,,,,,,,,
null,,black_cross(without_color)4,823046,,,,,,,,blue,,,null,object_05c.png,object_08b.png,,,,,,,,,,,,,,,,,,,,
null,,rt_plussign_withcolor4,823549,,,,,,,,blue,,,null,object_05c.png,object_08b.png,,,,,,,,,,,,,,,,,,,,
762.1000000014901,,rt_thecrossant_black4,824849,,,,,,,,black_plus_sign,,,49,,,1,,,,,,,1,,,,,,,,,,,,
null,,color_black4,824953,,,,,,,,black_plus_sign,,,null,,,,,,,,,,,,,,,,,,,,,,
null,,learn_phase(without_color)4,828458,,,,,,,,black_plus_sign,,,null,object_05b.png,object_06c.png,,,,,,,,,,,,,,,,,,,,
null,,black_cross(without_color)4,829381,,,,,,,,blue,,,null,object_05b.png,object_06c.png,,,,,,,,,,,,,,,,,,,,
null,,rt_plussign_withcolor4,829884,,,,,,,,blue,,,null,object_05b.png,object_06c.png,,,,,,,,,,,,,,,,,,,,
960.2000000029802,,rt_thecrossant_black4,830969,,,,,,,,black_plus_sign,,,49,,,1,,,,,,,1,,,,,,,,,,,,
null,,color_black4,831072,,,,,,,,black_plus_sign,,,null,,,,,,,,,,,,,,,,,,,,,,
null,,learn_phase(without_color)4,834577,,,,,,,,black_plus_sign,,,null,object_08a.png,object_15c.png,,,,,,,,,,,,,,,,,,,,
null,,black_cross(without_color)4,835170,,,,,,,,green,,,null,object_08a.png,object_15c.png,,,,,,,,,,,,,,,,,,,,
null,,rt_plussign_withcolor4,835673,,,,,,,,green,,,null,object_08a.png,object_15c.png,,,,,,,,,,,,,,,,,,,,
1574,,rt_thecrossant_black4,837088,,,,,,,,black_plus_sign,,,50,,,1,,,,,,,1,,,,,,,,,,,,
null,,color_black4,837193,,,,,,,,black_plus_sign,,,null,,,,,,,,,,,,,,,,,,,,,,
null,,learn_phase(without_color)4,840697,,,,,,,,black_plus_sign,,,null,object_15b.png,object_02a.png,,,,,,,,,,,,,,,,,,,,
null,,black_cross(without_color)4,841725,,,,,,,,green,,,null,object_15b.png,object_02a.png,,,,,,,,,,,,,,,,,,,,
null,,rt_plussign_withcolor4,842228,,,,,,,,green,,,null,object_15b.png,object_02a.png,,,,,,,,,,,,,,,,,,,,
818.8999999985099,,rt_thecrossant_black4,843209,,,,,,,,black_plus_sign,,,50,,,1,,,,,,,1,,,,,,,,,,,,
null,,color_black4,843313,,,,,,,,black_plus_sign,,,null,,,,,,,,,,,,,,,,,,,,,,
null,,learn_phase(without_color)4,846817,,,,,,,,black_plus_sign,,,null,object_14b.png,object_14a.png,,,,,,,,,,,,,,,,,,,,
null,,black_cross(without_color)4,847258,,,,,,,,blue,,,null,object_14b.png,object_14a.png,,,,,,,,,,,,,,,,,,,,
null,,rt_plussign_withcolor4,847762,,,,,,,,blue,,,null,object_14b.png,object_14a.png,,,,,,,,,,,,,,,,,,,,
2114.7999999970198,,rt_thecrossant_black4,849329,,,,,,,,black_plus_sign,,,49,,,1,,,,,,,1,,,,,,,,,,,,
null,,color_black4,849432,,,,,,,,black_plus_sign,,,null,,,,,,,,,,,,,,,,,,,,,,
null,,learn_phase(without_color)4,852937,,,,,,,,black_plus_sign,,,null,object_13a.png,object_09a.png,,,,,,,,,,,,,,,,,,,,
null,,black_cross(without_color)4,853510,,,,,,,,blue,,,null,object_13a.png,object_09a.png,,,,,,,,,,,,,,,,,,,,
null,,rt_plussign_withcolor4,854014,,,,,,,,blue,,,null,object_13a.png,object_09a.png,,,,,,,,,,,,,,,,,,,,
777.3000000044703,,rt_thecrossant_black4,855450,,,,,,,,black_plus_sign,,,49,,,1,,,,,,,1,,,,,,,,,,,,
null,,color_black4,855554,,,,,,,,black_plus_sign,,,null,,,,,,,,,,,,,,,,,,,,,,
null,,learn_phase(without_color)4,859057,,,,,,,,black_plus_sign,,,null,object_15a.png,object_04c.png,,,,,,,,,,,,,,,,,,,,
null,,black_cross(without_color)4,859921,,,,,,,,green,,,null,object_15a.png,object_04c.png,,,,,,,,,,,,,,,,,,,,
null,,rt_plussign_withcolor4,860423,,,,,,,,green,,,null,object_15a.png,object_04c.png,,,,,,,,,,,,,,,,,,,,
null,,rt_thecrossant_black4,861567,,,,,,,,black_plus_sign,,,null,,,,,,,,,,1,,,,,,,,,,,,
null,,color_black4,861671,,,,,,,,black_plus_sign,,,null,,,,,,,,,,,,,,,,,,,,,,
null,,learn_phase(without_color)4,865175,,,,,,,,black_plus_sign,,,null,object_01a.png,object_03b.png,,,,,,,,,,,,,,,,,,,,
null,,black_cross(without_color)4,866158,,,,,,,,blue,,,null,object_01a.png,object_03b.png,,,,,,,,,,,,,,,,,,,,
null,,rt_plussign_withcolor4,866660,,,,,,,,blue,,,null,object_01a.png,object_03b.png,,,,,,,,,,,,,,,,,,,,
1262,,rt_thecrossant_black4,867686,,,,,,,,black_plus_sign,,,49,,,1,,,,,,,1,,,,,,,,,,,,
null,,color_black4,867790,,,,,,,,black_plus_sign,,,null,,,,,,,,,,,,,,,,,,,,,,
null,,learn_phase(without_color)4,871295,,,,,,,,black_plus_sign,,,null,object_10c.png,object_03c.png,,,,,,,,,,,,,,,,,,,,
null,,black_cross(without_color)4,872230,,,,,,,,blue,,,null,object_10c.png,object_03c.png,,,,,,,,,,,,,,,,,,,,
null,,rt_plussign_withcolor4,872733,,,,,,,,blue,,,null,object_10c.png,object_03c.png,,,,,,,,,,,,,,,,,,,,
1253,,rt_thecrossant_black4,873805,,,,,,,,black_plus_sign,,,49,,,1,,,,,,,1,,,,,,,,,,,,
null,,color_black4,873910,,,,,,,,black_plus_sign,,,null,,,,,,,,,,,,,,,,,,,,,,
null,,learn_phase(without_color)4,877414,,,,,,,,black_plus_sign,,,null,object_08c.png,object_07a.png,,,,,,,,,,,,,,,,,,,,
null,,black_cross(without_color)4,877910,,,,,,,,green,,,null,object_08c.png,object_07a.png,,,,,,,,,,,,,,,,,,,,
null,,rt_plussign_withcolor4,878414,,,,,,,,green,,,null,object_08c.png,object_07a.png,,,,,,,,,,,,,,,,,,,,
1235.5,,rt_thecrossant_black4,879925,,,,,,,,black_plus_sign,,,50,,,1,,,,,,,1,,,,,,,,,,,,
null,,color_black4,880029,,,,,,,,black_plus_sign,,,null,,,,,,,,,,,,,,,,,,,,,,
null,,thebreak,880134,,,,,,,,<p></p>,,,null,,,,,,,,,,,,,,,,,,,,,,
1040.8999999985099,,intro_0,881177,,,,,,,,instruct,,,32,,,,,,,,,,,,,,,,,,,,,,
5928.19999999553,,directmemory_phase4,887107,,,,,,,,object_04a.png,,,49,,,0,,object_05c.png,object_11a.png,object_14b.png,object_11a.png,,0.41304347826086957,0,,,,,,,,,,,
6166.89999999851,,directmemory_phase4,893277,,,,,,,,object_06c.png,,,50,,,0,,object_15a.png,object_05a.png,object_05b.png,object_05b.png,,0.40425531914893614,0,,,,,,,,,,,
5012.39999999851,,directmemory_phase4,898292,,,,,,,,object_08b.png,,,51,,,1,,object_08a.png,object_01a.png,object_05c.png,object_05c.png,,0.4166666666666667,1,,,,,,,,,,,
4494.29999999702,,directmemory_phase4,902789,,,,,,,,object_02a.png,,,50,,,0,,object_08c.png,object_05c.png,object_15b.png,object_15b.png,,0.40816326530612246,0,,,,,,,,,,,
7351.5,,directmemory_phase4,910144,,,,,,,,object_03c.png,,,50,,,1,,object_15b.png,object_10c.png,object_05a.png,object_10c.png,,0.42,1,,,,,,,,,,,
4155,,directmemory_phase4,914302,,,,,,,,object_04c.png,,,51,,,0,,object_05a.png,object_15a.png,object_14b.png,object_15a.png,,0.4117647058823529,0,,,,,,,,,,,
1908.6000000014901,,directmemory_phase4,916214,,,,,,,,object_07a.png,,,49,,,1,,object_08c.png,object_05a.png,object_01a.png,object_08c.png,,0.4230769230769231,1,,,,,,,,,,,
4890.60000000149,,directmemory_phase4,921108,,,,,,,,object_14a.png,,,50,,,1,,object_15a.png,object_14b.png,object_08c.png,object_14b.png,,0.4339622641509434,1,,,,,,,,,,,
5006.20000000298,,directmemory_phase4,926118,,,,,,,,object_13c.png,,,49,,,1,,object_06b.png,object_15a.png,object_10b.png,object_06b.png,,0.4444444444444444,1,,,,,,,,,,,
6064.30000000447,,directmemory_phase4,932185,,,,,,,,object_09a.png,,,51,,,0,,object_13a.png,object_01a.png,object_11a.png,object_13a.png,,0.43636363636363634,0,,,,,,,,,,,
6371.69999999553,,directmemory_phase4,938560,,,,,,,,object_09c.png,,,50,,,1,,object_05c.png,object_13b.png,object_13a.png,object_13b.png,,0.44642857142857145,1,,,,,,,,,,,
6701.10000000149,,directmemory_phase4,945265,,,,,,,,object_02b.png,,,49,,,1,,object_10b.png,object_10c.png,object_15b.png,object_10b.png,,0.45614035087719296,1,,,,,,,,,,,
4758.29999999702,,directmemory_phase4,950026,,,,,,,,object_14c.png,,,51,,,1,,object_15a.png,object_01a.png,object_05a.png,object_05a.png,,0.46551724137931033,1,,,,,,,,,,,
1472.0999999940395,,directmemory_phase4,951502,,,,,,,,object_03b.png,,,50,,,1,,object_14b.png,object_01a.png,object_15a.png,object_01a.png,,0.4745762711864407,1,,,,,,,,,,,
2158.1999999955297,,directmemory_phase4,953663,,,,,,,,object_15c.png,,,51,,,1,,object_10c.png,object_11a.png,object_08a.png,object_08a.png,,0.48333333333333334,1,,,,,,,,,,,
null,,thebreak,953767,,,,,,,,<p></p>,,,null,,,,,,,,,,,,,,,,,,,,,,
1295,,intro_0,955065,,,,,,,,instruct,,,32,,,,,,,,,,,,,,,,,,,,,,
null,,learn_phase(without_color)5,958567,,,,,,,,black_plus_sign,,,null,object_09a.png,object_11c.png,,,,,,,,,,,,,,,,,,,,
null,,black_cross(without_color)5,959619,,,,,,,,blue,,,null,object_09a.png,object_11c.png,,,,,,,,,,,,,,,,,,,,
null,,rt_plussign_withcolor5,960122,,,,,,,,blue,,,null,object_09a.png,object_11c.png,,,,,,,,,,,,,,,,,,,,
2081.6999999955297,,rt_thecrossant_black5,961079,,,,,,,,black_plus_sign,,,49,,,1,,,,,,,1,,,,,,,,,,,,
null,,color_black5,961183,,,,,,,,black_plus_sign,,,null,,,,,,,,,,,,,,,,,,,,,,
null,,learn_phase(without_color)5,964687,,,,,,,,black_plus_sign,,,null,object_14c.png,object_04b.png,,,,,,,,,,,,,,,,,,,,
null,,black_cross(without_color)5,965395,,,,,,,,green,,,null,object_14c.png,object_04b.png,,,,,,,,,,,,,,,,,,,,
null,,rt_plussign_withcolor5,965899,,,,,,,,green,,,null,object_14c.png,object_04b.png,,,,,,,,,,,,,,,,,,,,
1245.4000000059605,,rt_thecrossant_black5,967198,,,,,,,,black_plus_sign,,,50,,,1,,,,,,,1,,,,,,,,,,,,
null,,color_black5,967302,,,,,,,,black_plus_sign,,,null,,,,,,,,,,,,,,,,,,,,,,
null,,learn_phase(without_color)5,970807,,,,,,,,black_plus_sign,,,null,object_13c.png,object_07b.png,,,,,,,,,,,,,,,,,,,,
null,,black_cross(without_color)5,971808,,,,,,,,green,,,null,object_13c.png,object_07b.png,,,,,,,,,,,,,,,,,,,,
null,,rt_plussign_withcolor5,972311,,,,,,,,green,,,null,object_13c.png,object_07b.png,,,,,,,,,,,,,,,,,,,,
null,,rt_thecrossant_black5,973318,,,,,,,,black_plus_sign,,,null,,,,,,,,,,1,,,,,,,,,,,,
null,,color_black5,973422,,,,,,,,black_plus_sign,,,null,,,,,,,,,,,,,,,,,,,,,,
null,,learn_phase(without_color)5,976927,,,,,,,,black_plus_sign,,,null,object_04a.png,object_01c.png,,,,,,,,,,,,,,,,,,,,
null,,black_cross(without_color)5,977883,,,,,,,,blue,,,null,object_04a.png,object_01c.png,,,,,,,,,,,,,,,,,,,,
null,,rt_plussign_withcolor5,978387,,,,,,,,blue,,,null,object_04a.png,object_01c.png,,,,,,,,,,,,,,,,,,,,
1200.3999999985099,,rt_thecrossant_black5,979439,,,,,,,,black_plus_sign,,,49,,,1,,,,,,,1,,,,,,,,,,,,
null,,color_black5,979543,,,,,,,,black_plus_sign,,,null,,,,,,,,,,,,,,,,,,,,,,
null,,learn_phase(without_color)5,983048,,,,,,,,black_plus_sign,,,null,object_02b.png,object_03a.png,,,,,,,,,,,,,,,,,,,,
null,,black_cross(without_color)5,984007,,,,,,,,green,,,null,object_02b.png,object_03a.png,,,,,,,,,,,,,,,,,,,,
null,,rt_plussign_withcolor5,984510,,,,,,,,green,,,null,object_02b.png,object_03a.png,,,,,,,,,,,,,,,,,,,,
1241.9000000059605,,rt_thecrossant_black5,985559,,,,,,,,black_plus_sign,,,50,,,1,,,,,,,1,,,,,,,,,,,,
null,,color_black5,985663,,,,,,,,black_plus_sign,,,null,,,,,,,,,,,,,,,,,,,,,,
null,,learn_phase(without_color)5,989168,,,,,,,,black_plus_sign,,,null,object_03b.png,object_10a.png,,,,,,,,,,,,,,,,,,,,
null,,black_cross(without_color)5,990145,,,,,,,,green,,,null,object_03b.png,object_10a.png,,,,,,,,,,,,,,,,,,,,
null,,rt_plussign_withcolor5,990648,,,,,,,,green,,,null,object_03b.png,object_10a.png,,,,,,,,,,,,,,,,,,,,
1300.3000000044703,,rt_thecrossant_black5,991680,,,,,,,,black_plus_sign,,,50,,,1,,,,,,,1,,,,,,,,,,,,
null,,color_black5,991783,,,,,,,,black_plus_sign,,,null,,,,,,,,,,,,,,,,,,,,,,
null,,learn_phase(without_color)5,995288,,,,,,,,black_plus_sign,,,null,object_03c.png,object_06a.png,,,,,,,,,,,,,,,,,,,,
null,,black_cross(without_color)5,996121,,,,,,,,green,,,null,object_03c.png,object_06a.png,,,,,,,,,,,,,,,,,,,,
474.70000000298023,,rt_plussign_withcolor5,996624,,,,,,,,green,,,50,object_03c.png,object_06a.png,,,,,,,,,,,,,,,,,,,,
null,,rt_thecrossant_black5,997799,,,,,,,,black_plus_sign,,,null,,,1,,,,,,,1,,,,,,,,,,,,
null,,color_black5,997903,,,,,,,,black_plus_sign,,,null,,,,,,,,,,,,,,,,,,,,,,
null,,learn_phase(without_color)5,1001408,,,,,,,,black_plus_sign,,,null,object_04c.png,object_09b.png,,,,,,,,,,,,,,,,,,,,
null,,black_cross(without_color)5,1002198,,,,,,,,blue,,,null,object_04c.png,object_09b.png,,,,,,,,,,,,,,,,,,,,
null,,rt_plussign_withcolor5,1002702,,,,,,,,blue,,,null,object_04c.png,object_09b.png,,,,,,,,,,,,,,,,,,,,
1061,,rt_thecrossant_black5,1003919,,,,,,,,black_plus_sign,,,49,,,1,,,,,,,1,,,,,,,,,,,,
null,,color_black5,1004023,,,,,,,,black_plus_sign,,,null,,,,,,,,,,,,,,,,,,,,,,
null,,learn_phase(without_color)5,1007528,,,,,,,,black_plus_sign,,,null,object_09c.png,object_02c.png,,,,,,,,,,,,,,,,,,,,
null,,black_cross(without_color)5,1008606,,,,,,,,green,,,null,object_09c.png,object_02c.png,,,,,,,,,,,,,,,,,,,,
null,,rt_plussign_withcolor5,1009109,,,,,,,,green,,,null,object_09c.png,object_02c.png,,,,,,,,,,,,,,,,,,,,
1312.1999999955297,,rt_thecrossant_black5,1010039,,,,,,,,black_plus_sign,,,50,,,1,,,,,,,1,,,,,,,,,,,,
null,,color_black5,1010143,,,,,,,,black_plus_sign,,,null,,,,,,,,,,,,,,,,,,,,,,
null,,learn_phase(without_color)5,1013648,,,,,,,,black_plus_sign,,,null,object_07a.png,object_11b.png,,,,,,,,,,,,,,,,,,,,
null,,black_cross(without_color)5,1014655,,,,,,,,green,,,null,object_07a.png,object_11b.png,,,,,,,,,,,,,,,,,,,,
null,,rt_plussign_withcolor5,1015159,,,,,,,,green,,,null,object_07a.png,object_11b.png,,,,,,,,,,,,,,,,,,,,
1505.3999999985099,,rt_thecrossant_black5,1016159,,,,,,,,black_plus_sign,,,50,,,1,,,,,,,1,,,,,,,,,,,,
null,,color_black5,1016264,,,,,,,,black_plus_sign,,,null,,,,,,,,,,,,,,,,,,,,,,
null,,learn_phase(without_color)5,1019769,,,,,,,,black_plus_sign,,,null,object_02a.png,object_12a.png,,,,,,,,,,,,,,,,,,,,
null,,black_cross(without_color)5,1020575,,,,,,,,green,,,null,object_02a.png,object_12a.png,,,,,,,,,,,,,,,,,,,,
null,,rt_plussign_withcolor5,1021078,,,,,,,,green,,,null,object_02a.png,object_12a.png,,,,,,,,,,,,,,,,,,,,
1603.7000000029802,,rt_thecrossant_black5,1022279,,,,,,,,black_plus_sign,,,50,,,1,,,,,,,1,,,,,,,,,,,,
null,,color_black5,1022384,,,,,,,,black_plus_sign,,,null,,,,,,,,,,,,,,,,,,,,,,
null,,learn_phase(without_color)5,1025889,,,,,,,,black_plus_sign,,,null,object_15c.png,object_07c.png,,,,,,,,,,,,,,,,,,,,
null,,black_cross(without_color)5,1026534,,,,,,,,blue,,,null,object_15c.png,object_07c.png,,,,,,,,,,,,,,,,,,,,
null,,rt_plussign_withcolor5,1027037,,,,,,,,blue,,,null,object_15c.png,object_07c.png,,,,,,,,,,,,,,,,,,,,
1172.5,,rt_thecrossant_black5,1028401,,,,,,,,black_plus_sign,,,49,,,1,,,,,,,1,,,,,,,,,,,,
null,,color_black5,1028504,,,,,,,,black_plus_sign,,,null,,,,,,,,,,,,,,,,,,,,,,
null,,learn_phase(without_color)5,1032009,,,,,,,,black_plus_sign,,,null,object_06c.png,object_12b.png,,,,,,,,,,,,,,,,,,,,
null,,black_cross(without_color)5,1033053,,,,,,,,green,,,null,object_06c.png,object_12b.png,,,,,,,,,,,,,,,,,,,,
null,,rt_plussign_withcolor5,1033557,,,,,,,,green,,,null,object_06c.png,object_12b.png,,,,,,,,,,,,,,,,,,,,
975.5,,rt_thecrossant_black5,1034521,,,,,,,,black_plus_sign,,,50,,,1,,,,,,,1,,,,,,,,,,,,
null,,color_black5,1034626,,,,,,,,black_plus_sign,,,null,,,,,,,,,,,,,,,,,,,,,,
null,,learn_phase(without_color)5,1038131,,,,,,,,black_plus_sign,,,null,object_14a.png,object_12c.png,,,,,,,,,,,,,,,,,,,,
null,,black_cross(without_color)5,1038870,,,,,,,,green,,,null,object_14a.png,object_12c.png,,,,,,,,,,,,,,,,,,,,
null,,rt_plussign_withcolor5,1039373,,,,,,,,green,,,null,object_14a.png,object_12c.png,,,,,,,,,,,,,,,,,,,,
1580.0999999940395,,rt_thecrossant_black5,1040643,,,,,,,,black_plus_sign,,,50,,,1,,,,,,,1,,,,,,,,,,,,
null,,color_black5,1040747,,,,,,,,black_plus_sign,,,null,,,,,,,,,,,,,,,,,,,,,,
null,,learn_phase(without_color)5,1044252,,,,,,,,black_plus_sign,,,null,object_08b.png,object_01b.png,,,,,,,,,,,,,,,,,,,,
null,,black_cross(without_color)5,1045277,,,,,,,,green,,,null,object_08b.png,object_01b.png,,,,,,,,,,,,,,,,,,,,
null,,rt_plussign_withcolor5,1045781,,,,,,,,green,,,null,object_08b.png,object_01b.png,,,,,,,,,,,,,,,,,,,,
977.8999999985099,,rt_thecrossant_black5,1046763,,,,,,,,black_plus_sign,,,50,,,1,,,,,,,1,,,,,,,,,,,,
null,,color_black5,1046866,,,,,,,,black_plus_sign,,,null,,,,,,,,,,,,,,,,,,,,,,
null,,thebreak,1046970,,,,,,,,<p></p>,,,null,,,,,,,,,,,,,,,,,,,,,,
1064.1999999955297,,intro_0,1048036,,,,,,,,instruct,,,32,,,,,,,,,,,,,,,,,,,,,,
4965.89999999851,,directmemory_phase5,1053004,,,,,,,,object_02c.png,,,49,,,0,,object_03b.png,object_04c.png,object_09c.png,object_09c.png,,0.47540983606557374,0,,,,,,,,,,,
6382.5,,directmemory_phase5,1059390,,,,,,,,object_07b.png,,,49,,,0,,object_07a.png,object_13c.png,object_02b.png,object_13c.png,,0.46774193548387094,0,,,,,,,,,,,
6187.10000000149,,directmemory_phase5,1065572,,,,,,,,object_11c.png,,,49,,,1,,object_09a.png,object_15c.png,object_14a.png,object_09a.png,,0.47619047619047616,1,,,,,,,,,,,
2865.5,,directmemory_phase5,1068437,,,,,,,,object_06a.png,,,49,,,1,,object_03c.png,object_02a.png,object_08b.png,object_03c.png,,0.484375,1,,,,,,,,,,,
6961.20000000298,,directmemory_phase5,1075396,,,,,,,,object_12b.png,,,50,,,1,,object_08b.png,object_06c.png,object_15c.png,object_06c.png,,0.49230769230769234,1,,,,,,,,,,,
6878.79999999702,,directmemory_phase5,1082274,,,,,,,,object_12a.png,,,50,,,0,,object_03c.png,object_15c.png,object_02a.png,object_02a.png,,0.48484848484848486,0,,,,,,,,,,,
3912.7000000029802,,directmemory_phase5,1086189,,,,,,,,object_01b.png,,,49,,,0,,object_14c.png,object_08b.png,object_15c.png,object_08b.png,,0.47761194029850745,0,,,,,,,,,,,
4953,,directmemory_phase5,1091143,,,,,,,,object_11b.png,,,50,,,0,,object_07a.png,object_02a.png,object_02b.png,object_07a.png,,0.47058823529411764,0,,,,,,,,,,,
5263.89999999851,,directmemory_phase5,1096409,,,,,,,,object_09b.png,,,51,,,1,,object_03c.png,object_07a.png,object_04c.png,object_04c.png,,0.4782608695652174,1,,,,,,,,,,,
6422.30000000447,,directmemory_phase5,1102834,,,,,,,,object_07c.png,,,50,,,0,,object_15c.png,object_06c.png,object_09a.png,object_15c.png,,0.4714285714285714,0,,,,,,,,,,,
5542.29999999702,,directmemory_phase5,1108379,,,,,,,,object_01c.png,,,51,,,1,,object_06c.png,object_15c.png,object_04a.png,object_04a.png,,0.4788732394366197,1,,,,,,,,,,,
4901.69999999553,,directmemory_phase5,1113284,,,,,,,,object_04b.png,,,49,,,0,,object_02a.png,object_14a.png,object_14c.png,object_14c.png,,0.4722222222222222,0,,,,,,,,,,,
4086.39999999851,,directmemory_phase5,1117372,,,,,,,,object_03a.png,,,49,,,1,,object_02b.png,object_07a.png,object_04c.png,object_02b.png,,0.4794520547945205,1,,,,,,,,,,,
3868.7999999970198,,directmemory_phase5,1121244,,,,,,,,object_10a.png,,,51,,,1,,object_09a.png,object_02a.png,object_03b.png,object_03b.png,,0.4864864864864865,1,,,,,,,,,,,
3974,,directmemory_phase5,1125221,,,,,,,,object_12c.png,,,51,,,1,,object_07a.png,object_08b.png,object_14a.png,object_14a.png,,0.49333333333333335,1,,,,,,,,,,,
null,,thebreak,1125326,,,,,,,,<p></p>,,,null,,,,,,,,,,,,,,,,,,,,,,
1028.4000000059605,,intro_0,1126356,,,,,,,,instruct,,,32,,,,,,,,,,,,,,,,,,,,,,
null,,learn_phase(without_color)6,1129859,,,,,,,,black_plus_sign,,,null,object_04c.png,object_09b.png,,,,,,,,,,,,,,,,,,,,
null,,black_cross(without_color)6,1130862,,,,,,,,blue,,,null,object_04c.png,object_09b.png,,,,,,,,,,,,,,,,,,,,
null,,rt_plussign_withcolor6,1131366,,,,,,,,blue,,,null,object_04c.png,object_09b.png,,,,,,,,,,,,,,,,,,,,
null,,rt_thecrossant_black6,1132371,,,,,,,,black_plus_sign,,,null,,,,,,,,,,NaN,,,,,,,,,,,,
null,,color_black6,1132474,,,,,,,,black_plus_sign,,,null,,,,,,,,,,,,,,,,,,,,,,
null,,learn_phase(without_color)6,1135978,,,,,,,,black_plus_sign,,,null,object_02b.png,object_03a.png,,,,,,,,,,,,,,,,,,,,
null,,black_cross(without_color)6,1136518,,,,,,,,blue,,,null,object_02b.png,object_03a.png,,,,,,,,,,,,,,,,,,,,
null,,rt_plussign_withcolor6,1137021,,,,,,,,blue,,,null,object_02b.png,object_03a.png,,,,,,,,,,,,,,,,,,,,
1740.7000000029802,,rt_thecrossant_black6,1138491,,,,,,,,black_plus_sign,,,49,,,1,,,,,,,1,,,,,,,,,,,,
null,,color_black6,1138595,,,,,,,,black_plus_sign,,,null,,,,,,,,,,,,,,,,,,,,,,
null,,learn_phase(without_color)6,1142100,,,,,,,,black_plus_sign,,,null,object_14a.png,object_12c.png,,,,,,,,,,,,,,,,,,,,
null,,black_cross(without_color)6,1142836,,,,,,,,blue,,,null,object_14a.png,object_12c.png,,,,,,,,,,,,,,,,,,,,
null,,rt_plussign_withcolor6,1143339,,,,,,,,blue,,,null,object_14a.png,object_12c.png,,,,,,,,,,,,,,,,,,,,
838,,rt_thecrossant_black6,1144612,,,,,,,,black_plus_sign,,,49,,,1,,,,,,,1,,,,,,,,,,,,
null,,color_black6,1144716,,,,,,,,black_plus_sign,,,null,,,,,,,,,,,,,,,,,,,,,,
null,,learn_phase(without_color)6,1148222,,,,,,,,black_plus_sign,,,null,object_08b.png,object_01b.png,,,,,,,,,,,,,,,,,,,,
null,,black_cross(without_color)6,1148789,,,,,,,,green,,,null,object_08b.png,object_01b.png,,,,,,,,,,,,,,,,,,,,
480.20000000298023,,rt_plussign_withcolor6,1149293,,,,,,,,green,,,50,object_08b.png,object_01b.png,,,,,,,,,,,,,,,,,,,,
null,,rt_thecrossant_black6,1150734,,,,,,,,black_plus_sign,,,null,,,1,,,,,,,1,,,,,,,,,,,,
null,,color_black6,1150838,,,,,,,,black_plus_sign,,,null,,,,,,,,,,,,,,,,,,,,,,
null,,learn_phase(without_color)6,1154343,,,,,,,,black_plus_sign,,,null,object_02a.png,object_12a.png,,,,,,,,,,,,,,,,,,,,
null,,black_cross(without_color)6,1154878,,,,,,,,green,,,null,object_02a.png,object_12a.png,,,,,,,,,,,,,,,,,,,,
491.8999999985099,,rt_plussign_withcolor6,1155381,,,,,,,,green,,,50,object_02a.png,object_12a.png,,,,,,,,,,,,,,,,,,,,
null,,rt_thecrossant_black6,1156854,,,,,,,,black_plus_sign,,,null,,,1,,,,,,,1,,,,,,,,,,,,
null,,color_black6,1156959,,,,,,,,black_plus_sign,,,null,,,,,,,,,,,,,,,,,,,,,,
null,,learn_phase(without_color)6,1160463,,,,,,,,black_plus_sign,,,null,object_14c.png,object_04b.png,,,,,,,,,,,,,,,,,,,,
null,,black_cross(without_color)6,1160977,,,,,,,,green,,,null,object_14c.png,object_04b.png,,,,,,,,,,,,,,,,,,,,
null,,rt_plussign_withcolor6,1161480,,,,,,,,green,,,null,object_14c.png,object_04b.png,,,,,,,,,,,,,,,,,,,,
1107.0999999940395,,rt_thecrossant_black6,1162974,,,,,,,,black_plus_sign,,,50,,,1,,,,,,,1,,,,,,,,,,,,
null,,color_black6,1163078,,,,,,,,black_plus_sign,,,null,,,,,,,,,,,,,,,,,,,,,,
null,,learn_phase(without_color)6,1166584,,,,,,,,black_plus_sign,,,null,object_03c.png,object_06a.png,,,,,,,,,,,,,,,,,,,,
null,,black_cross(without_color)6,1167611,,,,,,,,blue,,,null,object_03c.png,object_06a.png,,,,,,,,,,,,,,,,,,,,
null,,rt_plussign_withcolor6,1168114,,,,,,,,blue,,,null,object_03c.png,object_06a.png,,,,,,,,,,,,,,,,,,,,
670.6999999955297,,rt_thecrossant_black6,1169096,,,,,,,,black_plus_sign,,,49,,,1,,,,,,,1,,,,,,,,,,,,
null,,color_black6,1169201,,,,,,,,black_plus_sign,,,null,,,,,,,,,,,,,,,,,,,,,,
null,,learn_phase(without_color)6,1172706,,,,,,,,black_plus_sign,,,null,object_06c.png,object_12b.png,,,,,,,,,,,,,,,,,,,,
null,,black_cross(without_color)6,1173118,,,,,,,,green,,,null,object_06c.png,object_12b.png,,,,,,,,,,,,,,,,,,,,
null,,rt_plussign_withcolor6,1173621,,,,,,,,green,,,null,object_06c.png,object_12b.png,,,,,,,,,,,,,,,,,,,,
1409.1000000014901,,rt_thecrossant_black6,1175218,,,,,,,,black_plus_sign,,,50,,,1,,,,,,,1,,,,,,,,,,,,
null,,color_black6,1175322,,,,,,,,black_plus_sign,,,null,,,,,,,,,,,,,,,,,,,,,,
null,,learn_phase(without_color)6,1178827,,,,,,,,black_plus_sign,,,null,object_07a.png,object_11b.png,,,,,,,,,,,,,,,,,,,,
null,,black_cross(without_color)6,1179589,,,,,,,,green,,,null,object_07a.png,object_11b.png,,,,,,,,,,,,,,,,,,,,
null,,rt_plussign_withcolor6,1180092,,,,,,,,green,,,null,object_07a.png,object_11b.png,,,,,,,,,,,,,,,,,,,,
573.5,,rt_thecrossant_black6,1181338,,,,,,,,black_plus_sign,,,50,,,1,,,,,,,1,,,,,,,,,,,,
null,,color_black6,1181442,,,,,,,,black_plus_sign,,,null,,,,,,,,,,,,,,,,,,,,,,
null,,learn_phase(without_color)6,1184947,,,,,,,,black_plus_sign,,,null,object_09c.png,object_02c.png,,,,,,,,,,,,,,,,,,,,
null,,black_cross(without_color)6,1185410,,,,,,,,green,,,null,object_09c.png,object_02c.png,,,,,,,,,,,,,,,,,,,,
null,,rt_plussign_withcolor6,1185914,,,,,,,,green,,,null,object_09c.png,object_02c.png,,,,,,,,,,,,,,,,,,,,
996.3999999985099,,rt_thecrossant_black6,1187458,,,,,,,,black_plus_sign,,,50,,,1,,,,,,,1,,,,,,,,,,,,
null,,color_black6,1187562,,,,,,,,black_plus_sign,,,null,,,,,,,,,,,,,,,,,,,,,,
null,,learn_phase(without_color)6,1191068,,,,,,,,black_plus_sign,,,null,object_04a.png,object_01c.png,,,,,,,,,,,,,,,,,,,,
null,,black_cross(without_color)6,1191844,,,,,,,,green,,,null,object_04a.png,object_01c.png,,,,,,,,,,,,,,,,,,,,
null,,rt_plussign_withcolor6,1192348,,,,,,,,green,,,null,object_04a.png,object_01c.png,,,,,,,,,,,,,,,,,,,,
849.3000000044703,,rt_thecrossant_black6,1193580,,,,,,,,black_plus_sign,,,50,,,1,,,,,,,1,,,,,,,,,,,,
null,,color_black6,1193684,,,,,,,,black_plus_sign,,,null,,,,,,,,,,,,,,,,,,,,,,
null,,learn_phase(without_color)6,1197190,,,,,,,,black_plus_sign,,,null,object_15c.png,object_07c.png,,,,,,,,,,,,,,,,,,,,
null,,black_cross(without_color)6,1197754,,,,,,,,blue,,,null,object_15c.png,object_07c.png,,,,,,,,,,,,,,,,,,,,
null,,rt_plussign_withcolor6,1198257,,,,,,,,blue,,,null,object_15c.png,object_07c.png,,,,,,,,,,,,,,,,,,,,
1806.3000000044703,,rt_thecrossant_black6,1199700,,,,,,,,black_plus_sign,,,49,,,1,,,,,,,1,,,,,,,,,,,,
null,,color_black6,1199805,,,,,,,,black_plus_sign,,,null,,,,,,,,,,,,,,,,,,,,,,
null,,learn_phase(without_color)6,1203310,,,,,,,,black_plus_sign,,,null,object_03b.png,object_10a.png,,,,,,,,,,,,,,,,,,,,
null,,black_cross(without_color)6,1203873,,,,,,,,green,,,null,object_03b.png,object_10a.png,,,,,,,,,,,,,,,,,,,,
null,,rt_plussign_withcolor6,1204376,,,,,,,,green,,,null,object_03b.png,object_10a.png,,,,,,,,,,,,,,,,,,,,
686.3999999985099,,rt_thecrossant_black6,1205822,,,,,,,,black_plus_sign,,,50,,,1,,,,,,,1,,,,,,,,,,,,
null,,color_black6,1205926,,,,,,,,black_plus_sign,,,null,,,,,,,,,,,,,,,,,,,,,,
null,,learn_phase(without_color)6,1209432,,,,,,,,black_plus_sign,,,null,object_13c.png,object_07b.png,,,,,,,,,,,,,,,,,,,,
null,,black_cross(without_color)6,1209863,,,,,,,,green,,,null,object_13c.png,object_07b.png,,,,,,,,,,,,,,,,,,,,
null,,rt_plussign_withcolor6,1210367,,,,,,,,green,,,null,object_13c.png,object_07b.png,,,,,,,,,,,,,,,,,,,,
1176,,rt_thecrossant_black6,1211944,,,,,,,,black_plus_sign,,,50,,,1,,,,,,,1,,,,,,,,,,,,
null,,color_black6,1212048,,,,,,,,black_plus_sign,,,null,,,,,,,,,,,,,,,,,,,,,,
null,,learn_phase(without_color)6,1215553,,,,,,,,black_plus_sign,,,null,object_09a.png,object_11c.png,,,,,,,,,,,,,,,,,,,,
null,,black_cross(without_color)6,1216055,,,,,,,,green,,,null,object_09a.png,object_11c.png,,,,,,,,,,,,,,,,,,,,
null,,rt_plussign_withcolor6,1216559,,,,,,,,green,,,null,object_09a.png,object_11c.png,,,,,,,,,,,,,,,,,,,,
690.5,,rt_thecrossant_black6,1218065,,,,,,,,black_plus_sign,,,50,,,1,,,,,,,1,,,,,,,,,,,,
null,,color_black6,1218169,,,,,,,,black_plus_sign,,,null,,,,,,,,,,,,,,,,,,,,,,
null,,thebreak,1218274,,,,,,,,<p></p>,,,null,,,,,,,,,,,,,,,,,,,,,,
842.5,,intro_0,1219119,,,,,,,,instruct,,,32,,,,,,,,,,,,,,,,,,,,,,
6443.5,,directmemory_phase6,1225565,,,,,,,,object_10a.png,,,51,,,1,,object_15c.png,object_14a.png,object_03b.png,object_03b.png,,0.5,1,,,,,,,,,,,
5179.20000000298,,directmemory_phase6,1230748,,,,,,,,object_11c.png,,,50,,,1,,object_06c.png,object_09a.png,object_04c.png,object_09a.png,,0.5064935064935064,1,,,,,,,,,,,
2566.60000000149,,directmemory_phase6,1233318,,,,,,,,object_11b.png,,,49,,,0,,object_06c.png,object_07a.png,object_08b.png,object_07a.png,,0.5,0,,,,,,,,,,,
7391.60000000149,,directmemory_phase6,1240713,,,,,,,,object_09b.png,,,50,,,0,,object_04c.png,object_15c.png,object_02a.png,object_04c.png,,0.4936708860759494,0,,,,,,,,,,,
3573.2000000029802,,directmemory_phase6,1244290,,,,,,,,object_01c.png,,,51,,,1,,object_02b.png,object_07a.png,object_04a.png,object_04a.png,,0.5,1,,,,,,,,,,,
3458.7000000029802,,directmemory_phase6,1247752,,,,,,,,object_12c.png,,,51,,,0,,object_14a.png,object_07a.png,object_08b.png,object_14a.png,,0.49382716049382713,0,,,,,,,,,,,
3364.3000000044703,,directmemory_phase6,1251120,,,,,,,,object_02c.png,,,51,,,1,,object_08b.png,object_02a.png,object_09c.png,object_09c.png,,0.5,1,,,,,,,,,,,
6266.20000000298,,directmemory_phase6,1257390,,,,,,,,object_12b.png,,,50,,,1,,object_04a.png,object_06c.png,object_08b.png,object_06c.png,,0.5060240963855421,1,,,,,,,,,,,
5360.80000000447,,directmemory_phase6,1262754,,,,,,,,object_07b.png,,,49,,,1,,object_13c.png,object_07a.png,object_09c.png,object_13c.png,,0.5119047619047619,1,,,,,,,,,,,
4951.39999999851,,directmemory_phase6,1267708,,,,,,,,object_07c.png,,,51,,,1,,object_09c.png,object_14a.png,object_15c.png,object_15c.png,,0.5176470588235295,1,,,,,,,,,,,
2949,,directmemory_phase6,1270660,,,,,,,,object_03a.png,,,49,,,1,,object_02b.png,object_07a.png,object_14a.png,object_02b.png,,0.5232558139534884,1,,,,,,,,,,,
2197.5999999940395,,directmemory_phase6,1272861,,,,,,,,object_04b.png,,,51,,,1,,object_02b.png,object_08b.png,object_14c.png,object_14c.png,,0.5287356321839081,1,,,,,,,,,,,
2792.9000000059605,,directmemory_phase6,1275658,,,,,,,,object_12a.png,,,50,,,1,,object_04a.png,object_02a.png,object_07a.png,object_02a.png,,0.5340909090909091,1,,,,,,,,,,,
2043.5,,directmemory_phase6,1277705,,,,,,,,object_06a.png,,,51,,,1,,object_07a.png,object_15c.png,object_03c.png,object_03c.png,,0.5393258426966292,1,,,,,,,,,,,
5650,,directmemory_phase6,1283358,,,,,,,,object_01b.png,,,49,,,0,,object_07a.png,object_08b.png,object_09a.png,object_08b.png,,0.5333333333333333,0,,,,,,,,,,,
null,,thebreak,1283463,,,,,,,,<p></p>,,,null,,,,,,,,,,,,,,,,,,,,,,
2481.1999999955297,,intro_0,1285947,,,,,,,,instruct,,,32,,,,,,,,,,,,,,,,,,,,,,
null,,learn_phase(without_color)7,1289451,,,,,,,,black_plus_sign,,,null,object_14a.png,object_12c.png,,,,,,,,,,,,,,,,,,,,
null,,black_cross(without_color)7,1290045,,,,,,,,blue,,,null,object_14a.png,object_12c.png,,,,,,,,,,,,,,,,,,,,
null,,rt_plussign_withcolor7,1290549,,,,,,,,blue,,,null,object_14a.png,object_12c.png,,,,,,,,,,,,,,,,,,,,
null,,rt_thecrossant_black7,1291963,,,,,,,,black_plus_sign,,,null,,,,,,,,,,NaN,,,,,,,,,,,,
null,,color_black7,1292068,,,,,,,,black_plus_sign,,,null,,,,,,,,,,,,,,,,,,,,,,
null,,learn_phase(without_color)7,1295572,,,,,,,,black_plus_sign,,,null,object_09c.png,object_02c.png,,,,,,,,,,,,,,,,,,,,
null,,black_cross(without_color)7,1296017,,,,,,,,green,,,null,object_09c.png,object_02c.png,,,,,,,,,,,,,,,,,,,,
null,,rt_plussign_withcolor7,1296521,,,,,,,,green,,,null,object_09c.png,object_02c.png,,,,,,,,,,,,,,,,,,,,
1090.4000000059605,,rt_thecrossant_black7,1298085,,,,,,,,black_plus_sign,,,50,,,1,,,,,,,1,,,,,,,,,,,,
null,,color_black7,1298189,,,,,,,,black_plus_sign,,,null,,,,,,,,,,,,,,,,,,,,,,
null,,learn_phase(without_color)7,1301693,,,,,,,,black_plus_sign,,,null,object_08b.png,object_01b.png,,,,,,,,,,,,,,,,,,,,
null,,black_cross(without_color)7,1302515,,,,,,,,blue,,,null,object_08b.png,object_01b.png,,,,,,,,,,,,,,,,,,,,
null,,rt_plussign_withcolor7,1303018,,,,,,,,blue,,,null,object_08b.png,object_01b.png,,,,,,,,,,,,,,,,,,,,
596.1000000014901,,rt_thecrossant_black7,1304206,,,,,,,,black_plus_sign,,,49,,,1,,,,,,,1,,,,,,,,,,,,
null,,color_black7,1304310,,,,,,,,black_plus_sign,,,null,,,,,,,,,,,,,,,,,,,,,,
null,,learn_phase(without_color)7,1307816,,,,,,,,black_plus_sign,,,null,object_04c.png,object_09b.png,,,,,,,,,,,,,,,,,,,,
null,,black_cross(without_color)7,1308297,,,,,,,,blue,,,null,object_04c.png,object_09b.png,,,,,,,,,,,,,,,,,,,,
null,,rt_plussign_withcolor7,1308801,,,,,,,,blue,,,null,object_04c.png,object_09b.png,,,,,,,,,,,,,,,,,,,,
1047.5,,rt_thecrossant_black7,1310329,,,,,,,,black_plus_sign,,,49,,,1,,,,,,,1,,,,,,,,,,,,
null,,color_black7,1310434,,,,,,,,black_plus_sign,,,null,,,,,,,,,,,,,,,,,,,,,,
null,,learn_phase(without_color)7,1313939,,,,,,,,black_plus_sign,,,null,object_09a.png,object_11c.png,,,,,,,,,,,,,,,,,,,,
null,,black_cross(without_color)7,1314747,,,,,,,,green,,,null,object_09a.png,object_11c.png,,,,,,,,,,,,,,,,,,,,
null,,rt_plussign_withcolor7,1315251,,,,,,,,green,,,null,object_09a.png,object_11c.png,,,,,,,,,,,,,,,,,,,,
845.2000000029802,,rt_thecrossant_black7,1316452,,,,,,,,black_plus_sign,,,50,,,1,,,,,,,1,,,,,,,,,,,,
null,,color_black7,1316556,,,,,,,,black_plus_sign,,,null,,,,,,,,,,,,,,,,,,,,,,
null,,learn_phase(without_color)7,1320061,,,,,,,,black_plus_sign,,,null,object_14c.png,object_04b.png,,,,,,,,,,,,,,,,,,,,
null,,black_cross(without_color)7,1320949,,,,,,,,blue,,,null,object_14c.png,object_04b.png,,,,,,,,,,,,,,,,,,,,
null,,rt_plussign_withcolor7,1321453,,,,,,,,blue,,,null,object_14c.png,object_04b.png,,,,,,,,,,,,,,,,,,,,
1311.4000000059605,,rt_thecrossant_black7,1322573,,,,,,,,black_plus_sign,,,49,,,1,,,,,,,1,,,,,,,,,,,,
null,,color_black7,1322677,,,,,,,,black_plus_sign,,,null,,,,,,,,,,,,,,,,,,,,,,
null,,learn_phase(without_color)7,1326183,,,,,,,,black_plus_sign,,,null,object_03b.png,object_10a.png,,,,,,,,,,,,,,,,,,,,
null,,black_cross(without_color)7,1327245,,,,,,,,blue,,,null,object_03b.png,object_10a.png,,,,,,,,,,,,,,,,,,,,
null,,rt_plussign_withcolor7,1327749,,,,,,,,blue,,,null,object_03b.png,object_10a.png,,,,,,,,,,,,,,,,,,,,
1163.7999999970198,,rt_thecrossant_black7,1328696,,,,,,,,black_plus_sign,,,49,,,1,,,,,,,1,,,,,,,,,,,,
null,,color_black7,1328799,,,,,,,,black_plus_sign,,,null,,,,,,,,,,,,,,,,,,,,,,
null,,learn_phase(without_color)7,1332305,,,,,,,,black_plus_sign,,,null,object_07a.png,object_11b.png,,,,,,,,,,,,,,,,,,,,
null,,black_cross(without_color)7,1332837,,,,,,,,green,,,null,object_07a.png,object_11b.png,,,,,,,,,,,,,,,,,,,,
null,,rt_plussign_withcolor7,1333341,,,,,,,,green,,,null,object_07a.png,object_11b.png,,,,,,,,,,,,,,,,,,,,
1198.5,,rt_thecrossant_black7,1334817,,,,,,,,black_plus_sign,,,50,,,1,,,,,,,1,,,,,,,,,,,,
null,,color_black7,1334921,,,,,,,,black_plus_sign,,,null,,,,,,,,,,,,,,,,,,,,,,
null,,learn_phase(without_color)7,1338427,,,,,,,,black_plus_sign,,,null,object_04a.png,object_01c.png,,,,,,,,,,,,,,,,,,,,
null,,black_cross(without_color)7,1339312,,,,,,,,blue,,,null,object_04a.png,object_01c.png,,,,,,,,,,,,,,,,,,,,
null,,rt_plussign_withcolor7,1339815,,,,,,,,blue,,,null,object_04a.png,object_01c.png,,,,,,,,,,,,,,,,,,,,
762.3999999985099,,rt_thecrossant_black7,1340939,,,,,,,,black_plus_sign,,,49,,,1,,,,,,,1,,,,,,,,,,,,
null,,color_black7,1341043,,,,,,,,black_plus_sign,,,null,,,,,,,,,,,,,,,,,,,,,,
null,,learn_phase(without_color)7,1344548,,,,,,,,black_plus_sign,,,null,object_13c.png,object_07b.png,,,,,,,,,,,,,,,,,,,,
null,,black_cross(without_color)7,1345372,,,,,,,,blue,,,null,object_13c.png,object_07b.png,,,,,,,,,,,,,,,,,,,,
null,,rt_plussign_withcolor7,1345876,,,,,,,,blue,,,null,object_13c.png,object_07b.png,,,,,,,,,,,,,,,,,,,,
1360.8999999985099,,rt_thecrossant_black7,1347060,,,,,,,,black_plus_sign,,,49,,,1,,,,,,,1,,,,,,,,,,,,
null,,color_black7,1347165,,,,,,,,black_plus_sign,,,null,,,,,,,,,,,,,,,,,,,,,,
null,,learn_phase(without_color)7,1350670,,,,,,,,black_plus_sign,,,null,object_15c.png,object_07c.png,,,,,,,,,,,,,,,,,,,,
null,,black_cross(without_color)7,1351294,,,,,,,,blue,,,null,object_15c.png,object_07c.png,,,,,,,,,,,,,,,,,,,,
null,,rt_plussign_withcolor7,1351798,,,,,,,,blue,,,null,object_15c.png,object_07c.png,,,,,,,,,,,,,,,,,,,,
1135.7999999970198,,rt_thecrossant_black7,1353183,,,,,,,,black_plus_sign,,,49,,,1,,,,,,,1,,,,,,,,,,,,
null,,color_black7,1353287,,,,,,,,black_plus_sign,,,null,,,,,,,,,,,,,,,,,,,,,,
null,,learn_phase(without_color)7,1356792,,,,,,,,black_plus_sign,,,null,object_02a.png,object_12a.png,,,,,,,,,,,,,,,,,,,,
null,,black_cross(without_color)7,1357329,,,,,,,,green,,,null,object_02a.png,object_12a.png,,,,,,,,,,,,,,,,,,,,
null,,rt_plussign_withcolor7,1357833,,,,,,,,green,,,null,object_02a.png,object_12a.png,,,,,,,,,,,,,,,,,,,,
1186,,rt_thecrossant_black7,1359306,,,,,,,,black_plus_sign,,,50,,,1,,,,,,,1,,,,,,,,,,,,
null,,color_black7,1359410,,,,,,,,black_plus_sign,,,null,,,,,,,,,,,,,,,,,,,,,,
null,,learn_phase(without_color)7,1362915,,,,,,,,black_plus_sign,,,null,object_03c.png,object_06a.png,,,,,,,,,,,,,,,,,,,,
null,,black_cross(without_color)7,1363614,,,,,,,,green,,,null,object_03c.png,object_06a.png,,,,,,,,,,,,,,,,,,,,
null,,rt_plussign_withcolor7,1364117,,,,,,,,green,,,null,object_03c.png,object_06a.png,,,,,,,,,,,,,,,,,,,,
670.6000000014901,,rt_thecrossant_black7,1365427,,,,,,,,black_plus_sign,,,50,,,1,,,,,,,1,,,,,,,,,,,,
null,,color_black7,1365531,,,,,,,,black_plus_sign,,,null,,,,,,,,,,,,,,,,,,,,,,
null,,learn_phase(without_color)7,1369037,,,,,,,,black_plus_sign,,,null,object_02b.png,object_03a.png,,,,,,,,,,,,,,,,,,,,
null,,black_cross(without_color)7,1369714,,,,,,,,blue,,,null,object_02b.png,object_03a.png,,,,,,,,,,,,,,,,,,,,
null,,rt_plussign_withcolor7,1370217,,,,,,,,blue,,,null,object_02b.png,object_03a.png,,,,,,,,,,,,,,,,,,,,
1111.1000000014901,,rt_thecrossant_black7,1371549,,,,,,,,black_plus_sign,,,49,,,1,,,,,,,1,,,,,,,,,,,,
null,,color_black7,1371654,,,,,,,,black_plus_sign,,,null,,,,,,,,,,,,,,,,,,,,,,
null,,learn_phase(without_color)7,1375159,,,,,,,,black_plus_sign,,,null,object_06c.png,object_12b.png,,,,,,,,,,,,,,,,,,,,
null,,black_cross(without_color)7,1375787,,,,,,,,green,,,null,object_06c.png,object_12b.png,,,,,,,,,,,,,,,,,,,,
null,,rt_plussign_withcolor7,1376290,,,,,,,,green,,,null,object_06c.png,object_12b.png,,,,,,,,,,,,,,,,,,,,
828.8000000044703,,rt_thecrossant_black7,1377671,,,,,,,,black_plus_sign,,,49,,,0,,,,,,,0.9285714285714286,,,,,,,,,,,,
null,,warning_page,1382676,,,,,,,,warning,,,null,,,,,,,,,,,,,,,,,,,,,,
null,,color_black7,1382780,,,,,,,,black_plus_sign,,,null,,,,,,,,,,,,,,,,,,,,,,
null,,thebreak,1382885,,,,,,,,<p></p>,,,null,,,,,,,,,,,,,,,,,,,,,,
1308.7000000029802,,intro_0,1384196,,,,,,,,instruct,,,32,,,,,,,,,,,,,,,,,,,,,,
3587.7000000029802,,directmemory_phase7,1387786,,,,,,,,object_07c.png,,,49,,,0,,object_04a.png,object_15c.png,object_09c.png,object_15c.png,,0.5274725274725275,0,,,,,,,,,,,
4932.70000000298,,directmemory_phase7,1392723,,,,,,,,object_06a.png,,,51,,,1,,object_06c.png,object_04a.png,object_03c.png,object_03c.png,,0.532608695652174,1,,,,,,,,,,,
5620.39999999851,,directmemory_phase7,1398347,,,,,,,,object_01b.png,,,49,,,0,,object_03b.png,object_04c.png,object_08b.png,object_08b.png,,0.5268817204301075,0,,,,,,,,,,,
2968.2999999970198,,directmemory_phase7,1401319,,,,,,,,object_01c.png,,,51,,,1,,object_06c.png,object_09c.png,object_04a.png,object_04a.png,,0.5319148936170213,1,,,,,,,,,,,
3398.5,,directmemory_phase7,1404721,,,,,,,,object_07b.png,,,51,,,1,,object_03b.png,object_04a.png,object_13c.png,object_13c.png,,0.5368421052631579,1,,,,,,,,,,,
2504.7999999970198,,directmemory_phase7,1407230,,,,,,,,object_11b.png,,,50,,,1,,object_04c.png,object_07a.png,object_09c.png,object_07a.png,,0.5416666666666666,1,,,,,,,,,,,
2612.7000000029802,,directmemory_phase7,1409846,,,,,,,,object_04b.png,,,50,,,1,,object_09a.png,object_14c.png,object_04a.png,object_14c.png,,0.5463917525773195,1,,,,,,,,,,,
2884.9000000059605,,directmemory_phase7,1412735,,,,,,,,object_02c.png,,,50,,,1,,object_14c.png,object_09c.png,object_04c.png,object_09c.png,,0.5510204081632653,1,,,,,,,,,,,
5380.9000000059605,,directmemory_phase7,1418119,,,,,,,,object_09b.png,,,49,,,1,,object_04c.png,object_04a.png,object_09c.png,object_04c.png,,0.5555555555555556,1,,,,,,,,,,,
3566.89999999851,,directmemory_phase7,1421690,,,,,,,,object_11c.png,,,49,,,1,,object_09a.png,object_02b.png,object_14c.png,object_09a.png,,0.56,1,,,,,,,,,,,
5324.5999999940395,,directmemory_phase7,1427017,,,,,,,,object_12c.png,,,50,,,0,,object_14a.png,object_06c.png,object_15c.png,object_14a.png,,0.5544554455445545,0,,,,,,,,,,,
2405.3000000044703,,directmemory_phase7,1429425,,,,,,,,object_12a.png,,,51,,,1,,object_04c.png,object_14a.png,object_02a.png,object_02a.png,,0.5588235294117647,1,,,,,,,,,,,
5725.60000000149,,directmemory_phase7,1435155,,,,,,,,object_03a.png,,,50,,,1,,object_03b.png,object_02b.png,object_15c.png,object_02b.png,,0.5631067961165048,1,,,,,,,,,,,
2381,,directmemory_phase7,1437539,,,,,,,,object_10a.png,,,51,,,1,,object_04c.png,object_04a.png,object_03b.png,object_03b.png,,0.5673076923076923,1,,,,,,,,,,,
4440.79999999702,,directmemory_phase7,1441983,,,,,,,,object_12b.png,,,50,,,1,,object_02a.png,object_06c.png,object_02b.png,object_06c.png,,0.5714285714285714,1,,,,,,,,,,,
null,,thebreak,1442088,,,,,,,,<p></p>,,,null,,,,,,,,,,,,,,,,,,,,,,
2930.7999999970198,,intro_0,1445021,,,,,,,,instruct,,,32,,,,,,,,,,,,,,,,,,,,,,
null,,learn_phase(without_color)8,1448524,,,,,,,,black_plus_sign,,,null,object_02b.png,object_03a.png,,,,,,,,,,,,,,,,,,,,
null,,black_cross(without_color)8,1449045,,,,,,,,green,,,null,object_02b.png,object_03a.png,,,,,,,,,,,,,,,,,,,,
null,,rt_plussign_withcolor8,1449548,,,,,,,,green,,,null,object_02b.png,object_03a.png,,,,,,,,,,,,,,,,,,,,
1095,,rt_thecrossant_black8,1451036,,,,,,,,black_plus_sign,,,50,,,1,,,,,,,1,,,,,,,,,,,,
null,,color_black8,1451140,,,,,,,,black_plus_sign,,,null,,,,,,,,,,,,,,,,,,,,,,
null,,learn_phase(without_color)8,1454645,,,,,,,,black_plus_sign,,,null,object_14c.png,object_04b.png,,,,,,,,,,,,,,,,,,,,
null,,black_cross(without_color)8,1455413,,,,,,,,green,,,null,object_14c.png,object_04b.png,,,,,,,,,,,,,,,,,,,,
null,,rt_plussign_withcolor8,1455917,,,,,,,,green,,,null,object_14c.png,object_04b.png,,,,,,,,,,,,,,,,,,,,
1039.7999999970198,,rt_thecrossant_black8,1457157,,,,,,,,black_plus_sign,,,50,,,1,,,,,,,1,,,,,,,,,,,,
null,,color_black8,1457261,,,,,,,,black_plus_sign,,,null,,,,,,,,,,,,,,,,,,,,,,
null,,learn_phase(without_color)8,1460766,,,,,,,,black_plus_sign,,,null,object_06c.png,object_12b.png,,,,,,,,,,,,,,,,,,,,
null,,black_cross(without_color)8,1461783,,,,,,,,green,,,null,object_06c.png,object_12b.png,,,,,,,,,,,,,,,,,,,,
null,,rt_plussign_withcolor8,1462287,,,,,,,,green,,,null,object_06c.png,object_12b.png,,,,,,,,,,,,,,,,,,,,
989.2999999970198,,rt_thecrossant_black8,1463279,,,,,,,,black_plus_sign,,,50,,,1,,,,,,,1,,,,,,,,,,,,
null,,color_black8,1463384,,,,,,,,black_plus_sign,,,null,,,,,,,,,,,,,,,,,,,,,,
null,,learn_phase(without_color)8,1466889,,,,,,,,black_plus_sign,,,null,object_09a.png,object_11c.png,,,,,,,,,,,,,,,,,,,,
null,,black_cross(without_color)8,1467512,,,,,,,,green,,,null,object_09a.png,object_11c.png,,,,,,,,,,,,,,,,,,,,
null,,rt_plussign_withcolor8,1468016,,,,,,,,green,,,null,object_09a.png,object_11c.png,,,,,,,,,,,,,,,,,,,,
1142.2999999970198,,rt_thecrossant_black8,1469402,,,,,,,,black_plus_sign,,,50,,,1,,,,,,,1,,,,,,,,,,,,
null,,color_black8,1469506,,,,,,,,black_plus_sign,,,null,,,,,,,,,,,,,,,,,,,,,,
null,,learn_phase(without_color)8,1473011,,,,,,,,black_plus_sign,,,null,object_03b.png,object_10a.png,,,,,,,,,,,,,,,,,,,,
null,,black_cross(without_color)8,1473419,,,,,,,,green,,,null,object_03b.png,object_10a.png,,,,,,,,,,,,,,,,,,,,
null,,rt_plussign_withcolor8,1473923,,,,,,,,green,,,null,object_03b.png,object_10a.png,,,,,,,,,,,,,,,,,,,,
719.1999999955297,,rt_thecrossant_black8,1475524,,,,,,,,black_plus_sign,,,50,,,1,,,,,,,1,,,,,,,,,,,,
null,,color_black8,1475629,,,,,,,,black_plus_sign,,,null,,,,,,,,,,,,,,,,,,,,,,
null,,learn_phase(without_color)8,1479134,,,,,,,,black_plus_sign,,,null,object_15c.png,object_07c.png,,,,,,,,,,,,,,,,,,,,
null,,black_cross(without_color)8,1480223,,,,,,,,blue,,,null,object_15c.png,object_07c.png,,,,,,,,,,,,,,,,,,,,
null,,rt_plussign_withcolor8,1480727,,,,,,,,blue,,,null,object_15c.png,object_07c.png,,,,,,,,,,,,,,,,,,,,
821.5,,rt_thecrossant_black8,1481646,,,,,,,,black_plus_sign,,,49,,,1,,,,,,,1,,,,,,,,,,,,
null,,color_black8,1481750,,,,,,,,black_plus_sign,,,null,,,,,,,,,,,,,,,,,,,,,,
null,,learn_phase(without_color)8,1485256,,,,,,,,black_plus_sign,,,null,object_08b.png,object_01b.png,,,,,,,,,,,,,,,,,,,,
null,,black_cross(without_color)8,1486029,,,,,,,,green,,,null,object_08b.png,object_01b.png,,,,,,,,,,,,,,,,,,,,
null,,rt_plussign_withcolor8,1486533,,,,,,,,green,,,null,object_08b.png,object_01b.png,,,,,,,,,,,,,,,,,,,,
1483,,rt_thecrossant_black8,1487769,,,,,,,,black_plus_sign,,,50,,,1,,,,,,,1,,,,,,,,,,,,
null,,color_black8,1487873,,,,,,,,black_plus_sign,,,null,,,,,,,,,,,,,,,,,,,,,,
null,,learn_phase(without_color)8,1491378,,,,,,,,black_plus_sign,,,null,object_09c.png,object_02c.png,,,,,,,,,,,,,,,,,,,,
null,,black_cross(without_color)8,1492059,,,,,,,,green,,,null,object_09c.png,object_02c.png,,,,,,,,,,,,,,,,,,,,
null,,rt_plussign_withcolor8,1492563,,,,,,,,green,,,null,object_09c.png,object_02c.png,,,,,,,,,,,,,,,,,,,,
1103.7999999970198,,rt_thecrossant_black8,1493891,,,,,,,,black_plus_sign,,,50,,,1,,,,,,,1,,,,,,,,,,,,
null,,color_black8,1493995,,,,,,,,black_plus_sign,,,null,,,,,,,,,,,,,,,,,,,,,,
null,,learn_phase(without_color)8,1497500,,,,,,,,black_plus_sign,,,null,object_03c.png,object_06a.png,,,,,,,,,,,,,,,,,,,,
null,,black_cross(without_color)8,1498570,,,,,,,,blue,,,null,object_03c.png,object_06a.png,,,,,,,,,,,,,,,,,,,,
null,,rt_plussign_withcolor8,1499074,,,,,,,,blue,,,null,object_03c.png,object_06a.png,,,,,,,,,,,,,,,,,,,,
829.8000000044703,,rt_thecrossant_black8,1500013,,,,,,,,black_plus_sign,,,49,,,1,,,,,,,1,,,,,,,,,,,,
null,,color_black8,1500118,,,,,,,,black_plus_sign,,,null,,,,,,,,,,,,,,,,,,,,,,
null,,learn_phase(without_color)8,1503622,,,,,,,,black_plus_sign,,,null,object_04a.png,object_01c.png,,,,,,,,,,,,,,,,,,,,
null,,black_cross(without_color)8,1504360,,,,,,,,green,,,null,object_04a.png,object_01c.png,,,,,,,,,,,,,,,,,,,,
null,,rt_plussign_withcolor8,1504863,,,,,,,,green,,,null,object_04a.png,object_01c.png,,,,,,,,,,,,,,,,,,,,
1255.3999999985099,,rt_thecrossant_black8,1506135,,,,,,,,black_plus_sign,,,50,,,1,,,,,,,1,,,,,,,,,,,,
null,,color_black8,1506240,,,,,,,,black_plus_sign,,,null,,,,,,,,,,,,,,,,,,,,,,
null,,learn_phase(without_color)8,1509745,,,,,,,,black_plus_sign,,,null,object_02a.png,object_12a.png,,,,,,,,,,,,,,,,,,,,
null,,black_cross(without_color)8,1510594,,,,,,,,green,,,null,object_02a.png,object_12a.png,,,,,,,,,,,,,,,,,,,,
null,,rt_plussign_withcolor8,1511098,,,,,,,,green,,,null,object_02a.png,object_12a.png,,,,,,,,,,,,,,,,,,,,
1172.2000000029802,,rt_thecrossant_black8,1512258,,,,,,,,black_plus_sign,,,50,,,1,,,,,,,1,,,,,,,,,,,,
null,,color_black8,1512363,,,,,,,,black_plus_sign,,,null,,,,,,,,,,,,,,,,,,,,,,
null,,learn_phase(without_color)8,1515868,,,,,,,,black_plus_sign,,,null,object_14a.png,object_12c.png,,,,,,,,,,,,,,,,,,,,
null,,black_cross(without_color)8,1516852,,,,,,,,blue,,,null,object_14a.png,object_12c.png,,,,,,,,,,,,,,,,,,,,
484.69999999552965,,rt_plussign_withcolor8,1517355,,,,,,,,blue,,,49,object_14a.png,object_12c.png,,,,,,,,,,,,,,,,,,,,
null,,rt_thecrossant_black8,1518381,,,,,,,,black_plus_sign,,,null,,,1,,,,,,,1,,,,,,,,,,,,
null,,color_black8,1518485,,,,,,,,black_plus_sign,,,null,,,,,,,,,,,,,,,,,,,,,,
null,,learn_phase(without_color)8,1521991,,,,,,,,black_plus_sign,,,null,object_13c.png,object_07b.png,,,,,,,,,,,,,,,,,,,,
null,,black_cross(without_color)8,1522883,,,,,,,,blue,,,null,object_13c.png,object_07b.png,,,,,,,,,,,,,,,,,,,,
null,,rt_plussign_withcolor8,1523386,,,,,,,,blue,,,null,object_13c.png,object_07b.png,,,,,,,,,,,,,,,,,,,,
1220.1000000014901,,rt_thecrossant_black8,1524503,,,,,,,,black_plus_sign,,,49,,,1,,,,,,,1,,,,,,,,,,,,
null,,color_black8,1524607,,,,,,,,black_plus_sign,,,null,,,,,,,,,,,,,,,,,,,,,,
null,,learn_phase(without_color)8,1528112,,,,,,,,black_plus_sign,,,null,object_04c.png,object_09b.png,,,,,,,,,,,,,,,,,,,,
null,,black_cross(without_color)8,1529013,,,,,,,,green,,,null,object_04c.png,object_09b.png,,,,,,,,,,,,,,,,,,,,
null,,rt_plussign_withcolor8,1529517,,,,,,,,green,,,null,object_04c.png,object_09b.png,,,,,,,,,,,,,,,,,,,,
1034.2999999970198,,rt_thecrossant_black8,1530625,,,,,,,,black_plus_sign,,,50,,,1,,,,,,,1,,,,,,,,,,,,
null,,color_black8,1530729,,,,,,,,black_plus_sign,,,null,,,,,,,,,,,,,,,,,,,,,,
null,,learn_phase(without_color)8,1534235,,,,,,,,black_plus_sign,,,null,object_07a.png,object_11b.png,,,,,,,,,,,,,,,,,,,,
null,,black_cross(without_color)8,1534726,,,,,,,,green,,,null,object_07a.png,object_11b.png,,,,,,,,,,,,,,,,,,,,
null,,rt_plussign_withcolor8,1535230,,,,,,,,green,,,null,object_07a.png,object_11b.png,,,,,,,,,,,,,,,,,,,,
1034.2000000029802,,rt_thecrossant_black8,1536747,,,,,,,,black_plus_sign,,,50,,,1,,,,,,,1,,,,,,,,,,,,
null,,color_black8,1536851,,,,,,,,black_plus_sign,,,null,,,,,,,,,,,,,,,,,,,,,,
null,,thebreak,1536956,,,,,,,,<p></p>,,,null,,,,,,,,,,,,,,,,,,,,,,
1153.8000000044703,,intro_0,1538113,,,,,,,,instruct,,,32,,,,,,,,,,,,,,,,,,,,,,
2472.89999999851,,directmemory_phase8,1540588,,,,,,,,object_11c.png,,,51,,,1,,object_14c.png,object_03b.png,object_09a.png,object_09a.png,,0.5754716981132075,1,,,,,,,,,,,
2120,,directmemory_phase8,1542712,,,,,,,,object_10a.png,,,51,,,1,,object_09c.png,object_09a.png,object_03b.png,object_03b.png,,0.5794392523364486,1,,,,,,,,,,,
6206.39999999851,,directmemory_phase8,1548922,,,,,,,,object_12c.png,,,49,,,1,,object_14a.png,object_07a.png,object_04a.png,object_14a.png,,0.5833333333333334,1,,,,,,,,,,,
3285.2000000029802,,directmemory_phase8,1552211,,,,,,,,object_07b.png,,,50,,,1,,object_04c.png,object_13c.png,object_04a.png,object_13c.png,,0.5871559633027523,1,,,,,,,,,,,
5801.10000000149,,directmemory_phase8,1558016,,,,,,,,object_07c.png,,,49,,,0,,object_08b.png,object_15c.png,object_14c.png,object_15c.png,,0.5818181818181818,0,,,,,,,,,,,
2927.5,,directmemory_phase8,1560947,,,,,,,,object_01b.png,,,50,,,1,,object_04a.png,object_08b.png,object_09c.png,object_08b.png,,0.5855855855855856,1,,,,,,,,,,,
3617.6999999955297,,directmemory_phase8,1564569,,,,,,,,object_01c.png,,,50,,,1,,object_09c.png,object_04a.png,object_03b.png,object_04a.png,,0.5892857142857143,1,,,,,,,,,,,
1452.1999999955297,,directmemory_phase8,1566025,,,,,,,,object_04b.png,,,50,,,1,,object_15c.png,object_14c.png,object_08b.png,object_14c.png,,0.5929203539823009,1,,,,,,,,,,,
1687,,directmemory_phase8,1567717,,,,,,,,object_06a.png,,,51,,,1,,object_02a.png,object_09a.png,object_03c.png,object_03c.png,,0.5964912280701754,1,,,,,,,,,,,
4586.60000000149,,directmemory_phase8,1572307,,,,,,,,object_09b.png,,,51,,,1,,object_04a.png,object_02a.png,object_04c.png,object_04c.png,,0.6,1,,,,,,,,,,,
2098.10000000149,,directmemory_phase8,1574410,,,,,,,,object_12b.png,,,51,,,1,,object_15c.png,object_02a.png,object_06c.png,object_06c.png,,0.603448275862069,1,,,,,,,,,,,
1844.5,,directmemory_phase8,1576259,,,,,,,,object_03a.png,,,49,,,1,,object_02b.png,object_15c.png,object_09a.png,object_02b.png,,0.6068376068376068,1,,,,,,,,,,,
1744.7999999970198,,directmemory_phase8,1578007,,,,,,,,object_12a.png,,,49,,,1,,object_02a.png,object_09c.png,object_03c.png,object_02a.png,,0.6101694915254238,1,,,,,,,,,,,
3645.10000000149,,directmemory_phase8,1581656,,,,,,,,object_02c.png,,,50,,,1,,object_04a.png,object_09c.png,object_04c.png,object_09c.png,,0.6134453781512605,1,,,,,,,,,,,
3400.89999999851,,directmemory_phase8,1585061,,,,,,,,object_11b.png,,,50,,,1,,object_04c.png,object_07a.png,object_09c.png,object_07a.png,,0.6166666666666667,1,,,,,,,,,,,
null,,thebreak,1585166,,,,,,,,<p></p>,,,null,,,,,,,,,,,,,,,,,,,,,,
6372.80000000447,,intro_0,1591542,,,,,,,,instruct,,,32,,,,,,,,,,,,,,,,,,,,,,
15871.10000000149,,intro_1,1607414,,,,,,,,instruct,,,32,,,,,,,,,,,,,,,,,,,,,,
4046.5,,intro_2,1611462,,,,,,,,instruct,,,32,,,,,,,,,,,,,,,,,,,,,,
,,intro_3,1634952,,,,,,,,instruct,,,,,,,,,,,,,,,,,,,,,,,,,
6497.39999999851,,intro_4,1641452,,,,,,,,instruct,,,32,,,,,,,,,,,,,,,,,,,,,,
7647.5,,inference_phase,1649102,,,,,,,,object_07c.png,,,50,object_10c.png,object_15b.png,1,,,,,object_08a.png,,1,,object_08a.png,,,,,,,,,,
7723,,inference_phase,1656829,,,,,,,,object_02c.png,,,50,object_13b.png,object_08c.png,0,,,,,object_13b.png,,0.5,,object_05a.png,,,,,,,,,,
7708.5999999940395,,inference_phase,1664542,,,,,,,,object_12b.png,,,49,object_11a.png,object_05b.png,0,,,,,object_05b.png,,0.3333333333333333,,object_08a.png,,,,,,,,,,
3728.39999999851,,inference_phase,1668275,,,,,,,,object_11b.png,,,50,object_08c.png,object_01a.png,0,,,,,object_08c.png,,0.25,,object_13a.png,,,,,,,,,,
7398.5,,inference_phase,1675677,,,,,,,,object_12a.png,,,50,object_10c.png,object_08c.png,1,,,,,object_15b.png,,0.4,,object_15b.png,,,,,,,,,,
3944.2999999970198,,inference_phase,1679626,,,,,,,,object_10a.png,,,51,object_13b.png,object_01a.png,1,,,,,object_01a.png,,0.5,,object_05a.png,,,,,,,,,,
3715.89999999851,,inference_phase,1683345,,,,,,,,object_01b.png,,,50,object_11a.png,object_15b.png,1,,,,,object_05c.png,,0.5714285714285714,,object_05c.png,,,,,,,,,,
6473.60000000149,,inference_phase,1689823,,,,,,,,object_03a.png,,,49,object_10b.png,object_13a.png,1,,,,,object_10b.png,,0.625,,object_05a.png,,,,,,,,,,
4578.39999999851,,inference_phase,1694404,,,,,,,,object_06a.png,,,49,object_10c.png,object_08a.png,1,,,,,object_10c.png,,0.6666666666666666,,object_10b.png,,,,,,,,,,
6096.4000000059605,,inference_phase,1700504,,,,,,,,object_12c.png,,,50,object_10b.png,object_11a.png,1,,,,,object_14b.png,,0.7,,object_14b.png,,,,,,,,,,
3733.9000000059605,,inference_phase,1704241,,,,,,,,object_09b.png,,,50,object_05a.png,object_15a.png,0,,,,,object_15a.png,,0.6363636363636364,,object_05c.png,,,,,,,,,,
4503.70000000298,,inference_phase,1708749,,,,,,,,object_01c.png,,,49,object_15b.png,object_05a.png,0,,,,,object_11a.png,,0.5833333333333334,,object_11a.png,,,,,,,,,,
3546,,inference_phase,1712299,,,,,,,,object_04b.png,,,51,object_10c.png,object_01a.png,0,,,,,object_05a.png,,0.5384615384615384,,object_05a.png,,,,,,,,,,
3908.89999999851,,inference_phase,1716211,,,,,,,,object_07b.png,,,50,object_06b.png,object_08c.png,0,,,,,object_06b.png,,0.5,,object_15b.png,,,,,,,,,,
2960.1999999955297,,inference_phase,1719175,,,,,,,,object_11c.png,,,50,object_05c.png,object_13a.png,0,,,,,object_13a.png,,0.4666666666666667,,object_08c.png,,,,,,,,,,
,,survey,1906197,,,,,,,,survey-questions,,,,,,,,,,,,,,,,none,high,I was not doing anything else.,I tried to remember by color, shape, also using stories to tell between the objects. I tried to remember ans relate differently on different object sets if it made sense.,Some were easier but I found all fairly difficult.,No, I have not participated on any other platform.,I thought the task was difficult. I had a hard time with it.,,,
19851.39999999851,,thank_you,1926067,,,,,,,,<p> Congratulations, you are all done!</p><p> <strong>Please click space on your keyboard to end the experiment!</strong> The secret code to enter at the beginning screen is: <strong>CIMBPENS</strong></p><p> Please make sure to submit the HIT and email uciccnl@gmail.com if you had any issues! </p><br><p>Please remember to submit this data by clicking space after copying the code. Failure of submission will lead to in-complete payment</p>,,,32,,,,,,,,,,,,,,,,,,,,4,1,C78LSMTN
