rt,responses,trial_type,time_elapsed,identifier_a,identifier_b,identifier_c,tasktype,browser_type,local_time,UTC_time,stimulus,button_pressed,response,key_press,stimulus_left,stimulus_right,accuracy,practice_cumulative_accuracy,stimulus_down_left,stimulus_down_mid,stimulus_down_right,stimulus_correct,prac_weighted_accuracy,cumulative_accuracy,failed_practice,weighted_accuracy,stimulus_middle,problems,smooth,distraction,strategies,easier,similar,comments,detectfocus,breakfocus,completion_code
22663.100000023842,{worker_id:63b9ff9f64549294f0abe3c1},id_enter,22668,object_10a.png; object_03b.png; object_05c.png; object_08c.png; object_14a.png; object_06a.png; object_02c.png; object_10b.png; object_06c.png; object_01b.png; object_10c.png; object_07a.png; object_07c.png; object_04a.png; object_03a.png,object_02b.png; object_08b.png; object_11c.png; object_14c.png; object_03c.png; object_12c.png; object_01a.png; object_07b.png; object_11a.png; object_06b.png; object_09b.png; object_05a.png; object_13a.png; object_13b.png; object_13c.png,object_15c.png; object_14b.png; object_04c.png; object_02a.png; object_15a.png; object_09c.png; object_08a.png; object_12a.png; object_05b.png; object_01c.png; object_04b.png; object_15b.png; object_09a.png; object_12b.png; object_11b.png,interleaved,Mozilla/5.0 (Windows NT 10.0; Win64; x64) AppleWebKit/537.36 (KHTML, like Gecko) Chrome/135.0.0.0 Safari/537.36,4/28/2025, 8:08:05 PM,2025-04-29 00:08:05.874,,,,,,,,,,,,,,,,,,,,,,,,,,,
21843.5,,make_fullscreen,44556,,,,,,,,fullscreen,0,,,,,,,,,,,,,,,,,,,,,,,,,
3567.6999999284744,,instruct_1,48131,,,,,,,,instruct,0,Next,,,,,,,,,,,,,,,,,,,,,,,,
7844.5,,instruct_2,55979,,,,,,,,instruct,1,Next,,,,,,,,,,,,,,,,,,,,,,,,
5999,,instruct_3,61979,,,,,,,,instruct,1,Next,,,,,,,,,,,,,,,,,,,,,,,,
20181.399999976158,,instruct_4,82165,,,,,,,,instruct,1,Next,,,,,,,,,,,,,,,,,,,,,,,,
11421.299999952316,,instruct_5,93589,,,,,,,,instruct,1,Next,,,,,,,,,,,,,,,,,,,,,,,,
2975.7999999523163,,instruct_6,96566,,,,,,,,instruct,1,Next,,,,,,,,,,,,,,,,,,,,,,,,
32768.700000047684,,instruct_7,129337,,,,,,,,instruct,1,Next,,,,,,,,,,,,,,,,,,,,,,,,
null,,prac_atten_color_black,130000,,,,,,,,black_plus_sign,,,null,,,,,,,,,,,,,,,,,,,,,,,
null,,prac_atten_color,130760,,,,,,,,<p style='position:absolute;top: 50%;right: 50%;transform: translate(50%, -50%);font-size: 125px;color: blue;'>+</p>,,,null,,,,,,,,,,,,,,,,,,,,,,,
null,,prac_atten_color_black,132774,,,,,,,,black_plus_sign,,,null,,,,,,,,,,,,,,,,,,,,,,,
7122.799999952316,,attentioncheck_help,139898,,,,,,,,instruct,,,32,,,,,,,,,,,,,,,,,,,,,,,
null,,prac_atten_color_black,140548,,,,,,,,black_plus_sign,,,null,,,,,,,,,,,,,,,,,,,,,,,
null,,prac_atten_color,141510,,,,,,,,<p style='position:absolute;top: 50%;right: 50%;transform: translate(50%, -50%);font-size: 125px;color: green;'>+</p>,,,null,,,,,,,,,,,,,,,,,,,,,,,
643.5,,prac_atten_color_black,143522,,,,,,,,black_plus_sign,,,50,,,,,,,,,,,,,,,,,,,,,,,
null,,prac_atten_color_black,143983,,,,,,,,black_plus_sign,,,null,,,,,,,,,,,,,,,,,,,,,,,
null,,prac_atten_color,144831,,,,,,,,<p style='position:absolute;top: 50%;right: 50%;transform: translate(50%, -50%);font-size: 125px;color: green;'>+</p>,,,null,,,,,,,,,,,,,,,,,,,,,,,
66.70000004768372,,prac_atten_color_black,146833,,,,,,,,black_plus_sign,,,50,,,,,,,,,,,,,,,,,,,,,,,
null,,prac_atten_color_black,147416,,,,,,,,black_plus_sign,,,null,,,,,,,,,,,,,,,,,,,,,,,
593.7000000476837,,prac_atten_color,148386,,,,,,,,<p style='position:absolute;top: 50%;right: 50%;transform: translate(50%, -50%);font-size: 125px;color: blue;'>+</p>,,,49,,,,,,,,,,,,,,,,,,,,,,,
null,,prac_atten_color_black,150388,,,,,,,,black_plus_sign,,,null,,,,,,,,,,,,,,,,,,,,,,,
null,,prac_atten_color_black,150846,,,,,,,,black_plus_sign,,,null,,,,,,,,,,,,,,,,,,,,,,,
null,,prac_atten_color,151395,,,,,,,,<p style='position:absolute;top: 50%;right: 50%;transform: translate(50%, -50%);font-size: 125px;color: green;'>+</p>,,,null,,,,,,,,,,,,,,,,,,,,,,,
135.60000002384186,,prac_atten_color_black,153413,,,,,,,,black_plus_sign,,,50,,,,,,,,,,,,,,,,,,,,,,,
null,,prac_atten_color_black,154288,,,,,,,,black_plus_sign,,,null,,,,,,,,,,,,,,,,,,,,,,,
514,,prac_atten_color,154810,,,,,,,,<p style='position:absolute;top: 50%;right: 50%;transform: translate(50%, -50%);font-size: 125px;color: green;'>+</p>,,,50,,,,,,,,,,,,,,,,,,,,,,,
null,,prac_atten_color_black,156823,,,,,,,,black_plus_sign,,,null,,,,,,,,,,,,,,,,,,,,,,,
null,,prac_atten_color_black,157715,,,,,,,,black_plus_sign,,,null,,,,,,,,,,,,,,,,,,,,,,,
615.7999999523163,,prac_atten_color,158418,,,,,,,,<p style='position:absolute;top: 50%;right: 50%;transform: translate(50%, -50%);font-size: 125px;color: blue;'>+</p>,,,49,,,,,,,,,,,,,,,,,,,,,,,
null,,prac_atten_color_black,160425,,,,,,,,black_plus_sign,,,null,,,,,,,,,,,,,,,,,,,,,,,
null,,prac_atten_color_black,161146,,,,,,,,black_plus_sign,,,null,,,,,,,,,,,,,,,,,,,,,,,
658,,prac_atten_color,161974,,,,,,,,<p style='position:absolute;top: 50%;right: 50%;transform: translate(50%, -50%);font-size: 125px;color: green;'>+</p>,,,50,,,,,,,,,,,,,,,,,,,,,,,
null,,prac_atten_color_black,163975,,,,,,,,black_plus_sign,,,null,,,,,,,,,,,,,,,,,,,,,,,
null,,prac_atten_color_black,164565,,,,,,,,black_plus_sign,,,null,,,,,,,,,,,,,,,,,,,,,,,
null,,prac_atten_color,165113,,,,,,,,<p style='position:absolute;top: 50%;right: 50%;transform: translate(50%, -50%);font-size: 125px;color: blue;'>+</p>,,,null,,,,,,,,,,,,,,,,,,,,,,,
139.20000004768372,,prac_atten_color_black,167122,,,,,,,,black_plus_sign,,,49,,,,,,,,,,,,,,,,,,,,,,,
null,,prac_atten_color_black,167983,,,,,,,,black_plus_sign,,,null,,,,,,,,,,,,,,,,,,,,,,,
563.7999999523163,,prac_atten_color,168832,,,,,,,,<p style='position:absolute;top: 50%;right: 50%;transform: translate(50%, -50%);font-size: 125px;color: blue;'>+</p>,,,49,,,,,,,,,,,,,,,,,,,,,,,
null,,prac_atten_color_black,170834,,,,,,,,black_plus_sign,,,null,,,,,,,,,,,,,,,,,,,,,,,
6168.5,,attentioncheck_feedback,177004,,,,,,,,cross_check_feedback,0,,,,,,,,,,,,,,,,,,,,,,,,,
9800.5,,last_instruct,186806,,,,,,,,instruct,,,32,,,,,,,,,,,,,,,,,,,,,,,
null,,prac_learn_phase(without_color),190312,,,,,,,,black_plus_sign,,,null,object_09b.png,object_04b.png,,,,,,,,,,,,,,,,,,,,,
null,,prac_black_cross(without_color),191334,,,,,,,,green,,,null,object_09b.png,object_04b.png,,,,,,,,,,,,,,,,,,,,,
null,,prac_rt_plussign_withcolor,191837,,,,,,,,green,,,null,object_09b.png,object_04b.png,,,,,,,,,,,,,,,,,,,,,
1945.3999999761581,,prac_rt_thecrossant_black,192842,,,,,,,,black_plus_sign,,,50,,,1,1,,,,,,,,,,,,,,,,,,,
null,,prac_color_black,192960,,,,,,,,black_plus_sign,,,null,,,,,,,,,,,,,,,,,,,,,,,
null,,prac_learn_phase(without_color),196470,,,,,,,,black_plus_sign,,,null,object_05c.png,object_11c.png,,,,,,,,,,,,,,,,,,,,,
null,,black_cross(without_color)1,197441,,,,,,,,green,,,null,object_09b.png,object_04b.png,,,,,,,,,,,,,,,,,,,,,
null,,prac_rt_plussign_withcolor,197954,,,,,,,,blue,,,null,object_05c.png,object_11c.png,,,,,,,,,,,,,,,,,,,,,
793.3000000715256,,prac_rt_thecrossant_black,199182,,,,,,,,black_plus_sign,,,50,,,0,0.5,,,,,,,,,,,,,,,,,,,
null,,prac_color_black,199297,,,,,,,,black_plus_sign,,,null,,,,,,,,,,,,,,,,,,,,,,,
null,,prac_learn_phase(without_color),202818,,,,,,,,black_plus_sign,,,null,object_13c.png,object_11b.png,,,,,,,,,,,,,,,,,,,,,
null,,black_cross(without_color)1,203789,,,,,,,,green,,,null,object_09b.png,object_04b.png,,,,,,,,,,,,,,,,,,,,,
null,,prac_rt_plussign_withcolor,204306,,,,,,,,blue,,,null,object_13c.png,object_11b.png,,,,,,,,,,,,,,,,,,,,,
1052.8999999761581,,prac_rt_thecrossant_black,205341,,,,,,,,black_plus_sign,,,50,,,0,0.3333333333333333,,,,,,,,,,,,,,,,,,,
null,,warning_page,210353,,,,,,,,warning,,,null,,,,,,,,,,,,,,,,,,,,,,,
null,,prac_color_black,210467,,,,,,,,black_plus_sign,,,null,,,,,,,,,,,,,,,,,,,,,,,
null,,prac_learn_phase(without_color),213974,,,,,,,,black_plus_sign,,,null,object_01a.png,object_08a.png,,,,,,,,,,,,,,,,,,,,,
null,,black_cross(without_color)1,214948,,,,,,,,green,,,null,object_09b.png,object_04b.png,,,,,,,,,,,,,,,,,,,,,
null,,prac_rt_plussign_withcolor,215460,,,,,,,,green,,,null,object_01a.png,object_08a.png,,,,,,,,,,,,,,,,,,,,,
1454.1000000238419,,prac_rt_thecrossant_black,216520,,,,,,,,black_plus_sign,,,50,,,1,0.5,,,,,,,,,,,,,,,,,,,
null,,prac_color_black,216633,,,,,,,,black_plus_sign,,,null,,,,,,,,,,,,,,,,,,,,,,,
11884.800000071526,,instruct_dir_01,228520,,,,,,,,instruct,0,Next,,,,,,,,,,,,,,,,,,,,,,,,
7462.899999976158,,instruct_dir_2,235984,,,,,,,,instruct,1,Next,,,,,,,,,,,,,,,,,,,,,,,,
5814,,instruct_dir_3,241800,,,,,,,,instruct,1,Next,,,,,,,,,,,,,,,,,,,,,,,,
7751,,instruct_dir_4,249552,,,,,,,,instruct,1,Start,,,,,,,,,,,,,,,,,,,,,,,,
null,,thebreak,249663,,,,,,,,<p></p>,,,null,,,,,,,,,,,,,,,,,,,,,,,
2155.100000023842,,intro_0,251819,,,,,,,,instruct,,,32,,,,,,,,,,,,,,,,,,,,,,,
5005.5,,prac_directmemory_phase,256826,,,,,,,,practice/object_02b.png,,,49,,,1,,practice/object_02a.png,practice/object_04a.png,practice/object_03a.png,practice/object_02a.png,1,1,,,,,,,,,,,,,
4533.899999976158,,prac_directmemory_phase,261363,,,,,,,,practice/object_01b.png,,,49,,,0,,practice/object_03a.png,practice/object_04a.png,practice/object_01a.png,practice/object_01a.png,0,0.5,,,,,,,,,,,,,
4559,,prac_directmemory_phase,265924,,,,,,,,practice/object_03b.png,,,51,,,0,,practice/object_03a.png,practice/object_04a.png,practice/object_01a.png,practice/object_03a.png,0,0.3333333333333333,,,,,,,,,,,,,
4485.5,,prac_directmemory_phase,270412,,,,,,,,practice/object_04b.png,,,51,,,0,,practice/object_04a.png,practice/object_02a.png,practice/object_01a.png,practice/object_04a.png,0,0.25,,,,,,,,,,,,,
6140.300000071526,,practice_feedback_force_restart,276556,,,,,,,,practice_feedback,0,,,,,,,,,,,,,1,,,,,,,,,,,,
9537.200000047684,,last_instruct,286094,,,,,,,,instruct,,,32,,,,,,,,,,,,,,,,,,,,,,,
null,,prac_learn_phase(without_color),289611,,,,,,,,black_plus_sign,,,null,object_09b.png,object_04b.png,,,,,,,,,,,,,,,,,,,,,
null,,prac_black_cross(without_color),290550,,,,,,,,green,,,null,object_09b.png,object_04b.png,,,,,,,,,,,,,,,,,,,,,
null,,prac_rt_plussign_withcolor,291058,,,,,,,,green,,,null,object_09b.png,object_04b.png,,,,,,,,,,,,,,,,,,,,,
1605.7000000476837,,prac_rt_thecrossant_black,292141,,,,,,,,black_plus_sign,,,50,,,1,0.6,,,,,,,,,,,,,,,,,,,
null,,prac_color_black,292253,,,,,,,,black_plus_sign,,,null,,,,,,,,,,,,,,,,,,,,,,,
null,,prac_learn_phase(without_color),295771,,,,,,,,black_plus_sign,,,null,object_05c.png,object_11c.png,,,,,,,,,,,,,,,,,,,,,
null,,black_cross(without_color)1,296739,,,,,,,,green,,,null,object_09b.png,object_04b.png,,,,,,,,,,,,,,,,,,,,,
null,,prac_rt_plussign_withcolor,297243,,,,,,,,blue,,,null,object_05c.png,object_11c.png,,,,,,,,,,,,,,,,,,,,,
1358.6999999284744,,prac_rt_thecrossant_black,298798,,,,,,,,black_plus_sign,,,49,,,1,0.6666666666666666,,,,,,,,,,,,,,,,,,,
null,,prac_color_black,298902,,,,,,,,black_plus_sign,,,null,,,,,,,,,,,,,,,,,,,,,,,
null,,prac_learn_phase(without_color),302420,,,,,,,,black_plus_sign,,,null,object_13c.png,object_11b.png,,,,,,,,,,,,,,,,,,,,,
null,,black_cross(without_color)1,303393,,,,,,,,green,,,null,object_09b.png,object_04b.png,,,,,,,,,,,,,,,,,,,,,
null,,prac_rt_plussign_withcolor,303908,,,,,,,,blue,,,null,object_13c.png,object_11b.png,,,,,,,,,,,,,,,,,,,,,
1031.3000000715256,,prac_rt_thecrossant_black,304840,,,,,,,,black_plus_sign,,,49,,,1,0.7142857142857143,,,,,,,,,,,,,,,,,,,
null,,prac_color_black,304954,,,,,,,,black_plus_sign,,,null,,,,,,,,,,,,,,,,,,,,,,,
null,,prac_learn_phase(without_color),308466,,,,,,,,black_plus_sign,,,null,object_01a.png,object_08a.png,,,,,,,,,,,,,,,,,,,,,
null,,black_cross(without_color)1,309433,,,,,,,,green,,,null,object_09b.png,object_04b.png,,,,,,,,,,,,,,,,,,,,,
null,,prac_rt_plussign_withcolor,309946,,,,,,,,green,,,null,object_01a.png,object_08a.png,,,,,,,,,,,,,,,,,,,,,
1428.1999999284744,,prac_rt_thecrossant_black,310886,,,,,,,,black_plus_sign,,,50,,,1,0.75,,,,,,,,,,,,,,,,,,,
null,,prac_color_black,311005,,,,,,,,black_plus_sign,,,null,,,,,,,,,,,,,,,,,,,,,,,
2958.4000000953674,,instruct_dir_01,313965,,,,,,,,instruct,0,Next,,,,,,,,,,,,,,,,,,,,,,,,
1582.6000000238419,,instruct_dir_2,315549,,,,,,,,instruct,1,Next,,,,,,,,,,,,,,,,,,,,,,,,
1934.8999999761581,,instruct_dir_3,317485,,,,,,,,instruct,1,Next,,,,,,,,,,,,,,,,,,,,,,,,
1654.5999999046326,,instruct_dir_4,319142,,,,,,,,instruct,1,Start,,,,,,,,,,,,,,,,,,,,,,,,
null,,thebreak,319248,,,,,,,,<p></p>,,,null,,,,,,,,,,,,,,,,,,,,,,,
3725.7000000476837,,intro_0,322975,,,,,,,,instruct,,,32,,,,,,,,,,,,,,,,,,,,,,,
4767.800000071526,,prac_directmemory_phase,327744,,,,,,,,practice/object_02b.png,,,51,,,0,,practice/object_02a.png,practice/object_04a.png,practice/object_03a.png,practice/object_02a.png,0,0,,,,,,,,,,,,,
3974.399999976158,,prac_directmemory_phase,331720,,,,,,,,practice/object_01b.png,,,51,,,1,,practice/object_03a.png,practice/object_04a.png,practice/object_01a.png,practice/object_01a.png,1,0.5,,,,,,,,,,,,,
3190.7999999523163,,prac_directmemory_phase,334913,,,,,,,,practice/object_03b.png,,,49,,,1,,practice/object_03a.png,practice/object_04a.png,practice/object_01a.png,practice/object_03a.png,1,0.6666666666666666,,,,,,,,,,,,,
3383.3000000715256,,prac_directmemory_phase,338298,,,,,,,,practice/object_04b.png,,,50,,,0,,practice/object_04a.png,practice/object_02a.png,practice/object_01a.png,practice/object_04a.png,0,0.5,,,,,,,,,,,,,
6283.899999976158,,practice_feedback_force_restart,344584,,,,,,,,practice_feedback,0,,,,,,,,,,,,,2,,,,,,,,,,,,
4320.100000023842,,last_instruct,348906,,,,,,,,instruct,,,32,,,,,,,,,,,,,,,,,,,,,,,
null,,prac_learn_phase(without_color),352421,,,,,,,,black_plus_sign,,,null,object_09b.png,object_04b.png,,,,,,,,,,,,,,,,,,,,,
null,,prac_black_cross(without_color),353353,,,,,,,,green,,,null,object_09b.png,object_04b.png,,,,,,,,,,,,,,,,,,,,,
null,,prac_rt_plussign_withcolor,353865,,,,,,,,green,,,null,object_09b.png,object_04b.png,,,,,,,,,,,,,,,,,,,,,
1475.2999999523163,,prac_rt_thecrossant_black,354945,,,,,,,,black_plus_sign,,,50,,,1,0.7777777777777778,,,,,,,,,,,,,,,,,,,
null,,prac_color_black,355056,,,,,,,,black_plus_sign,,,null,,,,,,,,,,,,,,,,,,,,,,,
null,,prac_learn_phase(without_color),358569,,,,,,,,black_plus_sign,,,null,object_05c.png,object_11c.png,,,,,,,,,,,,,,,,,,,,,
null,,black_cross(without_color)1,359537,,,,,,,,green,,,null,object_09b.png,object_04b.png,,,,,,,,,,,,,,,,,,,,,
null,,prac_rt_plussign_withcolor,360050,,,,,,,,blue,,,null,object_05c.png,object_11c.png,,,,,,,,,,,,,,,,,,,,,
1258.8000000715256,,prac_rt_thecrossant_black,361457,,,,,,,,black_plus_sign,,,49,,,1,0.8,,,,,,,,,,,,,,,,,,,
null,,prac_color_black,361559,,,,,,,,black_plus_sign,,,null,,,,,,,,,,,,,,,,,,,,,,,
null,,prac_learn_phase(without_color),365073,,,,,,,,black_plus_sign,,,null,object_13c.png,object_11b.png,,,,,,,,,,,,,,,,,,,,,
null,,black_cross(without_color)1,366044,,,,,,,,green,,,null,object_09b.png,object_04b.png,,,,,,,,,,,,,,,,,,,,,
null,,prac_rt_plussign_withcolor,366555,,,,,,,,blue,,,null,object_13c.png,object_11b.png,,,,,,,,,,,,,,,,,,,,,
1103.6000000238419,,prac_rt_thecrossant_black,367949,,,,,,,,black_plus_sign,,,49,,,1,0.8181818181818182,,,,,,,,,,,,,,,,,,,
null,,prac_color_black,368056,,,,,,,,black_plus_sign,,,null,,,,,,,,,,,,,,,,,,,,,,,
null,,prac_learn_phase(without_color),371575,,,,,,,,black_plus_sign,,,null,object_01a.png,object_08a.png,,,,,,,,,,,,,,,,,,,,,
null,,black_cross(without_color)1,372545,,,,,,,,green,,,null,object_09b.png,object_04b.png,,,,,,,,,,,,,,,,,,,,,
null,,prac_rt_plussign_withcolor,373049,,,,,,,,green,,,null,object_01a.png,object_08a.png,,,,,,,,,,,,,,,,,,,,,
1235.1000000238419,,prac_rt_thecrossant_black,374231,,,,,,,,black_plus_sign,,,50,,,1,0.8333333333333334,,,,,,,,,,,,,,,,,,,
null,,prac_color_black,374339,,,,,,,,black_plus_sign,,,null,,,,,,,,,,,,,,,,,,,,,,,
2493.600000023842,,instruct_dir_01,376835,,,,,,,,instruct,0,Next,,,,,,,,,,,,,,,,,,,,,,,,
2093.600000023842,,instruct_dir_2,378930,,,,,,,,instruct,1,Next,,,,,,,,,,,,,,,,,,,,,,,,
1566.2000000476837,,instruct_dir_3,380498,,,,,,,,instruct,1,Next,,,,,,,,,,,,,,,,,,,,,,,,
1151.5,,instruct_dir_4,381651,,,,,,,,instruct,1,Start,,,,,,,,,,,,,,,,,,,,,,,,
null,,thebreak,381754,,,,,,,,<p></p>,,,null,,,,,,,,,,,,,,,,,,,,,,,
2793.899999976158,,intro_0,384549,,,,,,,,instruct,,,32,,,,,,,,,,,,,,,,,,,,,,,
3751.399999976158,,prac_directmemory_phase,388301,,,,,,,,practice/object_02b.png,,,49,,,1,,practice/object_02a.png,practice/object_04a.png,practice/object_03a.png,practice/object_02a.png,1,1,,,,,,,,,,,,,
2342.2999999523163,,prac_directmemory_phase,390645,,,,,,,,practice/object_01b.png,,,51,,,1,,practice/object_03a.png,practice/object_04a.png,practice/object_01a.png,practice/object_01a.png,1,1,,,,,,,,,,,,,
2887.2000000476837,,prac_directmemory_phase,393540,,,,,,,,practice/object_03b.png,,,49,,,1,,practice/object_03a.png,practice/object_04a.png,practice/object_01a.png,practice/object_03a.png,1,1,,,,,,,,,,,,,
2727,,prac_directmemory_phase,396270,,,,,,,,practice/object_04b.png,,,50,,,0,,practice/object_04a.png,practice/object_02a.png,practice/object_01a.png,practice/object_04a.png,0,0.75,,,,,,,,,,,,,
11558.400000095367,,practice_feedback,407829,,,,,,,,practice_feedback,1,,,,,,,,,,,,,,,,,,,,,,,,,
14391,,proceed_actualTask,422222,,,,,,,,proceed_actualTask,1,Continue,,,,,,,,,,,,,,,,,,,,,,,,
10177.600000023842,,last_inst,432401,,,,,,,,last_inst,,,32,,,,,,,,,,,,,,,,,,,,,,,
null,,learn_phase(without_color)1,435910,,,,,,,,black_plus_sign,,,null,object_09b.png,object_04b.png,,,,,,,,,,,,,,,,,,,,,
null,,black_cross(without_color)1,436884,,,,,,,,green,,,null,object_09b.png,object_04b.png,,,,,,,,,,,,,,,,,,,,,
null,,rt_plussign_withcolor1,437399,,,,,,,,green,,,null,object_09b.png,object_04b.png,,,,,,,,,,,,,,,,,,,,,
null,,rt_thecrossant_black1,438451,,,,,,,,black_plus_sign,,,null,,,,,,,,,,NaN,,,,,,,,,,,,,
null,,color_black1,438573,,,,,,,,black_plus_sign,,,null,,,,,,,,,,,,,,,,,,,,,,,
null,,learn_phase(without_color)1,442088,,,,,,,,black_plus_sign,,,null,object_05c.png,object_11c.png,,,,,,,,,,,,,,,,,,,,,
null,,black_cross(without_color)1,443148,,,,,,,,blue,,,null,object_05c.png,object_11c.png,,,,,,,,,,,,,,,,,,,,,
null,,rt_plussign_withcolor1,443662,,,,,,,,blue,,,null,object_05c.png,object_11c.png,,,,,,,,,,,,,,,,,,,,,
1527.4000000953674,,rt_thecrossant_black1,444631,,,,,,,,black_plus_sign,,,49,,,1,,,,,,,1,,,,,,,,,,,,,
null,,color_black1,444740,,,,,,,,black_plus_sign,,,null,,,,,,,,,,,,,,,,,,,,,,,
null,,learn_phase(without_color)1,448244,,,,,,,,black_plus_sign,,,null,object_13c.png,object_11b.png,,,,,,,,,,,,,,,,,,,,,
null,,black_cross(without_color)1,448701,,,,,,,,blue,,,null,object_13c.png,object_11b.png,,,,,,,,,,,,,,,,,,,,,
null,,rt_plussign_withcolor1,449216,,,,,,,,blue,,,null,object_13c.png,object_11b.png,,,,,,,,,,,,,,,,,,,,,
1425.2999999523163,,rt_thecrossant_black1,450786,,,,,,,,black_plus_sign,,,49,,,1,,,,,,,1,,,,,,,,,,,,,
null,,color_black1,450890,,,,,,,,black_plus_sign,,,null,,,,,,,,,,,,,,,,,,,,,,,
null,,learn_phase(without_color)1,454407,,,,,,,,black_plus_sign,,,null,object_01a.png,object_08a.png,,,,,,,,,,,,,,,,,,,,,
null,,black_cross(without_color)1,454869,,,,,,,,green,,,null,object_01a.png,object_08a.png,,,,,,,,,,,,,,,,,,,,,
null,,rt_plussign_withcolor1,455380,,,,,,,,green,,,null,object_01a.png,object_08a.png,,,,,,,,,,,,,,,,,,,,,
766.5,,rt_thecrossant_black1,456933,,,,,,,,black_plus_sign,,,50,,,1,,,,,,,1,,,,,,,,,,,,,
null,,color_black1,457042,,,,,,,,black_plus_sign,,,null,,,,,,,,,,,,,,,,,,,,,,,
null,,learn_phase(without_color)1,460547,,,,,,,,black_plus_sign,,,null,object_06a.png,object_12c.png,,,,,,,,,,,,,,,,,,,,,
null,,black_cross(without_color)1,461182,,,,,,,,blue,,,null,object_06a.png,object_12c.png,,,,,,,,,,,,,,,,,,,,,
null,,rt_plussign_withcolor1,461685,,,,,,,,blue,,,null,object_06a.png,object_12c.png,,,,,,,,,,,,,,,,,,,,,
795.5,,rt_thecrossant_black1,463062,,,,,,,,black_plus_sign,,,49,,,1,,,,,,,1,,,,,,,,,,,,,
null,,color_black1,463177,,,,,,,,black_plus_sign,,,null,,,,,,,,,,,,,,,,,,,,,,,
null,,learn_phase(without_color)1,466691,,,,,,,,black_plus_sign,,,null,object_06c.png,object_11a.png,,,,,,,,,,,,,,,,,,,,,
null,,black_cross(without_color)1,467533,,,,,,,,green,,,null,object_06c.png,object_11a.png,,,,,,,,,,,,,,,,,,,,,
null,,rt_plussign_withcolor1,468044,,,,,,,,green,,,null,object_06c.png,object_11a.png,,,,,,,,,,,,,,,,,,,,,
1214.5,,rt_thecrossant_black1,469223,,,,,,,,black_plus_sign,,,50,,,1,,,,,,,1,,,,,,,,,,,,,
null,,color_black1,469327,,,,,,,,black_plus_sign,,,null,,,,,,,,,,,,,,,,,,,,,,,
null,,learn_phase(without_color)1,472842,,,,,,,,black_plus_sign,,,null,object_13b.png,object_12b.png,,,,,,,,,,,,,,,,,,,,,
null,,black_cross(without_color)1,473626,,,,,,,,green,,,null,object_13b.png,object_12b.png,,,,,,,,,,,,,,,,,,,,,
null,,rt_plussign_withcolor1,474130,,,,,,,,green,,,null,object_13b.png,object_12b.png,,,,,,,,,,,,,,,,,,,,,
1053.3000000715256,,rt_thecrossant_black1,475355,,,,,,,,black_plus_sign,,,50,,,1,,,,,,,1,,,,,,,,,,,,,
null,,color_black1,475461,,,,,,,,black_plus_sign,,,null,,,,,,,,,,,,,,,,,,,,,,,
null,,learn_phase(without_color)1,478965,,,,,,,,black_plus_sign,,,null,object_04a.png,object_13b.png,,,,,,,,,,,,,,,,,,,,,
null,,black_cross(without_color)1,479761,,,,,,,,green,,,null,object_04a.png,object_13b.png,,,,,,,,,,,,,,,,,,,,,
null,,rt_plussign_withcolor1,480269,,,,,,,,green,,,null,object_04a.png,object_13b.png,,,,,,,,,,,,,,,,,,,,,
1171.5,,rt_thecrossant_black1,481485,,,,,,,,black_plus_sign,,,50,,,1,,,,,,,1,,,,,,,,,,,,,
null,,color_black1,481594,,,,,,,,black_plus_sign,,,null,,,,,,,,,,,,,,,,,,,,,,,
null,,learn_phase(without_color)1,485099,,,,,,,,black_plus_sign,,,null,object_10a.png,object_02b.png,,,,,,,,,,,,,,,,,,,,,
null,,black_cross(without_color)1,485931,,,,,,,,green,,,null,object_10a.png,object_02b.png,,,,,,,,,,,,,,,,,,,,,
479.5,,rt_plussign_withcolor1,486433,,,,,,,,green,,,50,object_10a.png,object_02b.png,,,,,,,,,,,,,,,,,,,,,
null,,rt_thecrossant_black1,487628,,,,,,,,black_plus_sign,,,null,,,1,,,,,,,1,,,,,,,,,,,,,
null,,color_black1,487745,,,,,,,,black_plus_sign,,,null,,,,,,,,,,,,,,,,,,,,,,,
null,,learn_phase(without_color)1,491249,,,,,,,,black_plus_sign,,,null,object_08c.png,object_14c.png,,,,,,,,,,,,,,,,,,,,,
null,,black_cross(without_color)1,492274,,,,,,,,blue,,,null,object_08c.png,object_14c.png,,,,,,,,,,,,,,,,,,,,,
null,,rt_plussign_withcolor1,492786,,,,,,,,blue,,,null,object_08c.png,object_14c.png,,,,,,,,,,,,,,,,,,,,,
1261.1000000238419,,rt_thecrossant_black1,493792,,,,,,,,black_plus_sign,,,49,,,1,,,,,,,1,,,,,,,,,,,,,
null,,color_black1,493895,,,,,,,,black_plus_sign,,,null,,,,,,,,,,,,,,,,,,,,,,,
null,,learn_phase(without_color)1,497408,,,,,,,,black_plus_sign,,,null,object_07c.png,object_13a.png,,,,,,,,,,,,,,,,,,,,,
null,,black_cross(without_color)1,498393,,,,,,,,blue,,,null,object_07c.png,object_13a.png,,,,,,,,,,,,,,,,,,,,,
null,,rt_plussign_withcolor1,498904,,,,,,,,blue,,,null,object_07c.png,object_13a.png,,,,,,,,,,,,,,,,,,,,,
1482,,rt_thecrossant_black1,499945,,,,,,,,black_plus_sign,,,49,,,1,,,,,,,1,,,,,,,,,,,,,
null,,color_black1,500064,,,,,,,,black_plus_sign,,,null,,,,,,,,,,,,,,,,,,,,,,,
null,,learn_phase(without_color)1,503579,,,,,,,,black_plus_sign,,,null,object_07b.png,object_12a.png,,,,,,,,,,,,,,,,,,,,,
null,,black_cross(without_color)1,504203,,,,,,,,green,,,null,object_07b.png,object_12a.png,,,,,,,,,,,,,,,,,,,,,
null,,rt_plussign_withcolor1,504706,,,,,,,,green,,,null,object_07b.png,object_12a.png,,,,,,,,,,,,,,,,,,,,,
1519.9000000953674,,rt_thecrossant_black1,506104,,,,,,,,black_plus_sign,,,50,,,1,,,,,,,1,,,,,,,,,,,,,
null,,color_black1,506213,,,,,,,,black_plus_sign,,,null,,,,,,,,,,,,,,,,,,,,,,,
null,,learn_phase(without_color)1,509732,,,,,,,,black_plus_sign,,,null,object_10c.png,object_09b.png,,,,,,,,,,,,,,,,,,,,,
null,,black_cross(without_color)1,510725,,,,,,,,green,,,null,object_10c.png,object_09b.png,,,,,,,,,,,,,,,,,,,,,
null,,rt_plussign_withcolor1,511242,,,,,,,,green,,,null,object_10c.png,object_09b.png,,,,,,,,,,,,,,,,,,,,,
946,,rt_thecrossant_black1,512259,,,,,,,,black_plus_sign,,,50,,,1,,,,,,,1,,,,,,,,,,,,,
null,,color_black1,512365,,,,,,,,black_plus_sign,,,null,,,,,,,,,,,,,,,,,,,,,,,
null,,learn_phase(without_color)1,515871,,,,,,,,black_plus_sign,,,null,object_13a.png,object_09a.png,,,,,,,,,,,,,,,,,,,,,
null,,black_cross(without_color)1,516474,,,,,,,,blue,,,null,object_13a.png,object_09a.png,,,,,,,,,,,,,,,,,,,,,
null,,rt_plussign_withcolor1,516990,,,,,,,,blue,,,null,object_13a.png,object_09a.png,,,,,,,,,,,,,,,,,,,,,
1340.5,,rt_thecrossant_black1,518414,,,,,,,,black_plus_sign,,,49,,,1,,,,,,,1,,,,,,,,,,,,,
null,,color_black1,518516,,,,,,,,black_plus_sign,,,null,,,,,,,,,,,,,,,,,,,,,,,
null,,learn_phase(without_color)1,522034,,,,,,,,black_plus_sign,,,null,object_01b.png,object_06b.png,,,,,,,,,,,,,,,,,,,,,
null,,black_cross(without_color)1,522735,,,,,,,,green,,,null,object_01b.png,object_06b.png,,,,,,,,,,,,,,,,,,,,,
null,,rt_plussign_withcolor1,523242,,,,,,,,green,,,null,object_01b.png,object_06b.png,,,,,,,,,,,,,,,,,,,,,
879.2000000476837,,rt_thecrossant_black1,524553,,,,,,,,black_plus_sign,,,50,,,1,,,,,,,1,,,,,,,,,,,,,
null,,color_black1,524664,,,,,,,,black_plus_sign,,,null,,,,,,,,,,,,,,,,,,,,,,,
null,,learn_phase(without_color)1,528172,,,,,,,,black_plus_sign,,,null,object_06b.png,object_01c.png,,,,,,,,,,,,,,,,,,,,,
null,,black_cross(without_color)1,529092,,,,,,,,blue,,,null,object_06b.png,object_01c.png,,,,,,,,,,,,,,,,,,,,,
null,,rt_plussign_withcolor1,529609,,,,,,,,blue,,,null,object_06b.png,object_01c.png,,,,,,,,,,,,,,,,,,,,,
1867.6000000238419,,rt_thecrossant_black1,530694,,,,,,,,black_plus_sign,,,49,,,1,,,,,,,1,,,,,,,,,,,,,
null,,color_black1,530801,,,,,,,,black_plus_sign,,,null,,,,,,,,,,,,,,,,,,,,,,,
null,,learn_phase(without_color)1,534318,,,,,,,,black_plus_sign,,,null,object_07a.png,object_05a.png,,,,,,,,,,,,,,,,,,,,,
null,,black_cross(without_color)1,534779,,,,,,,,blue,,,null,object_07a.png,object_05a.png,,,,,,,,,,,,,,,,,,,,,
null,,rt_plussign_withcolor1,535295,,,,,,,,blue,,,null,object_07a.png,object_05a.png,,,,,,,,,,,,,,,,,,,,,
1335.5,,rt_thecrossant_black1,536853,,,,,,,,black_plus_sign,,,50,,,0,,,,,,,0.9375,,,,,,,,,,,,,
null,,color_black1,536969,,,,,,,,black_plus_sign,,,null,,,,,,,,,,,,,,,,,,,,,,,
null,,learn_phase(without_color)1,540483,,,,,,,,black_plus_sign,,,null,object_11a.png,object_05b.png,,,,,,,,,,,,,,,,,,,,,
null,,black_cross(without_color)1,541040,,,,,,,,green,,,null,object_11a.png,object_05b.png,,,,,,,,,,,,,,,,,,,,,
null,,rt_plussign_withcolor1,541544,,,,,,,,green,,,null,object_11a.png,object_05b.png,,,,,,,,,,,,,,,,,,,,,
820.1999999284744,,rt_thecrossant_black1,543019,,,,,,,,black_plus_sign,,,50,,,1,,,,,,,0.9411764705882353,,,,,,,,,,,,,
null,,color_black1,543135,,,,,,,,black_plus_sign,,,null,,,,,,,,,,,,,,,,,,,,,,,
null,,learn_phase(without_color)1,546642,,,,,,,,black_plus_sign,,,null,object_03b.png,object_08b.png,,,,,,,,,,,,,,,,,,,,,
null,,black_cross(without_color)1,547613,,,,,,,,green,,,null,object_03b.png,object_08b.png,,,,,,,,,,,,,,,,,,,,,
null,,rt_plussign_withcolor1,548125,,,,,,,,green,,,null,object_03b.png,object_08b.png,,,,,,,,,,,,,,,,,,,,,
643.3000000715256,,rt_thecrossant_black1,549174,,,,,,,,black_plus_sign,,,50,,,1,,,,,,,0.9444444444444444,,,,,,,,,,,,,
null,,color_black1,549285,,,,,,,,black_plus_sign,,,null,,,,,,,,,,,,,,,,,,,,,,,
null,,learn_phase(without_color)1,552800,,,,,,,,black_plus_sign,,,null,object_14a.png,object_03c.png,,,,,,,,,,,,,,,,,,,,,
null,,black_cross(without_color)1,553423,,,,,,,,blue,,,null,object_14a.png,object_03c.png,,,,,,,,,,,,,,,,,,,,,
null,,rt_plussign_withcolor1,553938,,,,,,,,blue,,,null,object_14a.png,object_03c.png,,,,,,,,,,,,,,,,,,,,,
1577,,rt_thecrossant_black1,555338,,,,,,,,black_plus_sign,,,49,,,1,,,,,,,0.9473684210526315,,,,,,,,,,,,,
null,,color_black1,555453,,,,,,,,black_plus_sign,,,null,,,,,,,,,,,,,,,,,,,,,,,
null,,learn_phase(without_color)1,558960,,,,,,,,black_plus_sign,,,null,object_05a.png,object_15b.png,,,,,,,,,,,,,,,,,,,,,
null,,black_cross(without_color)1,559528,,,,,,,,green,,,null,object_05a.png,object_15b.png,,,,,,,,,,,,,,,,,,,,,
null,,rt_plussign_withcolor1,560044,,,,,,,,green,,,null,object_05a.png,object_15b.png,,,,,,,,,,,,,,,,,,,,,
893.5,,rt_thecrossant_black1,561498,,,,,,,,black_plus_sign,,,50,,,1,,,,,,,0.95,,,,,,,,,,,,,
null,,color_black1,561604,,,,,,,,black_plus_sign,,,null,,,,,,,,,,,,,,,,,,,,,,,
null,,learn_phase(without_color)1,565109,,,,,,,,black_plus_sign,,,null,object_14c.png,object_02a.png,,,,,,,,,,,,,,,,,,,,,
null,,black_cross(without_color)1,565709,,,,,,,,blue,,,null,object_14c.png,object_02a.png,,,,,,,,,,,,,,,,,,,,,
null,,rt_plussign_withcolor1,566213,,,,,,,,blue,,,null,object_14c.png,object_02a.png,,,,,,,,,,,,,,,,,,,,,
727.8000000715256,,rt_thecrossant_black1,567633,,,,,,,,black_plus_sign,,,49,,,1,,,,,,,0.9523809523809523,,,,,,,,,,,,,
null,,color_black1,567738,,,,,,,,black_plus_sign,,,null,,,,,,,,,,,,,,,,,,,,,,,
null,,learn_phase(without_color)1,571249,,,,,,,,black_plus_sign,,,null,object_08b.png,object_14b.png,,,,,,,,,,,,,,,,,,,,,
null,,black_cross(without_color)1,571848,,,,,,,,blue,,,null,object_08b.png,object_14b.png,,,,,,,,,,,,,,,,,,,,,
null,,rt_plussign_withcolor1,572363,,,,,,,,blue,,,null,object_08b.png,object_14b.png,,,,,,,,,,,,,,,,,,,,,
1920.3000000715256,,rt_thecrossant_black1,573783,,,,,,,,black_plus_sign,,,49,,,1,,,,,,,0.9545454545454546,,,,,,,,,,,,,
null,,color_black1,573886,,,,,,,,black_plus_sign,,,null,,,,,,,,,,,,,,,,,,,,,,,
null,,learn_phase(without_color)1,577404,,,,,,,,black_plus_sign,,,null,object_03c.png,object_15a.png,,,,,,,,,,,,,,,,,,,,,
null,,black_cross(without_color)1,578236,,,,,,,,green,,,null,object_03c.png,object_15a.png,,,,,,,,,,,,,,,,,,,,,
null,,rt_plussign_withcolor1,578745,,,,,,,,green,,,null,object_03c.png,object_15a.png,,,,,,,,,,,,,,,,,,,,,
698.3000000715256,,rt_thecrossant_black1,579935,,,,,,,,black_plus_sign,,,50,,,1,,,,,,,0.9565217391304348,,,,,,,,,,,,,
null,,color_black1,580054,,,,,,,,black_plus_sign,,,null,,,,,,,,,,,,,,,,,,,,,,,
null,,learn_phase(without_color)1,583559,,,,,,,,black_plus_sign,,,null,object_02b.png,object_15c.png,,,,,,,,,,,,,,,,,,,,,
null,,black_cross(without_color)1,584660,,,,,,,,green,,,null,object_02b.png,object_15c.png,,,,,,,,,,,,,,,,,,,,,
null,,rt_plussign_withcolor1,585176,,,,,,,,green,,,null,object_02b.png,object_15c.png,,,,,,,,,,,,,,,,,,,,,
1327.7000000476837,,rt_thecrossant_black1,586092,,,,,,,,black_plus_sign,,,50,,,1,,,,,,,0.9583333333333334,,,,,,,,,,,,,
null,,color_black1,586207,,,,,,,,black_plus_sign,,,null,,,,,,,,,,,,,,,,,,,,,,,
null,,learn_phase(without_color)1,589725,,,,,,,,black_plus_sign,,,null,object_02c.png,object_01a.png,,,,,,,,,,,,,,,,,,,,,
null,,black_cross(without_color)1,590166,,,,,,,,green,,,null,object_02c.png,object_01a.png,,,,,,,,,,,,,,,,,,,,,
null,,rt_plussign_withcolor1,590684,,,,,,,,green,,,null,object_02c.png,object_01a.png,,,,,,,,,,,,,,,,,,,,,
2263.2999999523163,,rt_thecrossant_black1,592278,,,,,,,,black_plus_sign,,,50,,,1,,,,,,,0.96,,,,,,,,,,,,,
null,,color_black1,592390,,,,,,,,black_plus_sign,,,null,,,,,,,,,,,,,,,,,,,,,,,
null,,learn_phase(without_color)1,595895,,,,,,,,black_plus_sign,,,null,object_12c.png,object_09c.png,,,,,,,,,,,,,,,,,,,,,
null,,black_cross(without_color)1,596658,,,,,,,,green,,,null,object_12c.png,object_09c.png,,,,,,,,,,,,,,,,,,,,,
null,,rt_plussign_withcolor1,597164,,,,,,,,green,,,null,object_12c.png,object_09c.png,,,,,,,,,,,,,,,,,,,,,
963.6000000238419,,rt_thecrossant_black1,598419,,,,,,,,black_plus_sign,,,50,,,1,,,,,,,0.9615384615384616,,,,,,,,,,,,,
null,,color_black1,598524,,,,,,,,black_plus_sign,,,null,,,,,,,,,,,,,,,,,,,,,,,
null,,learn_phase(without_color)1,602028,,,,,,,,black_plus_sign,,,null,object_10b.png,object_07b.png,,,,,,,,,,,,,,,,,,,,,
null,,black_cross(without_color)1,603030,,,,,,,,blue,,,null,object_10b.png,object_07b.png,,,,,,,,,,,,,,,,,,,,,
null,,rt_plussign_withcolor1,603534,,,,,,,,blue,,,null,object_10b.png,object_07b.png,,,,,,,,,,,,,,,,,,,,,
1215.8000000715256,,rt_thecrossant_black1,604557,,,,,,,,black_plus_sign,,,49,,,1,,,,,,,0.9629629629629629,,,,,,,,,,,,,
null,,color_black1,604674,,,,,,,,black_plus_sign,,,null,,,,,,,,,,,,,,,,,,,,,,,
null,,learn_phase(without_color)1,608178,,,,,,,,black_plus_sign,,,null,object_03a.png,object_13c.png,,,,,,,,,,,,,,,,,,,,,
null,,black_cross(without_color)1,608862,,,,,,,,blue,,,null,object_03a.png,object_13c.png,,,,,,,,,,,,,,,,,,,,,
null,,rt_plussign_withcolor1,609368,,,,,,,,blue,,,null,object_03a.png,object_13c.png,,,,,,,,,,,,,,,,,,,,,
1961.1000000238419,,rt_thecrossant_black1,610713,,,,,,,,black_plus_sign,,,49,,,1,,,,,,,0.9642857142857143,,,,,,,,,,,,,
null,,color_black1,610824,,,,,,,,black_plus_sign,,,null,,,,,,,,,,,,,,,,,,,,,,,
null,,learn_phase(without_color)1,614329,,,,,,,,black_plus_sign,,,null,object_11c.png,object_04c.png,,,,,,,,,,,,,,,,,,,,,
null,,black_cross(without_color)1,615414,,,,,,,,green,,,null,object_11c.png,object_04c.png,,,,,,,,,,,,,,,,,,,,,
null,,rt_plussign_withcolor1,615918,,,,,,,,green,,,null,object_11c.png,object_04c.png,,,,,,,,,,,,,,,,,,,,,
1189.1000000238419,,rt_thecrossant_black1,616861,,,,,,,,black_plus_sign,,,50,,,1,,,,,,,0.9655172413793104,,,,,,,,,,,,,
null,,color_black1,616975,,,,,,,,black_plus_sign,,,null,,,,,,,,,,,,,,,,,,,,,,,
null,,thebreak,617093,,,,,,,,<p></p>,,,null,,,,,,,,,,,,,,,,,,,,,,,
3133.6999999284744,,intro_0,620229,,,,,,,,instruct,,,32,,,,,,,,,,,,,,,,,,,,,,,
4438.899999976158,,directmemory_phase1,624670,,,,,,,,object_15c.png,,,51,,,0,,object_02b.png,object_06b.png,object_13a.png,object_02b.png,,0,,0,,,,,,,,,,,
4014.7999999523163,,directmemory_phase1,628695,,,,,,,,object_13b.png,,,49,,,1,,object_04a.png,object_06c.png,object_01b.png,object_04a.png,,0.5,,1,,,,,,,,,,,
3796,,directmemory_phase1,632493,,,,,,,,object_09c.png,,,49,,,0,,object_08b.png,object_14c.png,object_12c.png,object_12c.png,,0.3333333333333333,,0,,,,,,,,,,,
3311.7999999523163,,directmemory_phase1,635807,,,,,,,,object_13a.png,,,50,,,1,,object_10c.png,object_07c.png,object_07a.png,object_07c.png,,0.5,,1,,,,,,,,,,,
2869.899999976158,,directmemory_phase1,638679,,,,,,,,object_07b.png,,,49,,,0,,object_06a.png,object_10c.png,object_10b.png,object_10b.png,,0.4,,0,,,,,,,,,,,
2311.2999999523163,,directmemory_phase1,640992,,,,,,,,object_01a.png,,,51,,,1,,object_07c.png,object_06c.png,object_02c.png,object_02c.png,,0.5,,1,,,,,,,,,,,
3229.5,,directmemory_phase1,644223,,,,,,,,object_13c.png,,,49,,,1,,object_03a.png,object_06a.png,object_05c.png,object_03a.png,,0.5714285714285714,,1,,,,,,,,,,,
2477.6999999284744,,directmemory_phase1,646702,,,,,,,,object_09b.png,,,49,,,1,,object_10c.png,object_06c.png,object_01b.png,object_10c.png,,0.625,,1,,,,,,,,,,,
3359.2000000476837,,directmemory_phase1,650063,,,,,,,,object_04b.png,,,51,,,1,,object_13a.png,object_11a.png,object_09b.png,object_09b.png,,0.6666666666666666,,1,,,,,,,,,,,
2551.600000023842,,directmemory_phase1,652616,,,,,,,,object_15b.png,,,51,,,0,,object_02b.png,object_05a.png,object_07b.png,object_05a.png,,0.6,,0,,,,,,,,,,,
1997.8999999761581,,directmemory_phase1,654616,,,,,,,,object_11b.png,,,49,,,0,,object_08b.png,object_11a.png,object_13c.png,object_13c.png,,0.5454545454545454,,0,,,,,,,,,,,
163.09999990463257,,directmemory_phase1,654781,,,,,,,,object_11a.png,,,49,,,0,,object_04a.png,object_06c.png,object_07c.png,object_06c.png,,0.5,,0,,,,,,,,,,,
2097,,directmemory_phase1,656880,,,,,,,,object_15a.png,,,49,,,0,,object_06b.png,object_03c.png,object_05a.png,object_03c.png,,0.46153846153846156,,0,,,,,,,,,,,
2375.0999999046326,,directmemory_phase1,659256,,,,,,,,object_12b.png,,,49,,,0,,object_08b.png,object_13b.png,object_03c.png,object_13b.png,,0.42857142857142855,,0,,,,,,,,,,,
2135,,directmemory_phase1,661392,,,,,,,,object_14b.png,,,49,,,1,,object_08b.png,object_03c.png,object_05a.png,object_08b.png,,0.4666666666666667,,1,,,,,,,,,,,
2390.7999999523163,,directmemory_phase1,663785,,,,,,,,object_02b.png,,,49,,,0,,object_03b.png,object_06c.png,object_10a.png,object_10a.png,,0.4375,,0,,,,,,,,,,,
2109.2000000476837,,directmemory_phase1,665896,,,,,,,,object_09a.png,,,51,,,0,,object_08b.png,object_13a.png,object_09b.png,object_13a.png,,0.4117647058823529,,0,,,,,,,,,,,
2518.399999976158,,directmemory_phase1,668416,,,,,,,,object_08a.png,,,51,,,1,,object_08b.png,object_06b.png,object_01a.png,object_01a.png,,0.4444444444444444,,1,,,,,,,,,,,
2135.5,,directmemory_phase1,670553,,,,,,,,object_05b.png,,,50,,,0,,object_11a.png,object_14c.png,object_13a.png,object_11a.png,,0.42105263157894735,,0,,,,,,,,,,,
1982.2000000476837,,directmemory_phase1,672537,,,,,,,,object_12c.png,,,50,,,0,,object_05c.png,object_04a.png,object_06a.png,object_06a.png,,0.4,,0,,,,,,,,,,,
2022.6000000238419,,directmemory_phase1,674561,,,,,,,,object_08b.png,,,49,,,0,,object_06a.png,object_03b.png,object_07c.png,object_03b.png,,0.38095238095238093,,0,,,,,,,,,,,
2510.5,,directmemory_phase1,677072,,,,,,,,object_05a.png,,,50,,,0,,object_07a.png,object_14a.png,object_10b.png,object_07a.png,,0.36363636363636365,,0,,,,,,,,,,,
2910.7999999523163,,directmemory_phase1,679984,,,,,,,,object_06b.png,,,50,,,0,,object_05c.png,object_10c.png,object_01b.png,object_01b.png,,0.34782608695652173,,0,,,,,,,,,,,
2199.899999976158,,directmemory_phase1,682186,,,,,,,,object_02a.png,,,51,,,1,,object_13b.png,object_01a.png,object_14c.png,object_14c.png,,0.375,,1,,,,,,,,,,,
2263,,directmemory_phase1,684450,,,,,,,,object_01c.png,,,50,,,0,,object_06b.png,object_02b.png,object_11a.png,object_06b.png,,0.36,,0,,,,,,,,,,,
1918.6999999284744,,directmemory_phase1,686371,,,,,,,,object_14c.png,,,49,,,0,,object_10c.png,object_08c.png,object_05c.png,object_08c.png,,0.34615384615384615,,0,,,,,,,,,,,
2725.7000000476837,,directmemory_phase1,689098,,,,,,,,object_03c.png,,,50,,,0,,object_07c.png,object_05c.png,object_14a.png,object_14a.png,,0.3333333333333333,,0,,,,,,,,,,,
2621.5,,directmemory_phase1,691722,,,,,,,,object_04c.png,,,51,,,0,,object_03c.png,object_11c.png,object_11a.png,object_11c.png,,0.32142857142857145,,0,,,,,,,,,,,
2687.100000023842,,directmemory_phase1,694410,,,,,,,,object_12a.png,,,49,,,0,,object_13b.png,object_07b.png,object_03c.png,object_07b.png,,0.3103448275862069,,0,,,,,,,,,,,
2575.5,,directmemory_phase1,696987,,,,,,,,object_11c.png,,,50,,,0,,object_10c.png,object_03b.png,object_05c.png,object_05c.png,,0.3,,0,,,,,,,,,,,
null,,thebreak,697102,,,,,,,,<p></p>,,,null,,,,,,,,,,,,,,,,,,,,,,,
1923.5999999046326,,intro_0,699027,,,,,,,,instruct,,,32,,,,,,,,,,,,,,,,,,,,,,,
null,,learn_phase(without_color)2,702542,,,,,,,,black_plus_sign,,,null,object_08c.png,object_14c.png,,,,,,,,,,,,,,,,,,,,,
null,,black_cross(without_color)2,703315,,,,,,,,blue,,,null,object_08c.png,object_14c.png,,,,,,,,,,,,,,,,,,,,,
null,,rt_plussign_withcolor2,703819,,,,,,,,blue,,,null,object_08c.png,object_14c.png,,,,,,,,,,,,,,,,,,,,,
null,,rt_thecrossant_black2,705071,,,,,,,,black_plus_sign,,,null,,,,,,,,,,NaN,,,,,,,,,,,,,
null,,color_black2,705179,,,,,,,,black_plus_sign,,,null,,,,,,,,,,,,,,,,,,,,,,,
null,,learn_phase(without_color)2,708687,,,,,,,,black_plus_sign,,,null,object_03c.png,object_15a.png,,,,,,,,,,,,,,,,,,,,,
null,,black_cross(without_color)2,709617,,,,,,,,blue,,,null,object_03c.png,object_15a.png,,,,,,,,,,,,,,,,,,,,,
null,,rt_plussign_withcolor2,710134,,,,,,,,blue,,,null,object_03c.png,object_15a.png,,,,,,,,,,,,,,,,,,,,,
null,,rt_thecrossant_black2,711210,,,,,,,,black_plus_sign,,,null,,,,,,,,,,NaN,,,,,,,,,,,,,
null,,warning_page,716218,,,,,,,,warning,,,null,,,,,,,,,,,,,,,,,,,,,,,
null,,color_black2,716322,,,,,,,,black_plus_sign,,,null,,,,,,,,,,,,,,,,,,,,,,,
null,,learn_phase(without_color)2,719836,,,,,,,,black_plus_sign,,,null,object_13a.png,object_09a.png,,,,,,,,,,,,,,,,,,,,,
null,,black_cross(without_color)2,720718,,,,,,,,green,,,null,object_13a.png,object_09a.png,,,,,,,,,,,,,,,,,,,,,
null,,rt_plussign_withcolor2,721227,,,,,,,,green,,,null,object_13a.png,object_09a.png,,,,,,,,,,,,,,,,,,,,,
null,,rt_thecrossant_black2,722359,,,,,,,,black_plus_sign,,,null,,,,,,,,,,NaN,,,,,,,,,,,,,
null,,warning_page,727365,,,,,,,,warning,,,null,,,,,,,,,,,,,,,,,,,,,,,
null,,color_black2,727472,,,,,,,,black_plus_sign,,,null,,,,,,,,,,,,,,,,,,,,,,,
null,,learn_phase(without_color)2,730984,,,,,,,,black_plus_sign,,,null,object_10c.png,object_09b.png,,,,,,,,,,,,,,,,,,,,,
null,,black_cross(without_color)2,731709,,,,,,,,blue,,,null,object_10c.png,object_09b.png,,,,,,,,,,,,,,,,,,,,,
null,,rt_plussign_withcolor2,732212,,,,,,,,blue,,,null,object_10c.png,object_09b.png,,,,,,,,,,,,,,,,,,,,,
1175.2000000476837,,rt_thecrossant_black2,733514,,,,,,,,black_plus_sign,,,49,,,1,,,,,,,1,,,,,,,,,,,,,
null,,color_black2,733622,,,,,,,,black_plus_sign,,,null,,,,,,,,,,,,,,,,,,,,,,,
null,,learn_phase(without_color)2,737127,,,,,,,,black_plus_sign,,,null,object_07c.png,object_13a.png,,,,,,,,,,,,,,,,,,,,,
null,,black_cross(without_color)2,737799,,,,,,,,green,,,null,object_07c.png,object_13a.png,,,,,,,,,,,,,,,,,,,,,
null,,rt_plussign_withcolor2,738311,,,,,,,,green,,,null,object_07c.png,object_13a.png,,,,,,,,,,,,,,,,,,,,,
1196,,rt_thecrossant_black2,739661,,,,,,,,black_plus_sign,,,50,,,1,,,,,,,1,,,,,,,,,,,,,
null,,color_black2,739772,,,,,,,,black_plus_sign,,,null,,,,,,,,,,,,,,,,,,,,,,,
null,,learn_phase(without_color)2,743277,,,,,,,,black_plus_sign,,,null,object_01a.png,object_08a.png,,,,,,,,,,,,,,,,,,,,,
null,,black_cross(without_color)2,744348,,,,,,,,blue,,,null,object_01a.png,object_08a.png,,,,,,,,,,,,,,,,,,,,,
null,,rt_plussign_withcolor2,744865,,,,,,,,blue,,,null,object_01a.png,object_08a.png,,,,,,,,,,,,,,,,,,,,,
983.8000000715256,,rt_thecrossant_black2,745813,,,,,,,,black_plus_sign,,,49,,,1,,,,,,,1,,,,,,,,,,,,,
null,,color_black2,745924,,,,,,,,black_plus_sign,,,null,,,,,,,,,,,,,,,,,,,,,,,
null,,learn_phase(without_color)2,749437,,,,,,,,black_plus_sign,,,null,object_07a.png,object_05a.png,,,,,,,,,,,,,,,,,,,,,
null,,black_cross(without_color)2,750518,,,,,,,,green,,,null,object_07a.png,object_05a.png,,,,,,,,,,,,,,,,,,,,,
null,,rt_plussign_withcolor2,751033,,,,,,,,green,,,null,object_07a.png,object_05a.png,,,,,,,,,,,,,,,,,,,,,
1218.4000000953674,,rt_thecrossant_black2,751967,,,,,,,,black_plus_sign,,,50,,,1,,,,,,,1,,,,,,,,,,,,,
null,,color_black2,752072,,,,,,,,black_plus_sign,,,null,,,,,,,,,,,,,,,,,,,,,,,
null,,learn_phase(without_color)2,755586,,,,,,,,black_plus_sign,,,null,object_13b.png,object_12b.png,,,,,,,,,,,,,,,,,,,,,
null,,black_cross(without_color)2,756680,,,,,,,,green,,,null,object_13b.png,object_12b.png,,,,,,,,,,,,,,,,,,,,,
469.89999997615814,,rt_plussign_withcolor2,757193,,,,,,,,green,,,50,object_13b.png,object_12b.png,,,,,,,,,,,,,,,,,,,,,
null,,rt_thecrossant_black2,758119,,,,,,,,black_plus_sign,,,null,,,1,,,,,,,1,,,,,,,,,,,,,
null,,color_black2,758223,,,,,,,,black_plus_sign,,,null,,,,,,,,,,,,,,,,,,,,,,,
null,,learn_phase(without_color)2,761739,,,,,,,,black_plus_sign,,,null,object_04a.png,object_13b.png,,,,,,,,,,,,,,,,,,,,,
null,,black_cross(without_color)2,762275,,,,,,,,green,,,null,object_04a.png,object_13b.png,,,,,,,,,,,,,,,,,,,,,
null,,rt_plussign_withcolor2,762791,,,,,,,,green,,,null,object_04a.png,object_13b.png,,,,,,,,,,,,,,,,,,,,,
1608.1000000238419,,rt_thecrossant_black2,764277,,,,,,,,black_plus_sign,,,50,,,1,,,,,,,1,,,,,,,,,,,,,
null,,color_black2,764391,,,,,,,,black_plus_sign,,,null,,,,,,,,,,,,,,,,,,,,,,,
null,,learn_phase(without_color)2,767901,,,,,,,,black_plus_sign,,,null,object_12c.png,object_09c.png,,,,,,,,,,,,,,,,,,,,,
null,,black_cross(without_color)2,768870,,,,,,,,blue,,,null,object_12c.png,object_09c.png,,,,,,,,,,,,,,,,,,,,,
null,,rt_plussign_withcolor2,769383,,,,,,,,blue,,,null,object_12c.png,object_09c.png,,,,,,,,,,,,,,,,,,,,,
772.6999999284744,,rt_thecrossant_black2,770434,,,,,,,,black_plus_sign,,,49,,,1,,,,,,,1,,,,,,,,,,,,,
null,,color_black2,770543,,,,,,,,black_plus_sign,,,null,,,,,,,,,,,,,,,,,,,,,,,
null,,learn_phase(without_color)2,774050,,,,,,,,black_plus_sign,,,null,object_05a.png,object_15b.png,,,,,,,,,,,,,,,,,,,,,
null,,black_cross(without_color)2,775125,,,,,,,,blue,,,null,object_05a.png,object_15b.png,,,,,,,,,,,,,,,,,,,,,
null,,rt_plussign_withcolor2,775634,,,,,,,,blue,,,null,object_05a.png,object_15b.png,,,,,,,,,,,,,,,,,,,,,
1312,,rt_thecrossant_black2,776571,,,,,,,,black_plus_sign,,,49,,,1,,,,,,,1,,,,,,,,,,,,,
null,,color_black2,776677,,,,,,,,black_plus_sign,,,null,,,,,,,,,,,,,,,,,,,,,,,
null,,learn_phase(without_color)2,780195,,,,,,,,black_plus_sign,,,null,object_11a.png,object_05b.png,,,,,,,,,,,,,,,,,,,,,
null,,black_cross(without_color)2,780800,,,,,,,,blue,,,null,object_11a.png,object_05b.png,,,,,,,,,,,,,,,,,,,,,
null,,rt_plussign_withcolor2,781302,,,,,,,,blue,,,null,object_11a.png,object_05b.png,,,,,,,,,,,,,,,,,,,,,
1311.8000000715256,,rt_thecrossant_black2,782707,,,,,,,,black_plus_sign,,,49,,,1,,,,,,,1,,,,,,,,,,,,,
null,,color_black2,782811,,,,,,,,black_plus_sign,,,null,,,,,,,,,,,,,,,,,,,,,,,
null,,learn_phase(without_color)2,786327,,,,,,,,black_plus_sign,,,null,object_14a.png,object_03c.png,,,,,,,,,,,,,,,,,,,,,
null,,black_cross(without_color)2,787291,,,,,,,,green,,,null,object_14a.png,object_03c.png,,,,,,,,,,,,,,,,,,,,,
null,,rt_plussign_withcolor2,787801,,,,,,,,green,,,null,object_14a.png,object_03c.png,,,,,,,,,,,,,,,,,,,,,
820.1999999284744,,rt_thecrossant_black2,788851,,,,,,,,black_plus_sign,,,50,,,1,,,,,,,1,,,,,,,,,,,,,
null,,color_black2,788962,,,,,,,,black_plus_sign,,,null,,,,,,,,,,,,,,,,,,,,,,,
null,,learn_phase(without_color)2,792467,,,,,,,,black_plus_sign,,,null,object_06a.png,object_12c.png,,,,,,,,,,,,,,,,,,,,,
null,,black_cross(without_color)2,793309,,,,,,,,blue,,,null,object_06a.png,object_12c.png,,,,,,,,,,,,,,,,,,,,,
null,,rt_plussign_withcolor2,793822,,,,,,,,blue,,,null,object_06a.png,object_12c.png,,,,,,,,,,,,,,,,,,,,,
1204.7000000476837,,rt_thecrossant_black2,795012,,,,,,,,black_plus_sign,,,49,,,1,,,,,,,1,,,,,,,,,,,,,
null,,color_black2,795127,,,,,,,,black_plus_sign,,,null,,,,,,,,,,,,,,,,,,,,,,,
null,,learn_phase(without_color)2,798638,,,,,,,,black_plus_sign,,,null,object_06c.png,object_11a.png,,,,,,,,,,,,,,,,,,,,,
null,,black_cross(without_color)2,799419,,,,,,,,blue,,,null,object_06c.png,object_11a.png,,,,,,,,,,,,,,,,,,,,,
null,,rt_plussign_withcolor2,799928,,,,,,,,blue,,,null,object_06c.png,object_11a.png,,,,,,,,,,,,,,,,,,,,,
1185.1000000238419,,rt_thecrossant_black2,801158,,,,,,,,black_plus_sign,,,49,,,1,,,,,,,1,,,,,,,,,,,,,
null,,color_black2,801262,,,,,,,,black_plus_sign,,,null,,,,,,,,,,,,,,,,,,,,,,,
null,,learn_phase(without_color)2,804778,,,,,,,,black_plus_sign,,,null,object_07b.png,object_12a.png,,,,,,,,,,,,,,,,,,,,,
null,,black_cross(without_color)2,805574,,,,,,,,green,,,null,object_07b.png,object_12a.png,,,,,,,,,,,,,,,,,,,,,
null,,rt_plussign_withcolor2,806080,,,,,,,,green,,,null,object_07b.png,object_12a.png,,,,,,,,,,,,,,,,,,,,,
1085.3999999761581,,rt_thecrossant_black2,807302,,,,,,,,black_plus_sign,,,50,,,1,,,,,,,1,,,,,,,,,,,,,
null,,color_black2,807413,,,,,,,,black_plus_sign,,,null,,,,,,,,,,,,,,,,,,,,,,,
null,,learn_phase(without_color)2,810919,,,,,,,,black_plus_sign,,,null,object_03b.png,object_08b.png,,,,,,,,,,,,,,,,,,,,,
null,,black_cross(without_color)2,811520,,,,,,,,blue,,,null,object_03b.png,object_08b.png,,,,,,,,,,,,,,,,,,,,,
null,,rt_plussign_withcolor2,812023,,,,,,,,blue,,,null,object_03b.png,object_08b.png,,,,,,,,,,,,,,,,,,,,,
1056.8999999761581,,rt_thecrossant_black2,813444,,,,,,,,black_plus_sign,,,49,,,1,,,,,,,1,,,,,,,,,,,,,
null,,color_black2,813547,,,,,,,,black_plus_sign,,,null,,,,,,,,,,,,,,,,,,,,,,,
null,,learn_phase(without_color)2,817060,,,,,,,,black_plus_sign,,,null,object_03a.png,object_13c.png,,,,,,,,,,,,,,,,,,,,,
null,,black_cross(without_color)2,817962,,,,,,,,green,,,null,object_03a.png,object_13c.png,,,,,,,,,,,,,,,,,,,,,
null,,rt_plussign_withcolor2,818472,,,,,,,,green,,,null,object_03a.png,object_13c.png,,,,,,,,,,,,,,,,,,,,,
854,,rt_thecrossant_black2,819589,,,,,,,,black_plus_sign,,,50,,,1,,,,,,,1,,,,,,,,,,,,,
null,,color_black2,819698,,,,,,,,black_plus_sign,,,null,,,,,,,,,,,,,,,,,,,,,,,
null,,learn_phase(without_color)2,823210,,,,,,,,black_plus_sign,,,null,object_06b.png,object_01c.png,,,,,,,,,,,,,,,,,,,,,
null,,black_cross(without_color)2,823674,,,,,,,,blue,,,null,object_06b.png,object_01c.png,,,,,,,,,,,,,,,,,,,,,
null,,rt_plussign_withcolor2,824187,,,,,,,,blue,,,null,object_06b.png,object_01c.png,,,,,,,,,,,,,,,,,,,,,
1330.7000000476837,,rt_thecrossant_black2,825733,,,,,,,,black_plus_sign,,,49,,,1,,,,,,,1,,,,,,,,,,,,,
null,,color_black2,825849,,,,,,,,black_plus_sign,,,null,,,,,,,,,,,,,,,,,,,,,,,
null,,learn_phase(without_color)2,829357,,,,,,,,black_plus_sign,,,null,object_10a.png,object_02b.png,,,,,,,,,,,,,,,,,,,,,
null,,black_cross(without_color)2,830037,,,,,,,,green,,,null,object_10a.png,object_02b.png,,,,,,,,,,,,,,,,,,,,,
null,,rt_plussign_withcolor2,830541,,,,,,,,green,,,null,object_10a.png,object_02b.png,,,,,,,,,,,,,,,,,,,,,
695.6000000238419,,rt_thecrossant_black2,831882,,,,,,,,black_plus_sign,,,49,,,0,,,,,,,0.9411764705882353,,,,,,,,,,,,,
null,,color_black2,831984,,,,,,,,black_plus_sign,,,null,,,,,,,,,,,,,,,,,,,,,,,
null,,learn_phase(without_color)2,835498,,,,,,,,black_plus_sign,,,null,object_08b.png,object_14b.png,,,,,,,,,,,,,,,,,,,,,
null,,black_cross(without_color)2,836233,,,,,,,,green,,,null,object_08b.png,object_14b.png,,,,,,,,,,,,,,,,,,,,,
null,,rt_plussign_withcolor2,836739,,,,,,,,green,,,null,object_08b.png,object_14b.png,,,,,,,,,,,,,,,,,,,,,
1087.6000000238419,,rt_thecrossant_black2,838038,,,,,,,,black_plus_sign,,,50,,,1,,,,,,,0.9444444444444444,,,,,,,,,,,,,
null,,color_black2,838150,,,,,,,,black_plus_sign,,,null,,,,,,,,,,,,,,,,,,,,,,,
null,,learn_phase(without_color)2,841663,,,,,,,,black_plus_sign,,,null,object_02b.png,object_15c.png,,,,,,,,,,,,,,,,,,,,,
null,,black_cross(without_color)2,842147,,,,,,,,green,,,null,object_02b.png,object_15c.png,,,,,,,,,,,,,,,,,,,,,
null,,rt_plussign_withcolor2,842660,,,,,,,,green,,,null,object_02b.png,object_15c.png,,,,,,,,,,,,,,,,,,,,,
953.8999999761581,,rt_thecrossant_black2,844194,,,,,,,,black_plus_sign,,,50,,,1,,,,,,,0.9473684210526315,,,,,,,,,,,,,
null,,color_black2,844301,,,,,,,,black_plus_sign,,,null,,,,,,,,,,,,,,,,,,,,,,,
null,,learn_phase(without_color)2,847814,,,,,,,,black_plus_sign,,,null,object_01b.png,object_06b.png,,,,,,,,,,,,,,,,,,,,,
null,,black_cross(without_color)2,848519,,,,,,,,green,,,null,object_01b.png,object_06b.png,,,,,,,,,,,,,,,,,,,,,
null,,rt_plussign_withcolor2,849026,,,,,,,,green,,,null,object_01b.png,object_06b.png,,,,,,,,,,,,,,,,,,,,,
745.2000000476837,,rt_thecrossant_black2,850352,,,,,,,,black_plus_sign,,,50,,,1,,,,,,,0.95,,,,,,,,,,,,,
null,,color_black2,850468,,,,,,,,black_plus_sign,,,null,,,,,,,,,,,,,,,,,,,,,,,
null,,learn_phase(without_color)2,853975,,,,,,,,black_plus_sign,,,null,object_05c.png,object_11c.png,,,,,,,,,,,,,,,,,,,,,
null,,black_cross(without_color)2,854497,,,,,,,,blue,,,null,object_05c.png,object_11c.png,,,,,,,,,,,,,,,,,,,,,
null,,rt_plussign_withcolor2,855009,,,,,,,,blue,,,null,object_05c.png,object_11c.png,,,,,,,,,,,,,,,,,,,,,
1413.1000000238419,,rt_thecrossant_black2,856511,,,,,,,,black_plus_sign,,,49,,,1,,,,,,,0.9523809523809523,,,,,,,,,,,,,
null,,color_black2,856619,,,,,,,,black_plus_sign,,,null,,,,,,,,,,,,,,,,,,,,,,,
null,,learn_phase(without_color)2,860134,,,,,,,,black_plus_sign,,,null,object_11c.png,object_04c.png,,,,,,,,,,,,,,,,,,,,,
null,,black_cross(without_color)2,861100,,,,,,,,blue,,,null,object_11c.png,object_04c.png,,,,,,,,,,,,,,,,,,,,,
null,,rt_plussign_withcolor2,861602,,,,,,,,blue,,,null,object_11c.png,object_04c.png,,,,,,,,,,,,,,,,,,,,,
635.1000000238419,,rt_thecrossant_black2,862660,,,,,,,,black_plus_sign,,,49,,,1,,,,,,,0.9545454545454546,,,,,,,,,,,,,
null,,color_black2,862769,,,,,,,,black_plus_sign,,,null,,,,,,,,,,,,,,,,,,,,,,,
null,,learn_phase(without_color)2,866276,,,,,,,,black_plus_sign,,,null,object_13c.png,object_11b.png,,,,,,,,,,,,,,,,,,,,,
null,,black_cross(without_color)2,866959,,,,,,,,blue,,,null,object_13c.png,object_11b.png,,,,,,,,,,,,,,,,,,,,,
null,,rt_plussign_withcolor2,867465,,,,,,,,blue,,,null,object_13c.png,object_11b.png,,,,,,,,,,,,,,,,,,,,,
1400,,rt_thecrossant_black2,868792,,,,,,,,black_plus_sign,,,49,,,1,,,,,,,0.9565217391304348,,,,,,,,,,,,,
null,,color_black2,868903,,,,,,,,black_plus_sign,,,null,,,,,,,,,,,,,,,,,,,,,,,
null,,learn_phase(without_color)2,872410,,,,,,,,black_plus_sign,,,null,object_14c.png,object_02a.png,,,,,,,,,,,,,,,,,,,,,
null,,black_cross(without_color)2,872835,,,,,,,,blue,,,null,object_14c.png,object_02a.png,,,,,,,,,,,,,,,,,,,,,
null,,rt_plussign_withcolor2,873344,,,,,,,,blue,,,null,object_14c.png,object_02a.png,,,,,,,,,,,,,,,,,,,,,
null,,rt_thecrossant_black2,874944,,,,,,,,black_plus_sign,,,null,,,,,,,,,,0.9565217391304348,,,,,,,,,,,,,
null,,color_black2,875055,,,,,,,,black_plus_sign,,,null,,,,,,,,,,,,,,,,,,,,,,,
null,,learn_phase(without_color)2,878558,,,,,,,,black_plus_sign,,,null,object_09b.png,object_04b.png,,,,,,,,,,,,,,,,,,,,,
null,,black_cross(without_color)2,879047,,,,,,,,green,,,null,object_09b.png,object_04b.png,,,,,,,,,,,,,,,,,,,,,
null,,rt_plussign_withcolor2,879550,,,,,,,,green,,,null,object_09b.png,object_04b.png,,,,,,,,,,,,,,,,,,,,,
1055.8999999761581,,rt_thecrossant_black2,881092,,,,,,,,black_plus_sign,,,50,,,1,,,,,,,0.9583333333333334,,,,,,,,,,,,,
null,,color_black2,881205,,,,,,,,black_plus_sign,,,null,,,,,,,,,,,,,,,,,,,,,,,
null,,learn_phase(without_color)2,884709,,,,,,,,black_plus_sign,,,null,object_02c.png,object_01a.png,,,,,,,,,,,,,,,,,,,,,
null,,black_cross(without_color)2,885446,,,,,,,,green,,,null,object_02c.png,object_01a.png,,,,,,,,,,,,,,,,,,,,,
null,,rt_plussign_withcolor2,885964,,,,,,,,green,,,null,object_02c.png,object_01a.png,,,,,,,,,,,,,,,,,,,,,
736.8000000715256,,rt_thecrossant_black2,887256,,,,,,,,black_plus_sign,,,50,,,1,,,,,,,0.96,,,,,,,,,,,,,
null,,color_black2,887373,,,,,,,,black_plus_sign,,,null,,,,,,,,,,,,,,,,,,,,,,,
null,,learn_phase(without_color)2,890882,,,,,,,,black_plus_sign,,,null,object_10b.png,object_07b.png,,,,,,,,,,,,,,,,,,,,,
null,,black_cross(without_color)2,891658,,,,,,,,blue,,,null,object_10b.png,object_07b.png,,,,,,,,,,,,,,,,,,,,,
null,,rt_plussign_withcolor2,892165,,,,,,,,blue,,,null,object_10b.png,object_07b.png,,,,,,,,,,,,,,,,,,,,,
1244.5,,rt_thecrossant_black2,893400,,,,,,,,black_plus_sign,,,49,,,1,,,,,,,0.9615384615384616,,,,,,,,,,,,,
null,,color_black2,893507,,,,,,,,black_plus_sign,,,null,,,,,,,,,,,,,,,,,,,,,,,
null,,thebreak,893621,,,,,,,,<p></p>,,,null,,,,,,,,,,,,,,,,,,,,,,,
2958.899999976158,,intro_0,896584,,,,,,,,instruct,,,32,,,,,,,,,,,,,,,,,,,,,,,
3087.5,,directmemory_phase2,899674,,,,,,,,object_15c.png,,,50,,,0,,object_06b.png,object_11a.png,object_02b.png,object_02b.png,,0.2903225806451613,,0,,,,,,,,,,,
3079,,directmemory_phase2,902754,,,,,,,,object_13c.png,,,51,,,0,,object_02c.png,object_03a.png,object_06c.png,object_03a.png,,0.28125,,0,,,,,,,,,,,
2429,,directmemory_phase2,905186,,,,,,,,object_12a.png,,,50,,,1,,object_12c.png,object_07b.png,object_11a.png,object_07b.png,,0.30303030303030304,,1,,,,,,,,,,,
3126.2000000476837,,directmemory_phase2,908314,,,,,,,,object_14c.png,,,50,,,1,,object_10c.png,object_08c.png,object_06a.png,object_08c.png,,0.3235294117647059,,1,,,,,,,,,,,
3695.399999976158,,directmemory_phase2,912012,,,,,,,,object_12c.png,,,51,,,1,,object_14a.png,object_04a.png,object_06a.png,object_06a.png,,0.34285714285714286,,1,,,,,,,,,,,
2117.0999999046326,,directmemory_phase2,914131,,,,,,,,object_01c.png,,,49,,,0,,object_08b.png,object_12c.png,object_06b.png,object_06b.png,,0.3333333333333333,,0,,,,,,,,,,,
2918.8000000715256,,directmemory_phase2,917051,,,,,,,,object_14b.png,,,51,,,1,,object_13b.png,object_07b.png,object_08b.png,object_08b.png,,0.35135135135135137,,1,,,,,,,,,,,
2782.2000000476837,,directmemory_phase2,919835,,,,,,,,object_05a.png,,,51,,,1,,object_06a.png,object_04a.png,object_07a.png,object_07a.png,,0.3684210526315789,,1,,,,,,,,,,,
2453.100000023842,,directmemory_phase2,922290,,,,,,,,object_02a.png,,,50,,,1,,object_13b.png,object_14c.png,object_13a.png,object_14c.png,,0.38461538461538464,,1,,,,,,,,,,,
3287.2000000476837,,directmemory_phase2,925579,,,,,,,,object_09c.png,,,50,,,0,,object_11a.png,object_13b.png,object_12c.png,object_12c.png,,0.375,,0,,,,,,,,,,,
3206.899999976158,,directmemory_phase2,928787,,,,,,,,object_11a.png,,,50,,,0,,object_06c.png,object_10c.png,object_07c.png,object_06c.png,,0.36585365853658536,,0,,,,,,,,,,,
3246.5,,directmemory_phase2,932036,,,,,,,,object_04b.png,,,49,,,0,,object_14c.png,object_13b.png,object_09b.png,object_09b.png,,0.35714285714285715,,0,,,,,,,,,,,
2646.3000000715256,,directmemory_phase2,934684,,,,,,,,object_09a.png,,,51,,,0,,object_13a.png,object_06b.png,object_02b.png,object_13a.png,,0.3488372093023256,,0,,,,,,,,,,,
3079.7999999523163,,directmemory_phase2,937766,,,,,,,,object_05b.png,,,51,,,1,,object_13a.png,object_06b.png,object_11a.png,object_11a.png,,0.36363636363636365,,1,,,,,,,,,,,
3085.3000000715256,,directmemory_phase2,940853,,,,,,,,object_15a.png,,,49,,,1,,object_03c.png,object_11c.png,object_01a.png,object_03c.png,,0.37777777777777777,,1,,,,,,,,,,,
3262.2999999523163,,directmemory_phase2,944117,,,,,,,,object_11b.png,,,49,,,0,,object_05a.png,object_13c.png,object_13a.png,object_13c.png,,0.3695652173913043,,0,,,,,,,,,,,
3503.1999999284744,,directmemory_phase2,947622,,,,,,,,object_12b.png,,,50,,,0,,object_07b.png,object_12c.png,object_13b.png,object_13b.png,,0.3617021276595745,,0,,,,,,,,,,,
3020.8000000715256,,directmemory_phase2,950644,,,,,,,,object_13a.png,,,50,,,1,,object_10a.png,object_07c.png,object_02c.png,object_07c.png,,0.375,,1,,,,,,,,,,,
3223.399999976158,,directmemory_phase2,953870,,,,,,,,object_08b.png,,,50,,,1,,object_07a.png,object_03b.png,object_08c.png,object_03b.png,,0.3877551020408163,,1,,,,,,,,,,,
3398,,directmemory_phase2,957270,,,,,,,,object_15b.png,,,51,,,0,,object_05a.png,object_06b.png,object_03c.png,object_05a.png,,0.38,,0,,,,,,,,,,,
2846.5,,directmemory_phase2,960118,,,,,,,,object_13b.png,,,49,,,0,,object_01b.png,object_02c.png,object_04a.png,object_04a.png,,0.37254901960784315,,0,,,,,,,,,,,
3060.6999999284744,,directmemory_phase2,963181,,,,,,,,object_07b.png,,,51,,,1,,object_07c.png,object_06a.png,object_10b.png,object_10b.png,,0.38461538461538464,,1,,,,,,,,,,,
1471.8000000715256,,directmemory_phase2,964655,,,,,,,,object_01a.png,,,51,,,1,,object_03b.png,object_10c.png,object_02c.png,object_02c.png,,0.39622641509433965,,1,,,,,,,,,,,
2885.9000000953674,,directmemory_phase2,967543,,,,,,,,object_04c.png,,,51,,,0,,object_09b.png,object_11c.png,object_02b.png,object_11c.png,,0.3888888888888889,,0,,,,,,,,,,,
3253.600000023842,,directmemory_phase2,970798,,,,,,,,object_11c.png,,,50,,,0,,object_05c.png,object_06a.png,object_07c.png,object_05c.png,,0.38181818181818183,,0,,,,,,,,,,,
2654.7000000476837,,directmemory_phase2,973454,,,,,,,,object_08a.png,,,50,,,0,,object_05a.png,object_11c.png,object_01a.png,object_01a.png,,0.375,,0,,,,,,,,,,,
3086.3000000715256,,directmemory_phase2,976542,,,,,,,,object_03c.png,,,49,,,1,,object_14a.png,object_06c.png,object_03b.png,object_14a.png,,0.38596491228070173,,1,,,,,,,,,,,
2750.2999999523163,,directmemory_phase2,979294,,,,,,,,object_09b.png,,,49,,,1,,object_10c.png,object_06c.png,object_02c.png,object_10c.png,,0.39655172413793105,,1,,,,,,,,,,,
2974.9000000953674,,directmemory_phase2,982270,,,,,,,,object_06b.png,,,51,,,1,,object_10c.png,object_07c.png,object_01b.png,object_01b.png,,0.4067796610169492,,1,,,,,,,,,,,
2312.2000000476837,,directmemory_phase2,984584,,,,,,,,object_02b.png,,,51,,,0,,object_03b.png,object_10a.png,object_06a.png,object_10a.png,,0.4,,0,,,,,,,,,,,
null,,thebreak,984702,,,,,,,,<p></p>,,,null,,,,,,,,,,,,,,,,,,,,,,,
1785.1000000238419,,intro_0,986488,,,,,,,,instruct,,,32,,,,,,,,,,,,,,,,,,,,,,,
null,,learn_phase(without_color)3,990004,,,,,,,,black_plus_sign,,,null,object_12c.png,object_09c.png,,,,,,,,,,,,,,,,,,,,,
null,,black_cross(without_color)3,990800,,,,,,,,blue,,,null,object_12c.png,object_09c.png,,,,,,,,,,,,,,,,,,,,,
null,,rt_plussign_withcolor3,991306,,,,,,,,blue,,,null,object_12c.png,object_09c.png,,,,,,,,,,,,,,,,,,,,,
1504.8999999761581,,rt_thecrossant_black3,992536,,,,,,,,black_plus_sign,,,49,,,1,,,,,,,1,,,,,,,,,,,,,
null,,color_black3,992648,,,,,,,,black_plus_sign,,,null,,,,,,,,,,,,,,,,,,,,,,,
null,,learn_phase(without_color)3,996157,,,,,,,,black_plus_sign,,,null,object_02b.png,object_15c.png,,,,,,,,,,,,,,,,,,,,,
null,,black_cross(without_color)3,997129,,,,,,,,green,,,null,object_02b.png,object_15c.png,,,,,,,,,,,,,,,,,,,,,
null,,rt_plussign_withcolor3,997637,,,,,,,,green,,,null,object_02b.png,object_15c.png,,,,,,,,,,,,,,,,,,,,,
1247.6000000238419,,rt_thecrossant_black3,998686,,,,,,,,black_plus_sign,,,50,,,1,,,,,,,1,,,,,,,,,,,,,
null,,color_black3,998800,,,,,,,,black_plus_sign,,,null,,,,,,,,,,,,,,,,,,,,,,,
null,,learn_phase(without_color)3,1002306,,,,,,,,black_plus_sign,,,null,object_11a.png,object_05b.png,,,,,,,,,,,,,,,,,,,,,
null,,black_cross(without_color)3,1003132,,,,,,,,blue,,,null,object_11a.png,object_05b.png,,,,,,,,,,,,,,,,,,,,,
null,,rt_plussign_withcolor3,1003641,,,,,,,,blue,,,null,object_11a.png,object_05b.png,,,,,,,,,,,,,,,,,,,,,
1710.6000000238419,,rt_thecrossant_black3,1004843,,,,,,,,black_plus_sign,,,49,,,1,,,,,,,1,,,,,,,,,,,,,
null,,color_black3,1004948,,,,,,,,black_plus_sign,,,null,,,,,,,,,,,,,,,,,,,,,,,
null,,learn_phase(without_color)3,1008467,,,,,,,,black_plus_sign,,,null,object_06b.png,object_01c.png,,,,,,,,,,,,,,,,,,,,,
null,,black_cross(without_color)3,1009477,,,,,,,,blue,,,null,object_06b.png,object_01c.png,,,,,,,,,,,,,,,,,,,,,
null,,rt_plussign_withcolor3,1009989,,,,,,,,blue,,,null,object_06b.png,object_01c.png,,,,,,,,,,,,,,,,,,,,,
1696,,rt_thecrossant_black3,1010997,,,,,,,,black_plus_sign,,,49,,,1,,,,,,,1,,,,,,,,,,,,,
null,,color_black3,1011101,,,,,,,,black_plus_sign,,,null,,,,,,,,,,,,,,,,,,,,,,,
null,,learn_phase(without_color)3,1014614,,,,,,,,black_plus_sign,,,null,object_05c.png,object_11c.png,,,,,,,,,,,,,,,,,,,,,
null,,black_cross(without_color)3,1015322,,,,,,,,blue,,,null,object_05c.png,object_11c.png,,,,,,,,,,,,,,,,,,,,,
null,,rt_plussign_withcolor3,1015832,,,,,,,,blue,,,null,object_05c.png,object_11c.png,,,,,,,,,,,,,,,,,,,,,
1354.2999999523163,,rt_thecrossant_black3,1017136,,,,,,,,black_plus_sign,,,49,,,1,,,,,,,1,,,,,,,,,,,,,
null,,color_black3,1017250,,,,,,,,black_plus_sign,,,null,,,,,,,,,,,,,,,,,,,,,,,
null,,learn_phase(without_color)3,1020756,,,,,,,,black_plus_sign,,,null,object_11c.png,object_04c.png,,,,,,,,,,,,,,,,,,,,,
null,,black_cross(without_color)3,1021602,,,,,,,,green,,,null,object_11c.png,object_04c.png,,,,,,,,,,,,,,,,,,,,,
null,,rt_plussign_withcolor3,1022117,,,,,,,,green,,,null,object_11c.png,object_04c.png,,,,,,,,,,,,,,,,,,,,,
1318.8999999761581,,rt_thecrossant_black3,1023298,,,,,,,,black_plus_sign,,,50,,,1,,,,,,,1,,,,,,,,,,,,,
null,,color_black3,1023416,,,,,,,,black_plus_sign,,,null,,,,,,,,,,,,,,,,,,,,,,,
null,,learn_phase(without_color)3,1026919,,,,,,,,black_plus_sign,,,null,object_14a.png,object_03c.png,,,,,,,,,,,,,,,,,,,,,
null,,black_cross(without_color)3,1027667,,,,,,,,blue,,,null,object_14a.png,object_03c.png,,,,,,,,,,,,,,,,,,,,,
null,,rt_plussign_withcolor3,1028177,,,,,,,,blue,,,null,object_14a.png,object_03c.png,,,,,,,,,,,,,,,,,,,,,
1067.2000000476837,,rt_thecrossant_black3,1029452,,,,,,,,black_plus_sign,,,49,,,1,,,,,,,1,,,,,,,,,,,,,
null,,color_black3,1029569,,,,,,,,black_plus_sign,,,null,,,,,,,,,,,,,,,,,,,,,,,
null,,learn_phase(without_color)3,1033085,,,,,,,,black_plus_sign,,,null,object_06c.png,object_11a.png,,,,,,,,,,,,,,,,,,,,,
null,,black_cross(without_color)3,1033966,,,,,,,,green,,,null,object_06c.png,object_11a.png,,,,,,,,,,,,,,,,,,,,,
null,,rt_plussign_withcolor3,1034478,,,,,,,,green,,,null,object_06c.png,object_11a.png,,,,,,,,,,,,,,,,,,,,,
1070.6000000238419,,rt_thecrossant_black3,1035631,,,,,,,,black_plus_sign,,,50,,,1,,,,,,,1,,,,,,,,,,,,,
null,,color_black3,1035736,,,,,,,,black_plus_sign,,,null,,,,,,,,,,,,,,,,,,,,,,,
null,,learn_phase(without_color)3,1039254,,,,,,,,black_plus_sign,,,null,object_03a.png,object_13c.png,,,,,,,,,,,,,,,,,,,,,
null,,black_cross(without_color)3,1039813,,,,,,,,blue,,,null,object_03a.png,object_13c.png,,,,,,,,,,,,,,,,,,,,,
null,,rt_plussign_withcolor3,1040330,,,,,,,,blue,,,null,object_03a.png,object_13c.png,,,,,,,,,,,,,,,,,,,,,
1544.7999999523163,,rt_thecrossant_black3,1041799,,,,,,,,black_plus_sign,,,49,,,1,,,,,,,1,,,,,,,,,,,,,
null,,color_black3,1041904,,,,,,,,black_plus_sign,,,null,,,,,,,,,,,,,,,,,,,,,,,
null,,learn_phase(without_color)3,1045421,,,,,,,,black_plus_sign,,,null,object_14c.png,object_02a.png,,,,,,,,,,,,,,,,,,,,,
null,,black_cross(without_color)3,1045849,,,,,,,,blue,,,null,object_14c.png,object_02a.png,,,,,,,,,,,,,,,,,,,,,
null,,rt_plussign_withcolor3,1046364,,,,,,,,blue,,,null,object_14c.png,object_02a.png,,,,,,,,,,,,,,,,,,,,,
1072.3999999761581,,rt_thecrossant_black3,1047954,,,,,,,,black_plus_sign,,,49,,,1,,,,,,,1,,,,,,,,,,,,,
null,,color_black3,1048071,,,,,,,,black_plus_sign,,,null,,,,,,,,,,,,,,,,,,,,,,,
null,,learn_phase(without_color)3,1051590,,,,,,,,black_plus_sign,,,null,object_08c.png,object_14c.png,,,,,,,,,,,,,,,,,,,,,
null,,black_cross(without_color)3,1052111,,,,,,,,blue,,,null,object_08c.png,object_14c.png,,,,,,,,,,,,,,,,,,,,,
null,,rt_plussign_withcolor3,1052614,,,,,,,,blue,,,null,object_08c.png,object_14c.png,,,,,,,,,,,,,,,,,,,,,
910.8000000715256,,rt_thecrossant_black3,1054123,,,,,,,,black_plus_sign,,,49,,,1,,,,,,,1,,,,,,,,,,,,,
null,,color_black3,1054238,,,,,,,,black_plus_sign,,,null,,,,,,,,,,,,,,,,,,,,,,,
null,,learn_phase(without_color)3,1057741,,,,,,,,black_plus_sign,,,null,object_07a.png,object_05a.png,,,,,,,,,,,,,,,,,,,,,
null,,black_cross(without_color)3,1058360,,,,,,,,green,,,null,object_07a.png,object_05a.png,,,,,,,,,,,,,,,,,,,,,
null,,rt_plussign_withcolor3,1058864,,,,,,,,green,,,null,object_07a.png,object_05a.png,,,,,,,,,,,,,,,,,,,,,
997.7000000476837,,rt_thecrossant_black3,1060265,,,,,,,,black_plus_sign,,,50,,,1,,,,,,,1,,,,,,,,,,,,,
null,,color_black3,1060373,,,,,,,,black_plus_sign,,,null,,,,,,,,,,,,,,,,,,,,,,,
null,,learn_phase(without_color)3,1063877,,,,,,,,black_plus_sign,,,null,object_13c.png,object_11b.png,,,,,,,,,,,,,,,,,,,,,
null,,black_cross(without_color)3,1064350,,,,,,,,blue,,,null,object_13c.png,object_11b.png,,,,,,,,,,,,,,,,,,,,,
null,,rt_plussign_withcolor3,1064860,,,,,,,,blue,,,null,object_13c.png,object_11b.png,,,,,,,,,,,,,,,,,,,,,
817.1000000238419,,rt_thecrossant_black3,1066398,,,,,,,,black_plus_sign,,,49,,,1,,,,,,,1,,,,,,,,,,,,,
null,,color_black3,1066506,,,,,,,,black_plus_sign,,,null,,,,,,,,,,,,,,,,,,,,,,,
null,,learn_phase(without_color)3,1070014,,,,,,,,black_plus_sign,,,null,object_03c.png,object_15a.png,,,,,,,,,,,,,,,,,,,,,
null,,black_cross(without_color)3,1070598,,,,,,,,blue,,,null,object_03c.png,object_15a.png,,,,,,,,,,,,,,,,,,,,,
null,,rt_plussign_withcolor3,1071115,,,,,,,,blue,,,null,object_03c.png,object_15a.png,,,,,,,,,,,,,,,,,,,,,
1072.8999999761581,,rt_thecrossant_black3,1072549,,,,,,,,black_plus_sign,,,49,,,1,,,,,,,1,,,,,,,,,,,,,
null,,color_black3,1072657,,,,,,,,black_plus_sign,,,null,,,,,,,,,,,,,,,,,,,,,,,
null,,learn_phase(without_color)3,1076169,,,,,,,,black_plus_sign,,,null,object_01b.png,object_06b.png,,,,,,,,,,,,,,,,,,,,,
null,,black_cross(without_color)3,1077055,,,,,,,,green,,,null,object_01b.png,object_06b.png,,,,,,,,,,,,,,,,,,,,,
null,,rt_plussign_withcolor3,1077565,,,,,,,,green,,,null,object_01b.png,object_06b.png,,,,,,,,,,,,,,,,,,,,,
918.8000000715256,,rt_thecrossant_black3,1078694,,,,,,,,black_plus_sign,,,50,,,1,,,,,,,1,,,,,,,,,,,,,
null,,color_black3,1078808,,,,,,,,black_plus_sign,,,null,,,,,,,,,,,,,,,,,,,,,,,
null,,learn_phase(without_color)3,1082313,,,,,,,,black_plus_sign,,,null,object_02c.png,object_01a.png,,,,,,,,,,,,,,,,,,,,,
null,,black_cross(without_color)3,1083125,,,,,,,,green,,,null,object_02c.png,object_01a.png,,,,,,,,,,,,,,,,,,,,,
null,,rt_plussign_withcolor3,1083629,,,,,,,,green,,,null,object_02c.png,object_01a.png,,,,,,,,,,,,,,,,,,,,,
1804.1999999284744,,rt_thecrossant_black3,1084833,,,,,,,,black_plus_sign,,,50,,,1,,,,,,,1,,,,,,,,,,,,,
null,,color_black3,1084941,,,,,,,,black_plus_sign,,,null,,,,,,,,,,,,,,,,,,,,,,,
null,,learn_phase(without_color)3,1088459,,,,,,,,black_plus_sign,,,null,object_09b.png,object_04b.png,,,,,,,,,,,,,,,,,,,,,
null,,black_cross(without_color)3,1089320,,,,,,,,blue,,,null,object_09b.png,object_04b.png,,,,,,,,,,,,,,,,,,,,,
null,,rt_plussign_withcolor3,1089832,,,,,,,,blue,,,null,object_09b.png,object_04b.png,,,,,,,,,,,,,,,,,,,,,
1324.7000000476837,,rt_thecrossant_black3,1090983,,,,,,,,black_plus_sign,,,49,,,1,,,,,,,1,,,,,,,,,,,,,
null,,color_black3,1091092,,,,,,,,black_plus_sign,,,null,,,,,,,,,,,,,,,,,,,,,,,
null,,learn_phase(without_color)3,1094609,,,,,,,,black_plus_sign,,,null,object_07b.png,object_12a.png,,,,,,,,,,,,,,,,,,,,,
null,,black_cross(without_color)3,1095426,,,,,,,,blue,,,null,object_07b.png,object_12a.png,,,,,,,,,,,,,,,,,,,,,
null,,rt_plussign_withcolor3,1095934,,,,,,,,blue,,,null,object_07b.png,object_12a.png,,,,,,,,,,,,,,,,,,,,,
1659.6000000238419,,rt_thecrossant_black3,1097129,,,,,,,,black_plus_sign,,,49,,,1,,,,,,,1,,,,,,,,,,,,,
null,,color_black3,1097243,,,,,,,,black_plus_sign,,,null,,,,,,,,,,,,,,,,,,,,,,,
null,,learn_phase(without_color)3,1100747,,,,,,,,black_plus_sign,,,null,object_10a.png,object_02b.png,,,,,,,,,,,,,,,,,,,,,
null,,black_cross(without_color)3,1101756,,,,,,,,green,,,null,object_10a.png,object_02b.png,,,,,,,,,,,,,,,,,,,,,
null,,rt_plussign_withcolor3,1102261,,,,,,,,green,,,null,object_10a.png,object_02b.png,,,,,,,,,,,,,,,,,,,,,
1016.2999999523163,,rt_thecrossant_black3,1103280,,,,,,,,black_plus_sign,,,50,,,1,,,,,,,1,,,,,,,,,,,,,
null,,color_black3,1103393,,,,,,,,black_plus_sign,,,null,,,,,,,,,,,,,,,,,,,,,,,
null,,learn_phase(without_color)3,1106910,,,,,,,,black_plus_sign,,,null,object_07c.png,object_13a.png,,,,,,,,,,,,,,,,,,,,,
null,,black_cross(without_color)3,1107904,,,,,,,,green,,,null,object_07c.png,object_13a.png,,,,,,,,,,,,,,,,,,,,,
null,,rt_plussign_withcolor3,1108417,,,,,,,,green,,,null,object_07c.png,object_13a.png,,,,,,,,,,,,,,,,,,,,,
1136.1000000238419,,rt_thecrossant_black3,1109450,,,,,,,,black_plus_sign,,,50,,,1,,,,,,,1,,,,,,,,,,,,,
null,,color_black3,1109561,,,,,,,,black_plus_sign,,,null,,,,,,,,,,,,,,,,,,,,,,,
null,,learn_phase(without_color)3,1113070,,,,,,,,black_plus_sign,,,null,object_01a.png,object_08a.png,,,,,,,,,,,,,,,,,,,,,
null,,black_cross(without_color)3,1113829,,,,,,,,blue,,,null,object_01a.png,object_08a.png,,,,,,,,,,,,,,,,,,,,,
null,,rt_plussign_withcolor3,1114336,,,,,,,,blue,,,null,object_01a.png,object_08a.png,,,,,,,,,,,,,,,,,,,,,
1708.9000000953674,,rt_thecrossant_black3,1115604,,,,,,,,black_plus_sign,,,49,,,1,,,,,,,1,,,,,,,,,,,,,
null,,color_black3,1115713,,,,,,,,black_plus_sign,,,null,,,,,,,,,,,,,,,,,,,,,,,
null,,learn_phase(without_color)3,1119220,,,,,,,,black_plus_sign,,,null,object_06a.png,object_12c.png,,,,,,,,,,,,,,,,,,,,,
null,,black_cross(without_color)3,1119913,,,,,,,,green,,,null,object_06a.png,object_12c.png,,,,,,,,,,,,,,,,,,,,,
null,,rt_plussign_withcolor3,1120418,,,,,,,,green,,,null,object_06a.png,object_12c.png,,,,,,,,,,,,,,,,,,,,,
1494.2000000476837,,rt_thecrossant_black3,1121746,,,,,,,,black_plus_sign,,,50,,,1,,,,,,,1,,,,,,,,,,,,,
null,,color_black3,1121864,,,,,,,,black_plus_sign,,,null,,,,,,,,,,,,,,,,,,,,,,,
null,,learn_phase(without_color)3,1125380,,,,,,,,black_plus_sign,,,null,object_04a.png,object_13b.png,,,,,,,,,,,,,,,,,,,,,
null,,black_cross(without_color)3,1126157,,,,,,,,green,,,null,object_04a.png,object_13b.png,,,,,,,,,,,,,,,,,,,,,
null,,rt_plussign_withcolor3,1126670,,,,,,,,green,,,null,object_04a.png,object_13b.png,,,,,,,,,,,,,,,,,,,,,
1367.8000000715256,,rt_thecrossant_black3,1127912,,,,,,,,black_plus_sign,,,50,,,1,,,,,,,1,,,,,,,,,,,,,
null,,color_black3,1128029,,,,,,,,black_plus_sign,,,null,,,,,,,,,,,,,,,,,,,,,,,
null,,learn_phase(without_color)3,1131545,,,,,,,,black_plus_sign,,,null,object_13b.png,object_12b.png,,,,,,,,,,,,,,,,,,,,,
null,,black_cross(without_color)3,1132383,,,,,,,,blue,,,null,object_13b.png,object_12b.png,,,,,,,,,,,,,,,,,,,,,
null,,rt_plussign_withcolor3,1132888,,,,,,,,blue,,,null,object_13b.png,object_12b.png,,,,,,,,,,,,,,,,,,,,,
1347,,rt_thecrossant_black3,1134062,,,,,,,,black_plus_sign,,,49,,,1,,,,,,,1,,,,,,,,,,,,,
null,,color_black3,1134179,,,,,,,,black_plus_sign,,,null,,,,,,,,,,,,,,,,,,,,,,,
null,,learn_phase(without_color)3,1137683,,,,,,,,black_plus_sign,,,null,object_10c.png,object_09b.png,,,,,,,,,,,,,,,,,,,,,
null,,black_cross(without_color)3,1138174,,,,,,,,blue,,,null,object_10c.png,object_09b.png,,,,,,,,,,,,,,,,,,,,,
null,,rt_plussign_withcolor3,1138689,,,,,,,,blue,,,null,object_10c.png,object_09b.png,,,,,,,,,,,,,,,,,,,,,
null,,rt_thecrossant_black3,1140232,,,,,,,,black_plus_sign,,,null,,,,,,,,,,1,,,,,,,,,,,,,
null,,color_black3,1140349,,,,,,,,black_plus_sign,,,null,,,,,,,,,,,,,,,,,,,,,,,
null,,learn_phase(without_color)3,1143862,,,,,,,,black_plus_sign,,,null,object_03b.png,object_08b.png,,,,,,,,,,,,,,,,,,,,,
null,,black_cross(without_color)3,1144710,,,,,,,,green,,,null,object_03b.png,object_08b.png,,,,,,,,,,,,,,,,,,,,,
null,,rt_plussign_withcolor3,1145223,,,,,,,,green,,,null,object_03b.png,object_08b.png,,,,,,,,,,,,,,,,,,,,,
849.1999999284744,,rt_thecrossant_black3,1146395,,,,,,,,black_plus_sign,,,50,,,1,,,,,,,1,,,,,,,,,,,,,
null,,color_black3,1146499,,,,,,,,black_plus_sign,,,null,,,,,,,,,,,,,,,,,,,,,,,
null,,learn_phase(without_color)3,1150003,,,,,,,,black_plus_sign,,,null,object_13a.png,object_09a.png,,,,,,,,,,,,,,,,,,,,,
null,,black_cross(without_color)3,1151040,,,,,,,,green,,,null,object_13a.png,object_09a.png,,,,,,,,,,,,,,,,,,,,,
null,,rt_plussign_withcolor3,1151555,,,,,,,,green,,,null,object_13a.png,object_09a.png,,,,,,,,,,,,,,,,,,,,,
1120.7000000476837,,rt_thecrossant_black3,1152540,,,,,,,,black_plus_sign,,,50,,,1,,,,,,,1,,,,,,,,,,,,,
null,,color_black3,1152649,,,,,,,,black_plus_sign,,,null,,,,,,,,,,,,,,,,,,,,,,,
null,,learn_phase(without_color)3,1156165,,,,,,,,black_plus_sign,,,null,object_10b.png,object_07b.png,,,,,,,,,,,,,,,,,,,,,
null,,black_cross(without_color)3,1156643,,,,,,,,blue,,,null,object_10b.png,object_07b.png,,,,,,,,,,,,,,,,,,,,,
null,,rt_plussign_withcolor3,1157152,,,,,,,,blue,,,null,object_10b.png,object_07b.png,,,,,,,,,,,,,,,,,,,,,
1731.6000000238419,,rt_thecrossant_black3,1158689,,,,,,,,black_plus_sign,,,49,,,1,,,,,,,1,,,,,,,,,,,,,
null,,color_black3,1158799,,,,,,,,black_plus_sign,,,null,,,,,,,,,,,,,,,,,,,,,,,
null,,learn_phase(without_color)3,1162310,,,,,,,,black_plus_sign,,,null,object_08b.png,object_14b.png,,,,,,,,,,,,,,,,,,,,,
null,,black_cross(without_color)3,1163135,,,,,,,,green,,,null,object_08b.png,object_14b.png,,,,,,,,,,,,,,,,,,,,,
null,,rt_plussign_withcolor3,1163646,,,,,,,,green,,,null,object_08b.png,object_14b.png,,,,,,,,,,,,,,,,,,,,,
782.7999999523163,,rt_thecrossant_black3,1164837,,,,,,,,black_plus_sign,,,50,,,1,,,,,,,1,,,,,,,,,,,,,
null,,color_black3,1164950,,,,,,,,black_plus_sign,,,null,,,,,,,,,,,,,,,,,,,,,,,
null,,learn_phase(without_color)3,1168454,,,,,,,,black_plus_sign,,,null,object_05a.png,object_15b.png,,,,,,,,,,,,,,,,,,,,,
null,,black_cross(without_color)3,1169474,,,,,,,,blue,,,null,object_05a.png,object_15b.png,,,,,,,,,,,,,,,,,,,,,
null,,rt_plussign_withcolor3,1169977,,,,,,,,blue,,,null,object_05a.png,object_15b.png,,,,,,,,,,,,,,,,,,,,,
1147.2000000476837,,rt_thecrossant_black3,1170978,,,,,,,,black_plus_sign,,,49,,,1,,,,,,,1,,,,,,,,,,,,,
null,,color_black3,1171084,,,,,,,,black_plus_sign,,,null,,,,,,,,,,,,,,,,,,,,,,,
null,,thebreak,1171201,,,,,,,,<p></p>,,,null,,,,,,,,,,,,,,,,,,,,,,,
2130.7000000476837,,intro_0,1173333,,,,,,,,instruct,,,32,,,,,,,,,,,,,,,,,,,,,,,
3559.100000023842,,directmemory_phase3,1176894,,,,,,,,object_11c.png,,,51,,,0,,object_06c.png,object_05c.png,object_03b.png,object_05c.png,,0.39344262295081966,,0,,,,,,,,,,,
3286.2000000476837,,directmemory_phase3,1180182,,,,,,,,object_03c.png,,,51,,,0,,object_14a.png,object_06c.png,object_07a.png,object_14a.png,,0.3870967741935484,,0,,,,,,,,,,,
3246.899999976158,,directmemory_phase3,1183431,,,,,,,,object_15b.png,,,50,,,1,,object_09b.png,object_05a.png,object_13b.png,object_05a.png,,0.3968253968253968,,1,,,,,,,,,,,
2461.7000000476837,,directmemory_phase3,1185895,,,,,,,,object_13c.png,,,49,,,0,,object_06c.png,object_06a.png,object_03a.png,object_03a.png,,0.390625,,0,,,,,,,,,,,
2605.1999999284744,,directmemory_phase3,1188502,,,,,,,,object_04c.png,,,51,,,0,,object_11c.png,object_11a.png,object_02b.png,object_11c.png,,0.38461538461538464,,0,,,,,,,,,,,
1885.3000000715256,,directmemory_phase3,1190390,,,,,,,,object_04b.png,,,51,,,1,,object_01a.png,object_02b.png,object_09b.png,object_09b.png,,0.3939393939393939,,1,,,,,,,,,,,
3271.7999999523163,,directmemory_phase3,1193663,,,,,,,,object_09c.png,,,49,,,0,,object_09b.png,object_12c.png,object_07b.png,object_12c.png,,0.3880597014925373,,0,,,,,,,,,,,
2461.600000023842,,directmemory_phase3,1196127,,,,,,,,object_13a.png,,,49,,,1,,object_07c.png,object_04a.png,object_06c.png,object_07c.png,,0.39705882352941174,,1,,,,,,,,,,,
3622.7999999523163,,directmemory_phase3,1199751,,,,,,,,object_14c.png,,,50,,,0,,object_02c.png,object_07c.png,object_08c.png,object_08c.png,,0.391304347826087,,0,,,,,,,,,,,
2397.899999976158,,directmemory_phase3,1202151,,,,,,,,object_08a.png,,,50,,,1,,object_05a.png,object_01a.png,object_11a.png,object_01a.png,,0.4,,1,,,,,,,,,,,
2685.1999999284744,,directmemory_phase3,1204839,,,,,,,,object_05a.png,,,51,,,1,,object_14a.png,object_10c.png,object_07a.png,object_07a.png,,0.4084507042253521,,1,,,,,,,,,,,
2543.7000000476837,,directmemory_phase3,1207384,,,,,,,,object_12c.png,,,49,,,1,,object_06a.png,object_07c.png,object_01b.png,object_06a.png,,0.4166666666666667,,1,,,,,,,,,,,
2989.5,,directmemory_phase3,1210376,,,,,,,,object_02a.png,,,51,,,1,,object_11a.png,object_09b.png,object_14c.png,object_14c.png,,0.4246575342465753,,1,,,,,,,,,,,
2213.7000000476837,,directmemory_phase3,1212592,,,,,,,,object_02b.png,,,49,,,1,,object_10a.png,object_03b.png,object_01b.png,object_10a.png,,0.43243243243243246,,1,,,,,,,,,,,
2134,,directmemory_phase3,1214728,,,,,,,,object_11a.png,,,49,,,0,,object_14a.png,object_06c.png,object_08c.png,object_06c.png,,0.4266666666666667,,0,,,,,,,,,,,
2838.5,,directmemory_phase3,1217569,,,,,,,,object_11b.png,,,49,,,1,,object_13c.png,object_08b.png,object_14c.png,object_13c.png,,0.4342105263157895,,1,,,,,,,,,,,
1381.5,,directmemory_phase3,1218952,,,,,,,,object_01a.png,,,49,,,1,,object_02c.png,object_01b.png,object_07a.png,object_02c.png,,0.44155844155844154,,1,,,,,,,,,,,
2127.0999999046326,,directmemory_phase3,1221081,,,,,,,,object_13b.png,,,49,,,1,,object_04a.png,object_10c.png,object_08c.png,object_04a.png,,0.44871794871794873,,1,,,,,,,,,,,
2877.5,,directmemory_phase3,1223960,,,,,,,,object_07b.png,,,51,,,1,,object_02c.png,object_10c.png,object_10b.png,object_10b.png,,0.45569620253164556,,1,,,,,,,,,,,
2414.7000000476837,,directmemory_phase3,1226377,,,,,,,,object_09a.png,,,51,,,1,,object_13b.png,object_02b.png,object_13a.png,object_13a.png,,0.4625,,1,,,,,,,,,,,
2734.2000000476837,,directmemory_phase3,1229113,,,,,,,,object_15a.png,,,49,,,0,,object_06b.png,object_02b.png,object_03c.png,object_03c.png,,0.4567901234567901,,0,,,,,,,,,,,
2509.899999976158,,directmemory_phase3,1231626,,,,,,,,object_05b.png,,,51,,,0,,object_11a.png,object_12c.png,object_13b.png,object_11a.png,,0.45121951219512196,,0,,,,,,,,,,,
2102,,directmemory_phase3,1233729,,,,,,,,object_09b.png,,,51,,,1,,object_14a.png,object_10b.png,object_10c.png,object_10c.png,,0.4578313253012048,,1,,,,,,,,,,,
2366.899999976158,,directmemory_phase3,1236098,,,,,,,,object_08b.png,,,51,,,1,,object_07c.png,object_04a.png,object_03b.png,object_03b.png,,0.4642857142857143,,1,,,,,,,,,,,
2150,,directmemory_phase3,1238250,,,,,,,,object_12a.png,,,50,,,1,,object_02b.png,object_07b.png,object_11c.png,object_07b.png,,0.47058823529411764,,1,,,,,,,,,,,
2726.4000000953674,,directmemory_phase3,1240979,,,,,,,,object_15c.png,,,51,,,0,,object_03c.png,object_02b.png,object_12c.png,object_02b.png,,0.46511627906976744,,0,,,,,,,,,,,
3157.7999999523163,,directmemory_phase3,1244138,,,,,,,,object_01c.png,,,51,,,1,,object_13a.png,object_12c.png,object_06b.png,object_06b.png,,0.47126436781609193,,1,,,,,,,,,,,
2150.399999976158,,directmemory_phase3,1246291,,,,,,,,object_12b.png,,,51,,,1,,object_07b.png,object_14c.png,object_13b.png,object_13b.png,,0.4772727272727273,,1,,,,,,,,,,,
1885.3999999761581,,directmemory_phase3,1248179,,,,,,,,object_14b.png,,,50,,,1,,object_02b.png,object_08b.png,object_14c.png,object_08b.png,,0.48314606741573035,,1,,,,,,,,,,,
2069.6999999284744,,directmemory_phase3,1250250,,,,,,,,object_06b.png,,,50,,,0,,object_01b.png,object_07c.png,object_08c.png,object_01b.png,,0.4777777777777778,,0,,,,,,,,,,,
null,,thebreak,1250361,,,,,,,,<p></p>,,,null,,,,,,,,,,,,,,,,,,,,,,,
2152.2999999523163,,intro_0,1252515,,,,,,,,instruct,,,32,,,,,,,,,,,,,,,,,,,,,,,
null,,learn_phase(without_color)4,1256027,,,,,,,,black_plus_sign,,,null,object_06b.png,object_01c.png,,,,,,,,,,,,,,,,,,,,,
null,,black_cross(without_color)4,1257032,,,,,,,,blue,,,null,object_06b.png,object_01c.png,,,,,,,,,,,,,,,,,,,,,
null,,rt_plussign_withcolor4,1257549,,,,,,,,blue,,,null,object_06b.png,object_01c.png,,,,,,,,,,,,,,,,,,,,,
1395.8999999761581,,rt_thecrossant_black4,1258557,,,,,,,,black_plus_sign,,,50,,,0,,,,,,,0,,,,,,,,,,,,,
null,,color_black4,1258673,,,,,,,,black_plus_sign,,,null,,,,,,,,,,,,,,,,,,,,,,,
null,,learn_phase(without_color)4,1262192,,,,,,,,black_plus_sign,,,null,object_03a.png,object_13c.png,,,,,,,,,,,,,,,,,,,,,
null,,black_cross(without_color)4,1262780,,,,,,,,blue,,,null,object_03a.png,object_13c.png,,,,,,,,,,,,,,,,,,,,,
null,,rt_plussign_withcolor4,1263285,,,,,,,,blue,,,null,object_03a.png,object_13c.png,,,,,,,,,,,,,,,,,,,,,
1940.7000000476837,,rt_thecrossant_black4,1264726,,,,,,,,black_plus_sign,,,49,,,1,,,,,,,0.5,,,,,,,,,,,,,
null,,color_black4,1264841,,,,,,,,black_plus_sign,,,null,,,,,,,,,,,,,,,,,,,,,,,
null,,learn_phase(without_color)4,1268357,,,,,,,,black_plus_sign,,,null,object_07a.png,object_05a.png,,,,,,,,,,,,,,,,,,,,,
null,,black_cross(without_color)4,1269449,,,,,,,,blue,,,null,object_07a.png,object_05a.png,,,,,,,,,,,,,,,,,,,,,
null,,rt_plussign_withcolor4,1269964,,,,,,,,blue,,,null,object_07a.png,object_05a.png,,,,,,,,,,,,,,,,,,,,,
970.3999999761581,,rt_thecrossant_black4,1270895,,,,,,,,black_plus_sign,,,49,,,1,,,,,,,0.6666666666666666,,,,,,,,,,,,,
null,,color_black4,1271007,,,,,,,,black_plus_sign,,,null,,,,,,,,,,,,,,,,,,,,,,,
null,,learn_phase(without_color)4,1274514,,,,,,,,black_plus_sign,,,null,object_13c.png,object_11b.png,,,,,,,,,,,,,,,,,,,,,
null,,black_cross(without_color)4,1275569,,,,,,,,green,,,null,object_13c.png,object_11b.png,,,,,,,,,,,,,,,,,,,,,
null,,rt_plussign_withcolor4,1276081,,,,,,,,green,,,null,object_13c.png,object_11b.png,,,,,,,,,,,,,,,,,,,,,
1415.7000000476837,,rt_thecrossant_black4,1277052,,,,,,,,black_plus_sign,,,50,,,1,,,,,,,0.75,,,,,,,,,,,,,
null,,color_black4,1277159,,,,,,,,black_plus_sign,,,null,,,,,,,,,,,,,,,,,,,,,,,
null,,learn_phase(without_color)4,1280669,,,,,,,,black_plus_sign,,,null,object_09b.png,object_04b.png,,,,,,,,,,,,,,,,,,,,,
null,,black_cross(without_color)4,1281146,,,,,,,,blue,,,null,object_09b.png,object_04b.png,,,,,,,,,,,,,,,,,,,,,
null,,rt_plussign_withcolor4,1281658,,,,,,,,blue,,,null,object_09b.png,object_04b.png,,,,,,,,,,,,,,,,,,,,,
1496.1999999284744,,rt_thecrossant_black4,1283199,,,,,,,,black_plus_sign,,,49,,,1,,,,,,,0.8,,,,,,,,,,,,,
null,,color_black4,1283309,,,,,,,,black_plus_sign,,,null,,,,,,,,,,,,,,,,,,,,,,,
null,,learn_phase(without_color)4,1286815,,,,,,,,black_plus_sign,,,null,object_13b.png,object_12b.png,,,,,,,,,,,,,,,,,,,,,
null,,black_cross(without_color)4,1287383,,,,,,,,green,,,null,object_13b.png,object_12b.png,,,,,,,,,,,,,,,,,,,,,
null,,rt_plussign_withcolor4,1287898,,,,,,,,green,,,null,object_13b.png,object_12b.png,,,,,,,,,,,,,,,,,,,,,
862.1999999284744,,rt_thecrossant_black4,1289345,,,,,,,,black_plus_sign,,,50,,,1,,,,,,,0.8333333333333334,,,,,,,,,,,,,
null,,color_black4,1289461,,,,,,,,black_plus_sign,,,null,,,,,,,,,,,,,,,,,,,,,,,
null,,learn_phase(without_color)4,1292967,,,,,,,,black_plus_sign,,,null,object_14a.png,object_03c.png,,,,,,,,,,,,,,,,,,,,,
null,,black_cross(without_color)4,1293687,,,,,,,,blue,,,null,object_14a.png,object_03c.png,,,,,,,,,,,,,,,,,,,,,
null,,rt_plussign_withcolor4,1294202,,,,,,,,blue,,,null,object_14a.png,object_03c.png,,,,,,,,,,,,,,,,,,,,,
1042.7000000476837,,rt_thecrossant_black4,1295503,,,,,,,,black_plus_sign,,,49,,,1,,,,,,,0.8571428571428571,,,,,,,,,,,,,
null,,color_black4,1295611,,,,,,,,black_plus_sign,,,null,,,,,,,,,,,,,,,,,,,,,,,
null,,learn_phase(without_color)4,1299122,,,,,,,,black_plus_sign,,,null,object_10a.png,object_02b.png,,,,,,,,,,,,,,,,,,,,,
null,,black_cross(without_color)4,1300150,,,,,,,,green,,,null,object_10a.png,object_02b.png,,,,,,,,,,,,,,,,,,,,,
487.5,,rt_plussign_withcolor4,1300652,,,,,,,,green,,,50,object_10a.png,object_02b.png,,,,,,,,,,,,,,,,,,,,,
null,,rt_thecrossant_black4,1301635,,,,,,,,black_plus_sign,,,null,,,1,,,,,,,0.875,,,,,,,,,,,,,
null,,color_black4,1301745,,,,,,,,black_plus_sign,,,null,,,,,,,,,,,,,,,,,,,,,,,
null,,learn_phase(without_color)4,1305256,,,,,,,,black_plus_sign,,,null,object_13a.png,object_09a.png,,,,,,,,,,,,,,,,,,,,,
null,,black_cross(without_color)4,1306229,,,,,,,,blue,,,null,object_13a.png,object_09a.png,,,,,,,,,,,,,,,,,,,,,
null,,rt_plussign_withcolor4,1306737,,,,,,,,blue,,,null,object_13a.png,object_09a.png,,,,,,,,,,,,,,,,,,,,,
1165.2000000476837,,rt_thecrossant_black4,1307783,,,,,,,,black_plus_sign,,,49,,,1,,,,,,,0.8888888888888888,,,,,,,,,,,,,
null,,color_black4,1307896,,,,,,,,black_plus_sign,,,null,,,,,,,,,,,,,,,,,,,,,,,
null,,learn_phase(without_color)4,1311412,,,,,,,,black_plus_sign,,,null,object_05a.png,object_15b.png,,,,,,,,,,,,,,,,,,,,,
null,,black_cross(without_color)4,1312389,,,,,,,,blue,,,null,object_05a.png,object_15b.png,,,,,,,,,,,,,,,,,,,,,
null,,rt_plussign_withcolor4,1312902,,,,,,,,blue,,,null,object_05a.png,object_15b.png,,,,,,,,,,,,,,,,,,,,,
1119.7000000476837,,rt_thecrossant_black4,1313948,,,,,,,,black_plus_sign,,,49,,,1,,,,,,,0.9,,,,,,,,,,,,,
null,,color_black4,1314062,,,,,,,,black_plus_sign,,,null,,,,,,,,,,,,,,,,,,,,,,,
null,,learn_phase(without_color)4,1317583,,,,,,,,black_plus_sign,,,null,object_07c.png,object_13a.png,,,,,,,,,,,,,,,,,,,,,
null,,black_cross(without_color)4,1318090,,,,,,,,blue,,,null,object_07c.png,object_13a.png,,,,,,,,,,,,,,,,,,,,,
null,,rt_plussign_withcolor4,1318605,,,,,,,,blue,,,null,object_07c.png,object_13a.png,,,,,,,,,,,,,,,,,,,,,
1558.9000000953674,,rt_thecrossant_black4,1320130,,,,,,,,black_plus_sign,,,49,,,1,,,,,,,0.9090909090909091,,,,,,,,,,,,,
null,,color_black4,1320246,,,,,,,,black_plus_sign,,,null,,,,,,,,,,,,,,,,,,,,,,,
null,,learn_phase(without_color)4,1323759,,,,,,,,black_plus_sign,,,null,object_04a.png,object_13b.png,,,,,,,,,,,,,,,,,,,,,
null,,black_cross(without_color)4,1324724,,,,,,,,blue,,,null,object_04a.png,object_13b.png,,,,,,,,,,,,,,,,,,,,,
null,,rt_plussign_withcolor4,1325241,,,,,,,,blue,,,null,object_04a.png,object_13b.png,,,,,,,,,,,,,,,,,,,,,
1509.7999999523163,,rt_thecrossant_black4,1326294,,,,,,,,black_plus_sign,,,49,,,1,,,,,,,0.9166666666666666,,,,,,,,,,,,,
null,,color_black4,1326397,,,,,,,,black_plus_sign,,,null,,,,,,,,,,,,,,,,,,,,,,,
null,,learn_phase(without_color)4,1329902,,,,,,,,black_plus_sign,,,null,object_01a.png,object_08a.png,,,,,,,,,,,,,,,,,,,,,
null,,black_cross(without_color)4,1330392,,,,,,,,blue,,,null,object_01a.png,object_08a.png,,,,,,,,,,,,,,,,,,,,,
null,,rt_plussign_withcolor4,1330907,,,,,,,,blue,,,null,object_01a.png,object_08a.png,,,,,,,,,,,,,,,,,,,,,
1062.8999999761581,,rt_thecrossant_black4,1332441,,,,,,,,black_plus_sign,,,49,,,1,,,,,,,0.9230769230769231,,,,,,,,,,,,,
null,,color_black4,1332547,,,,,,,,black_plus_sign,,,null,,,,,,,,,,,,,,,,,,,,,,,
null,,learn_phase(without_color)4,1336053,,,,,,,,black_plus_sign,,,null,object_02b.png,object_15c.png,,,,,,,,,,,,,,,,,,,,,
null,,black_cross(without_color)4,1336687,,,,,,,,blue,,,null,object_02b.png,object_15c.png,,,,,,,,,,,,,,,,,,,,,
null,,rt_plussign_withcolor4,1337189,,,,,,,,blue,,,null,object_02b.png,object_15c.png,,,,,,,,,,,,,,,,,,,,,
846.5999999046326,,rt_thecrossant_black4,1338582,,,,,,,,black_plus_sign,,,49,,,1,,,,,,,0.9285714285714286,,,,,,,,,,,,,
null,,color_black4,1338697,,,,,,,,black_plus_sign,,,null,,,,,,,,,,,,,,,,,,,,,,,
null,,learn_phase(without_color)4,1342213,,,,,,,,black_plus_sign,,,null,object_10b.png,object_07b.png,,,,,,,,,,,,,,,,,,,,,
null,,black_cross(without_color)4,1343138,,,,,,,,blue,,,null,object_10b.png,object_07b.png,,,,,,,,,,,,,,,,,,,,,
null,,rt_plussign_withcolor4,1343644,,,,,,,,blue,,,null,object_10b.png,object_07b.png,,,,,,,,,,,,,,,,,,,,,
998.6000000238419,,rt_thecrossant_black4,1344744,,,,,,,,black_plus_sign,,,49,,,1,,,,,,,0.9333333333333333,,,,,,,,,,,,,
null,,color_black4,1344849,,,,,,,,black_plus_sign,,,null,,,,,,,,,,,,,,,,,,,,,,,
null,,learn_phase(without_color)4,1348357,,,,,,,,black_plus_sign,,,null,object_02c.png,object_01a.png,,,,,,,,,,,,,,,,,,,,,
null,,black_cross(without_color)4,1349116,,,,,,,,green,,,null,object_02c.png,object_01a.png,,,,,,,,,,,,,,,,,,,,,
null,,rt_plussign_withcolor4,1349624,,,,,,,,green,,,null,object_02c.png,object_01a.png,,,,,,,,,,,,,,,,,,,,,
1507.8999999761581,,rt_thecrossant_black4,1350895,,,,,,,,black_plus_sign,,,50,,,1,,,,,,,0.9375,,,,,,,,,,,,,
null,,color_black4,1350999,,,,,,,,black_plus_sign,,,null,,,,,,,,,,,,,,,,,,,,,,,
null,,learn_phase(without_color)4,1354506,,,,,,,,black_plus_sign,,,null,object_06a.png,object_12c.png,,,,,,,,,,,,,,,,,,,,,
null,,black_cross(without_color)4,1355434,,,,,,,,blue,,,null,object_06a.png,object_12c.png,,,,,,,,,,,,,,,,,,,,,
null,,rt_plussign_withcolor4,1355938,,,,,,,,blue,,,null,object_06a.png,object_12c.png,,,,,,,,,,,,,,,,,,,,,
1531.6000000238419,,rt_thecrossant_black4,1357028,,,,,,,,black_plus_sign,,,49,,,1,,,,,,,0.9411764705882353,,,,,,,,,,,,,
null,,color_black4,1357134,,,,,,,,black_plus_sign,,,null,,,,,,,,,,,,,,,,,,,,,,,
null,,learn_phase(without_color)4,1360647,,,,,,,,black_plus_sign,,,null,object_11c.png,object_04c.png,,,,,,,,,,,,,,,,,,,,,
null,,black_cross(without_color)4,1361675,,,,,,,,green,,,null,object_11c.png,object_04c.png,,,,,,,,,,,,,,,,,,,,,
null,,rt_plussign_withcolor4,1362192,,,,,,,,green,,,null,object_11c.png,object_04c.png,,,,,,,,,,,,,,,,,,,,,
1272.3999999761581,,rt_thecrossant_black4,1363181,,,,,,,,black_plus_sign,,,50,,,1,,,,,,,0.9444444444444444,,,,,,,,,,,,,
null,,color_black4,1363284,,,,,,,,black_plus_sign,,,null,,,,,,,,,,,,,,,,,,,,,,,
null,,learn_phase(without_color)4,1366795,,,,,,,,black_plus_sign,,,null,object_03c.png,object_15a.png,,,,,,,,,,,,,,,,,,,,,
null,,black_cross(without_color)4,1367567,,,,,,,,blue,,,null,object_03c.png,object_15a.png,,,,,,,,,,,,,,,,,,,,,
null,,rt_plussign_withcolor4,1368073,,,,,,,,blue,,,null,object_03c.png,object_15a.png,,,,,,,,,,,,,,,,,,,,,
1560.5,,rt_thecrossant_black4,1369327,,,,,,,,black_plus_sign,,,49,,,1,,,,,,,0.9473684210526315,,,,,,,,,,,,,
null,,color_black4,1369435,,,,,,,,black_plus_sign,,,null,,,,,,,,,,,,,,,,,,,,,,,
null,,learn_phase(without_color)4,1372946,,,,,,,,black_plus_sign,,,null,object_05c.png,object_11c.png,,,,,,,,,,,,,,,,,,,,,
null,,black_cross(without_color)4,1373686,,,,,,,,green,,,null,object_05c.png,object_11c.png,,,,,,,,,,,,,,,,,,,,,
null,,rt_plussign_withcolor4,1374192,,,,,,,,green,,,null,object_05c.png,object_11c.png,,,,,,,,,,,,,,,,,,,,,
1310.2000000476837,,rt_thecrossant_black4,1375479,,,,,,,,black_plus_sign,,,50,,,1,,,,,,,0.95,,,,,,,,,,,,,
null,,color_black4,1375585,,,,,,,,black_plus_sign,,,null,,,,,,,,,,,,,,,,,,,,,,,
null,,learn_phase(without_color)4,1379092,,,,,,,,black_plus_sign,,,null,object_01b.png,object_06b.png,,,,,,,,,,,,,,,,,,,,,
null,,black_cross(without_color)4,1379811,,,,,,,,blue,,,null,object_01b.png,object_06b.png,,,,,,,,,,,,,,,,,,,,,
null,,rt_plussign_withcolor4,1380328,,,,,,,,blue,,,null,object_01b.png,object_06b.png,,,,,,,,,,,,,,,,,,,,,
1189.0999999046326,,rt_thecrossant_black4,1381628,,,,,,,,black_plus_sign,,,49,,,1,,,,,,,0.9523809523809523,,,,,,,,,,,,,
null,,color_black4,1381736,,,,,,,,black_plus_sign,,,null,,,,,,,,,,,,,,,,,,,,,,,
null,,learn_phase(without_color)4,1385245,,,,,,,,black_plus_sign,,,null,object_08b.png,object_14b.png,,,,,,,,,,,,,,,,,,,,,
null,,black_cross(without_color)4,1386088,,,,,,,,green,,,null,object_08b.png,object_14b.png,,,,,,,,,,,,,,,,,,,,,
null,,rt_plussign_withcolor4,1386595,,,,,,,,green,,,null,object_08b.png,object_14b.png,,,,,,,,,,,,,,,,,,,,,
1043.1999999284744,,rt_thecrossant_black4,1387779,,,,,,,,black_plus_sign,,,50,,,1,,,,,,,0.9545454545454546,,,,,,,,,,,,,
null,,color_black4,1387887,,,,,,,,black_plus_sign,,,null,,,,,,,,,,,,,,,,,,,,,,,
null,,learn_phase(without_color)4,1391403,,,,,,,,black_plus_sign,,,null,object_11a.png,object_05b.png,,,,,,,,,,,,,,,,,,,,,
null,,black_cross(without_color)4,1392239,,,,,,,,green,,,null,object_11a.png,object_05b.png,,,,,,,,,,,,,,,,,,,,,
null,,rt_plussign_withcolor4,1392744,,,,,,,,green,,,null,object_11a.png,object_05b.png,,,,,,,,,,,,,,,,,,,,,
1106,,rt_thecrossant_black4,1393931,,,,,,,,black_plus_sign,,,50,,,1,,,,,,,0.9565217391304348,,,,,,,,,,,,,
null,,color_black4,1394037,,,,,,,,black_plus_sign,,,null,,,,,,,,,,,,,,,,,,,,,,,
null,,learn_phase(without_color)4,1397549,,,,,,,,black_plus_sign,,,null,object_07b.png,object_12a.png,,,,,,,,,,,,,,,,,,,,,
null,,black_cross(without_color)4,1398240,,,,,,,,green,,,null,object_07b.png,object_12a.png,,,,,,,,,,,,,,,,,,,,,
null,,rt_plussign_withcolor4,1398743,,,,,,,,green,,,null,object_07b.png,object_12a.png,,,,,,,,,,,,,,,,,,,,,
1451.2000000476837,,rt_thecrossant_black4,1400068,,,,,,,,black_plus_sign,,,50,,,1,,,,,,,0.9583333333333334,,,,,,,,,,,,,
null,,color_black4,1400170,,,,,,,,black_plus_sign,,,null,,,,,,,,,,,,,,,,,,,,,,,
null,,learn_phase(without_color)4,1403683,,,,,,,,black_plus_sign,,,null,object_03b.png,object_08b.png,,,,,,,,,,,,,,,,,,,,,
null,,black_cross(without_color)4,1404343,,,,,,,,green,,,null,object_03b.png,object_08b.png,,,,,,,,,,,,,,,,,,,,,
null,,rt_plussign_withcolor4,1404860,,,,,,,,green,,,null,object_03b.png,object_08b.png,,,,,,,,,,,,,,,,,,,,,
861.1999999284744,,rt_thecrossant_black4,1406231,,,,,,,,black_plus_sign,,,50,,,1,,,,,,,0.96,,,,,,,,,,,,,
null,,color_black4,1406339,,,,,,,,black_plus_sign,,,null,,,,,,,,,,,,,,,,,,,,,,,
null,,learn_phase(without_color)4,1409852,,,,,,,,black_plus_sign,,,null,object_12c.png,object_09c.png,,,,,,,,,,,,,,,,,,,,,
null,,black_cross(without_color)4,1410268,,,,,,,,blue,,,null,object_12c.png,object_09c.png,,,,,,,,,,,,,,,,,,,,,
null,,rt_plussign_withcolor4,1410778,,,,,,,,blue,,,null,object_12c.png,object_09c.png,,,,,,,,,,,,,,,,,,,,,
1003.5,,rt_thecrossant_black4,1412388,,,,,,,,black_plus_sign,,,49,,,1,,,,,,,0.9615384615384616,,,,,,,,,,,,,
null,,color_black4,1412491,,,,,,,,black_plus_sign,,,null,,,,,,,,,,,,,,,,,,,,,,,
null,,learn_phase(without_color)4,1415997,,,,,,,,black_plus_sign,,,null,object_08c.png,object_14c.png,,,,,,,,,,,,,,,,,,,,,
null,,black_cross(without_color)4,1417114,,,,,,,,green,,,null,object_08c.png,object_14c.png,,,,,,,,,,,,,,,,,,,,,
null,,rt_plussign_withcolor4,1417630,,,,,,,,green,,,null,object_08c.png,object_14c.png,,,,,,,,,,,,,,,,,,,,,
1015.1000000238419,,rt_thecrossant_black4,1418546,,,,,,,,black_plus_sign,,,50,,,1,,,,,,,0.9629629629629629,,,,,,,,,,,,,
null,,color_black4,1418657,,,,,,,,black_plus_sign,,,null,,,,,,,,,,,,,,,,,,,,,,,
null,,learn_phase(without_color)4,1422171,,,,,,,,black_plus_sign,,,null,object_14c.png,object_02a.png,,,,,,,,,,,,,,,,,,,,,
null,,black_cross(without_color)4,1423119,,,,,,,,green,,,null,object_14c.png,object_02a.png,,,,,,,,,,,,,,,,,,,,,
null,,rt_plussign_withcolor4,1423630,,,,,,,,green,,,null,object_14c.png,object_02a.png,,,,,,,,,,,,,,,,,,,,,
1711.5,,rt_thecrossant_black4,1424705,,,,,,,,black_plus_sign,,,50,,,1,,,,,,,0.9642857142857143,,,,,,,,,,,,,
null,,color_black4,1424822,,,,,,,,black_plus_sign,,,null,,,,,,,,,,,,,,,,,,,,,,,
null,,learn_phase(without_color)4,1428335,,,,,,,,black_plus_sign,,,null,object_06c.png,object_11a.png,,,,,,,,,,,,,,,,,,,,,
null,,black_cross(without_color)4,1429095,,,,,,,,green,,,null,object_06c.png,object_11a.png,,,,,,,,,,,,,,,,,,,,,
null,,rt_plussign_withcolor4,1429600,,,,,,,,green,,,null,object_06c.png,object_11a.png,,,,,,,,,,,,,,,,,,,,,
1510,,rt_thecrossant_black4,1430869,,,,,,,,black_plus_sign,,,50,,,1,,,,,,,0.9655172413793104,,,,,,,,,,,,,
null,,color_black4,1430974,,,,,,,,black_plus_sign,,,null,,,,,,,,,,,,,,,,,,,,,,,
null,,learn_phase(without_color)4,1434484,,,,,,,,black_plus_sign,,,null,object_10c.png,object_09b.png,,,,,,,,,,,,,,,,,,,,,
null,,black_cross(without_color)4,1435287,,,,,,,,blue,,,null,object_10c.png,object_09b.png,,,,,,,,,,,,,,,,,,,,,
null,,rt_plussign_withcolor4,1435795,,,,,,,,blue,,,null,object_10c.png,object_09b.png,,,,,,,,,,,,,,,,,,,,,
1229.6999999284744,,rt_thecrossant_black4,1437019,,,,,,,,black_plus_sign,,,49,,,1,,,,,,,0.9666666666666667,,,,,,,,,,,,,
null,,color_black4,1437132,,,,,,,,black_plus_sign,,,null,,,,,,,,,,,,,,,,,,,,,,,
null,,thebreak,1437240,,,,,,,,<p></p>,,,null,,,,,,,,,,,,,,,,,,,,,,,
1773.3999999761581,,intro_0,1439015,,,,,,,,instruct,,,32,,,,,,,,,,,,,,,,,,,,,,,
2640.5,,directmemory_phase4,1441658,,,,,,,,object_15b.png,,,50,,,1,,object_12c.png,object_05a.png,object_03c.png,object_05a.png,,0.4835164835164835,,1,,,,,,,,,,,
2851.2999999523163,,directmemory_phase4,1444512,,,,,,,,object_15a.png,,,51,,,0,,object_13b.png,object_03c.png,object_08b.png,object_03c.png,,0.4782608695652174,,0,,,,,,,,,,,
2428.7999999523163,,directmemory_phase4,1446944,,,,,,,,object_02b.png,,,51,,,1,,object_10b.png,object_06a.png,object_10a.png,object_10a.png,,0.4838709677419355,,1,,,,,,,,,,,
1766,,directmemory_phase4,1448712,,,,,,,,object_04b.png,,,50,,,1,,object_07b.png,object_09b.png,object_03c.png,object_09b.png,,0.48936170212765956,,1,,,,,,,,,,,
1966.5,,directmemory_phase4,1450682,,,,,,,,object_12b.png,,,49,,,1,,object_13b.png,object_06b.png,object_05a.png,object_13b.png,,0.49473684210526314,,1,,,,,,,,,,,
2461.899999976158,,directmemory_phase4,1453146,,,,,,,,object_09a.png,,,50,,,1,,object_13b.png,object_13a.png,object_05a.png,object_13a.png,,0.5,,1,,,,,,,,,,,
1829.2999999523163,,directmemory_phase4,1454977,,,,,,,,object_05a.png,,,51,,,1,,object_06a.png,object_03b.png,object_07a.png,object_07a.png,,0.5051546391752577,,1,,,,,,,,,,,
2545.2000000476837,,directmemory_phase4,1457524,,,,,,,,object_13a.png,,,50,,,1,,object_10b.png,object_07c.png,object_08c.png,object_07c.png,,0.5102040816326531,,1,,,,,,,,,,,
1835.7999999523163,,directmemory_phase4,1459362,,,,,,,,object_01a.png,,,51,,,1,,object_10b.png,object_01b.png,object_02c.png,object_02c.png,,0.5151515151515151,,1,,,,,,,,,,,
2710.2000000476837,,directmemory_phase4,1462074,,,,,,,,object_11b.png,,,49,,,0,,object_01a.png,object_05a.png,object_13c.png,object_13c.png,,0.51,,0,,,,,,,,,,,
3437.6999999284744,,directmemory_phase4,1465515,,,,,,,,object_13b.png,,,49,,,1,,object_04a.png,object_06c.png,object_14a.png,object_04a.png,,0.5148514851485149,,1,,,,,,,,,,,
3614.399999976158,,directmemory_phase4,1469131,,,,,,,,object_07b.png,,,50,,,1,,object_07c.png,object_10b.png,object_14a.png,object_10b.png,,0.5196078431372549,,1,,,,,,,,,,,
2836.8000000715256,,directmemory_phase4,1471970,,,,,,,,object_09b.png,,,51,,,0,,object_10c.png,object_14a.png,object_10b.png,object_10c.png,,0.5145631067961165,,0,,,,,,,,,,,
2966.5,,directmemory_phase4,1474939,,,,,,,,object_03c.png,,,50,,,1,,object_07a.png,object_14a.png,object_08c.png,object_14a.png,,0.5192307692307693,,1,,,,,,,,,,,
3118.1999999284744,,directmemory_phase4,1478059,,,,,,,,object_11c.png,,,49,,,0,,object_03b.png,object_05c.png,object_07c.png,object_05c.png,,0.5142857142857142,,0,,,,,,,,,,,
2967.1999999284744,,directmemory_phase4,1481029,,,,,,,,object_01c.png,,,50,,,0,,object_06b.png,object_07b.png,object_09b.png,object_06b.png,,0.5094339622641509,,0,,,,,,,,,,,
2748.6999999284744,,directmemory_phase4,1483780,,,,,,,,object_04c.png,,,50,,,1,,object_09b.png,object_11c.png,object_14c.png,object_11c.png,,0.514018691588785,,1,,,,,,,,,,,
2061.100000023842,,directmemory_phase4,1485843,,,,,,,,object_11a.png,,,50,,,1,,object_01b.png,object_06c.png,object_10b.png,object_06c.png,,0.5185185185185185,,1,,,,,,,,,,,
3367.0999999046326,,directmemory_phase4,1489212,,,,,,,,object_15c.png,,,49,,,0,,object_05a.png,object_02b.png,object_06b.png,object_02b.png,,0.5137614678899083,,0,,,,,,,,,,,
