rt,responses,trial_type,time_elapsed,identifier_a,identifier_b,identifier_c,tasktype,browser_type,local_time,UTC_time,stimulus,button_pressed,response,key_press,stimulus_left,stimulus_right,accuracy,practice_cumulative_accuracy,stimulus_down_left,stimulus_down_mid,stimulus_down_right,stimulus_correct,prac_weighted_accuracy,cumulative_accuracy,failed_practice,weighted_accuracy,tooquick,stimulus_middle,problems,smooth,distraction,strategies,easier,similar,comments,detectfocus,breakfocus,completion_code
25035.5,{worker_id:676b040df6d7ded171203036},id_enter,25039,object_06b.png; object_03a.png; object_01a.png; object_03b.png; object_03c.png; object_04c.png; object_13c.png; object_04a.png; object_10a.png; object_09b.png; object_01c.png; object_13a.png; object_09c.png; object_07b.png; object_04b.png,object_05c.png; object_15c.png; object_15a.png; object_02b.png; object_07a.png; object_09a.png; object_12c.png; object_07c.png; object_06a.png; object_11a.png; object_10c.png; object_08b.png; object_05b.png; object_11c.png; object_08a.png,object_02c.png; object_14b.png; object_14c.png; object_01b.png; object_13b.png; object_12b.png; object_14a.png; object_11b.png; object_10b.png; object_08c.png; object_05a.png; object_15b.png; object_06c.png; object_02a.png; object_12a.png,blocked,Mozilla/5.0 (Windows NT 10.0; Win64; x64) AppleWebKit/537.36 (KHTML, like Gecko) Chrome/135.0.0.0 Safari/537.36,28/04/2025, 17:51:44,2025-04-28 23:51:45.009,,,,,,,,,,,,,,,,,,,,,,,,,,,,
37138.10000002384,,make_fullscreen,62199,,,,,,,,fullscreen,0,,,,,,,,,,,,,,,,,,,,,,,,,,
7429.399999976158,,instruct_1,69630,,,,,,,,instruct,0,Next,,,,,,,,,,,,,,,,,,,,,,,,,
58846.10000002384,,instruct_2,128478,,,,,,,,instruct,1,Next,,,,,,,,,,,,,,,,,,,,,,,,,
8254.399999976158,,instruct_3,136734,,,,,,,,instruct,1,Next,,,,,,,,,,,,,,,,,,,,,,,,,
19246.19999998808,,instruct_4,155982,,,,,,,,instruct,1,Next,,,,,,,,,,,,,,,,,,,,,,,,,
66606.70000004768,,instruct_5,222590,,,,,,,,instruct,1,Next,,,,,,,,,,,,,,,,,,,,,,,,,
6158.899999976158,,instruct_6,228751,,,,,,,,instruct,1,Next,,,,,,,,,,,,,,,,,,,,,,,,,
38221,,instruct_7,266974,,,,,,,,instruct,1,Next,,,,,,,,,,,,,,,,,,,,,,,,,
null,,prac_atten_color_black,267710,,,,,,,,black_plus_sign,,,null,,,,,,,,,,,,,,,,,,,,,,,,
null,,prac_atten_color,268379,,,,,,,,<p style='position:absolute;top: 50%;right: 50%;transform: translate(50%, -50%);font-size: 125px;color: blue;'>+</p>,,,null,,,,,,,,,,,,,,,,,,,,,,,,
45.60000002384186,,prac_atten_color_black,270382,,,,,,,,black_plus_sign,,,49,,,,,,,,,,,,,,,,,,,,,,,,
null,,prac_atten_color_black,271122,,,,,,,,black_plus_sign,,,null,,,,,,,,,,,,,,,,,,,,,,,,
591.3999999761581,,prac_atten_color,271851,,,,,,,,<p style='position:absolute;top: 50%;right: 50%;transform: translate(50%, -50%);font-size: 125px;color: green;'>+</p>,,,50,,,,,,,,,,,,,,,,,,,,,,,,
null,,prac_atten_color_black,273853,,,,,,,,black_plus_sign,,,null,,,,,,,,,,,,,,,,,,,,,,,,
null,,prac_atten_color_black,274533,,,,,,,,black_plus_sign,,,null,,,,,,,,,,,,,,,,,,,,,,,,
461.80000001192093,,prac_atten_color,275083,,,,,,,,<p style='position:absolute;top: 50%;right: 50%;transform: translate(50%, -50%);font-size: 125px;color: green;'>+</p>,,,50,,,,,,,,,,,,,,,,,,,,,,,,
null,,prac_atten_color_black,277084,,,,,,,,black_plus_sign,,,null,,,,,,,,,,,,,,,,,,,,,,,,
null,,prac_atten_color_black,277941,,,,,,,,black_plus_sign,,,null,,,,,,,,,,,,,,,,,,,,,,,,
353.2999999523163,,prac_atten_color,278570,,,,,,,,<p style='position:absolute;top: 50%;right: 50%;transform: translate(50%, -50%);font-size: 125px;color: blue;'>+</p>,,,49,,,,,,,,,,,,,,,,,,,,,,,,
null,,prac_atten_color_black,280572,,,,,,,,black_plus_sign,,,null,,,,,,,,,,,,,,,,,,,,,,,,
null,,prac_atten_color_black,281347,,,,,,,,black_plus_sign,,,null,,,,,,,,,,,,,,,,,,,,,,,,
430.89999997615814,,prac_atten_color,281915,,,,,,,,<p style='position:absolute;top: 50%;right: 50%;transform: translate(50%, -50%);font-size: 125px;color: green;'>+</p>,,,50,,,,,,,,,,,,,,,,,,,,,,,,
null,,prac_atten_color_black,283918,,,,,,,,black_plus_sign,,,null,,,,,,,,,,,,,,,,,,,,,,,,
null,,prac_atten_color_black,284754,,,,,,,,black_plus_sign,,,null,,,,,,,,,,,,,,,,,,,,,,,,
512.6000000238419,,prac_atten_color,285671,,,,,,,,<p style='position:absolute;top: 50%;right: 50%;transform: translate(50%, -50%);font-size: 125px;color: green;'>+</p>,,,50,,,,,,,,,,,,,,,,,,,,,,,,
null,,prac_atten_color_black,287673,,,,,,,,black_plus_sign,,,null,,,,,,,,,,,,,,,,,,,,,,,,
null,,prac_atten_color_black,288163,,,,,,,,black_plus_sign,,,null,,,,,,,,,,,,,,,,,,,,,,,,
null,,prac_atten_color,288571,,,,,,,,<p style='position:absolute;top: 50%;right: 50%;transform: translate(50%, -50%);font-size: 125px;color: blue;'>+</p>,,,null,,,,,,,,,,,,,,,,,,,,,,,,
152.39999997615814,,prac_atten_color_black,290573,,,,,,,,black_plus_sign,,,49,,,,,,,,,,,,,,,,,,,,,,,,
null,,prac_atten_color_black,291572,,,,,,,,black_plus_sign,,,null,,,,,,,,,,,,,,,,,,,,,,,,
363.5999999642372,,prac_atten_color,292019,,,,,,,,<p style='position:absolute;top: 50%;right: 50%;transform: translate(50%, -50%);font-size: 125px;color: green;'>+</p>,,,50,,,,,,,,,,,,,,,,,,,,,,,,
null,,prac_atten_color_black,294022,,,,,,,,black_plus_sign,,,null,,,,,,,,,,,,,,,,,,,,,,,,
null,,prac_atten_color_black,294981,,,,,,,,black_plus_sign,,,null,,,,,,,,,,,,,,,,,,,,,,,,
513.8000000119209,,prac_atten_color,295580,,,,,,,,<p style='position:absolute;top: 50%;right: 50%;transform: translate(50%, -50%);font-size: 125px;color: blue;'>+</p>,,,49,,,,,,,,,,,,,,,,,,,,,,,,
null,,prac_atten_color_black,297581,,,,,,,,black_plus_sign,,,null,,,,,,,,,,,,,,,,,,,,,,,,
null,,prac_atten_color_black,298385,,,,,,,,black_plus_sign,,,null,,,,,,,,,,,,,,,,,,,,,,,,
410.19999998807907,,prac_atten_color,299247,,,,,,,,<p style='position:absolute;top: 50%;right: 50%;transform: translate(50%, -50%);font-size: 125px;color: blue;'>+</p>,,,50,,,,,,,,,,,,,,,,,,,,,,,,
null,,prac_atten_color_black,301250,,,,,,,,black_plus_sign,,,null,,,,,,,,,,,,,,,,,,,,,,,,
8642.199999988079,,attentioncheck_feedback,309895,,,,,,,,cross_check_feedback,0,,,,,,,,,,,,,,,,,,,,,,,,,,
30291.30000001192,,last_instruct,340187,,,,,,,,instruct,,,32,,,,,,,,,,,,,,,,,,,,,,,,
null,,prac_learn_phase(without_color),343690,,,,,,,,black_plus_sign,,,null,object_06b.png,object_05c.png,,,,,,,,,,,,,,,,,,,,,,
null,,prac_black_cross(without_color),344673,,,,,,,,green,,,null,object_06b.png,object_05c.png,,,,,,,,,,,,,,,,,,,,,,
null,,prac_rt_plussign_withcolor,345175,,,,,,,,green,,,null,object_06b.png,object_05c.png,,,,,,,,,,,,,,,,,,,,,,
1155.1000000238419,,prac_rt_thecrossant_black,346200,,,,,,,,black_plus_sign,,,50,,,1,1,,,,,,,,,,,,,,,,,,,,
null,,prac_color_black,346303,,,,,,,,black_plus_sign,,,null,,,,,,,,,,,,,,,,,,,,,,,,
null,,prac_learn_phase(without_color),349806,,,,,,,,black_plus_sign,,,null,object_04a.png,object_07c.png,,,,,,,,,,,,,,,,,,,,,,
null,,black_cross(without_color)1,350829,,,,,,,,blue,,,null,object_06b.png,object_05c.png,,,,,,,,,,,,,,,,,,,,,,
null,,prac_rt_plussign_withcolor,351331,,,,,,,,blue,,,null,object_04a.png,object_07c.png,,,,,,,,,,,,,,,,,,,,,,
1386.2000000476837,,prac_rt_thecrossant_black,352424,,,,,,,,black_plus_sign,,,50,,,0,0.5,,,,,,,,,,,,,,,,,,,,
null,,prac_color_black,352527,,,,,,,,black_plus_sign,,,null,,,,,,,,,,,,,,,,,,,,,,,,
null,,prac_learn_phase(without_color),356031,,,,,,,,black_plus_sign,,,null,object_09c.png,object_05b.png,,,,,,,,,,,,,,,,,,,,,,
null,,black_cross(without_color)1,357054,,,,,,,,blue,,,null,object_06b.png,object_05c.png,,,,,,,,,,,,,,,,,,,,,,
null,,prac_rt_plussign_withcolor,357557,,,,,,,,blue,,,null,object_09c.png,object_05b.png,,,,,,,,,,,,,,,,,,,,,,
1189.8999999761581,,prac_rt_thecrossant_black,358807,,,,,,,,black_plus_sign,,,49,,,1,0.6666666666666666,,,,,,,,,,,,,,,,,,,,
null,,prac_color_black,358910,,,,,,,,black_plus_sign,,,null,,,,,,,,,,,,,,,,,,,,,,,,
null,,prac_learn_phase(without_color),362415,,,,,,,,black_plus_sign,,,null,object_10a.png,object_06a.png,,,,,,,,,,,,,,,,,,,,,,
null,,black_cross(without_color)1,363452,,,,,,,,blue,,,null,object_06b.png,object_05c.png,,,,,,,,,,,,,,,,,,,,,,
null,,prac_rt_plussign_withcolor,363954,,,,,,,,green,,,null,object_10a.png,object_06a.png,,,,,,,,,,,,,,,,,,,,,,
985.0999999642372,,prac_rt_thecrossant_black,365229,,,,,,,,black_plus_sign,,,50,,,1,0.75,,,,,,,,,,,,,,,,,,,,
null,,prac_color_black,365332,,,,,,,,black_plus_sign,,,null,,,,,,,,,,,,,,,,,,,,,,,,
13969,,instruct_dir_01,379302,,,,,,,,instruct,0,Next,,,,,,,,,,,,,,,,,,,,,,,,,
9166.5,,instruct_dir_2,388470,,,,,,,,instruct,1,Next,,,,,,,,,,,,,,,,,,,,,,,,,
6342.600000023842,,instruct_dir_3,394814,,,,,,,,instruct,1,Next,,,,,,,,,,,,,,,,,,,,,,,,,
7318.599999964237,,instruct_dir_4,402134,,,,,,,,instruct,1,Start,,,,,,,,,,,,,,,,,,,,,,,,,
null,,thebreak,402236,,,,,,,,<p></p>,,,null,,,,,,,,,,,,,,,,,,,,,,,,
3173.100000023842,,intro_0,405410,,,,,,,,instruct,,,32,,,,,,,,,,,,,,,,,,,,,,,,
2080.699999988079,,prac_directmemory_phase,407492,,,,,,,,practice/object_02b.png,,,50,,,1,,practice/object_04a.png,practice/object_02a.png,practice/object_01a.png,practice/object_02a.png,1,1,,,,,,,,,,,,,,
2495.399999976158,,prac_directmemory_phase,409989,,,,,,,,practice/object_04b.png,,,49,,,0,,practice/object_01a.png,practice/object_04a.png,practice/object_02a.png,practice/object_04a.png,0,0.5,,,,,,,,,,,,,,
2972.300000011921,,prac_directmemory_phase,412964,,,,,,,,practice/object_03b.png,,,50,,,1,,practice/object_01a.png,practice/object_03a.png,practice/object_02a.png,practice/object_03a.png,1,0.6666666666666666,,,,,,,,,,,,,,
3264.099999964237,,prac_directmemory_phase,416231,,,,,,,,practice/object_01b.png,,,50,,,0,,practice/object_01a.png,practice/object_03a.png,practice/object_04a.png,practice/object_01a.png,0,0.5,,,,,,,,,,,,,,
17310.299999952316,,practice_feedback_force_restart,433543,,,,,,,,practice_feedback,0,,,,,,,,,,,,,1,,,,,,,,,,,,,
81345.80000001192,,last_instruct,514890,,,,,,,,instruct,,,32,,,,,,,,,,,,,,,,,,,,,,,,
null,,prac_learn_phase(without_color),518392,,,,,,,,black_plus_sign,,,null,object_06b.png,object_05c.png,,,,,,,,,,,,,,,,,,,,,,
null,,prac_black_cross(without_color),519297,,,,,,,,green,,,null,object_06b.png,object_05c.png,,,,,,,,,,,,,,,,,,,,,,
null,,prac_rt_plussign_withcolor,519799,,,,,,,,green,,,null,object_06b.png,object_05c.png,,,,,,,,,,,,,,,,,,,,,,
1406.699999988079,,prac_rt_thecrossant_black,520907,,,,,,,,black_plus_sign,,,50,,,1,0.8,,,,,,,,,,,,,,,,,,,,
null,,prac_color_black,521010,,,,,,,,black_plus_sign,,,null,,,,,,,,,,,,,,,,,,,,,,,,
null,,prac_learn_phase(without_color),524512,,,,,,,,black_plus_sign,,,null,object_04a.png,object_07c.png,,,,,,,,,,,,,,,,,,,,,,
null,,black_cross(without_color)1,525535,,,,,,,,blue,,,null,object_06b.png,object_05c.png,,,,,,,,,,,,,,,,,,,,,,
null,,prac_rt_plussign_withcolor,526036,,,,,,,,blue,,,null,object_04a.png,object_07c.png,,,,,,,,,,,,,,,,,,,,,,
null,,prac_rt_thecrossant_black,527392,,,,,,,,black_plus_sign,,,null,,,,0.8,,,,,,,,,,,,,,,,,,,,
null,,prac_color_black,527494,,,,,,,,black_plus_sign,,,null,,,,,,,,,,,,,,,,,,,,,,,,
null,,prac_learn_phase(without_color),530997,,,,,,,,black_plus_sign,,,null,object_09c.png,object_05b.png,,,,,,,,,,,,,,,,,,,,,,
null,,black_cross(without_color)1,532021,,,,,,,,blue,,,null,object_06b.png,object_05c.png,,,,,,,,,,,,,,,,,,,,,,
null,,prac_rt_plussign_withcolor,532523,,,,,,,,blue,,,null,object_09c.png,object_05b.png,,,,,,,,,,,,,,,,,,,,,,
null,,prac_rt_thecrossant_black,533827,,,,,,,,black_plus_sign,,,null,,,,0.8,,,,,,,,,,,,,,,,,,,,
null,,warning_page,538831,,,,,,,,warning,,,null,,,,,,,,,,,,,,,,,,,,,,,,
null,,prac_color_black,538933,,,,,,,,black_plus_sign,,,null,,,,,,,,,,,,,,,,,,,,,,,,
null,,prac_learn_phase(without_color),542439,,,,,,,,black_plus_sign,,,null,object_10a.png,object_06a.png,,,,,,,,,,,,,,,,,,,,,,
null,,black_cross(without_color)1,543463,,,,,,,,blue,,,null,object_06b.png,object_05c.png,,,,,,,,,,,,,,,,,,,,,,
null,,prac_rt_plussign_withcolor,543965,,,,,,,,green,,,null,object_10a.png,object_06a.png,,,,,,,,,,,,,,,,,,,,,,
1565.199999988079,,prac_rt_thecrossant_black,544933,,,,,,,,black_plus_sign,,,50,,,1,0.8333333333333334,,,,,,,,,,,,,,,,,,,,
null,,prac_color_black,545035,,,,,,,,black_plus_sign,,,null,,,,,,,,,,,,,,,,,,,,,,,,
5841.699999988079,,instruct_dir_01,550878,,,,,,,,instruct,0,Next,,,,,,,,,,,,,,,,,,,,,,,,,
2782.400000035763,,instruct_dir_2,553661,,,,,,,,instruct,1,Next,,,,,,,,,,,,,,,,,,,,,,,,,
2982.699999988079,,instruct_dir_3,556645,,,,,,,,instruct,1,Next,,,,,,,,,,,,,,,,,,,,,,,,,
2607.199999988079,,instruct_dir_4,559254,,,,,,,,instruct,1,Start,,,,,,,,,,,,,,,,,,,,,,,,,
null,,thebreak,559356,,,,,,,,<p></p>,,,null,,,,,,,,,,,,,,,,,,,,,,,,
2248.300000011921,,intro_0,561607,,,,,,,,instruct,,,32,,,,,,,,,,,,,,,,,,,,,,,,
4029.2000000476837,,prac_directmemory_phase,565638,,,,,,,,practice/object_02b.png,,,50,,,1,,practice/object_04a.png,practice/object_02a.png,practice/object_01a.png,practice/object_02a.png,1,1,,,,,,,,,,,,,,
2987.2999999523163,,prac_directmemory_phase,568629,,,,,,,,practice/object_04b.png,,,50,,,1,,practice/object_01a.png,practice/object_04a.png,practice/object_02a.png,practice/object_04a.png,1,1,,,,,,,,,,,,,,
2607,,prac_directmemory_phase,571239,,,,,,,,practice/object_03b.png,,,50,,,1,,practice/object_01a.png,practice/object_03a.png,practice/object_02a.png,practice/object_03a.png,1,1,,,,,,,,,,,,,,
4234.699999988079,,prac_directmemory_phase,575475,,,,,,,,practice/object_01b.png,,,49,,,1,,practice/object_01a.png,practice/object_03a.png,practice/object_04a.png,practice/object_01a.png,1,1,,,,,,,,,,,,,,
21822.80000001192,,practice_feedback,597302,,,,,,,,practice_feedback,1,,,,,,,,,,,,,,,,,,,,,,,,,,
27631.80000001192,,proceed_actualTask,624935,,,,,,,,proceed_actualTask,1,Continue,,,,,,,,,,,,,,,,,,,,,,,,,
19898.19999998808,,last_inst,644835,,,,,,,,last_inst,,,32,,,,,,,,,,,,,,,,,,,,,,,,
null,,learn_phase(without_color)1,648338,,,,,,,,black_plus_sign,,,null,object_06b.png,object_05c.png,,,,,,,,,,,,,,,,,,,,,,
null,,black_cross(without_color)1,649363,,,,,,,,blue,,,null,object_06b.png,object_05c.png,,,,,,,,,,,,,,,,,,,,,,
null,,rt_plussign_withcolor1,649866,,,,,,,,blue,,,null,object_06b.png,object_05c.png,,,,,,,,,,,,,,,,,,,,,,
1511.699999988079,,rt_thecrossant_black1,650849,,,,,,,,black_plus_sign,,,49,,,1,,,,,,,1,,,,,,,,,,,,,,
null,,color_black1,650952,,,,,,,,black_plus_sign,,,null,,,,,,,,,,,,,,,,,,,,,,,,
null,,learn_phase(without_color)1,654454,,,,,,,,black_plus_sign,,,null,object_04a.png,object_07c.png,,,,,,,,,,,,,,,,,,,,,,
null,,black_cross(without_color)1,655065,,,,,,,,blue,,,null,object_04a.png,object_07c.png,,,,,,,,,,,,,,,,,,,,,,
null,,rt_plussign_withcolor1,655567,,,,,,,,blue,,,null,object_04a.png,object_07c.png,,,,,,,,,,,,,,,,,,,,,,
763.4000000357628,,rt_thecrossant_black1,656964,,,,,,,,black_plus_sign,,,49,,,1,,,,,,,1,,,,,,,,,,,,,,
null,,color_black1,657067,,,,,,,,black_plus_sign,,,null,,,,,,,,,,,,,,,,,,,,,,,,
null,,learn_phase(without_color)1,660570,,,,,,,,black_plus_sign,,,null,object_09c.png,object_05b.png,,,,,,,,,,,,,,,,,,,,,,
null,,black_cross(without_color)1,661206,,,,,,,,green,,,null,object_09c.png,object_05b.png,,,,,,,,,,,,,,,,,,,,,,
467.89999997615814,,rt_plussign_withcolor1,661708,,,,,,,,green,,,50,object_09c.png,object_05b.png,,,,,,,,,,,,,,,,,,,,,,
null,,rt_thecrossant_black1,663078,,,,,,,,black_plus_sign,,,null,,,1,,,,,,,1,,,,,,,,,,,,,,
null,,color_black1,663181,,,,,,,,black_plus_sign,,,null,,,,,,,,,,,,,,,,,,,,,,,,
null,,learn_phase(without_color)1,666685,,,,,,,,black_plus_sign,,,null,object_10a.png,object_06a.png,,,,,,,,,,,,,,,,,,,,,,
null,,black_cross(without_color)1,667136,,,,,,,,green,,,null,object_10a.png,object_06a.png,,,,,,,,,,,,,,,,,,,,,,
null,,rt_plussign_withcolor1,667638,,,,,,,,green,,,null,object_10a.png,object_06a.png,,,,,,,,,,,,,,,,,,,,,,
885.1999999880791,,rt_thecrossant_black1,669193,,,,,,,,black_plus_sign,,,50,,,1,,,,,,,1,,,,,,,,,,,,,,
null,,color_black1,669300,,,,,,,,black_plus_sign,,,null,,,,,,,,,,,,,,,,,,,,,,,,
null,,learn_phase(without_color)1,672805,,,,,,,,black_plus_sign,,,null,object_01c.png,object_10c.png,,,,,,,,,,,,,,,,,,,,,,
null,,black_cross(without_color)1,673589,,,,,,,,blue,,,null,object_01c.png,object_10c.png,,,,,,,,,,,,,,,,,,,,,,
null,,rt_plussign_withcolor1,674092,,,,,,,,blue,,,null,object_01c.png,object_10c.png,,,,,,,,,,,,,,,,,,,,,,
894.2000000476837,,rt_thecrossant_black1,675316,,,,,,,,black_plus_sign,,,49,,,1,,,,,,,1,,,,,,,,,,,,,,
null,,color_black1,675417,,,,,,,,black_plus_sign,,,null,,,,,,,,,,,,,,,,,,,,,,,,
null,,learn_phase(without_color)1,678919,,,,,,,,black_plus_sign,,,null,object_04c.png,object_09a.png,,,,,,,,,,,,,,,,,,,,,,
null,,black_cross(without_color)1,679879,,,,,,,,green,,,null,object_04c.png,object_09a.png,,,,,,,,,,,,,,,,,,,,,,
null,,rt_plussign_withcolor1,680382,,,,,,,,green,,,null,object_04c.png,object_09a.png,,,,,,,,,,,,,,,,,,,,,,
943.1000000238419,,rt_thecrossant_black1,681425,,,,,,,,black_plus_sign,,,50,,,1,,,,,,,1,,,,,,,,,,,,,,
null,,color_black1,681528,,,,,,,,black_plus_sign,,,null,,,,,,,,,,,,,,,,,,,,,,,,
null,,learn_phase(without_color)1,685032,,,,,,,,black_plus_sign,,,null,object_13a.png,object_08b.png,,,,,,,,,,,,,,,,,,,,,,
null,,black_cross(without_color)1,685718,,,,,,,,green,,,null,object_13a.png,object_08b.png,,,,,,,,,,,,,,,,,,,,,,
null,,rt_plussign_withcolor1,686221,,,,,,,,green,,,null,object_13a.png,object_08b.png,,,,,,,,,,,,,,,,,,,,,,
1078,,rt_thecrossant_black1,687539,,,,,,,,black_plus_sign,,,50,,,1,,,,,,,1,,,,,,,,,,,,,,
null,,color_black1,687642,,,,,,,,black_plus_sign,,,null,,,,,,,,,,,,,,,,,,,,,,,,
null,,learn_phase(without_color)1,691147,,,,,,,,black_plus_sign,,,null,object_13c.png,object_12c.png,,,,,,,,,,,,,,,,,,,,,,
null,,black_cross(without_color)1,692083,,,,,,,,blue,,,null,object_13c.png,object_12c.png,,,,,,,,,,,,,,,,,,,,,,
null,,rt_plussign_withcolor1,692590,,,,,,,,blue,,,null,object_13c.png,object_12c.png,,,,,,,,,,,,,,,,,,,,,,
1071,,rt_thecrossant_black1,693658,,,,,,,,black_plus_sign,,,49,,,1,,,,,,,1,,,,,,,,,,,,,,
null,,color_black1,693761,,,,,,,,black_plus_sign,,,null,,,,,,,,,,,,,,,,,,,,,,,,
null,,learn_phase(without_color)1,697265,,,,,,,,black_plus_sign,,,null,object_03c.png,object_07a.png,,,,,,,,,,,,,,,,,,,,,,
null,,black_cross(without_color)1,697801,,,,,,,,green,,,null,object_03c.png,object_07a.png,,,,,,,,,,,,,,,,,,,,,,
null,,rt_plussign_withcolor1,698309,,,,,,,,green,,,null,object_03c.png,object_07a.png,,,,,,,,,,,,,,,,,,,,,,
1274.6000000238419,,rt_thecrossant_black1,699780,,,,,,,,black_plus_sign,,,50,,,1,,,,,,,1,,,,,,,,,,,,,,
null,,color_black1,699881,,,,,,,,black_plus_sign,,,null,,,,,,,,,,,,,,,,,,,,,,,,
null,,learn_phase(without_color)1,703384,,,,,,,,black_plus_sign,,,null,object_03b.png,object_02b.png,,,,,,,,,,,,,,,,,,,,,,
null,,black_cross(without_color)1,704016,,,,,,,,blue,,,null,object_03b.png,object_02b.png,,,,,,,,,,,,,,,,,,,,,,
null,,rt_plussign_withcolor1,704518,,,,,,,,blue,,,null,object_03b.png,object_02b.png,,,,,,,,,,,,,,,,,,,,,,
1034.0999999642372,,rt_thecrossant_black1,705892,,,,,,,,black_plus_sign,,,49,,,1,,,,,,,1,,,,,,,,,,,,,,
null,,color_black1,705994,,,,,,,,black_plus_sign,,,null,,,,,,,,,,,,,,,,,,,,,,,,
null,,learn_phase(without_color)1,709497,,,,,,,,black_plus_sign,,,null,object_03a.png,object_15c.png,,,,,,,,,,,,,,,,,,,,,,
null,,black_cross(without_color)1,710337,,,,,,,,green,,,null,object_03a.png,object_15c.png,,,,,,,,,,,,,,,,,,,,,,
null,,rt_plussign_withcolor1,710839,,,,,,,,green,,,null,object_03a.png,object_15c.png,,,,,,,,,,,,,,,,,,,,,,
847.0999999642372,,rt_thecrossant_black1,712004,,,,,,,,black_plus_sign,,,50,,,1,,,,,,,1,,,,,,,,,,,,,,
null,,color_black1,712105,,,,,,,,black_plus_sign,,,null,,,,,,,,,,,,,,,,,,,,,,,,
null,,learn_phase(without_color)1,715608,,,,,,,,black_plus_sign,,,null,object_07b.png,object_11c.png,,,,,,,,,,,,,,,,,,,,,,
null,,black_cross(without_color)1,716329,,,,,,,,green,,,null,object_07b.png,object_11c.png,,,,,,,,,,,,,,,,,,,,,,
null,,rt_plussign_withcolor1,716832,,,,,,,,green,,,null,object_07b.png,object_11c.png,,,,,,,,,,,,,,,,,,,,,,
1024.300000011921,,rt_thecrossant_black1,718120,,,,,,,,black_plus_sign,,,50,,,1,,,,,,,1,,,,,,,,,,,,,,
null,,color_black1,718223,,,,,,,,black_plus_sign,,,null,,,,,,,,,,,,,,,,,,,,,,,,
null,,learn_phase(without_color)1,721729,,,,,,,,black_plus_sign,,,null,object_09b.png,object_11a.png,,,,,,,,,,,,,,,,,,,,,,
null,,black_cross(without_color)1,722281,,,,,,,,green,,,null,object_09b.png,object_11a.png,,,,,,,,,,,,,,,,,,,,,,
null,,rt_plussign_withcolor1,722783,,,,,,,,green,,,null,object_09b.png,object_11a.png,,,,,,,,,,,,,,,,,,,,,,
1197.1000000238419,,rt_thecrossant_black1,724245,,,,,,,,black_plus_sign,,,50,,,1,,,,,,,1,,,,,,,,,,,,,,
null,,color_black1,724347,,,,,,,,black_plus_sign,,,null,,,,,,,,,,,,,,,,,,,,,,,,
null,,learn_phase(without_color)1,727856,,,,,,,,black_plus_sign,,,null,object_04b.png,object_08a.png,,,,,,,,,,,,,,,,,,,,,,
null,,black_cross(without_color)1,728899,,,,,,,,blue,,,null,object_04b.png,object_08a.png,,,,,,,,,,,,,,,,,,,,,,
null,,rt_plussign_withcolor1,729401,,,,,,,,blue,,,null,object_04b.png,object_08a.png,,,,,,,,,,,,,,,,,,,,,,
1040,,rt_thecrossant_black1,730364,,,,,,,,black_plus_sign,,,49,,,1,,,,,,,1,,,,,,,,,,,,,,
null,,color_black1,730467,,,,,,,,black_plus_sign,,,null,,,,,,,,,,,,,,,,,,,,,,,,
null,,learn_phase(without_color)1,733970,,,,,,,,black_plus_sign,,,null,object_01a.png,object_15a.png,,,,,,,,,,,,,,,,,,,,,,
null,,black_cross(without_color)1,734472,,,,,,,,green,,,null,object_01a.png,object_15a.png,,,,,,,,,,,,,,,,,,,,,,
null,,rt_plussign_withcolor1,734989,,,,,,,,green,,,null,object_01a.png,object_15a.png,,,,,,,,,,,,,,,,,,,,,,
1410.9000000357628,,rt_thecrossant_black1,736499,,,,,,,,black_plus_sign,,,50,,,1,,,,,,,1,,,,,,,,,,,,,,
null,,color_black1,736603,,,,,,,,black_plus_sign,,,null,,,,,,,,,,,,,,,,,,,,,,,,
null,,thebreak,736707,,,,,,,,<p></p>,,,null,,,,,,,,,,,,,,,,,,,,,,,,
2651.600000023842,,intro_0,739361,,,,,,,,instruct,,,32,,,,,,,,,,,,,,,,,,,,,,,,
4076.800000011921,,directmemory_phase1,743440,,,,,,,,object_08b.png,,,51,,,1,,object_04c.png,object_10a.png,object_13a.png,object_13a.png,,1,,1,,,,,,,,,,,,
3186.699999988079,,directmemory_phase1,746631,,,,,,,,object_07a.png,,,49,,,1,,object_03c.png,object_04a.png,object_04c.png,object_03c.png,,1,,1,,,,,,,,,,,,
4756.300000011921,,directmemory_phase1,751391,,,,,,,,object_11a.png,,,50,,,0,,object_04a.png,object_03b.png,object_09b.png,object_09b.png,,0.6666666666666666,,0,,,,,,,,,,,,
1900.4000000357628,,directmemory_phase1,753295,,,,,,,,object_10c.png,,,49,,,0,,object_01a.png,object_09c.png,object_01c.png,object_01c.png,,0.5,,0,,,,,,,,,,,,
2516.699999988079,,directmemory_phase1,755814,,,,,,,,object_02b.png,,,50,,,1,,object_09c.png,object_03b.png,object_07b.png,object_03b.png,,0.6,,1,,,,,,,,,,,,
1823.800000011921,,directmemory_phase1,757640,,,,,,,,object_12c.png,,,50,,,1,,object_03c.png,object_13c.png,object_03a.png,object_13c.png,,0.6666666666666666,,1,,,,,,,,,,,,
4788.699999988079,,directmemory_phase1,762433,,,,,,,,object_05c.png,,,51,,,1,,object_13c.png,object_03a.png,object_06b.png,object_06b.png,,0.7142857142857143,,1,,,,,,,,,,,,
2419.5,,directmemory_phase1,764855,,,,,,,,object_06a.png,,,51,,,1,,object_13a.png,object_03a.png,object_10a.png,object_10a.png,,0.75,,1,,,,,,,,,,,,
4393.5,,directmemory_phase1,769250,,,,,,,,object_09a.png,,,49,,,1,,object_04c.png,object_03b.png,object_09b.png,object_04c.png,,0.7777777777777778,,1,,,,,,,,,,,,
3242,,directmemory_phase1,772494,,,,,,,,object_05b.png,,,49,,,1,,object_09c.png,object_10a.png,object_03a.png,object_09c.png,,0.8,,1,,,,,,,,,,,,
2889.5,,directmemory_phase1,775387,,,,,,,,object_07c.png,,,50,,,1,,object_01a.png,object_04a.png,object_03b.png,object_04a.png,,0.8181818181818182,,1,,,,,,,,,,,,
3668.100000023842,,directmemory_phase1,779058,,,,,,,,object_15a.png,,,49,,,1,,object_01a.png,object_13c.png,object_04a.png,object_01a.png,,0.8333333333333334,,1,,,,,,,,,,,,
2944.100000023842,,directmemory_phase1,782006,,,,,,,,object_08a.png,,,51,,,1,,object_09b.png,object_13a.png,object_04b.png,object_04b.png,,0.8461538461538461,,1,,,,,,,,,,,,
1579.300000011921,,directmemory_phase1,783589,,,,,,,,object_11c.png,,,49,,,1,,object_07b.png,object_03c.png,object_09b.png,object_07b.png,,0.8571428571428571,,1,,,,,,,,,,,,
3167.300000011921,,directmemory_phase1,786757,,,,,,,,object_15c.png,,,49,,,0,,object_01c.png,object_04c.png,object_03a.png,object_03a.png,,0.8,,0,,,,,,,,,,,,
null,,thebreak,786860,,,,,,,,<p></p>,,,null,,,,,,,,,,,,,,,,,,,,,,,,
24281.100000023842,,intro_0,811142,,,,,,,,instruct,,,32,,,,,,,,,,,,,,,,,,,,,,,,
null,,learn_phase(without_color)2,814643,,,,,,,,black_plus_sign,,,null,object_06b.png,object_05c.png,,,,,,,,,,,,,,,,,,,,,,
null,,black_cross(without_color)2,815125,,,,,,,,green,,,null,object_06b.png,object_05c.png,,,,,,,,,,,,,,,,,,,,,,
null,,rt_plussign_withcolor2,815627,,,,,,,,green,,,null,object_06b.png,object_05c.png,,,,,,,,,,,,,,,,,,,,,,
1912.3999999761581,,rt_thecrossant_black2,817148,,,,,,,,black_plus_sign,,,50,,,1,,,,,,,1,,,,,,,,,,,,,,
null,,color_black2,817251,,,,,,,,black_plus_sign,,,null,,,,,,,,,,,,,,,,,,,,,,,,
null,,learn_phase(without_color)2,820754,,,,,,,,black_plus_sign,,,null,object_04a.png,object_07c.png,,,,,,,,,,,,,,,,,,,,,,
null,,black_cross(without_color)2,821460,,,,,,,,blue,,,null,object_04a.png,object_07c.png,,,,,,,,,,,,,,,,,,,,,,
null,,rt_plussign_withcolor2,821962,,,,,,,,blue,,,null,object_04a.png,object_07c.png,,,,,,,,,,,,,,,,,,,,,,
865.6999999880791,,rt_thecrossant_black2,823260,,,,,,,,black_plus_sign,,,49,,,1,,,,,,,1,,,,,,,,,,,,,,
null,,color_black2,823363,,,,,,,,black_plus_sign,,,null,,,,,,,,,,,,,,,,,,,,,,,,
null,,learn_phase(without_color)2,826867,,,,,,,,black_plus_sign,,,null,object_13a.png,object_08b.png,,,,,,,,,,,,,,,,,,,,,,
null,,black_cross(without_color)2,827842,,,,,,,,green,,,null,object_13a.png,object_08b.png,,,,,,,,,,,,,,,,,,,,,,
null,,rt_plussign_withcolor2,828351,,,,,,,,green,,,null,object_13a.png,object_08b.png,,,,,,,,,,,,,,,,,,,,,,
1060.6000000238419,,rt_thecrossant_black2,829387,,,,,,,,black_plus_sign,,,50,,,1,,,,,,,1,,,,,,,,,,,,,,
null,,color_black2,829491,,,,,,,,black_plus_sign,,,null,,,,,,,,,,,,,,,,,,,,,,,,
null,,learn_phase(without_color)2,832995,,,,,,,,black_plus_sign,,,null,object_03a.png,object_15c.png,,,,,,,,,,,,,,,,,,,,,,
null,,black_cross(without_color)2,833479,,,,,,,,green,,,null,object_03a.png,object_15c.png,,,,,,,,,,,,,,,,,,,,,,
null,,rt_plussign_withcolor2,833981,,,,,,,,green,,,null,object_03a.png,object_15c.png,,,,,,,,,,,,,,,,,,,,,,
1311.7999999523163,,rt_thecrossant_black2,835502,,,,,,,,black_plus_sign,,,50,,,1,,,,,,,1,,,,,,,,,,,,,,
null,,color_black2,835605,,,,,,,,black_plus_sign,,,null,,,,,,,,,,,,,,,,,,,,,,,,
null,,learn_phase(without_color)2,839112,,,,,,,,black_plus_sign,,,null,object_09c.png,object_05b.png,,,,,,,,,,,,,,,,,,,,,,
null,,black_cross(without_color)2,839936,,,,,,,,green,,,null,object_09c.png,object_05b.png,,,,,,,,,,,,,,,,,,,,,,
null,,rt_plussign_withcolor2,840440,,,,,,,,green,,,null,object_09c.png,object_05b.png,,,,,,,,,,,,,,,,,,,,,,
740,,rt_thecrossant_black2,841624,,,,,,,,black_plus_sign,,,50,,,1,,,,,,,1,,,,,,,,,,,,,,
null,,color_black2,841727,,,,,,,,black_plus_sign,,,null,,,,,,,,,,,,,,,,,,,,,,,,
null,,learn_phase(without_color)2,845231,,,,,,,,black_plus_sign,,,null,object_03c.png,object_07a.png,,,,,,,,,,,,,,,,,,,,,,
null,,black_cross(without_color)2,845756,,,,,,,,green,,,null,object_03c.png,object_07a.png,,,,,,,,,,,,,,,,,,,,,,
null,,rt_plussign_withcolor2,846257,,,,,,,,green,,,null,object_03c.png,object_07a.png,,,,,,,,,,,,,,,,,,,,,,
930.3000000119209,,rt_thecrossant_black2,847738,,,,,,,,black_plus_sign,,,50,,,1,,,,,,,1,,,,,,,,,,,,,,
null,,color_black2,847842,,,,,,,,black_plus_sign,,,null,,,,,,,,,,,,,,,,,,,,,,,,
null,,learn_phase(without_color)2,851346,,,,,,,,black_plus_sign,,,null,object_04b.png,object_08a.png,,,,,,,,,,,,,,,,,,,,,,
null,,black_cross(without_color)2,852243,,,,,,,,green,,,null,object_04b.png,object_08a.png,,,,,,,,,,,,,,,,,,,,,,
null,,rt_plussign_withcolor2,852744,,,,,,,,green,,,null,object_04b.png,object_08a.png,,,,,,,,,,,,,,,,,,,,,,
670.5,,rt_thecrossant_black2,853852,,,,,,,,black_plus_sign,,,50,,,1,,,,,,,1,,,,,,,,,,,,,,
null,,color_black2,853957,,,,,,,,black_plus_sign,,,null,,,,,,,,,,,,,,,,,,,,,,,,
null,,learn_phase(without_color)2,857462,,,,,,,,black_plus_sign,,,null,object_01c.png,object_10c.png,,,,,,,,,,,,,,,,,,,,,,
null,,black_cross(without_color)2,858363,,,,,,,,green,,,null,object_01c.png,object_10c.png,,,,,,,,,,,,,,,,,,,,,,
null,,rt_plussign_withcolor2,858866,,,,,,,,green,,,null,object_01c.png,object_10c.png,,,,,,,,,,,,,,,,,,,,,,
1315.5999999642372,,rt_thecrossant_black2,859972,,,,,,,,black_plus_sign,,,50,,,1,,,,,,,1,,,,,,,,,,,,,,
null,,color_black2,860075,,,,,,,,black_plus_sign,,,null,,,,,,,,,,,,,,,,,,,,,,,,
null,,learn_phase(without_color)2,863589,,,,,,,,black_plus_sign,,,null,object_13c.png,object_12c.png,,,,,,,,,,,,,,,,,,,,,,
null,,black_cross(without_color)2,864634,,,,,,,,blue,,,null,object_13c.png,object_12c.png,,,,,,,,,,,,,,,,,,,,,,
null,,rt_plussign_withcolor2,865136,,,,,,,,blue,,,null,object_13c.png,object_12c.png,,,,,,,,,,,,,,,,,,,,,,
1308.5,,rt_thecrossant_black2,866095,,,,,,,,black_plus_sign,,,49,,,1,,,,,,,1,,,,,,,,,,,,,,
null,,color_black2,866199,,,,,,,,black_plus_sign,,,null,,,,,,,,,,,,,,,,,,,,,,,,
null,,learn_phase(without_color)2,869705,,,,,,,,black_plus_sign,,,null,object_03b.png,object_02b.png,,,,,,,,,,,,,,,,,,,,,,
null,,black_cross(without_color)2,870263,,,,,,,,green,,,null,object_03b.png,object_02b.png,,,,,,,,,,,,,,,,,,,,,,
null,,rt_plussign_withcolor2,870765,,,,,,,,green,,,null,object_03b.png,object_02b.png,,,,,,,,,,,,,,,,,,,,,,
1398.5,,rt_thecrossant_black2,872214,,,,,,,,black_plus_sign,,,50,,,1,,,,,,,1,,,,,,,,,,,,,,
null,,color_black2,872315,,,,,,,,black_plus_sign,,,null,,,,,,,,,,,,,,,,,,,,,,,,
null,,learn_phase(without_color)2,875817,,,,,,,,black_plus_sign,,,null,object_07b.png,object_11c.png,,,,,,,,,,,,,,,,,,,,,,
null,,black_cross(without_color)2,876414,,,,,,,,blue,,,null,object_07b.png,object_11c.png,,,,,,,,,,,,,,,,,,,,,,
null,,rt_plussign_withcolor2,876931,,,,,,,,blue,,,null,object_07b.png,object_11c.png,,,,,,,,,,,,,,,,,,,,,,
1024.0999999642372,,rt_thecrossant_black2,878340,,,,,,,,black_plus_sign,,,49,,,1,,,,,,,1,,,,,,,,,,,,,,
null,,color_black2,878444,,,,,,,,black_plus_sign,,,null,,,,,,,,,,,,,,,,,,,,,,,,
null,,learn_phase(without_color)2,881947,,,,,,,,black_plus_sign,,,null,object_01a.png,object_15a.png,,,,,,,,,,,,,,,,,,,,,,
null,,black_cross(without_color)2,882503,,,,,,,,green,,,null,object_01a.png,object_15a.png,,,,,,,,,,,,,,,,,,,,,,
null,,rt_plussign_withcolor2,883015,,,,,,,,green,,,null,object_01a.png,object_15a.png,,,,,,,,,,,,,,,,,,,,,,
912,,rt_thecrossant_black2,884464,,,,,,,,black_plus_sign,,,50,,,1,,,,,,,1,,,,,,,,,,,,,,
null,,color_black2,884567,,,,,,,,black_plus_sign,,,null,,,,,,,,,,,,,,,,,,,,,,,,
null,,learn_phase(without_color)2,888071,,,,,,,,black_plus_sign,,,null,object_09b.png,object_11a.png,,,,,,,,,,,,,,,,,,,,,,
null,,black_cross(without_color)2,889160,,,,,,,,blue,,,null,object_09b.png,object_11a.png,,,,,,,,,,,,,,,,,,,,,,
null,,rt_plussign_withcolor2,889662,,,,,,,,blue,,,null,object_09b.png,object_11a.png,,,,,,,,,,,,,,,,,,,,,,
899.6000000238419,,rt_thecrossant_black2,890590,,,,,,,,black_plus_sign,,,49,,,1,,,,,,,1,,,,,,,,,,,,,,
null,,color_black2,890693,,,,,,,,black_plus_sign,,,null,,,,,,,,,,,,,,,,,,,,,,,,
null,,learn_phase(without_color)2,894207,,,,,,,,black_plus_sign,,,null,object_04c.png,object_09a.png,,,,,,,,,,,,,,,,,,,,,,
null,,black_cross(without_color)2,895249,,,,,,,,blue,,,null,object_04c.png,object_09a.png,,,,,,,,,,,,,,,,,,,,,,
null,,rt_plussign_withcolor2,895750,,,,,,,,blue,,,null,object_04c.png,object_09a.png,,,,,,,,,,,,,,,,,,,,,,
1496.5,,rt_thecrossant_black2,896713,,,,,,,,black_plus_sign,,,49,,,1,,,,,,,1,,,,,,,,,,,,,,
null,,color_black2,896816,,,,,,,,black_plus_sign,,,null,,,,,,,,,,,,,,,,,,,,,,,,
null,,learn_phase(without_color)2,900318,,,,,,,,black_plus_sign,,,null,object_10a.png,object_06a.png,,,,,,,,,,,,,,,,,,,,,,
null,,black_cross(without_color)2,901170,,,,,,,,blue,,,null,object_10a.png,object_06a.png,,,,,,,,,,,,,,,,,,,,,,
null,,rt_plussign_withcolor2,901676,,,,,,,,blue,,,null,object_10a.png,object_06a.png,,,,,,,,,,,,,,,,,,,,,,
1488.5,,rt_thecrossant_black2,902829,,,,,,,,black_plus_sign,,,49,,,1,,,,,,,1,,,,,,,,,,,,,,
null,,color_black2,902931,,,,,,,,black_plus_sign,,,null,,,,,,,,,,,,,,,,,,,,,,,,
null,,thebreak,903036,,,,,,,,<p></p>,,,null,,,,,,,,,,,,,,,,,,,,,,,,
4974.399999976158,,intro_0,908013,,,,,,,,instruct,,,32,,,,,,,,,,,,,,,,,,,,,,,,
1903.800000011921,,directmemory_phase2,909918,,,,,,,,object_10c.png,,,49,,,1,,object_01c.png,object_13a.png,object_03b.png,object_01c.png,,0.8125,,1,,,,,,,,,,,,
3693.100000023842,,directmemory_phase2,913616,,,,,,,,object_07a.png,,,50,,,1,,object_10a.png,object_03c.png,object_01c.png,object_03c.png,,0.8235294117647058,,1,,,,,,,,,,,,
2608.5,,directmemory_phase2,916228,,,,,,,,object_02b.png,,,49,,,1,,object_03b.png,object_06b.png,object_01c.png,object_03b.png,,0.8333333333333334,,1,,,,,,,,,,,,
3882.899999976158,,directmemory_phase2,920114,,,,,,,,object_09a.png,,,50,,,1,,object_03c.png,object_04c.png,object_09b.png,object_04c.png,,0.8421052631578947,,1,,,,,,,,,,,,
1287.2000000476837,,directmemory_phase2,921406,,,,,,,,object_06a.png,,,49,,,1,,object_10a.png,object_04c.png,object_03a.png,object_10a.png,,0.85,,1,,,,,,,,,,,,
2042.6000000238419,,directmemory_phase2,923452,,,,,,,,object_07c.png,,,51,,,1,,object_13c.png,object_13a.png,object_04a.png,object_04a.png,,0.8571428571428571,,1,,,,,,,,,,,,
4619.300000011921,,directmemory_phase2,928074,,,,,,,,object_15c.png,,,51,,,1,,object_04c.png,object_09b.png,object_03a.png,object_03a.png,,0.8636363636363636,,1,,,,,,,,,,,,
1472.3999999761581,,directmemory_phase2,929550,,,,,,,,object_11c.png,,,49,,,1,,object_07b.png,object_10a.png,object_09b.png,object_07b.png,,0.8695652173913043,,1,,,,,,,,,,,,
2972.2999999523163,,directmemory_phase2,932525,,,,,,,,object_15a.png,,,50,,,1,,object_04c.png,object_01a.png,object_03a.png,object_01a.png,,0.875,,1,,,,,,,,,,,,
3334.100000023842,,directmemory_phase2,935860,,,,,,,,object_05c.png,,,51,,,1,,object_09b.png,object_03a.png,object_06b.png,object_06b.png,,0.88,,1,,,,,,,,,,,,
4186.899999976158,,directmemory_phase2,940049,,,,,,,,object_08b.png,,,51,,,1,,object_04c.png,object_03b.png,object_13a.png,object_13a.png,,0.8846153846153846,,1,,,,,,,,,,,,
1223,,directmemory_phase2,941277,,,,,,,,object_08a.png,,,49,,,1,,object_04b.png,object_01c.png,object_04c.png,object_04b.png,,0.8888888888888888,,1,,,,,,,,,,,,
1637.0999999642372,,directmemory_phase2,942917,,,,,,,,object_05b.png,,,51,,,1,,object_01c.png,object_13c.png,object_09c.png,object_09c.png,,0.8928571428571429,,1,,,,,,,,,,,,
3537.400000035763,,directmemory_phase2,946457,,,,,,,,object_11a.png,,,51,,,1,,object_07b.png,object_04c.png,object_09b.png,object_09b.png,,0.896551724137931,,1,,,,,,,,,,,,
1506.699999988079,,directmemory_phase2,947968,,,,,,,,object_12c.png,,,49,,,1,,object_13c.png,object_04a.png,object_03b.png,object_13c.png,,0.9,,1,,,,,,,,,,,,
null,,thebreak,948073,,,,,,,,<p></p>,,,null,,,,,,,,,,,,,,,,,,,,,,,,
17470.19999998808,,intro_0,965545,,,,,,,,instruct,,,32,,,,,,,,,,,,,,,,,,,,,,,,
null,,learn_phase(without_color)3,969057,,,,,,,,black_plus_sign,,,null,object_13c.png,object_12c.png,,,,,,,,,,,,,,,,,,,,,,
null,,black_cross(without_color)3,969908,,,,,,,,blue,,,null,object_13c.png,object_12c.png,,,,,,,,,,,,,,,,,,,,,,
null,,rt_plussign_withcolor3,970411,,,,,,,,blue,,,null,object_13c.png,object_12c.png,,,,,,,,,,,,,,,,,,,,,,
1305.300000011921,,rt_thecrossant_black3,971578,,,,,,,,black_plus_sign,,,49,,,1,,,,,,,1,,,,,,,,,,,,,,
null,,color_black3,971686,,,,,,,,black_plus_sign,,,null,,,,,,,,,,,,,,,,,,,,,,,,
null,,learn_phase(without_color)3,975189,,,,,,,,black_plus_sign,,,null,object_13a.png,object_08b.png,,,,,,,,,,,,,,,,,,,,,,
null,,black_cross(without_color)3,976153,,,,,,,,blue,,,null,object_13a.png,object_08b.png,,,,,,,,,,,,,,,,,,,,,,
null,,rt_plussign_withcolor3,976655,,,,,,,,blue,,,null,object_13a.png,object_08b.png,,,,,,,,,,,,,,,,,,,,,,
1108.5999999642372,,rt_thecrossant_black3,977697,,,,,,,,black_plus_sign,,,49,,,1,,,,,,,1,,,,,,,,,,,,,,
null,,color_black3,977807,,,,,,,,black_plus_sign,,,null,,,,,,,,,,,,,,,,,,,,,,,,
null,,learn_phase(without_color)3,981310,,,,,,,,black_plus_sign,,,null,object_09b.png,object_11a.png,,,,,,,,,,,,,,,,,,,,,,
null,,black_cross(without_color)3,981983,,,,,,,,green,,,null,object_09b.png,object_11a.png,,,,,,,,,,,,,,,,,,,,,,
null,,rt_plussign_withcolor3,982485,,,,,,,,green,,,null,object_09b.png,object_11a.png,,,,,,,,,,,,,,,,,,,,,,
1075.5,,rt_thecrossant_black3,983818,,,,,,,,black_plus_sign,,,50,,,1,,,,,,,1,,,,,,,,,,,,,,
null,,color_black3,983922,,,,,,,,black_plus_sign,,,null,,,,,,,,,,,,,,,,,,,,,,,,
null,,learn_phase(without_color)3,987426,,,,,,,,black_plus_sign,,,null,object_03c.png,object_07a.png,,,,,,,,,,,,,,,,,,,,,,
null,,black_cross(without_color)3,988289,,,,,,,,green,,,null,object_03c.png,object_07a.png,,,,,,,,,,,,,,,,,,,,,,
null,,rt_plussign_withcolor3,988792,,,,,,,,green,,,null,object_03c.png,object_07a.png,,,,,,,,,,,,,,,,,,,,,,
1474.1000000238419,,rt_thecrossant_black3,989935,,,,,,,,black_plus_sign,,,50,,,1,,,,,,,1,,,,,,,,,,,,,,
null,,color_black3,990039,,,,,,,,black_plus_sign,,,null,,,,,,,,,,,,,,,,,,,,,,,,
null,,learn_phase(without_color)3,993542,,,,,,,,black_plus_sign,,,null,object_01a.png,object_15a.png,,,,,,,,,,,,,,,,,,,,,,
null,,black_cross(without_color)3,994246,,,,,,,,green,,,null,object_01a.png,object_15a.png,,,,,,,,,,,,,,,,,,,,,,
null,,rt_plussign_withcolor3,994750,,,,,,,,green,,,null,object_01a.png,object_15a.png,,,,,,,,,,,,,,,,,,,,,,
1814.1000000238419,,rt_thecrossant_black3,996054,,,,,,,,black_plus_sign,,,50,,,1,,,,,,,1,,,,,,,,,,,,,,
null,,color_black3,996157,,,,,,,,black_plus_sign,,,null,,,,,,,,,,,,,,,,,,,,,,,,
null,,learn_phase(without_color)3,999668,,,,,,,,black_plus_sign,,,null,object_03a.png,object_15c.png,,,,,,,,,,,,,,,,,,,,,,
null,,black_cross(without_color)3,1000334,,,,,,,,green,,,null,object_03a.png,object_15c.png,,,,,,,,,,,,,,,,,,,,,,
487.30000001192093,,rt_plussign_withcolor3,1000836,,,,,,,,green,,,50,object_03a.png,object_15c.png,,,,,,,,,,,,,,,,,,,,,,
null,,rt_thecrossant_black3,1002177,,,,,,,,black_plus_sign,,,null,,,1,,,,,,,1,,,,,,,,,,,,,,
null,,color_black3,1002281,,,,,,,,black_plus_sign,,,null,,,,,,,,,,,,,,,,,,,,,,,,
null,,learn_phase(without_color)3,1005784,,,,,,,,black_plus_sign,,,null,object_04a.png,object_07c.png,,,,,,,,,,,,,,,,,,,,,,
null,,black_cross(without_color)3,1006845,,,,,,,,blue,,,null,object_04a.png,object_07c.png,,,,,,,,,,,,,,,,,,,,,,
null,,rt_plussign_withcolor3,1007348,,,,,,,,blue,,,null,object_04a.png,object_07c.png,,,,,,,,,,,,,,,,,,,,,,
1016,,rt_thecrossant_black3,1008293,,,,,,,,black_plus_sign,,,49,,,1,,,,,,,1,,,,,,,,,,,,,,
null,,color_black3,1008396,,,,,,,,black_plus_sign,,,null,,,,,,,,,,,,,,,,,,,,,,,,
null,,learn_phase(without_color)3,1011899,,,,,,,,black_plus_sign,,,null,object_04b.png,object_08a.png,,,,,,,,,,,,,,,,,,,,,,
null,,black_cross(without_color)3,1012595,,,,,,,,green,,,null,object_04b.png,object_08a.png,,,,,,,,,,,,,,,,,,,,,,
476.60000002384186,,rt_plussign_withcolor3,1013097,,,,,,,,green,,,50,object_04b.png,object_08a.png,,,,,,,,,,,,,,,,,,,,,,
null,,rt_thecrossant_black3,1014406,,,,,,,,black_plus_sign,,,null,,,1,,,,,,,1,,,,,,,,,,,,,,
null,,color_black3,1014509,,,,,,,,black_plus_sign,,,null,,,,,,,,,,,,,,,,,,,,,,,,
null,,learn_phase(without_color)3,1018018,,,,,,,,black_plus_sign,,,null,object_03b.png,object_02b.png,,,,,,,,,,,,,,,,,,,,,,
null,,black_cross(without_color)3,1018477,,,,,,,,green,,,null,object_03b.png,object_02b.png,,,,,,,,,,,,,,,,,,,,,,
null,,rt_plussign_withcolor3,1018982,,,,,,,,green,,,null,object_03b.png,object_02b.png,,,,,,,,,,,,,,,,,,,,,,
854.8000000119209,,rt_thecrossant_black3,1020530,,,,,,,,black_plus_sign,,,50,,,1,,,,,,,1,,,,,,,,,,,,,,
null,,color_black3,1020634,,,,,,,,black_plus_sign,,,null,,,,,,,,,,,,,,,,,,,,,,,,
null,,learn_phase(without_color)3,1024138,,,,,,,,black_plus_sign,,,null,object_07b.png,object_11c.png,,,,,,,,,,,,,,,,,,,,,,
null,,black_cross(without_color)3,1024683,,,,,,,,green,,,null,object_07b.png,object_11c.png,,,,,,,,,,,,,,,,,,,,,,
null,,rt_plussign_withcolor3,1025185,,,,,,,,green,,,null,object_07b.png,object_11c.png,,,,,,,,,,,,,,,,,,,,,,
603.7999999523163,,rt_thecrossant_black3,1026650,,,,,,,,black_plus_sign,,,50,,,1,,,,,,,1,,,,,,,,,,,,,,
null,,color_black3,1026754,,,,,,,,black_plus_sign,,,null,,,,,,,,,,,,,,,,,,,,,,,,
null,,learn_phase(without_color)3,1030258,,,,,,,,black_plus_sign,,,null,object_01c.png,object_10c.png,,,,,,,,,,,,,,,,,,,,,,
null,,black_cross(without_color)3,1031223,,,,,,,,green,,,null,object_01c.png,object_10c.png,,,,,,,,,,,,,,,,,,,,,,
493.5,,rt_plussign_withcolor3,1031725,,,,,,,,green,,,50,object_01c.png,object_10c.png,,,,,,,,,,,,,,,,,,,,,,
null,,rt_thecrossant_black3,1032765,,,,,,,,black_plus_sign,,,null,,,1,,,,,,,1,,,,,,,,,,,,,,
null,,color_black3,1032868,,,,,,,,black_plus_sign,,,null,,,,,,,,,,,,,,,,,,,,,,,,
null,,learn_phase(without_color)3,1036371,,,,,,,,black_plus_sign,,,null,object_04c.png,object_09a.png,,,,,,,,,,,,,,,,,,,,,,
null,,black_cross(without_color)3,1037191,,,,,,,,green,,,null,object_04c.png,object_09a.png,,,,,,,,,,,,,,,,,,,,,,
404,,rt_plussign_withcolor3,1037694,,,,,,,,green,,,50,object_04c.png,object_09a.png,,,,,,,,,,,,,,,,,,,,,,
null,,rt_thecrossant_black3,1038879,,,,,,,,black_plus_sign,,,null,,,1,,,,,,,1,,,,,,,,,,,,,,
null,,color_black3,1038981,,,,,,,,black_plus_sign,,,null,,,,,,,,,,,,,,,,,,,,,,,,
null,,learn_phase(without_color)3,1042485,,,,,,,,black_plus_sign,,,null,object_09c.png,object_05b.png,,,,,,,,,,,,,,,,,,,,,,
null,,black_cross(without_color)3,1043450,,,,,,,,green,,,null,object_09c.png,object_05b.png,,,,,,,,,,,,,,,,,,,,,,
489.5,,rt_plussign_withcolor3,1043953,,,,,,,,green,,,50,object_09c.png,object_05b.png,,,,,,,,,,,,,,,,,,,,,,
null,,rt_thecrossant_black3,1044994,,,,,,,,black_plus_sign,,,null,,,1,,,,,,,1,,,,,,,,,,,,,,
null,,color_black3,1045098,,,,,,,,black_plus_sign,,,null,,,,,,,,,,,,,,,,,,,,,,,,
null,,learn_phase(without_color)3,1048615,,,,,,,,black_plus_sign,,,null,object_06b.png,object_05c.png,,,,,,,,,,,,,,,,,,,,,,
null,,black_cross(without_color)3,1049614,,,,,,,,blue,,,null,object_06b.png,object_05c.png,,,,,,,,,,,,,,,,,,,,,,
null,,rt_plussign_withcolor3,1050120,,,,,,,,blue,,,null,object_06b.png,object_05c.png,,,,,,,,,,,,,,,,,,,,,,
1363.800000011921,,rt_thecrossant_black3,1051141,,,,,,,,black_plus_sign,,,49,,,1,,,,,,,1,,,,,,,,,,,,,,
null,,color_black3,1051243,,,,,,,,black_plus_sign,,,null,,,,,,,,,,,,,,,,,,,,,,,,
null,,learn_phase(without_color)3,1054752,,,,,,,,black_plus_sign,,,null,object_10a.png,object_06a.png,,,,,,,,,,,,,,,,,,,,,,
null,,black_cross(without_color)3,1055192,,,,,,,,blue,,,null,object_10a.png,object_06a.png,,,,,,,,,,,,,,,,,,,,,,
null,,rt_plussign_withcolor3,1055693,,,,,,,,blue,,,null,object_10a.png,object_06a.png,,,,,,,,,,,,,,,,,,,,,,
1738,,rt_thecrossant_black3,1057264,,,,,,,,black_plus_sign,,,49,,,1,,,,,,,1,,,,,,,,,,,,,,
null,,color_black3,1057368,,,,,,,,black_plus_sign,,,null,,,,,,,,,,,,,,,,,,,,,,,,
null,,thebreak,1057470,,,,,,,,<p></p>,,,null,,,,,,,,,,,,,,,,,,,,,,,,
5681.399999976158,,intro_0,1063154,,,,,,,,instruct,,,32,,,,,,,,,,,,,,,,,,,,,,,,
1890.5,,directmemory_phase3,1065045,,,,,,,,object_05c.png,,,51,,,1,,object_03c.png,object_04c.png,object_06b.png,object_06b.png,,0.9032258064516129,,1,,,,,,,,,,,,
1418.0999999642372,,directmemory_phase3,1066466,,,,,,,,object_07c.png,,,50,,,1,,object_10a.png,object_04a.png,object_01c.png,object_04a.png,,0.90625,,1,,,,,,,,,,,,
2355.899999976158,,directmemory_phase3,1068824,,,,,,,,object_08b.png,,,50,,,1,,object_10a.png,object_13a.png,object_01a.png,object_13a.png,,0.9090909090909091,,1,,,,,,,,,,,,
2869.400000035763,,directmemory_phase3,1071697,,,,,,,,object_11a.png,,,50,,,1,,object_06b.png,object_09b.png,object_13a.png,object_09b.png,,0.9117647058823529,,1,,,,,,,,,,,,
1773.8999999761581,,directmemory_phase3,1073474,,,,,,,,object_11c.png,,,50,,,1,,object_06b.png,object_07b.png,object_03b.png,object_07b.png,,0.9142857142857143,,1,,,,,,,,,,,,
1292.8999999761581,,directmemory_phase3,1074768,,,,,,,,object_07a.png,,,50,,,1,,object_06b.png,object_03c.png,object_04c.png,object_03c.png,,0.9166666666666666,,1,,,,,,,,,,,,
2730.5,,directmemory_phase3,1077503,,,,,,,,object_09a.png,,,50,,,0,,object_04c.png,object_01c.png,object_07b.png,object_04c.png,,0.8918918918918919,,0,,,,,,,,,,,,
1953.6000000238419,,directmemory_phase3,1079461,,,,,,,,object_15a.png,,,50,,,1,,object_03a.png,object_01a.png,object_01c.png,object_01a.png,,0.8947368421052632,,1,,,,,,,,,,,,
1550.300000011921,,directmemory_phase3,1081014,,,,,,,,object_15c.png,,,50,,,1,,object_09b.png,object_03a.png,object_03b.png,object_03a.png,,0.8974358974358975,,1,,,,,,,,,,,,
2304.199999988079,,directmemory_phase3,1083322,,,,,,,,object_02b.png,,,51,,,1,,object_10a.png,object_03a.png,object_03b.png,object_03b.png,,0.9,,1,,,,,,,,,,,,
1259.300000011921,,directmemory_phase3,1084585,,,,,,,,object_06a.png,,,50,,,1,,object_04c.png,object_10a.png,object_03a.png,object_10a.png,,0.9024390243902439,,1,,,,,,,,,,,,
1639.1000000238419,,directmemory_phase3,1086228,,,,,,,,object_08a.png,,,51,,,1,,object_13c.png,object_03b.png,object_04b.png,object_04b.png,,0.9047619047619048,,1,,,,,,,,,,,,
1618.800000011921,,directmemory_phase3,1087849,,,,,,,,object_12c.png,,,49,,,1,,object_13c.png,object_03a.png,object_09c.png,object_13c.png,,0.9069767441860465,,1,,,,,,,,,,,,
1375.1000000238419,,directmemory_phase3,1089226,,,,,,,,object_10c.png,,,50,,,1,,object_13c.png,object_01c.png,object_03b.png,object_01c.png,,0.9090909090909091,,1,,,,,,,,,,,,
1822,,directmemory_phase3,1091050,,,,,,,,object_05b.png,,,49,,,1,,object_09c.png,object_07b.png,object_04a.png,object_09c.png,,0.9111111111111111,,1,,,,,,,,,,,,
null,,thebreak,1091154,,,,,,,,<p></p>,,,null,,,,,,,,,,,,,,,,,,,,,,,,
40221.90000003576,,intro_0,1131379,,,,,,,,instruct,,,32,,,,,,,,,,,,,,,,,,,,,,,,
null,,learn_phase(without_color)4,1134883,,,,,,,,black_plus_sign,,,null,object_03a.png,object_15c.png,,,,,,,,,,,,,,,,,,,,,,
null,,black_cross(without_color)4,1135927,,,,,,,,blue,,,null,object_03a.png,object_15c.png,,,,,,,,,,,,,,,,,,,,,,
null,,rt_plussign_withcolor4,1136428,,,,,,,,blue,,,null,object_03a.png,object_15c.png,,,,,,,,,,,,,,,,,,,,,,
1245.699999988079,,rt_thecrossant_black4,1137388,,,,,,,,black_plus_sign,,,49,,,1,,,,,,,1,,,,,,,,,,,,,,
null,,color_black4,1137492,,,,,,,,black_plus_sign,,,null,,,,,,,,,,,,,,,,,,,,,,,,
null,,learn_phase(without_color)4,1140996,,,,,,,,black_plus_sign,,,null,object_09c.png,object_05b.png,,,,,,,,,,,,,,,,,,,,,,
null,,black_cross(without_color)4,1142025,,,,,,,,green,,,null,object_09c.png,object_05b.png,,,,,,,,,,,,,,,,,,,,,,
466.69999998807907,,rt_plussign_withcolor4,1142528,,,,,,,,green,,,50,object_09c.png,object_05b.png,,,,,,,,,,,,,,,,,,,,,,
null,,rt_thecrossant_black4,1143504,,,,,,,,black_plus_sign,,,null,,,1,,,,,,,1,,,,,,,,,,,,,,
null,,color_black4,1143613,,,,,,,,black_plus_sign,,,null,,,,,,,,,,,,,,,,,,,,,,,,
null,,learn_phase(without_color)4,1147116,,,,,,,,black_plus_sign,,,null,object_04c.png,object_09a.png,,,,,,,,,,,,,,,,,,,,,,
null,,black_cross(without_color)4,1148199,,,,,,,,blue,,,null,object_04c.png,object_09a.png,,,,,,,,,,,,,,,,,,,,,,
null,,rt_plussign_withcolor4,1148702,,,,,,,,blue,,,null,object_04c.png,object_09a.png,,,,,,,,,,,,,,,,,,,,,,
1372.199999988079,,rt_thecrossant_black4,1149625,,,,,,,,black_plus_sign,,,49,,,1,,,,,,,1,,,,,,,,,,,,,,
null,,color_black4,1149728,,,,,,,,black_plus_sign,,,null,,,,,,,,,,,,,,,,,,,,,,,,
null,,learn_phase(without_color)4,1153233,,,,,,,,black_plus_sign,,,null,object_03c.png,object_07a.png,,,,,,,,,,,,,,,,,,,,,,
null,,black_cross(without_color)4,1153696,,,,,,,,green,,,null,object_03c.png,object_07a.png,,,,,,,,,,,,,,,,,,,,,,
null,,rt_plussign_withcolor4,1154199,,,,,,,,green,,,null,object_03c.png,object_07a.png,,,,,,,,,,,,,,,,,,,,,,
1370.699999988079,,rt_thecrossant_black4,1155742,,,,,,,,black_plus_sign,,,50,,,1,,,,,,,1,,,,,,,,,,,,,,
null,,color_black4,1155846,,,,,,,,black_plus_sign,,,null,,,,,,,,,,,,,,,,,,,,,,,,
null,,learn_phase(without_color)4,1159348,,,,,,,,black_plus_sign,,,null,object_04a.png,object_07c.png,,,,,,,,,,,,,,,,,,,,,,
null,,black_cross(without_color)4,1160389,,,,,,,,green,,,null,object_04a.png,object_07c.png,,,,,,,,,,,,,,,,,,,,,,
null,,rt_plussign_withcolor4,1160892,,,,,,,,green,,,null,object_04a.png,object_07c.png,,,,,,,,,,,,,,,,,,,,,,
1066,,rt_thecrossant_black4,1161857,,,,,,,,black_plus_sign,,,50,,,1,,,,,,,1,,,,,,,,,,,,,,
null,,color_black4,1161962,,,,,,,,black_plus_sign,,,null,,,,,,,,,,,,,,,,,,,,,,,,
null,,learn_phase(without_color)4,1165466,,,,,,,,black_plus_sign,,,null,object_03b.png,object_02b.png,,,,,,,,,,,,,,,,,,,,,,
null,,black_cross(without_color)4,1165932,,,,,,,,green,,,null,object_03b.png,object_02b.png,,,,,,,,,,,,,,,,,,,,,,
null,,rt_plussign_withcolor4,1166435,,,,,,,,green,,,null,object_03b.png,object_02b.png,,,,,,,,,,,,,,,,,,,,,,
1538.6000000238419,,rt_thecrossant_black4,1167973,,,,,,,,black_plus_sign,,,50,,,1,,,,,,,1,,,,,,,,,,,,,,
null,,color_black4,1168076,,,,,,,,black_plus_sign,,,null,,,,,,,,,,,,,,,,,,,,,,,,
null,,learn_phase(without_color)4,1171579,,,,,,,,black_plus_sign,,,null,object_09b.png,object_11a.png,,,,,,,,,,,,,,,,,,,,,,
null,,black_cross(without_color)4,1172590,,,,,,,,blue,,,null,object_09b.png,object_11a.png,,,,,,,,,,,,,,,,,,,,,,
null,,rt_plussign_withcolor4,1173093,,,,,,,,blue,,,null,object_09b.png,object_11a.png,,,,,,,,,,,,,,,,,,,,,,
896.8999999761581,,rt_thecrossant_black4,1174090,,,,,,,,black_plus_sign,,,49,,,1,,,,,,,1,,,,,,,,,,,,,,
null,,color_black4,1174194,,,,,,,,black_plus_sign,,,null,,,,,,,,,,,,,,,,,,,,,,,,
null,,learn_phase(without_color)4,1177698,,,,,,,,black_plus_sign,,,null,object_13c.png,object_12c.png,,,,,,,,,,,,,,,,,,,,,,
null,,black_cross(without_color)4,1178376,,,,,,,,green,,,null,object_13c.png,object_12c.png,,,,,,,,,,,,,,,,,,,,,,
null,,rt_plussign_withcolor4,1178878,,,,,,,,green,,,null,object_13c.png,object_12c.png,,,,,,,,,,,,,,,,,,,,,,
1238.5,,rt_thecrossant_black4,1180205,,,,,,,,black_plus_sign,,,50,,,1,,,,,,,1,,,,,,,,,,,,,,
null,,color_black4,1180308,,,,,,,,black_plus_sign,,,null,,,,,,,,,,,,,,,,,,,,,,,,
null,,learn_phase(without_color)4,1183810,,,,,,,,black_plus_sign,,,null,object_04b.png,object_08a.png,,,,,,,,,,,,,,,,,,,,,,
null,,black_cross(without_color)4,1184529,,,,,,,,green,,,null,object_04b.png,object_08a.png,,,,,,,,,,,,,,,,,,,,,,
417.69999998807907,,rt_plussign_withcolor4,1185032,,,,,,,,green,,,50,object_04b.png,object_08a.png,,,,,,,,,,,,,,,,,,,,,,
null,,rt_thecrossant_black4,1186322,,,,,,,,black_plus_sign,,,null,,,1,,,,,,,1,,,,,,,,,,,,,,
null,,color_black4,1186424,,,,,,,,black_plus_sign,,,null,,,,,,,,,,,,,,,,,,,,,,,,
null,,learn_phase(without_color)4,1189928,,,,,,,,black_plus_sign,,,null,object_07b.png,object_11c.png,,,,,,,,,,,,,,,,,,,,,,
null,,black_cross(without_color)4,1190760,,,,,,,,green,,,null,object_07b.png,object_11c.png,,,,,,,,,,,,,,,,,,,,,,
378,,rt_plussign_withcolor4,1191263,,,,,,,,green,,,50,object_07b.png,object_11c.png,,,,,,,,,,,,,,,,,,,,,,
null,,rt_thecrossant_black4,1192436,,,,,,,,black_plus_sign,,,null,,,1,,,,,,,1,,,,,,,,,,,,,,
null,,color_black4,1192551,,,,,,,,black_plus_sign,,,null,,,,,,,,,,,,,,,,,,,,,,,,
null,,learn_phase(without_color)4,1196057,,,,,,,,black_plus_sign,,,null,object_13a.png,object_08b.png,,,,,,,,,,,,,,,,,,,,,,
null,,black_cross(without_color)4,1196988,,,,,,,,blue,,,null,object_13a.png,object_08b.png,,,,,,,,,,,,,,,,,,,,,,
null,,rt_plussign_withcolor4,1197491,,,,,,,,blue,,,null,object_13a.png,object_08b.png,,,,,,,,,,,,,,,,,,,,,,
1126.1000000238419,,rt_thecrossant_black4,1198565,,,,,,,,black_plus_sign,,,49,,,1,,,,,,,1,,,,,,,,,,,,,,
null,,color_black4,1198668,,,,,,,,black_plus_sign,,,null,,,,,,,,,,,,,,,,,,,,,,,,
null,,learn_phase(without_color)4,1202174,,,,,,,,black_plus_sign,,,null,object_06b.png,object_05c.png,,,,,,,,,,,,,,,,,,,,,,
null,,black_cross(without_color)4,1202962,,,,,,,,blue,,,null,object_06b.png,object_05c.png,,,,,,,,,,,,,,,,,,,,,,
null,,rt_plussign_withcolor4,1203464,,,,,,,,blue,,,null,object_06b.png,object_05c.png,,,,,,,,,,,,,,,,,,,,,,
1260.800000011921,,rt_thecrossant_black4,1204682,,,,,,,,black_plus_sign,,,49,,,1,,,,,,,1,,,,,,,,,,,,,,
null,,color_black4,1204786,,,,,,,,black_plus_sign,,,null,,,,,,,,,,,,,,,,,,,,,,,,
null,,learn_phase(without_color)4,1208291,,,,,,,,black_plus_sign,,,null,object_01c.png,object_10c.png,,,,,,,,,,,,,,,,,,,,,,
null,,black_cross(without_color)4,1208860,,,,,,,,blue,,,null,object_01c.png,object_10c.png,,,,,,,,,,,,,,,,,,,,,,
null,,rt_plussign_withcolor4,1209364,,,,,,,,blue,,,null,object_01c.png,object_10c.png,,,,,,,,,,,,,,,,,,,,,,
946.1999999880791,,rt_thecrossant_black4,1210802,,,,,,,,black_plus_sign,,,49,,,1,,,,,,,1,,,,,,,,,,,,,,
null,,color_black4,1210907,,,,,,,,black_plus_sign,,,null,,,,,,,,,,,,,,,,,,,,,,,,
null,,learn_phase(without_color)4,1214411,,,,,,,,black_plus_sign,,,null,object_10a.png,object_06a.png,,,,,,,,,,,,,,,,,,,,,,
null,,black_cross(without_color)4,1215389,,,,,,,,blue,,,null,object_10a.png,object_06a.png,,,,,,,,,,,,,,,,,,,,,,
453.9000000357628,,rt_plussign_withcolor4,1215890,,,,,,,,blue,,,49,object_10a.png,object_06a.png,,,,,,,,,,,,,,,,,,,,,,
null,,rt_thecrossant_black4,1216919,,,,,,,,black_plus_sign,,,null,,,1,,,,,,,1,,,,,,,,,,,,,,
null,,color_black4,1217023,,,,,,,,black_plus_sign,,,null,,,,,,,,,,,,,,,,,,,,,,,,
null,,learn_phase(without_color)4,1220527,,,,,,,,black_plus_sign,,,null,object_01a.png,object_15a.png,,,,,,,,,,,,,,,,,,,,,,
null,,black_cross(without_color)4,1221158,,,,,,,,blue,,,null,object_01a.png,object_15a.png,,,,,,,,,,,,,,,,,,,,,,
null,,rt_plussign_withcolor4,1221661,,,,,,,,blue,,,null,object_01a.png,object_15a.png,,,,,,,,,,,,,,,,,,,,,,
1339.6000000238419,,rt_thecrossant_black4,1223038,,,,,,,,black_plus_sign,,,49,,,1,,,,,,,1,,,,,,,,,,,,,,
null,,color_black4,1223141,,,,,,,,black_plus_sign,,,null,,,,,,,,,,,,,,,,,,,,,,,,
null,,thebreak,1223245,,,,,,,,<p></p>,,,null,,,,,,,,,,,,,,,,,,,,,,,,
2091,,intro_0,1225338,,,,,,,,instruct,,,32,,,,,,,,,,,,,,,,,,,,,,,,
5132.200000047684,,directmemory_phase4,1230474,,,,,,,,object_08b.png,,,51,,,1,,object_09c.png,object_03b.png,object_13a.png,object_13a.png,,0.9130434782608695,,1,,,,,,,,,,,,
3471.800000011921,,directmemory_phase4,1233949,,,,,,,,object_02b.png,,,49,,,1,,object_03b.png,object_04a.png,object_03c.png,object_03b.png,,0.9148936170212766,,1,,,,,,,,,,,,
1783.6000000238419,,directmemory_phase4,1235734,,,,,,,,object_12c.png,,,51,,,1,,object_04c.png,object_03c.png,object_13c.png,object_13c.png,,0.9166666666666666,,1,,,,,,,,,,,,
1280.800000011921,,directmemory_phase4,1237016,,,,,,,,object_05c.png,,,50,,,1,,object_03a.png,object_06b.png,object_09b.png,object_06b.png,,0.9183673469387755,,1,,,,,,,,,,,,
3575.399999976158,,directmemory_phase4,1240593,,,,,,,,object_11a.png,,,49,,,1,,object_09b.png,object_10a.png,object_03c.png,object_09b.png,,0.92,,1,,,,,,,,,,,,
1155,,directmemory_phase4,1241752,,,,,,,,object_15a.png,,,50,,,1,,object_13a.png,object_01a.png,object_07b.png,object_01a.png,,0.9215686274509803,,1,,,,,,,,,,,,
2387.7999999523163,,directmemory_phase4,1244142,,,,,,,,object_11c.png,,,51,,,1,,object_03a.png,object_09b.png,object_07b.png,object_07b.png,,0.9230769230769231,,1,,,,,,,,,,,,
1183.8999999761581,,directmemory_phase4,1245329,,,,,,,,object_07c.png,,,49,,,1,,object_04a.png,object_10a.png,object_09b.png,object_04a.png,,0.9245283018867925,,1,,,,,,,,,,,,
1107.9000000357628,,directmemory_phase4,1246439,,,,,,,,object_08a.png,,,50,,,1,,object_04c.png,object_04b.png,object_09b.png,object_04b.png,,0.9259259259259259,,1,,,,,,,,,,,,
1032.699999988079,,directmemory_phase4,1247475,,,,,,,,object_07a.png,,,50,,,1,,object_04a.png,object_03c.png,object_09b.png,object_03c.png,,0.9272727272727272,,1,1,,,,,,,,,,,
null,,slowdown_page,1257477,,,,,,,,too_quick,,,null,,,,,,,,,,,,,,,,,,,,,,,,
2353.199999988079,,directmemory_phase4,1259832,,,,,,,,object_10c.png,,,49,,,1,,object_01c.png,object_10a.png,object_04a.png,object_01c.png,,0.9285714285714286,,1,,,,,,,,,,,,
3014.900000035763,,directmemory_phase4,1262852,,,,,,,,object_15c.png,,,50,,,1,,object_07b.png,object_03a.png,object_13c.png,object_03a.png,,0.9298245614035088,,1,,,,,,,,,,,,
2607.899999976158,,directmemory_phase4,1265469,,,,,,,,object_06a.png,,,50,,,1,,object_09c.png,object_10a.png,object_03b.png,object_10a.png,,0.9310344827586207,,1,,,,,,,,,,,,
2365.600000023842,,directmemory_phase4,1267841,,,,,,,,object_09a.png,,,49,,,1,,object_04c.png,object_01a.png,object_10a.png,object_04c.png,,0.9322033898305084,,1,,,,,,,,,,,,
3073.399999976158,,directmemory_phase4,1270918,,,,,,,,object_05b.png,,,51,,,1,,object_04c.png,object_13c.png,object_09c.png,object_09c.png,,0.9333333333333333,,1,,,,,,,,,,,,
null,,thebreak,1271023,,,,,,,,<p></p>,,,null,,,,,,,,,,,,,,,,,,,,,,,,
22343.399999976158,,intro_0,1293369,,,,,,,,instruct,,,32,,,,,,,,,,,,,,,,,,,,,,,,
null,,learn_phase(without_color)5,1296871,,,,,,,,black_plus_sign,,,null,object_10c.png,object_05a.png,,,,,,,,,,,,,,,,,,,,,,
null,,black_cross(without_color)5,1297772,,,,,,,,blue,,,null,object_10c.png,object_05a.png,,,,,,,,,,,,,,,,,,,,,,
null,,rt_plussign_withcolor5,1298276,,,,,,,,blue,,,null,object_10c.png,object_05a.png,,,,,,,,,,,,,,,,,,,,,,
1566.199999988079,,rt_thecrossant_black5,1299393,,,,,,,,black_plus_sign,,,49,,,1,,,,,,,1,,,,,,,,,,,,,,
null,,color_black5,1299496,,,,,,,,black_plus_sign,,,null,,,,,,,,,,,,,,,,,,,,,,,,
null,,learn_phase(without_color)5,1302999,,,,,,,,black_plus_sign,,,null,object_11c.png,object_02a.png,,,,,,,,,,,,,,,,,,,,,,
null,,black_cross(without_color)5,1303472,,,,,,,,blue,,,null,object_11c.png,object_02a.png,,,,,,,,,,,,,,,,,,,,,,
null,,rt_plussign_withcolor5,1303975,,,,,,,,blue,,,null,object_11c.png,object_02a.png,,,,,,,,,,,,,,,,,,,,,,
1281.199999988079,,rt_thecrossant_black5,1305509,,,,,,,,black_plus_sign,,,49,,,1,,,,,,,1,,,,,,,,,,,,,,
null,,color_black5,1305614,,,,,,,,black_plus_sign,,,null,,,,,,,,,,,,,,,,,,,,,,,,
null,,learn_phase(without_color)5,1309119,,,,,,,,black_plus_sign,,,null,object_06a.png,object_10b.png,,,,,,,,,,,,,,,,,,,,,,
null,,black_cross(without_color)5,1310051,,,,,,,,blue,,,null,object_06a.png,object_10b.png,,,,,,,,,,,,,,,,,,,,,,
null,,rt_plussign_withcolor5,1310553,,,,,,,,blue,,,null,object_06a.png,object_10b.png,,,,,,,,,,,,,,,,,,,,,,
813.8000000119209,,rt_thecrossant_black5,1311627,,,,,,,,black_plus_sign,,,49,,,1,,,,,,,1,,,,,,,,,,,,,,
null,,color_black5,1311730,,,,,,,,black_plus_sign,,,null,,,,,,,,,,,,,,,,,,,,,,,,
null,,learn_phase(without_color)5,1315234,,,,,,,,black_plus_sign,,,null,object_07a.png,object_13b.png,,,,,,,,,,,,,,,,,,,,,,
null,,black_cross(without_color)5,1315885,,,,,,,,green,,,null,object_07a.png,object_13b.png,,,,,,,,,,,,,,,,,,,,,,
null,,rt_plussign_withcolor5,1316387,,,,,,,,green,,,null,object_07a.png,object_13b.png,,,,,,,,,,,,,,,,,,,,,,
1291.8999999761581,,rt_thecrossant_black5,1317742,,,,,,,,black_plus_sign,,,50,,,1,,,,,,,1,,,,,,,,,,,,,,
null,,color_black5,1317845,,,,,,,,black_plus_sign,,,null,,,,,,,,,,,,,,,,,,,,,,,,
null,,learn_phase(without_color)5,1321352,,,,,,,,black_plus_sign,,,null,object_08a.png,object_12a.png,,,,,,,,,,,,,,,,,,,,,,
null,,black_cross(without_color)5,1322029,,,,,,,,blue,,,null,object_08a.png,object_12a.png,,,,,,,,,,,,,,,,,,,,,,
null,,rt_plussign_withcolor5,1322533,,,,,,,,blue,,,null,object_08a.png,object_12a.png,,,,,,,,,,,,,,,,,,,,,,
989.8000000119209,,rt_thecrossant_black5,1323862,,,,,,,,black_plus_sign,,,49,,,1,,,,,,,1,,,,,,,,,,,,,,
null,,color_black5,1323967,,,,,,,,black_plus_sign,,,null,,,,,,,,,,,,,,,,,,,,,,,,
null,,learn_phase(without_color)5,1327472,,,,,,,,black_plus_sign,,,null,object_05c.png,object_02c.png,,,,,,,,,,,,,,,,,,,,,,
null,,black_cross(without_color)5,1328283,,,,,,,,green,,,null,object_05c.png,object_02c.png,,,,,,,,,,,,,,,,,,,,,,
null,,rt_plussign_withcolor5,1328787,,,,,,,,green,,,null,object_05c.png,object_02c.png,,,,,,,,,,,,,,,,,,,,,,
843.5999999642372,,rt_thecrossant_black5,1329982,,,,,,,,black_plus_sign,,,50,,,1,,,,,,,1,,,,,,,,,,,,,,
null,,color_black5,1330086,,,,,,,,black_plus_sign,,,null,,,,,,,,,,,,,,,,,,,,,,,,
null,,learn_phase(without_color)5,1333589,,,,,,,,black_plus_sign,,,null,object_12c.png,object_14a.png,,,,,,,,,,,,,,,,,,,,,,
null,,black_cross(without_color)5,1334390,,,,,,,,green,,,null,object_12c.png,object_14a.png,,,,,,,,,,,,,,,,,,,,,,
null,,rt_plussign_withcolor5,1334893,,,,,,,,green,,,null,object_12c.png,object_14a.png,,,,,,,,,,,,,,,,,,,,,,
1144,,rt_thecrossant_black5,1336096,,,,,,,,black_plus_sign,,,50,,,1,,,,,,,1,,,,,,,,,,,,,,
null,,color_black5,1336206,,,,,,,,black_plus_sign,,,null,,,,,,,,,,,,,,,,,,,,,,,,
null,,learn_phase(without_color)5,1339710,,,,,,,,black_plus_sign,,,null,object_15c.png,object_14b.png,,,,,,,,,,,,,,,,,,,,,,
null,,black_cross(without_color)5,1340468,,,,,,,,blue,,,null,object_15c.png,object_14b.png,,,,,,,,,,,,,,,,,,,,,,
null,,rt_plussign_withcolor5,1340970,,,,,,,,blue,,,null,object_15c.png,object_14b.png,,,,,,,,,,,,,,,,,,,,,,
1145.5,,rt_thecrossant_black5,1342224,,,,,,,,black_plus_sign,,,49,,,1,,,,,,,1,,,,,,,,,,,,,,
null,,color_black5,1342327,,,,,,,,black_plus_sign,,,null,,,,,,,,,,,,,,,,,,,,,,,,
null,,learn_phase(without_color)5,1345830,,,,,,,,black_plus_sign,,,null,object_15a.png,object_14c.png,,,,,,,,,,,,,,,,,,,,,,
null,,black_cross(without_color)5,1346758,,,,,,,,green,,,null,object_15a.png,object_14c.png,,,,,,,,,,,,,,,,,,,,,,
null,,rt_plussign_withcolor5,1347260,,,,,,,,green,,,null,object_15a.png,object_14c.png,,,,,,,,,,,,,,,,,,,,,,
974.2999999523163,,rt_thecrossant_black5,1348339,,,,,,,,black_plus_sign,,,50,,,1,,,,,,,1,,,,,,,,,,,,,,
null,,color_black5,1348441,,,,,,,,black_plus_sign,,,null,,,,,,,,,,,,,,,,,,,,,,,,
null,,learn_phase(without_color)5,1351947,,,,,,,,black_plus_sign,,,null,object_02b.png,object_01b.png,,,,,,,,,,,,,,,,,,,,,,
null,,black_cross(without_color)5,1352897,,,,,,,,blue,,,null,object_02b.png,object_01b.png,,,,,,,,,,,,,,,,,,,,,,
404.69999998807907,,rt_plussign_withcolor5,1353399,,,,,,,,blue,,,49,object_02b.png,object_01b.png,,,,,,,,,,,,,,,,,,,,,,
null,,rt_thecrossant_black5,1354456,,,,,,,,black_plus_sign,,,null,,,1,,,,,,,1,,,,,,,,,,,,,,
null,,color_black5,1354559,,,,,,,,black_plus_sign,,,null,,,,,,,,,,,,,,,,,,,,,,,,
null,,learn_phase(without_color)5,1358062,,,,,,,,black_plus_sign,,,null,object_07c.png,object_11b.png,,,,,,,,,,,,,,,,,,,,,,
null,,black_cross(without_color)5,1358904,,,,,,,,green,,,null,object_07c.png,object_11b.png,,,,,,,,,,,,,,,,,,,,,,
498.80000001192093,,rt_plussign_withcolor5,1359407,,,,,,,,green,,,50,object_07c.png,object_11b.png,,,,,,,,,,,,,,,,,,,,,,
null,,rt_thecrossant_black5,1360573,,,,,,,,black_plus_sign,,,null,,,1,,,,,,,1,,,,,,,,,,,,,,
null,,color_black5,1360676,,,,,,,,black_plus_sign,,,null,,,,,,,,,,,,,,,,,,,,,,,,
null,,learn_phase(without_color)5,1364181,,,,,,,,black_plus_sign,,,null,object_05b.png,object_06c.png,,,,,,,,,,,,,,,,,,,,,,
null,,black_cross(without_color)5,1364932,,,,,,,,blue,,,null,object_05b.png,object_06c.png,,,,,,,,,,,,,,,,,,,,,,
null,,rt_plussign_withcolor5,1365435,,,,,,,,blue,,,null,object_05b.png,object_06c.png,,,,,,,,,,,,,,,,,,,,,,
1008.7000000476837,,rt_thecrossant_black5,1366690,,,,,,,,black_plus_sign,,,49,,,1,,,,,,,1,,,,,,,,,,,,,,
null,,color_black5,1366792,,,,,,,,black_plus_sign,,,null,,,,,,,,,,,,,,,,,,,,,,,,
null,,learn_phase(without_color)5,1370295,,,,,,,,black_plus_sign,,,null,object_08b.png,object_15b.png,,,,,,,,,,,,,,,,,,,,,,
null,,black_cross(without_color)5,1371254,,,,,,,,blue,,,null,object_08b.png,object_15b.png,,,,,,,,,,,,,,,,,,,,,,
null,,rt_plussign_withcolor5,1371756,,,,,,,,blue,,,null,object_08b.png,object_15b.png,,,,,,,,,,,,,,,,,,,,,,
1241.5,,rt_thecrossant_black5,1372805,,,,,,,,black_plus_sign,,,49,,,1,,,,,,,1,,,,,,,,,,,,,,
null,,color_black5,1372907,,,,,,,,black_plus_sign,,,null,,,,,,,,,,,,,,,,,,,,,,,,
null,,learn_phase(without_color)5,1376411,,,,,,,,black_plus_sign,,,null,object_11a.png,object_08c.png,,,,,,,,,,,,,,,,,,,,,,
null,,black_cross(without_color)5,1377281,,,,,,,,blue,,,null,object_11a.png,object_08c.png,,,,,,,,,,,,,,,,,,,,,,
null,,rt_plussign_withcolor5,1377782,,,,,,,,blue,,,null,object_11a.png,object_08c.png,,,,,,,,,,,,,,,,,,,,,,
1202.3999999761581,,rt_thecrossant_black5,1378916,,,,,,,,black_plus_sign,,,49,,,1,,,,,,,1,,,,,,,,,,,,,,
null,,color_black5,1379018,,,,,,,,black_plus_sign,,,null,,,,,,,,,,,,,,,,,,,,,,,,
null,,learn_phase(without_color)5,1382522,,,,,,,,black_plus_sign,,,null,object_09a.png,object_12b.png,,,,,,,,,,,,,,,,,,,,,,
null,,black_cross(without_color)5,1383094,,,,,,,,green,,,null,object_09a.png,object_12b.png,,,,,,,,,,,,,,,,,,,,,,
null,,rt_plussign_withcolor5,1383596,,,,,,,,green,,,null,object_09a.png,object_12b.png,,,,,,,,,,,,,,,,,,,,,,
992,,rt_thecrossant_black5,1385032,,,,,,,,black_plus_sign,,,50,,,1,,,,,,,1,,,,,,,,,,,,,,
null,,color_black5,1385135,,,,,,,,black_plus_sign,,,null,,,,,,,,,,,,,,,,,,,,,,,,
null,,thebreak,1385239,,,,,,,,<p></p>,,,null,,,,,,,,,,,,,,,,,,,,,,,,
1788.5999999642372,,intro_0,1387030,,,,,,,,instruct,,,32,,,,,,,,,,,,,,,,,,,,,,,,
3573.899999976158,,directmemory_phase5,1390605,,,,,,,,object_14a.png,,,50,,,1,,object_07c.png,object_12c.png,object_09a.png,object_12c.png,,0.9344262295081968,,1,,,,,,,,,,,,
6726.899999976158,,directmemory_phase5,1397338,,,,,,,,object_10b.png,,,49,,,0,,object_08b.png,object_02b.png,object_06a.png,object_06a.png,,0.9193548387096774,,0,,,,,,,,,,,,
5228.100000023842,,directmemory_phase5,1402571,,,,,,,,object_02c.png,,,49,,,1,,object_05c.png,object_08b.png,object_06a.png,object_05c.png,,0.9206349206349206,,1,,,,,,,,,,,,
2551.099999964237,,directmemory_phase5,1405126,,,,,,,,object_01b.png,,,50,,,1,,object_05c.png,object_02b.png,object_07c.png,object_02b.png,,0.921875,,1,,,,,,,,,,,,
4943.399999976158,,directmemory_phase5,1410076,,,,,,,,object_13b.png,,,49,,,1,,object_07a.png,object_05c.png,object_08b.png,object_07a.png,,0.9230769230769231,,1,,,,,,,,,,,,
5865.099999964237,,directmemory_phase5,1415946,,,,,,,,object_14b.png,,,51,,,1,,object_09a.png,object_10c.png,object_15c.png,object_15c.png,,0.9242424242424242,,1,,,,,,,,,,,,
3149.5,,directmemory_phase5,1419097,,,,,,,,object_14c.png,,,51,,,1,,object_10c.png,object_07c.png,object_15a.png,object_15a.png,,0.9253731343283582,,1,,,,,,,,,,,,
2755.400000035763,,directmemory_phase5,1421856,,,,,,,,object_11b.png,,,49,,,1,,object_07c.png,object_12c.png,object_06a.png,object_07c.png,,0.9264705882352942,,1,,,,,,,,,,,,
4749,,directmemory_phase5,1426607,,,,,,,,object_15b.png,,,49,,,1,,object_08b.png,object_15c.png,object_12c.png,object_08b.png,,0.927536231884058,,1,,,,,,,,,,,,
4057.899999976158,,directmemory_phase5,1430669,,,,,,,,object_02a.png,,,50,,,1,,object_15c.png,object_11c.png,object_06a.png,object_11c.png,,0.9285714285714286,,1,,,,,,,,,,,,
3773,,directmemory_phase5,1434445,,,,,,,,object_05a.png,,,49,,,1,,object_10c.png,object_02b.png,object_05b.png,object_10c.png,,0.9295774647887324,,1,,,,,,,,,,,,
4012.600000023842,,directmemory_phase5,1438462,,,,,,,,object_06c.png,,,51,,,1,,object_12c.png,object_08b.png,object_05b.png,object_05b.png,,0.9305555555555556,,1,,,,,,,,,,,,
3208.699999988079,,directmemory_phase5,1441675,,,,,,,,object_08c.png,,,50,,,1,,object_12c.png,object_11a.png,object_08b.png,object_11a.png,,0.9315068493150684,,1,,,,,,,,,,,,
2435.5,,directmemory_phase5,1444117,,,,,,,,object_12a.png,,,51,,,1,,object_08b.png,object_07a.png,object_08a.png,object_08a.png,,0.9324324324324325,,1,,,,,,,,,,,,
2781.599999964237,,directmemory_phase5,1446903,,,,,,,,object_12b.png,,,50,,,1,,object_06a.png,object_09a.png,object_07a.png,object_09a.png,,0.9333333333333333,,1,,,,,,,,,,,,
null,,thebreak,1447005,,,,,,,,<p></p>,,,null,,,,,,,,,,,,,,,,,,,,,,,,
28281,,intro_0,1475289,,,,,,,,instruct,,,32,,,,,,,,,,,,,,,,,,,,,,,,
null,,learn_phase(without_color)6,1478792,,,,,,,,black_plus_sign,,,null,object_05b.png,object_06c.png,,,,,,,,,,,,,,,,,,,,,,
null,,black_cross(without_color)6,1479638,,,,,,,,green,,,null,object_05b.png,object_06c.png,,,,,,,,,,,,,,,,,,,,,,
null,,rt_plussign_withcolor6,1480139,,,,,,,,green,,,null,object_05b.png,object_06c.png,,,,,,,,,,,,,,,,,,,,,,
1292.1000000238419,,rt_thecrossant_black6,1481298,,,,,,,,black_plus_sign,,,50,,,1,,,,,,,1,,,,,,,,,,,,,,
null,,color_black6,1481412,,,,,,,,black_plus_sign,,,null,,,,,,,,,,,,,,,,,,,,,,,,
null,,learn_phase(without_color)6,1484914,,,,,,,,black_plus_sign,,,null,object_15a.png,object_14c.png,,,,,,,,,,,,,,,,,,,,,,
null,,black_cross(without_color)6,1485861,,,,,,,,blue,,,null,object_15a.png,object_14c.png,,,,,,,,,,,,,,,,,,,,,,
null,,rt_plussign_withcolor6,1486364,,,,,,,,blue,,,null,object_15a.png,object_14c.png,,,,,,,,,,,,,,,,,,,,,,
null,,rt_thecrossant_black6,1487423,,,,,,,,black_plus_sign,,,null,,,,,,,,,,1,,,,,,,,,,,,,,
null,,color_black6,1487527,,,,,,,,black_plus_sign,,,null,,,,,,,,,,,,,,,,,,,,,,,,
null,,learn_phase(without_color)6,1491033,,,,,,,,black_plus_sign,,,null,object_05c.png,object_02c.png,,,,,,,,,,,,,,,,,,,,,,
null,,black_cross(without_color)6,1491477,,,,,,,,blue,,,null,object_05c.png,object_02c.png,,,,,,,,,,,,,,,,,,,,,,
null,,rt_plussign_withcolor6,1491979,,,,,,,,blue,,,null,object_05c.png,object_02c.png,,,,,,,,,,,,,,,,,,,,,,
1372.3999999761581,,rt_thecrossant_black6,1493543,,,,,,,,black_plus_sign,,,49,,,1,,,,,,,1,,,,,,,,,,,,,,
null,,color_black6,1493646,,,,,,,,black_plus_sign,,,null,,,,,,,,,,,,,,,,,,,,,,,,
null,,learn_phase(without_color)6,1497152,,,,,,,,black_plus_sign,,,null,object_07c.png,object_11b.png,,,,,,,,,,,,,,,,,,,,,,
null,,black_cross(without_color)6,1498117,,,,,,,,green,,,null,object_07c.png,object_11b.png,,,,,,,,,,,,,,,,,,,,,,
446.39999997615814,,rt_plussign_withcolor6,1498620,,,,,,,,green,,,50,object_07c.png,object_11b.png,,,,,,,,,,,,,,,,,,,,,,
null,,rt_thecrossant_black6,1499660,,,,,,,,black_plus_sign,,,null,,,1,,,,,,,1,,,,,,,,,,,,,,
null,,color_black6,1499762,,,,,,,,black_plus_sign,,,null,,,,,,,,,,,,,,,,,,,,,,,,
null,,learn_phase(without_color)6,1503266,,,,,,,,black_plus_sign,,,null,object_12c.png,object_14a.png,,,,,,,,,,,,,,,,,,,,,,
null,,black_cross(without_color)6,1504182,,,,,,,,green,,,null,object_12c.png,object_14a.png,,,,,,,,,,,,,,,,,,,,,,
null,,rt_plussign_withcolor6,1504684,,,,,,,,green,,,null,object_12c.png,object_14a.png,,,,,,,,,,,,,,,,,,,,,,
1404.0999999642372,,rt_thecrossant_black6,1505776,,,,,,,,black_plus_sign,,,50,,,1,,,,,,,1,,,,,,,,,,,,,,
null,,color_black6,1505878,,,,,,,,black_plus_sign,,,null,,,,,,,,,,,,,,,,,,,,,,,,
null,,learn_phase(without_color)6,1509381,,,,,,,,black_plus_sign,,,null,object_15c.png,object_14b.png,,,,,,,,,,,,,,,,,,,,,,
null,,black_cross(without_color)6,1510055,,,,,,,,blue,,,null,object_15c.png,object_14b.png,,,,,,,,,,,,,,,,,,,,,,
494.19999998807907,,rt_plussign_withcolor6,1510560,,,,,,,,blue,,,49,object_15c.png,object_14b.png,,,,,,,,,,,,,,,,,,,,,,
null,,rt_thecrossant_black6,1511893,,,,,,,,black_plus_sign,,,null,,,1,,,,,,,1,,,,,,,,,,,,,,
null,,color_black6,1511996,,,,,,,,black_plus_sign,,,null,,,,,,,,,,,,,,,,,,,,,,,,
null,,learn_phase(without_color)6,1515498,,,,,,,,black_plus_sign,,,null,object_07a.png,object_13b.png,,,,,,,,,,,,,,,,,,,,,,
null,,black_cross(without_color)6,1516390,,,,,,,,blue,,,null,object_07a.png,object_13b.png,,,,,,,,,,,,,,,,,,,,,,
null,,rt_plussign_withcolor6,1516893,,,,,,,,blue,,,null,object_07a.png,object_13b.png,,,,,,,,,,,,,,,,,,,,,,
890,,rt_thecrossant_black6,1518012,,,,,,,,black_plus_sign,,,49,,,1,,,,,,,1,,,,,,,,,,,,,,
null,,color_black6,1518118,,,,,,,,black_plus_sign,,,null,,,,,,,,,,,,,,,,,,,,,,,,
null,,learn_phase(without_color)6,1521624,,,,,,,,black_plus_sign,,,null,object_08b.png,object_15b.png,,,,,,,,,,,,,,,,,,,,,,
null,,black_cross(without_color)6,1522045,,,,,,,,green,,,null,object_08b.png,object_15b.png,,,,,,,,,,,,,,,,,,,,,,
null,,rt_plussign_withcolor6,1522549,,,,,,,,green,,,null,object_08b.png,object_15b.png,,,,,,,,,,,,,,,,,,,,,,
1245.5999999642372,,rt_thecrossant_black6,1524134,,,,,,,,black_plus_sign,,,50,,,1,,,,,,,1,,,,,,,,,,,,,,
null,,color_black6,1524237,,,,,,,,black_plus_sign,,,null,,,,,,,,,,,,,,,,,,,,,,,,
null,,learn_phase(without_color)6,1527742,,,,,,,,black_plus_sign,,,null,object_02b.png,object_01b.png,,,,,,,,,,,,,,,,,,,,,,
null,,black_cross(without_color)6,1528759,,,,,,,,blue,,,null,object_02b.png,object_01b.png,,,,,,,,,,,,,,,,,,,,,,
null,,rt_plussign_withcolor6,1529262,,,,,,,,blue,,,null,object_02b.png,object_01b.png,,,,,,,,,,,,,,,,,,,,,,
737.7000000476837,,rt_thecrossant_black6,1530252,,,,,,,,black_plus_sign,,,49,,,1,,,,,,,1,,,,,,,,,,,,,,
null,,color_black6,1530355,,,,,,,,black_plus_sign,,,null,,,,,,,,,,,,,,,,,,,,,,,,
null,,learn_phase(without_color)6,1533859,,,,,,,,black_plus_sign,,,null,object_11c.png,object_02a.png,,,,,,,,,,,,,,,,,,,,,,
null,,black_cross(without_color)6,1534592,,,,,,,,blue,,,null,object_11c.png,object_02a.png,,,,,,,,,,,,,,,,,,,,,,
null,,rt_plussign_withcolor6,1535109,,,,,,,,blue,,,null,object_11c.png,object_02a.png,,,,,,,,,,,,,,,,,,,,,,
1114.199999988079,,rt_thecrossant_black6,1536383,,,,,,,,black_plus_sign,,,49,,,1,,,,,,,1,,,,,,,,,,,,,,
null,,color_black6,1536487,,,,,,,,black_plus_sign,,,null,,,,,,,,,,,,,,,,,,,,,,,,
null,,learn_phase(without_color)6,1539993,,,,,,,,black_plus_sign,,,null,object_08a.png,object_12a.png,,,,,,,,,,,,,,,,,,,,,,
null,,black_cross(without_color)6,1541072,,,,,,,,green,,,null,object_08a.png,object_12a.png,,,,,,,,,,,,,,,,,,,,,,
null,,rt_plussign_withcolor6,1541576,,,,,,,,green,,,null,object_08a.png,object_12a.png,,,,,,,,,,,,,,,,,,,,,,
1075,,rt_thecrossant_black6,1542504,,,,,,,,black_plus_sign,,,50,,,1,,,,,,,1,,,,,,,,,,,,,,
null,,color_black6,1542608,,,,,,,,black_plus_sign,,,null,,,,,,,,,,,,,,,,,,,,,,,,
null,,learn_phase(without_color)6,1546112,,,,,,,,black_plus_sign,,,null,object_11a.png,object_08c.png,,,,,,,,,,,,,,,,,,,,,,
null,,black_cross(without_color)6,1547206,,,,,,,,blue,,,null,object_11a.png,object_08c.png,,,,,,,,,,,,,,,,,,,,,,
null,,rt_plussign_withcolor6,1547711,,,,,,,,blue,,,null,object_11a.png,object_08c.png,,,,,,,,,,,,,,,,,,,,,,
1416,,rt_thecrossant_black6,1548625,,,,,,,,black_plus_sign,,,49,,,1,,,,,,,1,,,,,,,,,,,,,,
null,,color_black6,1548728,,,,,,,,black_plus_sign,,,null,,,,,,,,,,,,,,,,,,,,,,,,
null,,learn_phase(without_color)6,1552233,,,,,,,,black_plus_sign,,,null,object_10c.png,object_05a.png,,,,,,,,,,,,,,,,,,,,,,
null,,black_cross(without_color)6,1553091,,,,,,,,blue,,,null,object_10c.png,object_05a.png,,,,,,,,,,,,,,,,,,,,,,
null,,rt_plussign_withcolor6,1553593,,,,,,,,blue,,,null,object_10c.png,object_05a.png,,,,,,,,,,,,,,,,,,,,,,
1557.0999999642372,,rt_thecrossant_black6,1554739,,,,,,,,black_plus_sign,,,49,,,1,,,,,,,1,,,,,,,,,,,,,,
null,,color_black6,1554842,,,,,,,,black_plus_sign,,,null,,,,,,,,,,,,,,,,,,,,,,,,
null,,learn_phase(without_color)6,1558349,,,,,,,,black_plus_sign,,,null,object_06a.png,object_10b.png,,,,,,,,,,,,,,,,,,,,,,
null,,black_cross(without_color)6,1559168,,,,,,,,blue,,,null,object_06a.png,object_10b.png,,,,,,,,,,,,,,,,,,,,,,
null,,rt_plussign_withcolor6,1559670,,,,,,,,blue,,,null,object_06a.png,object_10b.png,,,,,,,,,,,,,,,,,,,,,,
1378.7999999523163,,rt_thecrossant_black6,1560859,,,,,,,,black_plus_sign,,,49,,,1,,,,,,,1,,,,,,,,,,,,,,
null,,color_black6,1560962,,,,,,,,black_plus_sign,,,null,,,,,,,,,,,,,,,,,,,,,,,,
null,,learn_phase(without_color)6,1564466,,,,,,,,black_plus_sign,,,null,object_09a.png,object_12b.png,,,,,,,,,,,,,,,,,,,,,,
null,,black_cross(without_color)6,1564960,,,,,,,,blue,,,null,object_09a.png,object_12b.png,,,,,,,,,,,,,,,,,,,,,,
null,,rt_plussign_withcolor6,1565463,,,,,,,,blue,,,null,object_09a.png,object_12b.png,,,,,,,,,,,,,,,,,,,,,,
1617,,rt_thecrossant_black6,1566973,,,,,,,,black_plus_sign,,,49,,,1,,,,,,,1,,,,,,,,,,,,,,
null,,color_black6,1567077,,,,,,,,black_plus_sign,,,null,,,,,,,,,,,,,,,,,,,,,,,,
null,,thebreak,1567181,,,,,,,,<p></p>,,,null,,,,,,,,,,,,,,,,,,,,,,,,
1551.699999988079,,intro_0,1568735,,,,,,,,instruct,,,32,,,,,,,,,,,,,,,,,,,,,,,,
2881.600000023842,,directmemory_phase6,1571618,,,,,,,,object_05a.png,,,50,,,1,,object_05b.png,object_10c.png,object_11a.png,object_10c.png,,0.9342105263157895,,1,,,,,,,,,,,,
2155.5,,directmemory_phase6,1573778,,,,,,,,object_14c.png,,,50,,,1,,object_07c.png,object_15a.png,object_09a.png,object_15a.png,,0.935064935064935,,1,,,,,,,,,,,,
2152.199999988079,,directmemory_phase6,1575932,,,,,,,,object_11b.png,,,51,,,1,,object_07a.png,object_05b.png,object_07c.png,object_07c.png,,0.9358974358974359,,1,,,,,,,,,,,,
7487.099999964237,,directmemory_phase6,1583422,,,,,,,,object_06c.png,,,49,,,1,,object_05b.png,object_02b.png,object_15c.png,object_05b.png,,0.9367088607594937,,1,,,,,,,,,,,,
1712.2999999523163,,directmemory_phase6,1585138,,,,,,,,object_02a.png,,,50,,,1,,object_07c.png,object_11c.png,object_11a.png,object_11c.png,,0.9375,,1,,,,,,,,,,,,
2280,,directmemory_phase6,1587422,,,,,,,,object_13b.png,,,50,,,1,,object_10c.png,object_07a.png,object_08b.png,object_07a.png,,0.9382716049382716,,1,,,,,,,,,,,,
1390.3999999761581,,directmemory_phase6,1588817,,,,,,,,object_12a.png,,,49,,,1,,object_08a.png,object_06a.png,object_07a.png,object_08a.png,,0.9390243902439024,,1,,,,,,,,,,,,
1963.7999999523163,,directmemory_phase6,1590785,,,,,,,,object_14a.png,,,51,,,1,,object_07c.png,object_06a.png,object_12c.png,object_12c.png,,0.9397590361445783,,1,,,,,,,,,,,,
1704.6000000238419,,directmemory_phase6,1592493,,,,,,,,object_01b.png,,,49,,,1,,object_02b.png,object_08b.png,object_09a.png,object_02b.png,,0.9404761904761905,,1,,,,,,,,,,,,
2082.100000023842,,directmemory_phase6,1594577,,,,,,,,object_02c.png,,,51,,,1,,object_09a.png,object_07a.png,object_05c.png,object_05c.png,,0.9411764705882353,,1,,,,,,,,,,,,
2644.5,,directmemory_phase6,1597223,,,,,,,,object_15b.png,,,50,,,1,,object_10c.png,object_08b.png,object_07c.png,object_08b.png,,0.9418604651162791,,1,,,,,,,,,,,,
1729.699999988079,,directmemory_phase6,1598957,,,,,,,,object_12b.png,,,51,,,1,,object_15a.png,object_15c.png,object_09a.png,object_09a.png,,0.9425287356321839,,1,,,,,,,,,,,,
1491.8999999761581,,directmemory_phase6,1600453,,,,,,,,object_14b.png,,,49,,,1,,object_15c.png,object_11c.png,object_10c.png,object_15c.png,,0.9431818181818182,,1,,,,,,,,,,,,
7554.600000023842,,directmemory_phase6,1608011,,,,,,,,object_10b.png,,,51,,,1,,object_11a.png,object_05c.png,object_06a.png,object_06a.png,,0.9438202247191011,,1,,,,,,,,,,,,
3091.400000035763,,directmemory_phase6,1611104,,,,,,,,object_08c.png,,,49,,,1,,object_11a.png,object_09a.png,object_12c.png,object_11a.png,,0.9444444444444444,,1,,,,,,,,,,,,
null,,thebreak,1611207,,,,,,,,<p></p>,,,null,,,,,,,,,,,,,,,,,,,,,,,,
50253.19999998808,,intro_0,1661462,,,,,,,,instruct,,,32,,,,,,,,,,,,,,,,,,,,,,,,
null,,learn_phase(without_color)7,1664967,,,,,,,,black_plus_sign,,,null,object_12c.png,object_14a.png,,,,,,,,,,,,,,,,,,,,,,
null,,black_cross(without_color)7,1665958,,,,,,,,green,,,null,object_12c.png,object_14a.png,,,,,,,,,,,,,,,,,,,,,,
null,,rt_plussign_withcolor7,1666460,,,,,,,,green,,,null,object_12c.png,object_14a.png,,,,,,,,,,,,,,,,,,,,,,
1302.800000011921,,rt_thecrossant_black7,1667475,,,,,,,,black_plus_sign,,,50,,,1,,,,,,,1,,,,,,,,,,,,,,
null,,color_black7,1667581,,,,,,,,black_plus_sign,,,null,,,,,,,,,,,,,,,,,,,,,,,,
null,,learn_phase(without_color)7,1671087,,,,,,,,black_plus_sign,,,null,object_11c.png,object_02a.png,,,,,,,,,,,,,,,,,,,,,,
null,,black_cross(without_color)7,1672095,,,,,,,,blue,,,null,object_11c.png,object_02a.png,,,,,,,,,,,,,,,,,,,,,,
null,,rt_plussign_withcolor7,1672596,,,,,,,,blue,,,null,object_11c.png,object_02a.png,,,,,,,,,,,,,,,,,,,,,,
1332.5,,rt_thecrossant_black7,1673595,,,,,,,,black_plus_sign,,,49,,,1,,,,,,,1,,,,,,,,,,,,,,
null,,color_black7,1673699,,,,,,,,black_plus_sign,,,null,,,,,,,,,,,,,,,,,,,,,,,,
null,,learn_phase(without_color)7,1677204,,,,,,,,black_plus_sign,,,null,object_10c.png,object_05a.png,,,,,,,,,,,,,,,,,,,,,,
null,,black_cross(without_color)7,1677812,,,,,,,,blue,,,null,object_10c.png,object_05a.png,,,,,,,,,,,,,,,,,,,,,,
null,,rt_plussign_withcolor7,1678314,,,,,,,,blue,,,null,object_10c.png,object_05a.png,,,,,,,,,,,,,,,,,,,,,,
1479.300000011921,,rt_thecrossant_black7,1679711,,,,,,,,black_plus_sign,,,49,,,1,,,,,,,1,,,,,,,,,,,,,,
null,,color_black7,1679816,,,,,,,,black_plus_sign,,,null,,,,,,,,,,,,,,,,,,,,,,,,
null,,learn_phase(without_color)7,1683322,,,,,,,,black_plus_sign,,,null,object_15c.png,object_14b.png,,,,,,,,,,,,,,,,,,,,,,
null,,black_cross(without_color)7,1684304,,,,,,,,green,,,null,object_15c.png,object_14b.png,,,,,,,,,,,,,,,,,,,,,,
null,,rt_plussign_withcolor7,1684808,,,,,,,,green,,,null,object_15c.png,object_14b.png,,,,,,,,,,,,,,,,,,,,,,
981.6999999880791,,rt_thecrossant_black7,1685830,,,,,,,,black_plus_sign,,,50,,,1,,,,,,,1,,,,,,,,,,,,,,
null,,color_black7,1685931,,,,,,,,black_plus_sign,,,null,,,,,,,,,,,,,,,,,,,,,,,,
null,,learn_phase(without_color)7,1689435,,,,,,,,black_plus_sign,,,null,object_15a.png,object_14c.png,,,,,,,,,,,,,,,,,,,,,,
null,,black_cross(without_color)7,1690315,,,,,,,,green,,,null,object_15a.png,object_14c.png,,,,,,,,,,,,,,,,,,,,,,
460.89999997615814,,rt_plussign_withcolor7,1690817,,,,,,,,green,,,50,object_15a.png,object_14c.png,,,,,,,,,,,,,,,,,,,,,,
null,,rt_thecrossant_black7,1691944,,,,,,,,black_plus_sign,,,null,,,1,,,,,,,1,,,,,,,,,,,,,,
null,,color_black7,1692049,,,,,,,,black_plus_sign,,,null,,,,,,,,,,,,,,,,,,,,,,,,
null,,learn_phase(without_color)7,1695554,,,,,,,,black_plus_sign,,,null,object_09a.png,object_12b.png,,,,,,,,,,,,,,,,,,,,,,
null,,black_cross(without_color)7,1696064,,,,,,,,blue,,,null,object_09a.png,object_12b.png,,,,,,,,,,,,,,,,,,,,,,
456.7999999523163,,rt_plussign_withcolor7,1696567,,,,,,,,blue,,,49,object_09a.png,object_12b.png,,,,,,,,,,,,,,,,,,,,,,
null,,rt_thecrossant_black7,1698064,,,,,,,,black_plus_sign,,,null,,,1,,,,,,,1,,,,,,,,,,,,,,
null,,color_black7,1698167,,,,,,,,black_plus_sign,,,null,,,,,,,,,,,,,,,,,,,,,,,,
null,,learn_phase(without_color)7,1701672,,,,,,,,black_plus_sign,,,null,object_06a.png,object_10b.png,,,,,,,,,,,,,,,,,,,,,,
null,,black_cross(without_color)7,1702507,,,,,,,,green,,,null,object_06a.png,object_10b.png,,,,,,,,,,,,,,,,,,,,,,
null,,rt_plussign_withcolor7,1703010,,,,,,,,green,,,null,object_06a.png,object_10b.png,,,,,,,,,,,,,,,,,,,,,,
839.5,,rt_thecrossant_black7,1704180,,,,,,,,black_plus_sign,,,50,,,1,,,,,,,1,,,,,,,,,,,,,,
null,,color_black7,1704286,,,,,,,,black_plus_sign,,,null,,,,,,,,,,,,,,,,,,,,,,,,
null,,learn_phase(without_color)7,1707789,,,,,,,,black_plus_sign,,,null,object_02b.png,object_01b.png,,,,,,,,,,,,,,,,,,,,,,
null,,black_cross(without_color)7,1708533,,,,,,,,green,,,null,object_02b.png,object_01b.png,,,,,,,,,,,,,,,,,,,,,,
null,,rt_plussign_withcolor7,1709037,,,,,,,,green,,,null,object_02b.png,object_01b.png,,,,,,,,,,,,,,,,,,,,,,
1234.7000000476837,,rt_thecrossant_black7,1710298,,,,,,,,black_plus_sign,,,50,,,1,,,,,,,1,,,,,,,,,,,,,,
null,,color_black7,1710402,,,,,,,,black_plus_sign,,,null,,,,,,,,,,,,,,,,,,,,,,,,
null,,learn_phase(without_color)7,1713906,,,,,,,,black_plus_sign,,,null,object_08a.png,object_12a.png,,,,,,,,,,,,,,,,,,,,,,
null,,black_cross(without_color)7,1714456,,,,,,,,green,,,null,object_08a.png,object_12a.png,,,,,,,,,,,,,,,,,,,,,,
null,,rt_plussign_withcolor7,1714959,,,,,,,,green,,,null,object_08a.png,object_12a.png,,,,,,,,,,,,,,,,,,,,,,
846.5,,rt_thecrossant_black7,1716418,,,,,,,,black_plus_sign,,,50,,,1,,,,,,,1,,,,,,,,,,,,,,
null,,color_black7,1716522,,,,,,,,black_plus_sign,,,null,,,,,,,,,,,,,,,,,,,,,,,,
null,,learn_phase(without_color)7,1720024,,,,,,,,black_plus_sign,,,null,object_05b.png,object_06c.png,,,,,,,,,,,,,,,,,,,,,,
null,,black_cross(without_color)7,1720495,,,,,,,,blue,,,null,object_05b.png,object_06c.png,,,,,,,,,,,,,,,,,,,,,,
null,,rt_plussign_withcolor7,1720999,,,,,,,,blue,,,null,object_05b.png,object_06c.png,,,,,,,,,,,,,,,,,,,,,,
1096.6000000238419,,rt_thecrossant_black7,1722536,,,,,,,,black_plus_sign,,,49,,,1,,,,,,,1,,,,,,,,,,,,,,
null,,color_black7,1722639,,,,,,,,black_plus_sign,,,null,,,,,,,,,,,,,,,,,,,,,,,,
null,,learn_phase(without_color)7,1726142,,,,,,,,black_plus_sign,,,null,object_07c.png,object_11b.png,,,,,,,,,,,,,,,,,,,,,,
null,,black_cross(without_color)7,1726731,,,,,,,,blue,,,null,object_07c.png,object_11b.png,,,,,,,,,,,,,,,,,,,,,,
null,,rt_plussign_withcolor7,1727233,,,,,,,,blue,,,null,object_07c.png,object_11b.png,,,,,,,,,,,,,,,,,,,,,,
882,,rt_thecrossant_black7,1728651,,,,,,,,black_plus_sign,,,49,,,1,,,,,,,1,,,,,,,,,,,,,,
null,,color_black7,1728755,,,,,,,,black_plus_sign,,,null,,,,,,,,,,,,,,,,,,,,,,,,
null,,learn_phase(without_color)7,1732260,,,,,,,,black_plus_sign,,,null,object_08b.png,object_15b.png,,,,,,,,,,,,,,,,,,,,,,
null,,black_cross(without_color)7,1733213,,,,,,,,green,,,null,object_08b.png,object_15b.png,,,,,,,,,,,,,,,,,,,,,,
null,,rt_plussign_withcolor7,1733717,,,,,,,,green,,,null,object_08b.png,object_15b.png,,,,,,,,,,,,,,,,,,,,,,
932.3999999761581,,rt_thecrossant_black7,1734772,,,,,,,,black_plus_sign,,,50,,,1,,,,,,,1,,,,,,,,,,,,,,
null,,color_black7,1734875,,,,,,,,black_plus_sign,,,null,,,,,,,,,,,,,,,,,,,,,,,,
null,,learn_phase(without_color)7,1738379,,,,,,,,black_plus_sign,,,null,object_05c.png,object_02c.png,,,,,,,,,,,,,,,,,,,,,,
null,,black_cross(without_color)7,1739039,,,,,,,,green,,,null,object_05c.png,object_02c.png,,,,,,,,,,,,,,,,,,,,,,
null,,rt_plussign_withcolor7,1739541,,,,,,,,green,,,null,object_05c.png,object_02c.png,,,,,,,,,,,,,,,,,,,,,,
1252.0999999642372,,rt_thecrossant_black7,1740887,,,,,,,,black_plus_sign,,,50,,,1,,,,,,,1,,,,,,,,,,,,,,
null,,color_black7,1740989,,,,,,,,black_plus_sign,,,null,,,,,,,,,,,,,,,,,,,,,,,,
null,,learn_phase(without_color)7,1744493,,,,,,,,black_plus_sign,,,null,object_11a.png,object_08c.png,,,,,,,,,,,,,,,,,,,,,,
null,,black_cross(without_color)7,1745299,,,,,,,,green,,,null,object_11a.png,object_08c.png,,,,,,,,,,,,,,,,,,,,,,
421.5,,rt_plussign_withcolor7,1745802,,,,,,,,green,,,50,object_11a.png,object_08c.png,,,,,,,,,,,,,,,,,,,,,,
null,,rt_thecrossant_black7,1747005,,,,,,,,black_plus_sign,,,null,,,1,,,,,,,1,,,,,,,,,,,,,,
null,,color_black7,1747108,,,,,,,,black_plus_sign,,,null,,,,,,,,,,,,,,,,,,,,,,,,
null,,learn_phase(without_color)7,1750618,,,,,,,,black_plus_sign,,,null,object_07a.png,object_13b.png,,,,,,,,,,,,,,,,,,,,,,
null,,black_cross(without_color)7,1751264,,,,,,,,blue,,,null,object_07a.png,object_13b.png,,,,,,,,,,,,,,,,,,,,,,
null,,rt_plussign_withcolor7,1751767,,,,,,,,blue,,,null,object_07a.png,object_13b.png,,,,,,,,,,,,,,,,,,,,,,
1042.300000011921,,rt_thecrossant_black7,1753128,,,,,,,,black_plus_sign,,,49,,,1,,,,,,,1,,,,,,,,,,,,,,
null,,color_black7,1753232,,,,,,,,black_plus_sign,,,null,,,,,,,,,,,,,,,,,,,,,,,,
null,,thebreak,1753337,,,,,,,,<p></p>,,,null,,,,,,,,,,,,,,,,,,,,,,,,
3324.099999964237,,intro_0,1756664,,,,,,,,instruct,,,32,,,,,,,,,,,,,,,,,,,,,,,,
2150.5,,directmemory_phase7,1758818,,,,,,,,object_11b.png,,,51,,,1,,object_11c.png,object_07a.png,object_07c.png,object_07c.png,,0.945054945054945,,1,,,,,,,,,,,,
1457.199999988079,,directmemory_phase7,1760280,,,,,,,,object_14a.png,,,51,,,1,,object_11c.png,object_06a.png,object_12c.png,object_12c.png,,0.9456521739130435,,1,,,,,,,,,,,,
1163.2999999523163,,directmemory_phase7,1761447,,,,,,,,object_12a.png,,,50,,,1,,object_08b.png,object_08a.png,object_11c.png,object_08a.png,,0.946236559139785,,1,,,,,,,,,,,,
1998,,directmemory_phase7,1763447,,,,,,,,object_05a.png,,,51,,,1,,object_05b.png,object_09a.png,object_10c.png,object_10c.png,,0.9468085106382979,,1,,,,,,,,,,,,
1088,,directmemory_phase7,1764538,,,,,,,,object_13b.png,,,50,,,1,,object_07c.png,object_07a.png,object_10c.png,object_07a.png,,0.9473684210526315,,1,,,,,,,,,,,,
1295,,directmemory_phase7,1765837,,,,,,,,object_15b.png,,,50,,,1,,object_02b.png,object_08b.png,object_11c.png,object_08b.png,,0.9479166666666666,,1,,,,,,,,,,,,
1570.800000011921,,directmemory_phase7,1767413,,,,,,,,object_01b.png,,,51,,,1,,object_05c.png,object_11a.png,object_02b.png,object_02b.png,,0.9484536082474226,,1,,,,,,,,,,,,
1985.800000011921,,directmemory_phase7,1769403,,,,,,,,object_02a.png,,,51,,,1,,object_07a.png,object_02b.png,object_11c.png,object_11c.png,,0.9489795918367347,,1,,,,,,,,,,,,
1426.4000000357628,,directmemory_phase7,1770832,,,,,,,,object_14b.png,,,50,,,1,,object_12c.png,object_15c.png,object_05b.png,object_15c.png,,0.9494949494949495,,1,,,,,,,,,,,,
1809,,directmemory_phase7,1772642,,,,,,,,object_06c.png,,,50,,,1,,object_11a.png,object_05b.png,object_12c.png,object_05b.png,,0.95,,1,,,,,,,,,,,,
2416.800000011921,,directmemory_phase7,1775063,,,,,,,,object_14c.png,,,49,,,1,,object_15a.png,object_15c.png,object_07c.png,object_15a.png,,0.9504950495049505,,1,,,,,,,,,,,,
3573.699999988079,,directmemory_phase7,1778641,,,,,,,,object_10b.png,,,49,,,1,,object_06a.png,object_07a.png,object_05b.png,object_06a.png,,0.9509803921568627,,1,,,,,,,,,,,,
2429.600000023842,,directmemory_phase7,1781074,,,,,,,,object_08c.png,,,49,,,1,,object_11a.png,object_08b.png,object_02b.png,object_11a.png,,0.9514563106796117,,1,,,,,,,,,,,,
1365.800000011921,,directmemory_phase7,1782445,,,,,,,,object_02c.png,,,49,,,1,,object_05c.png,object_07a.png,object_11a.png,object_05c.png,,0.9519230769230769,,1,,,,,,,,,,,,
2636.600000023842,,directmemory_phase7,1785084,,,,,,,,object_12b.png,,,51,,,1,,object_07c.png,object_10c.png,object_09a.png,object_09a.png,,0.9523809523809523,,1,,,,,,,,,,,,
null,,thebreak,1785188,,,,,,,,<p></p>,,,null,,,,,,,,,,,,,,,,,,,,,,,,
28092.099999964237,,intro_0,1813284,,,,,,,,instruct,,,32,,,,,,,,,,,,,,,,,,,,,,,,
null,,learn_phase(without_color)8,1816787,,,,,,,,black_plus_sign,,,null,object_15a.png,object_14c.png,,,,,,,,,,,,,,,,,,,,,,
null,,black_cross(without_color)8,1817316,,,,,,,,blue,,,null,object_15a.png,object_14c.png,,,,,,,,,,,,,,,,,,,,,,
null,,rt_plussign_withcolor8,1817820,,,,,,,,blue,,,null,object_15a.png,object_14c.png,,,,,,,,,,,,,,,,,,,,,,
797.6999999880791,,rt_thecrossant_black8,1819297,,,,,,,,black_plus_sign,,,49,,,1,,,,,,,1,,,,,,,,,,,,,,
null,,color_black8,1819415,,,,,,,,black_plus_sign,,,null,,,,,,,,,,,,,,,,,,,,,,,,
null,,learn_phase(without_color)8,1822918,,,,,,,,black_plus_sign,,,null,object_08a.png,object_12a.png,,,,,,,,,,,,,,,,,,,,,,
null,,black_cross(without_color)8,1823527,,,,,,,,green,,,null,object_08a.png,object_12a.png,,,,,,,,,,,,,,,,,,,,,,
null,,rt_plussign_withcolor8,1824044,,,,,,,,green,,,null,object_08a.png,object_12a.png,,,,,,,,,,,,,,,,,,,,,,
656.1000000238419,,rt_thecrossant_black8,1825442,,,,,,,,black_plus_sign,,,50,,,1,,,,,,,1,,,,,,,,,,,,,,
null,,color_black8,1825545,,,,,,,,black_plus_sign,,,null,,,,,,,,,,,,,,,,,,,,,,,,
null,,learn_phase(without_color)8,1829049,,,,,,,,black_plus_sign,,,null,object_11a.png,object_08c.png,,,,,,,,,,,,,,,,,,,,,,
null,,black_cross(without_color)8,1829883,,,,,,,,green,,,null,object_11a.png,object_08c.png,,,,,,,,,,,,,,,,,,,,,,
453.10000002384186,,rt_plussign_withcolor8,1830386,,,,,,,,green,,,50,object_11a.png,object_08c.png,,,,,,,,,,,,,,,,,,,,,,
null,,rt_thecrossant_black8,1831559,,,,,,,,black_plus_sign,,,null,,,1,,,,,,,1,,,,,,,,,,,,,,
null,,color_black8,1831663,,,,,,,,black_plus_sign,,,null,,,,,,,,,,,,,,,,,,,,,,,,
null,,learn_phase(without_color)8,1835169,,,,,,,,black_plus_sign,,,null,object_06a.png,object_10b.png,,,,,,,,,,,,,,,,,,,,,,
null,,black_cross(without_color)8,1835623,,,,,,,,green,,,null,object_06a.png,object_10b.png,,,,,,,,,,,,,,,,,,,,,,
468.7000000476837,,rt_plussign_withcolor8,1836126,,,,,,,,green,,,50,object_06a.png,object_10b.png,,,,,,,,,,,,,,,,,,,,,,
null,,rt_thecrossant_black8,1837678,,,,,,,,black_plus_sign,,,null,,,1,,,,,,,1,,,,,,,,,,,,,,
null,,color_black8,1837793,,,,,,,,black_plus_sign,,,null,,,,,,,,,,,,,,,,,,,,,,,,
null,,learn_phase(without_color)8,1841298,,,,,,,,black_plus_sign,,,null,object_08b.png,object_15b.png,,,,,,,,,,,,,,,,,,,,,,
null,,black_cross(without_color)8,1842398,,,,,,,,blue,,,null,object_08b.png,object_15b.png,,,,,,,,,,,,,,,,,,,,,,
373.80000001192093,,rt_plussign_withcolor8,1842902,,,,,,,,blue,,,49,object_08b.png,object_15b.png,,,,,,,,,,,,,,,,,,,,,,
null,,rt_thecrossant_black8,1843810,,,,,,,,black_plus_sign,,,null,,,1,,,,,,,1,,,,,,,,,,,,,,
null,,color_black8,1843914,,,,,,,,black_plus_sign,,,null,,,,,,,,,,,,,,,,,,,,,,,,
null,,learn_phase(without_color)8,1847419,,,,,,,,black_plus_sign,,,null,object_07a.png,object_13b.png,,,,,,,,,,,,,,,,,,,,,,
null,,black_cross(without_color)8,1847825,,,,,,,,green,,,null,object_07a.png,object_13b.png,,,,,,,,,,,,,,,,,,,,,,
null,,rt_plussign_withcolor8,1848328,,,,,,,,green,,,null,object_07a.png,object_13b.png,,,,,,,,,,,,,,,,,,,,,,
1242.5,,rt_thecrossant_black8,1849929,,,,,,,,black_plus_sign,,,50,,,1,,,,,,,1,,,,,,,,,,,,,,
null,,color_black8,1850039,,,,,,,,black_plus_sign,,,null,,,,,,,,,,,,,,,,,,,,,,,,
null,,learn_phase(without_color)8,1853543,,,,,,,,black_plus_sign,,,null,object_05c.png,object_02c.png,,,,,,,,,,,,,,,,,,,,,,
null,,black_cross(without_color)8,1854547,,,,,,,,blue,,,null,object_05c.png,object_02c.png,,,,,,,,,,,,,,,,,,,,,,
null,,rt_plussign_withcolor8,1855049,,,,,,,,blue,,,null,object_05c.png,object_02c.png,,,,,,,,,,,,,,,,,,,,,,
613.1000000238419,,rt_thecrossant_black8,1856051,,,,,,,,black_plus_sign,,,49,,,1,,,,,,,1,,,,,,,,,,,,,,
null,,color_black8,1856155,,,,,,,,black_plus_sign,,,null,,,,,,,,,,,,,,,,,,,,,,,,
null,,learn_phase(without_color)8,1859660,,,,,,,,black_plus_sign,,,null,object_07c.png,object_11b.png,,,,,,,,,,,,,,,,,,,,,,
null,,black_cross(without_color)8,1860453,,,,,,,,green,,,null,object_07c.png,object_11b.png,,,,,,,,,,,,,,,,,,,,,,
null,,rt_plussign_withcolor8,1860955,,,,,,,,green,,,null,object_07c.png,object_11b.png,,,,,,,,,,,,,,,,,,,,,,
1157,,rt_thecrossant_black8,1862175,,,,,,,,black_plus_sign,,,50,,,1,,,,,,,1,,,,,,,,,,,,,,
null,,color_black8,1862282,,,,,,,,black_plus_sign,,,null,,,,,,,,,,,,,,,,,,,,,,,,
null,,learn_phase(without_color)8,1865788,,,,,,,,black_plus_sign,,,null,object_05b.png,object_06c.png,,,,,,,,,,,,,,,,,,,,,,
null,,black_cross(without_color)8,1866418,,,,,,,,blue,,,null,object_05b.png,object_06c.png,,,,,,,,,,,,,,,,,,,,,,
null,,rt_plussign_withcolor8,1866920,,,,,,,,blue,,,null,object_05b.png,object_06c.png,,,,,,,,,,,,,,,,,,,,,,
1240.7000000476837,,rt_thecrossant_black8,1868296,,,,,,,,black_plus_sign,,,49,,,1,,,,,,,1,,,,,,,,,,,,,,
null,,color_black8,1868410,,,,,,,,black_plus_sign,,,null,,,,,,,,,,,,,,,,,,,,,,,,
null,,learn_phase(without_color)8,1871915,,,,,,,,black_plus_sign,,,null,object_11c.png,object_02a.png,,,,,,,,,,,,,,,,,,,,,,
null,,black_cross(without_color)8,1872520,,,,,,,,blue,,,null,object_11c.png,object_02a.png,,,,,,,,,,,,,,,,,,,,,,
null,,rt_plussign_withcolor8,1873023,,,,,,,,blue,,,null,object_11c.png,object_02a.png,,,,,,,,,,,,,,,,,,,,,,
1334,,rt_thecrossant_black8,1874424,,,,,,,,black_plus_sign,,,49,,,1,,,,,,,1,,,,,,,,,,,,,,
null,,color_black8,1874526,,,,,,,,black_plus_sign,,,null,,,,,,,,,,,,,,,,,,,,,,,,
null,,learn_phase(without_color)8,1878030,,,,,,,,black_plus_sign,,,null,object_15c.png,object_14b.png,,,,,,,,,,,,,,,,,,,,,,
null,,black_cross(without_color)8,1878937,,,,,,,,green,,,null,object_15c.png,object_14b.png,,,,,,,,,,,,,,,,,,,,,,
null,,rt_plussign_withcolor8,1879440,,,,,,,,green,,,null,object_15c.png,object_14b.png,,,,,,,,,,,,,,,,,,,,,,
761.4000000357628,,rt_thecrossant_black8,1880542,,,,,,,,black_plus_sign,,,50,,,1,,,,,,,1,,,,,,,,,,,,,,
null,,color_black8,1880646,,,,,,,,black_plus_sign,,,null,,,,,,,,,,,,,,,,,,,,,,,,
null,,learn_phase(without_color)8,1884152,,,,,,,,black_plus_sign,,,null,object_12c.png,object_14a.png,,,,,,,,,,,,,,,,,,,,,,
null,,black_cross(without_color)8,1884863,,,,,,,,green,,,null,object_12c.png,object_14a.png,,,,,,,,,,,,,,,,,,,,,,
null,,rt_plussign_withcolor8,1885366,,,,,,,,green,,,null,object_12c.png,object_14a.png,,,,,,,,,,,,,,,,,,,,,,
1078.1000000238419,,rt_thecrossant_black8,1886664,,,,,,,,black_plus_sign,,,50,,,1,,,,,,,1,,,,,,,,,,,,,,
null,,color_black8,1886767,,,,,,,,black_plus_sign,,,null,,,,,,,,,,,,,,,,,,,,,,,,
null,,learn_phase(without_color)8,1890272,,,,,,,,black_plus_sign,,,null,object_09a.png,object_12b.png,,,,,,,,,,,,,,,,,,,,,,
null,,black_cross(without_color)8,1890824,,,,,,,,blue,,,null,object_09a.png,object_12b.png,,,,,,,,,,,,,,,,,,,,,,
null,,rt_plussign_withcolor8,1891327,,,,,,,,blue,,,null,object_09a.png,object_12b.png,,,,,,,,,,,,,,,,,,,,,,
912.5,,rt_thecrossant_black8,1892780,,,,,,,,black_plus_sign,,,49,,,1,,,,,,,1,,,,,,,,,,,,,,
null,,color_black8,1892884,,,,,,,,black_plus_sign,,,null,,,,,,,,,,,,,,,,,,,,,,,,
null,,learn_phase(without_color)8,1896389,,,,,,,,black_plus_sign,,,null,object_10c.png,object_05a.png,,,,,,,,,,,,,,,,,,,,,,
null,,black_cross(without_color)8,1896871,,,,,,,,green,,,null,object_10c.png,object_05a.png,,,,,,,,,,,,,,,,,,,,,,
null,,rt_plussign_withcolor8,1897375,,,,,,,,green,,,null,object_10c.png,object_05a.png,,,,,,,,,,,,,,,,,,,,,,
869.8000000119209,,rt_thecrossant_black8,1898900,,,,,,,,black_plus_sign,,,50,,,1,,,,,,,1,,,,,,,,,,,,,,
null,,color_black8,1899002,,,,,,,,black_plus_sign,,,null,,,,,,,,,,,,,,,,,,,,,,,,
null,,learn_phase(without_color)8,1902505,,,,,,,,black_plus_sign,,,null,object_02b.png,object_01b.png,,,,,,,,,,,,,,,,,,,,,,
null,,black_cross(without_color)8,1902978,,,,,,,,green,,,null,object_02b.png,object_01b.png,,,,,,,,,,,,,,,,,,,,,,
null,,rt_plussign_withcolor8,1903480,,,,,,,,green,,,null,object_02b.png,object_01b.png,,,,,,,,,,,,,,,,,,,,,,
990.1000000238419,,rt_thecrossant_black8,1905024,,,,,,,,black_plus_sign,,,50,,,1,,,,,,,1,,,,,,,,,,,,,,
null,,color_black8,1905128,,,,,,,,black_plus_sign,,,null,,,,,,,,,,,,,,,,,,,,,,,,
null,,thebreak,1905233,,,,,,,,<p></p>,,,null,,,,,,,,,,,,,,,,,,,,,,,,
1696.1000000238419,,intro_0,1906932,,,,,,,,instruct,,,32,,,,,,,,,,,,,,,,,,,,,,,,
2647,,directmemory_phase8,1909582,,,,,,,,object_12a.png,,,51,,,1,,object_10c.png,object_05c.png,object_08a.png,object_08a.png,,0.9528301886792453,,1,,,,,,,,,,,,
1248.7000000476837,,directmemory_phase8,1910833,,,,,,,,object_11b.png,,,51,,,1,,object_07a.png,object_09a.png,object_07c.png,object_07c.png,,0.9532710280373832,,1,,,,,,,,,,,,
1174.199999988079,,directmemory_phase8,1912010,,,,,,,,object_14b.png,,,50,,,1,,object_11c.png,object_15c.png,object_07a.png,object_15c.png,,0.9537037037037037,,1,,,,,,,,,,,,
1857.7999999523163,,directmemory_phase8,1913873,,,,,,,,object_01b.png,,,51,,,1,,object_15a.png,object_05b.png,object_02b.png,object_02b.png,,0.9541284403669725,,1,,,,,,,,,,,,
1537.3999999761581,,directmemory_phase8,1915415,,,,,,,,object_02c.png,,,50,,,1,,object_15c.png,object_05c.png,object_05b.png,object_05c.png,,0.9545454545454546,,1,,,,,,,,,,,,
1503,,directmemory_phase8,1916920,,,,,,,,object_12b.png,,,50,,,1,,object_11c.png,object_09a.png,object_05c.png,object_09a.png,,0.954954954954955,,1,,,,,,,,,,,,
2815.300000011921,,directmemory_phase8,1919737,,,,,,,,object_08c.png,,,50,,,1,,object_15c.png,object_11a.png,object_07a.png,object_11a.png,,0.9553571428571429,,1,,,,,,,,,,,,
2171.899999976158,,directmemory_phase8,1921911,,,,,,,,object_14a.png,,,50,,,1,,object_11a.png,object_12c.png,object_15c.png,object_12c.png,,0.9557522123893806,,1,,,,,,,,,,,,
1585.199999988079,,directmemory_phase8,1923500,,,,,,,,object_05a.png,,,50,,,1,,object_05b.png,object_10c.png,object_09a.png,object_10c.png,,0.956140350877193,,1,,,,,,,,,,,,
1855.800000011921,,directmemory_phase8,1925361,,,,,,,,object_02a.png,,,49,,,1,,object_11c.png,object_07a.png,object_06a.png,object_11c.png,,0.9565217391304348,,1,,,,,,,,,,,,
1411.800000011921,,directmemory_phase8,1926777,,,,,,,,object_13b.png,,,51,,,1,,object_05c.png,object_08b.png,object_07a.png,object_07a.png,,0.9568965517241379,,1,,,,,,,,,,,,
1848,,directmemory_phase8,1928628,,,,,,,,object_14c.png,,,49,,,1,,object_15a.png,object_02b.png,object_09a.png,object_15a.png,,0.9572649572649573,,1,,,,,,,,,,,,
1765.1000000238419,,directmemory_phase8,1930398,,,,,,,,object_06c.png,,,49,,,1,,object_05b.png,object_02b.png,object_08b.png,object_05b.png,,0.9576271186440678,,1,,,,,,,,,,,,
1911,,directmemory_phase8,1932313,,,,,,,,object_15b.png,,,49,,,1,,object_08b.png,object_05b.png,object_15c.png,object_08b.png,,0.957983193277311,,1,,,,,,,,,,,,
1563.5,,directmemory_phase8,1933882,,,,,,,,object_10b.png,,,50,,,1,,object_11c.png,object_06a.png,object_10c.png,object_06a.png,,0.9583333333333334,,1,,,,,,,,,,,,
null,,thebreak,1933988,,,,,,,,<p></p>,,,null,,,,,,,,,,,,,,,,,,,,,,,,
18699.600000023842,,intro_0,1952690,,,,,,,,instruct,,,32,,,,,,,,,,,,,,,,,,,,,,,,
43410,,intro_1,1996104,,,,,,,,instruct,,,32,,,,,,,,,,,,,,,,,,,,,,,,
7236.600000023842,,intro_2,2003343,,,,,,,,instruct,,,32,,,,,,,,,,,,,,,,,,,,,,,,
,,intro_3,2056929,,,,,,,,instruct,,,,,,,,,,,,,,,,,,,,,,,,,,,
8453,,intro_4,2065384,,,,,,,,instruct,,,32,,,,,,,,,,,,,,,,,,,,,,,,
null,,thebreak,2065486,,,,,,,,<p></p>,,,null,,,,,,,,,,,,,,,,,,,,,,,,
2046.2999999523163,,intro_0,2067536,,,,,,,,instruct,,,32,,,,,,,,,,,,,,,,,,,,,,,,
4446.5,,intro_1,2071984,,,,,,,,instruct,,,32,,,,,,,,,,,,,,,,,,,,,,,,
3783.800000011921,,intro_2,2075770,,,,,,,,instruct,,,32,,,,,,,,,,,,,,,,,,,,,,,,
