rt,responses,trial_type,time_elapsed,identifier_a,identifier_b,identifier_c,tasktype,browser_type,local_time,UTC_time,stimulus,button_pressed,response,key_press,stimulus_left,stimulus_right,accuracy,practice_cumulative_accuracy,stimulus_down_left,stimulus_down_mid,stimulus_down_right,stimulus_correct,prac_weighted_accuracy,cumulative_accuracy,failed_practice,weighted_accuracy,tooquick,stimulus_middle,problems,smooth,distraction,strategies,easier,similar,comments,detectfocus,breakfocus,completion_code
6951.099999964237,{worker_id:66a919ed216b817cbfd778f2},id_enter,6954,object_02b.png; object_11a.png; object_10a.png; object_10b.png; object_09c.png; object_07b.png; object_08c.png; object_09a.png; object_05c.png; object_05b.png; object_07a.png; object_01a.png; object_02a.png; object_03b.png; object_14c.png,object_04c.png; object_08a.png; object_12c.png; object_13b.png; object_06c.png; object_01c.png; object_13a.png; object_06b.png; object_04a.png; object_15c.png; object_15b.png; object_09b.png; object_03c.png; object_11c.png; object_11b.png,object_15a.png; object_12b.png; object_04b.png; object_14b.png; object_14a.png; object_13c.png; object_03a.png; object_07c.png; object_06a.png; object_08b.png; object_01b.png; object_02c.png; object_10c.png; object_05a.png; object_12a.png,blocked,Mozilla/5.0 (Windows NT 10.0; Win64; x64) AppleWebKit/537.36 (KHTML, like Gecko) Chrome/124.0.0.0 Safari/537.36,4/28/2025, 7:38:38 PM,2025-04-28 23:38:38.373,,,,,,,,,,,,,,,,,,,,,,,,,,,,
13921.400000035763,,make_fullscreen,20897,,,,,,,,fullscreen,0,,,,,,,,,,,,,,,,,,,,,,,,,,
4549.100000023842,,instruct_1,25448,,,,,,,,instruct,0,Next,,,,,,,,,,,,,,,,,,,,,,,,,
8134.5,,instruct_2,33584,,,,,,,,instruct,1,Next,,,,,,,,,,,,,,,,,,,,,,,,,
7567.099999964237,,instruct_3,41153,,,,,,,,instruct,1,Next,,,,,,,,,,,,,,,,,,,,,,,,,
20414.80000001192,,instruct_4,61568,,,,,,,,instruct,1,Next,,,,,,,,,,,,,,,,,,,,,,,,,
8622.899999976158,,instruct_5,70192,,,,,,,,instruct,1,Next,,,,,,,,,,,,,,,,,,,,,,,,,
4575,,instruct_6,74768,,,,,,,,instruct,1,Next,,,,,,,,,,,,,,,,,,,,,,,,,
48846.80000001192,,instruct_7,123616,,,,,,,,instruct,1,Next,,,,,,,,,,,,,,,,,,,,,,,,,
null,,prac_atten_color_black,124143,,,,,,,,black_plus_sign,,,null,,,,,,,,,,,,,,,,,,,,,,,,
null,,prac_atten_color,125021,,,,,,,,<p style='position:absolute;top: 50%;right: 50%;transform: translate(50%, -50%);font-size: 125px;color: blue;'>+</p>,,,null,,,,,,,,,,,,,,,,,,,,,,,,
null,,prac_atten_color_black,127022,,,,,,,,black_plus_sign,,,null,,,,,,,,,,,,,,,,,,,,,,,,
5483.800000011921,,attentioncheck_help,132507,,,,,,,,instruct,,,32,,,,,,,,,,,,,,,,,,,,,,,,
null,,prac_atten_color_black,133032,,,,,,,,black_plus_sign,,,null,,,,,,,,,,,,,,,,,,,,,,,,
null,,prac_atten_color,133716,,,,,,,,<p style='position:absolute;top: 50%;right: 50%;transform: translate(50%, -50%);font-size: 125px;color: green;'>+</p>,,,null,,,,,,,,,,,,,,,,,,,,,,,,
515.6000000238419,,prac_atten_color_black,135717,,,,,,,,black_plus_sign,,,50,,,,,,,,,,,,,,,,,,,,,,,,
null,,prac_atten_color_black,136436,,,,,,,,black_plus_sign,,,null,,,,,,,,,,,,,,,,,,,,,,,,
null,,prac_atten_color,136841,,,,,,,,<p style='position:absolute;top: 50%;right: 50%;transform: translate(50%, -50%);font-size: 125px;color: green;'>+</p>,,,null,,,,,,,,,,,,,,,,,,,,,,,,
818.3000000119209,,prac_atten_color_black,138841,,,,,,,,black_plus_sign,,,50,,,,,,,,,,,,,,,,,,,,,,,,
null,,prac_atten_color_black,139840,,,,,,,,black_plus_sign,,,null,,,,,,,,,,,,,,,,,,,,,,,,
1050,,prac_atten_color,140908,,,,,,,,<p style='position:absolute;top: 50%;right: 50%;transform: translate(50%, -50%);font-size: 125px;color: blue;'>+</p>,,,49,,,,,,,,,,,,,,,,,,,,,,,,
null,,prac_atten_color_black,142909,,,,,,,,black_plus_sign,,,null,,,,,,,,,,,,,,,,,,,,,,,,
null,,prac_atten_color_black,143248,,,,,,,,black_plus_sign,,,null,,,,,,,,,,,,,,,,,,,,,,,,
null,,prac_atten_color,143866,,,,,,,,<p style='position:absolute;top: 50%;right: 50%;transform: translate(50%, -50%);font-size: 125px;color: green;'>+</p>,,,null,,,,,,,,,,,,,,,,,,,,,,,,
412.69999998807907,,prac_atten_color_black,145869,,,,,,,,black_plus_sign,,,50,,,,,,,,,,,,,,,,,,,,,,,,
null,,prac_atten_color_black,146655,,,,,,,,black_plus_sign,,,null,,,,,,,,,,,,,,,,,,,,,,,,
null,,prac_atten_color,147274,,,,,,,,<p style='position:absolute;top: 50%;right: 50%;transform: translate(50%, -50%);font-size: 125px;color: green;'>+</p>,,,null,,,,,,,,,,,,,,,,,,,,,,,,
1064.6000000238419,,prac_atten_color_black,149275,,,,,,,,black_plus_sign,,,50,,,,,,,,,,,,,,,,,,,,,,,,
null,,prac_atten_color_black,150060,,,,,,,,black_plus_sign,,,null,,,,,,,,,,,,,,,,,,,,,,,,
null,,prac_atten_color,150935,,,,,,,,<p style='position:absolute;top: 50%;right: 50%;transform: translate(50%, -50%);font-size: 125px;color: blue;'>+</p>,,,null,,,,,,,,,,,,,,,,,,,,,,,,
279.5999999642372,,prac_atten_color_black,152937,,,,,,,,black_plus_sign,,,49,,,,,,,,,,,,,,,,,,,,,,,,
null,,prac_atten_color_black,153464,,,,,,,,black_plus_sign,,,null,,,,,,,,,,,,,,,,,,,,,,,,
null,,prac_atten_color,154552,,,,,,,,<p style='position:absolute;top: 50%;right: 50%;transform: translate(50%, -50%);font-size: 125px;color: green;'>+</p>,,,null,,,,,,,,,,,,,,,,,,,,,,,,
98,,prac_atten_color_black,156554,,,,,,,,black_plus_sign,,,50,,,,,,,,,,,,,,,,,,,,,,,,
null,,prac_atten_color_black,156869,,,,,,,,black_plus_sign,,,null,,,,,,,,,,,,,,,,,,,,,,,,
null,,prac_atten_color,157631,,,,,,,,<p style='position:absolute;top: 50%;right: 50%;transform: translate(50%, -50%);font-size: 125px;color: blue;'>+</p>,,,null,,,,,,,,,,,,,,,,,,,,,,,,
726.5,,prac_atten_color_black,159632,,,,,,,,black_plus_sign,,,49,,,,,,,,,,,,,,,,,,,,,,,,
null,,prac_atten_color_black,160274,,,,,,,,black_plus_sign,,,null,,,,,,,,,,,,,,,,,,,,,,,,
null,,prac_atten_color,161315,,,,,,,,<p style='position:absolute;top: 50%;right: 50%;transform: translate(50%, -50%);font-size: 125px;color: blue;'>+</p>,,,null,,,,,,,,,,,,,,,,,,,,,,,,
44.80000001192093,,prac_atten_color_black,163316,,,,,,,,black_plus_sign,,,49,,,,,,,,,,,,,,,,,,,,,,,,
13139.600000023842,,attentioncheck_feedback,176456,,,,,,,,cross_check_feedback,0,,,,,,,,,,,,,,,,,,,,,,,,,,
6999.800000011921,,last_instruct,183457,,,,,,,,instruct,,,32,,,,,,,,,,,,,,,,,,,,,,,,
null,,prac_learn_phase(without_color),186958,,,,,,,,black_plus_sign,,,null,object_10b.png,object_13b.png,,,,,,,,,,,,,,,,,,,,,,
null,,prac_black_cross(without_color),187891,,,,,,,,blue,,,null,object_10b.png,object_13b.png,,,,,,,,,,,,,,,,,,,,,,
null,,prac_rt_plussign_withcolor,188392,,,,,,,,blue,,,null,object_10b.png,object_13b.png,,,,,,,,,,,,,,,,,,,,,,
1330.6000000238419,,prac_rt_thecrossant_black,189462,,,,,,,,black_plus_sign,,,49,,,1,1,,,,,,,,,,,,,,,,,,,,
null,,prac_color_black,189564,,,,,,,,black_plus_sign,,,null,,,,,,,,,,,,,,,,,,,,,,,,
null,,prac_learn_phase(without_color),193066,,,,,,,,black_plus_sign,,,null,object_08c.png,object_13a.png,,,,,,,,,,,,,,,,,,,,,,
null,,black_cross(without_color)1,193661,,,,,,,,green,,,null,object_10b.png,object_13b.png,,,,,,,,,,,,,,,,,,,,,,
null,,prac_rt_plussign_withcolor,194164,,,,,,,,blue,,,null,object_08c.png,object_13a.png,,,,,,,,,,,,,,,,,,,,,,
1485.699999988079,,prac_rt_thecrossant_black,195093,,,,,,,,black_plus_sign,,,49,,,1,1,,,,,,,,,,,,,,,,,,,,
null,,prac_color_black,195194,,,,,,,,black_plus_sign,,,null,,,,,,,,,,,,,,,,,,,,,,,,
null,,prac_learn_phase(without_color),198696,,,,,,,,black_plus_sign,,,null,object_05c.png,object_04a.png,,,,,,,,,,,,,,,,,,,,,,
null,,black_cross(without_color)1,199292,,,,,,,,green,,,null,object_10b.png,object_13b.png,,,,,,,,,,,,,,,,,,,,,,
null,,prac_rt_plussign_withcolor,199794,,,,,,,,green,,,null,object_05c.png,object_04a.png,,,,,,,,,,,,,,,,,,,,,,
1243,,prac_rt_thecrossant_black,200940,,,,,,,,black_plus_sign,,,50,,,1,1,,,,,,,,,,,,,,,,,,,,
null,,prac_color_black,201041,,,,,,,,black_plus_sign,,,null,,,,,,,,,,,,,,,,,,,,,,,,
null,,prac_learn_phase(without_color),204544,,,,,,,,black_plus_sign,,,null,object_07b.png,object_01c.png,,,,,,,,,,,,,,,,,,,,,,
null,,black_cross(without_color)1,205140,,,,,,,,green,,,null,object_10b.png,object_13b.png,,,,,,,,,,,,,,,,,,,,,,
null,,prac_rt_plussign_withcolor,205641,,,,,,,,green,,,null,object_07b.png,object_01c.png,,,,,,,,,,,,,,,,,,,,,,
1751.199999988079,,prac_rt_thecrossant_black,207077,,,,,,,,black_plus_sign,,,50,,,1,1,,,,,,,,,,,,,,,,,,,,
null,,prac_color_black,207178,,,,,,,,black_plus_sign,,,null,,,,,,,,,,,,,,,,,,,,,,,,
7700.800000011921,,instruct_dir_01,214880,,,,,,,,instruct,0,Next,,,,,,,,,,,,,,,,,,,,,,,,,
6558.399999976158,,instruct_dir_2,221440,,,,,,,,instruct,1,Next,,,,,,,,,,,,,,,,,,,,,,,,,
7014.899999976158,,instruct_dir_3,228456,,,,,,,,instruct,1,Next,,,,,,,,,,,,,,,,,,,,,,,,,
7078.700000047684,,instruct_dir_4,235536,,,,,,,,instruct,1,Start,,,,,,,,,,,,,,,,,,,,,,,,,
null,,thebreak,235637,,,,,,,,<p></p>,,,null,,,,,,,,,,,,,,,,,,,,,,,,
1636.300000011921,,intro_0,237274,,,,,,,,instruct,,,32,,,,,,,,,,,,,,,,,,,,,,,,
4286.200000047684,,prac_directmemory_phase,241561,,,,,,,,practice/object_02b.png,,,49,,,1,,practice/object_02a.png,practice/object_01a.png,practice/object_04a.png,practice/object_02a.png,1,1,,,,,,,,,,,,,,
3727,,prac_directmemory_phase,245290,,,,,,,,practice/object_01b.png,,,50,,,0,,practice/object_01a.png,practice/object_04a.png,practice/object_02a.png,practice/object_01a.png,0,0.5,,,,,,,,,,,,,,
3822,,prac_directmemory_phase,249113,,,,,,,,practice/object_03b.png,,,49,,,1,,practice/object_03a.png,practice/object_01a.png,practice/object_04a.png,practice/object_03a.png,1,0.6666666666666666,,,,,,,,,,,,,,
3520.699999988079,,prac_directmemory_phase,252636,,,,,,,,practice/object_04b.png,,,50,,,0,,practice/object_02a.png,practice/object_01a.png,practice/object_04a.png,practice/object_04a.png,0,0.5,,,,,,,,,,,,,,
5707.099999964237,,practice_feedback_force_restart,258344,,,,,,,,practice_feedback,0,,,,,,,,,,,,,1,,,,,,,,,,,,,
5580.899999976158,,last_instruct,263925,,,,,,,,instruct,,,32,,,,,,,,,,,,,,,,,,,,,,,,
null,,prac_learn_phase(without_color),267426,,,,,,,,black_plus_sign,,,null,object_10b.png,object_13b.png,,,,,,,,,,,,,,,,,,,,,,
null,,prac_black_cross(without_color),268264,,,,,,,,blue,,,null,object_10b.png,object_13b.png,,,,,,,,,,,,,,,,,,,,,,
null,,prac_rt_plussign_withcolor,268765,,,,,,,,blue,,,null,object_10b.png,object_13b.png,,,,,,,,,,,,,,,,,,,,,,
1794.9000000357628,,prac_rt_thecrossant_black,269939,,,,,,,,black_plus_sign,,,49,,,1,1,,,,,,,,,,,,,,,,,,,,
null,,prac_color_black,270041,,,,,,,,black_plus_sign,,,null,,,,,,,,,,,,,,,,,,,,,,,,
null,,prac_learn_phase(without_color),273542,,,,,,,,black_plus_sign,,,null,object_08c.png,object_13a.png,,,,,,,,,,,,,,,,,,,,,,
null,,black_cross(without_color)1,274138,,,,,,,,green,,,null,object_10b.png,object_13b.png,,,,,,,,,,,,,,,,,,,,,,
null,,prac_rt_plussign_withcolor,274638,,,,,,,,blue,,,null,object_08c.png,object_13a.png,,,,,,,,,,,,,,,,,,,,,,
1437.199999988079,,prac_rt_thecrossant_black,275983,,,,,,,,black_plus_sign,,,49,,,1,1,,,,,,,,,,,,,,,,,,,,
null,,prac_color_black,276085,,,,,,,,black_plus_sign,,,null,,,,,,,,,,,,,,,,,,,,,,,,
null,,prac_learn_phase(without_color),279588,,,,,,,,black_plus_sign,,,null,object_05c.png,object_04a.png,,,,,,,,,,,,,,,,,,,,,,
null,,black_cross(without_color)1,280184,,,,,,,,green,,,null,object_10b.png,object_13b.png,,,,,,,,,,,,,,,,,,,,,,
null,,prac_rt_plussign_withcolor,280685,,,,,,,,green,,,null,object_05c.png,object_04a.png,,,,,,,,,,,,,,,,,,,,,,
1231.800000011921,,prac_rt_thecrossant_black,282143,,,,,,,,black_plus_sign,,,50,,,1,1,,,,,,,,,,,,,,,,,,,,
null,,prac_color_black,282245,,,,,,,,black_plus_sign,,,null,,,,,,,,,,,,,,,,,,,,,,,,
null,,prac_learn_phase(without_color),285749,,,,,,,,black_plus_sign,,,null,object_07b.png,object_01c.png,,,,,,,,,,,,,,,,,,,,,,
null,,black_cross(without_color)1,286344,,,,,,,,green,,,null,object_10b.png,object_13b.png,,,,,,,,,,,,,,,,,,,,,,
null,,prac_rt_plussign_withcolor,286846,,,,,,,,green,,,null,object_07b.png,object_01c.png,,,,,,,,,,,,,,,,,,,,,,
1192.4000000357628,,prac_rt_thecrossant_black,288437,,,,,,,,black_plus_sign,,,50,,,1,1,,,,,,,,,,,,,,,,,,,,
null,,prac_color_black,288538,,,,,,,,black_plus_sign,,,null,,,,,,,,,,,,,,,,,,,,,,,,
5012.199999988079,,instruct_dir_01,293551,,,,,,,,instruct,0,Next,,,,,,,,,,,,,,,,,,,,,,,,,
2102.699999988079,,instruct_dir_2,295655,,,,,,,,instruct,1,Next,,,,,,,,,,,,,,,,,,,,,,,,,
3638.899999976158,,instruct_dir_3,299295,,,,,,,,instruct,1,Next,,,,,,,,,,,,,,,,,,,,,,,,,
5463.5,,instruct_dir_4,304760,,,,,,,,instruct,1,Start,,,,,,,,,,,,,,,,,,,,,,,,,
null,,thebreak,304862,,,,,,,,<p></p>,,,null,,,,,,,,,,,,,,,,,,,,,,,,
2211.600000023842,,intro_0,307075,,,,,,,,instruct,,,32,,,,,,,,,,,,,,,,,,,,,,,,
3318,,prac_directmemory_phase,310394,,,,,,,,practice/object_02b.png,,,49,,,1,,practice/object_02a.png,practice/object_01a.png,practice/object_04a.png,practice/object_02a.png,1,1,,,,,,,,,,,,,,
3374.7000000476837,,prac_directmemory_phase,313771,,,,,,,,practice/object_01b.png,,,49,,,1,,practice/object_01a.png,practice/object_04a.png,practice/object_02a.png,practice/object_01a.png,1,1,,,,,,,,,,,,,,
3971.800000011921,,prac_directmemory_phase,317745,,,,,,,,practice/object_03b.png,,,49,,,1,,practice/object_03a.png,practice/object_01a.png,practice/object_04a.png,practice/object_03a.png,1,1,,,,,,,,,,,,,,
2526.699999988079,,prac_directmemory_phase,320273,,,,,,,,practice/object_04b.png,,,51,,,1,,practice/object_02a.png,practice/object_01a.png,practice/object_04a.png,practice/object_04a.png,1,1,,,,,,,,,,,,,,
4477.899999976158,,practice_feedback,324752,,,,,,,,practice_feedback,1,,,,,,,,,,,,,,,,,,,,,,,,,,
6694.5,,proceed_actualTask,331448,,,,,,,,proceed_actualTask,1,Continue,,,,,,,,,,,,,,,,,,,,,,,,,
9090.800000011921,,last_inst,340539,,,,,,,,last_inst,,,32,,,,,,,,,,,,,,,,,,,,,,,,
null,,learn_phase(without_color)1,344040,,,,,,,,black_plus_sign,,,null,object_10b.png,object_13b.png,,,,,,,,,,,,,,,,,,,,,,
null,,black_cross(without_color)1,344635,,,,,,,,green,,,null,object_10b.png,object_13b.png,,,,,,,,,,,,,,,,,,,,,,
null,,rt_plussign_withcolor1,345137,,,,,,,,green,,,null,object_10b.png,object_13b.png,,,,,,,,,,,,,,,,,,,,,,
1176.5,,rt_thecrossant_black1,346545,,,,,,,,black_plus_sign,,,50,,,1,,,,,,,1,,,,,,,,,,,,,,
null,,color_black1,346647,,,,,,,,black_plus_sign,,,null,,,,,,,,,,,,,,,,,,,,,,,,
null,,learn_phase(without_color)1,350149,,,,,,,,black_plus_sign,,,null,object_08c.png,object_13a.png,,,,,,,,,,,,,,,,,,,,,,
null,,black_cross(without_color)1,351234,,,,,,,,green,,,null,object_08c.png,object_13a.png,,,,,,,,,,,,,,,,,,,,,,
null,,rt_plussign_withcolor1,351735,,,,,,,,green,,,null,object_08c.png,object_13a.png,,,,,,,,,,,,,,,,,,,,,,
1243.800000011921,,rt_thecrossant_black1,352654,,,,,,,,black_plus_sign,,,50,,,1,,,,,,,1,,,,,,,,,,,,,,
null,,color_black1,352755,,,,,,,,black_plus_sign,,,null,,,,,,,,,,,,,,,,,,,,,,,,
null,,learn_phase(without_color)1,356257,,,,,,,,black_plus_sign,,,null,object_05c.png,object_04a.png,,,,,,,,,,,,,,,,,,,,,,
null,,black_cross(without_color)1,356891,,,,,,,,green,,,null,object_05c.png,object_04a.png,,,,,,,,,,,,,,,,,,,,,,
null,,rt_plussign_withcolor1,357392,,,,,,,,green,,,null,object_05c.png,object_04a.png,,,,,,,,,,,,,,,,,,,,,,
1930.3999999761581,,rt_thecrossant_black1,358761,,,,,,,,black_plus_sign,,,50,,,1,,,,,,,1,,,,,,,,,,,,,,
null,,color_black1,358862,,,,,,,,black_plus_sign,,,null,,,,,,,,,,,,,,,,,,,,,,,,
null,,learn_phase(without_color)1,362364,,,,,,,,black_plus_sign,,,null,object_07b.png,object_01c.png,,,,,,,,,,,,,,,,,,,,,,
null,,black_cross(without_color)1,363204,,,,,,,,blue,,,null,object_07b.png,object_01c.png,,,,,,,,,,,,,,,,,,,,,,
null,,rt_plussign_withcolor1,363706,,,,,,,,blue,,,null,object_07b.png,object_01c.png,,,,,,,,,,,,,,,,,,,,,,
1285,,rt_thecrossant_black1,364869,,,,,,,,black_plus_sign,,,49,,,1,,,,,,,1,,,,,,,,,,,,,,
null,,color_black1,364970,,,,,,,,black_plus_sign,,,null,,,,,,,,,,,,,,,,,,,,,,,,
null,,learn_phase(without_color)1,368472,,,,,,,,black_plus_sign,,,null,object_01a.png,object_09b.png,,,,,,,,,,,,,,,,,,,,,,
null,,black_cross(without_color)1,369530,,,,,,,,green,,,null,object_01a.png,object_09b.png,,,,,,,,,,,,,,,,,,,,,,
null,,rt_plussign_withcolor1,370032,,,,,,,,green,,,null,object_01a.png,object_09b.png,,,,,,,,,,,,,,,,,,,,,,
1389,,rt_thecrossant_black1,370977,,,,,,,,black_plus_sign,,,50,,,1,,,,,,,1,,,,,,,,,,,,,,
null,,color_black1,371079,,,,,,,,black_plus_sign,,,null,,,,,,,,,,,,,,,,,,,,,,,,
null,,learn_phase(without_color)1,374582,,,,,,,,black_plus_sign,,,null,object_02a.png,object_03c.png,,,,,,,,,,,,,,,,,,,,,,
null,,black_cross(without_color)1,375288,,,,,,,,green,,,null,object_02a.png,object_03c.png,,,,,,,,,,,,,,,,,,,,,,
null,,rt_plussign_withcolor1,375789,,,,,,,,green,,,null,object_02a.png,object_03c.png,,,,,,,,,,,,,,,,,,,,,,
1567.800000011921,,rt_thecrossant_black1,377086,,,,,,,,black_plus_sign,,,50,,,1,,,,,,,1,,,,,,,,,,,,,,
null,,color_black1,377188,,,,,,,,black_plus_sign,,,null,,,,,,,,,,,,,,,,,,,,,,,,
null,,learn_phase(without_color)1,380690,,,,,,,,black_plus_sign,,,null,object_05b.png,object_15c.png,,,,,,,,,,,,,,,,,,,,,,
null,,black_cross(without_color)1,381234,,,,,,,,blue,,,null,object_05b.png,object_15c.png,,,,,,,,,,,,,,,,,,,,,,
null,,rt_plussign_withcolor1,381734,,,,,,,,blue,,,null,object_05b.png,object_15c.png,,,,,,,,,,,,,,,,,,,,,,
1303.9000000357628,,rt_thecrossant_black1,383194,,,,,,,,black_plus_sign,,,49,,,1,,,,,,,1,,,,,,,,,,,,,,
null,,color_black1,383296,,,,,,,,black_plus_sign,,,null,,,,,,,,,,,,,,,,,,,,,,,,
null,,learn_phase(without_color)1,386798,,,,,,,,black_plus_sign,,,null,object_11a.png,object_08a.png,,,,,,,,,,,,,,,,,,,,,,
null,,black_cross(without_color)1,387588,,,,,,,,blue,,,null,object_11a.png,object_08a.png,,,,,,,,,,,,,,,,,,,,,,
null,,rt_plussign_withcolor1,388089,,,,,,,,blue,,,null,object_11a.png,object_08a.png,,,,,,,,,,,,,,,,,,,,,,
1156.800000011921,,rt_thecrossant_black1,389303,,,,,,,,black_plus_sign,,,49,,,1,,,,,,,1,,,,,,,,,,,,,,
null,,color_black1,389404,,,,,,,,black_plus_sign,,,null,,,,,,,,,,,,,,,,,,,,,,,,
null,,learn_phase(without_color)1,392906,,,,,,,,black_plus_sign,,,null,object_03b.png,object_11c.png,,,,,,,,,,,,,,,,,,,,,,
null,,black_cross(without_color)1,393457,,,,,,,,blue,,,null,object_03b.png,object_11c.png,,,,,,,,,,,,,,,,,,,,,,
null,,rt_plussign_withcolor1,393958,,,,,,,,blue,,,null,object_03b.png,object_11c.png,,,,,,,,,,,,,,,,,,,,,,
1295,,rt_thecrossant_black1,395409,,,,,,,,black_plus_sign,,,49,,,1,,,,,,,1,,,,,,,,,,,,,,
null,,color_black1,395511,,,,,,,,black_plus_sign,,,null,,,,,,,,,,,,,,,,,,,,,,,,
null,,learn_phase(without_color)1,399013,,,,,,,,black_plus_sign,,,null,object_14c.png,object_11b.png,,,,,,,,,,,,,,,,,,,,,,
null,,black_cross(without_color)1,399988,,,,,,,,blue,,,null,object_14c.png,object_11b.png,,,,,,,,,,,,,,,,,,,,,,
null,,rt_plussign_withcolor1,400489,,,,,,,,blue,,,null,object_14c.png,object_11b.png,,,,,,,,,,,,,,,,,,,,,,
1168.800000011921,,rt_thecrossant_black1,401517,,,,,,,,black_plus_sign,,,49,,,1,,,,,,,1,,,,,,,,,,,,,,
null,,color_black1,401619,,,,,,,,black_plus_sign,,,null,,,,,,,,,,,,,,,,,,,,,,,,
null,,learn_phase(without_color)1,405121,,,,,,,,black_plus_sign,,,null,object_02b.png,object_04c.png,,,,,,,,,,,,,,,,,,,,,,
null,,black_cross(without_color)1,405734,,,,,,,,green,,,null,object_02b.png,object_04c.png,,,,,,,,,,,,,,,,,,,,,,
null,,rt_plussign_withcolor1,406235,,,,,,,,green,,,null,object_02b.png,object_04c.png,,,,,,,,,,,,,,,,,,,,,,
1524.800000011921,,rt_thecrossant_black1,407626,,,,,,,,black_plus_sign,,,50,,,1,,,,,,,1,,,,,,,,,,,,,,
null,,color_black1,407729,,,,,,,,black_plus_sign,,,null,,,,,,,,,,,,,,,,,,,,,,,,
null,,learn_phase(without_color)1,411231,,,,,,,,black_plus_sign,,,null,object_07a.png,object_15b.png,,,,,,,,,,,,,,,,,,,,,,
null,,black_cross(without_color)1,412117,,,,,,,,blue,,,null,object_07a.png,object_15b.png,,,,,,,,,,,,,,,,,,,,,,
null,,rt_plussign_withcolor1,412617,,,,,,,,blue,,,null,object_07a.png,object_15b.png,,,,,,,,,,,,,,,,,,,,,,
1211,,rt_thecrossant_black1,413735,,,,,,,,black_plus_sign,,,49,,,1,,,,,,,1,,,,,,,,,,,,,,
null,,color_black1,413836,,,,,,,,black_plus_sign,,,null,,,,,,,,,,,,,,,,,,,,,,,,
null,,learn_phase(without_color)1,417339,,,,,,,,black_plus_sign,,,null,object_09a.png,object_06b.png,,,,,,,,,,,,,,,,,,,,,,
null,,black_cross(without_color)1,417826,,,,,,,,green,,,null,object_09a.png,object_06b.png,,,,,,,,,,,,,,,,,,,,,,
null,,rt_plussign_withcolor1,418327,,,,,,,,green,,,null,object_09a.png,object_06b.png,,,,,,,,,,,,,,,,,,,,,,
1490.4000000357628,,rt_thecrossant_black1,419843,,,,,,,,black_plus_sign,,,50,,,1,,,,,,,1,,,,,,,,,,,,,,
null,,color_black1,419944,,,,,,,,black_plus_sign,,,null,,,,,,,,,,,,,,,,,,,,,,,,
null,,learn_phase(without_color)1,423446,,,,,,,,black_plus_sign,,,null,object_10a.png,object_12c.png,,,,,,,,,,,,,,,,,,,,,,
null,,black_cross(without_color)1,423999,,,,,,,,blue,,,null,object_10a.png,object_12c.png,,,,,,,,,,,,,,,,,,,,,,
null,,rt_plussign_withcolor1,424501,,,,,,,,blue,,,null,object_10a.png,object_12c.png,,,,,,,,,,,,,,,,,,,,,,
968.7999999523163,,rt_thecrossant_black1,425950,,,,,,,,black_plus_sign,,,49,,,1,,,,,,,1,,,,,,,,,,,,,,
null,,color_black1,426060,,,,,,,,black_plus_sign,,,null,,,,,,,,,,,,,,,,,,,,,,,,
null,,learn_phase(without_color)1,429561,,,,,,,,black_plus_sign,,,null,object_09c.png,object_06c.png,,,,,,,,,,,,,,,,,,,,,,
null,,black_cross(without_color)1,430120,,,,,,,,blue,,,null,object_09c.png,object_06c.png,,,,,,,,,,,,,,,,,,,,,,
null,,rt_plussign_withcolor1,430621,,,,,,,,blue,,,null,object_09c.png,object_06c.png,,,,,,,,,,,,,,,,,,,,,,
1134.800000011921,,rt_thecrossant_black1,432065,,,,,,,,black_plus_sign,,,49,,,1,,,,,,,1,,,,,,,,,,,,,,
null,,color_black1,432167,,,,,,,,black_plus_sign,,,null,,,,,,,,,,,,,,,,,,,,,,,,
null,,thebreak,432269,,,,,,,,<p></p>,,,null,,,,,,,,,,,,,,,,,,,,,,,,
2043.1000000238419,,intro_0,434313,,,,,,,,instruct,,,32,,,,,,,,,,,,,,,,,,,,,,,,
2569.300000011921,,directmemory_phase1,436883,,,,,,,,object_13b.png,,,50,,,0,,object_05b.png,object_05c.png,object_10b.png,object_10b.png,,0,,0,,,,,,,,,,,,
4277.800000011921,,directmemory_phase1,441163,,,,,,,,object_12c.png,,,50,,,1,,object_11a.png,object_10a.png,object_05c.png,object_10a.png,,0.5,,1,,,,,,,,,,,,
2429.599999964237,,directmemory_phase1,443594,,,,,,,,object_04a.png,,,49,,,0,,object_07b.png,object_09a.png,object_05c.png,object_05c.png,,0.3333333333333333,,0,,,,,,,,,,,,
2591.600000023842,,directmemory_phase1,446187,,,,,,,,object_11b.png,,,51,,,1,,object_10b.png,object_03b.png,object_14c.png,object_14c.png,,0.5,,1,,,,,,,,,,,,
2116.399999976158,,directmemory_phase1,448305,,,,,,,,object_15b.png,,,50,,,1,,object_08c.png,object_07a.png,object_05b.png,object_07a.png,,0.6,,1,,,,,,,,,,,,
1704.2999999523163,,directmemory_phase1,450011,,,,,,,,object_09b.png,,,50,,,1,,object_02b.png,object_01a.png,object_09a.png,object_01a.png,,0.6666666666666666,,1,,,,,,,,,,,,
3457,,directmemory_phase1,453469,,,,,,,,object_06b.png,,,49,,,0,,object_01a.png,object_08c.png,object_09a.png,object_09a.png,,0.5714285714285714,,0,,,,,,,,,,,,
3415.599999964237,,directmemory_phase1,456887,,,,,,,,object_04c.png,,,51,,,1,,object_09a.png,object_01a.png,object_02b.png,object_02b.png,,0.625,,1,,,,,,,,,,,,
3286.600000023842,,directmemory_phase1,460175,,,,,,,,object_08a.png,,,50,,,0,,object_10a.png,object_05c.png,object_11a.png,object_11a.png,,0.5555555555555556,,0,,,,,,,,,,,,
3025.100000023842,,directmemory_phase1,463202,,,,,,,,object_01c.png,,,50,,,0,,object_02a.png,object_09c.png,object_07b.png,object_07b.png,,0.5,,0,,,,,,,,,,,,
2744,,directmemory_phase1,465947,,,,,,,,object_15c.png,,,51,,,1,,object_01a.png,object_09c.png,object_05b.png,object_05b.png,,0.5454545454545454,,1,,,,,,,,,,,,
3459.400000035763,,directmemory_phase1,469408,,,,,,,,object_03c.png,,,50,,,0,,object_02a.png,object_07a.png,object_05b.png,object_02a.png,,0.5,,0,,,,,,,,,,,,
2844.599999964237,,directmemory_phase1,472255,,,,,,,,object_13a.png,,,49,,,1,,object_08c.png,object_11a.png,object_07b.png,object_08c.png,,0.5384615384615384,,1,,,,,,,,,,,,
1822.300000011921,,directmemory_phase1,474080,,,,,,,,object_11c.png,,,51,,,1,,object_02a.png,object_02b.png,object_03b.png,object_03b.png,,0.5714285714285714,,1,,,,,,,,,,,,
4992.800000011921,,directmemory_phase1,479074,,,,,,,,object_06c.png,,,51,,,1,,object_05b.png,object_01a.png,object_09c.png,object_09c.png,,0.6,,1,,,,,,,,,,,,
null,,thebreak,479176,,,,,,,,<p></p>,,,null,,,,,,,,,,,,,,,,,,,,,,,,
1789,,intro_0,480966,,,,,,,,instruct,,,32,,,,,,,,,,,,,,,,,,,,,,,,
null,,learn_phase(without_color)2,484467,,,,,,,,black_plus_sign,,,null,object_01a.png,object_09b.png,,,,,,,,,,,,,,,,,,,,,,
null,,black_cross(without_color)2,485065,,,,,,,,blue,,,null,object_01a.png,object_09b.png,,,,,,,,,,,,,,,,,,,,,,
null,,rt_plussign_withcolor2,485566,,,,,,,,blue,,,null,object_01a.png,object_09b.png,,,,,,,,,,,,,,,,,,,,,,
1234.5,,rt_thecrossant_black2,486971,,,,,,,,black_plus_sign,,,49,,,1,,,,,,,1,,,,,,,,,,,,,,
null,,color_black2,487072,,,,,,,,black_plus_sign,,,null,,,,,,,,,,,,,,,,,,,,,,,,
null,,learn_phase(without_color)2,490574,,,,,,,,black_plus_sign,,,null,object_09a.png,object_06b.png,,,,,,,,,,,,,,,,,,,,,,
null,,black_cross(without_color)2,491240,,,,,,,,blue,,,null,object_09a.png,object_06b.png,,,,,,,,,,,,,,,,,,,,,,
null,,rt_plussign_withcolor2,491741,,,,,,,,blue,,,null,object_09a.png,object_06b.png,,,,,,,,,,,,,,,,,,,,,,
1184.2000000476837,,rt_thecrossant_black2,493078,,,,,,,,black_plus_sign,,,49,,,1,,,,,,,1,,,,,,,,,,,,,,
null,,color_black2,493180,,,,,,,,black_plus_sign,,,null,,,,,,,,,,,,,,,,,,,,,,,,
null,,learn_phase(without_color)2,496681,,,,,,,,black_plus_sign,,,null,object_10a.png,object_12c.png,,,,,,,,,,,,,,,,,,,,,,
null,,black_cross(without_color)2,497349,,,,,,,,green,,,null,object_10a.png,object_12c.png,,,,,,,,,,,,,,,,,,,,,,
null,,rt_plussign_withcolor2,497850,,,,,,,,green,,,null,object_10a.png,object_12c.png,,,,,,,,,,,,,,,,,,,,,,
1194.800000011921,,rt_thecrossant_black2,499186,,,,,,,,black_plus_sign,,,50,,,1,,,,,,,1,,,,,,,,,,,,,,
null,,color_black2,499288,,,,,,,,black_plus_sign,,,null,,,,,,,,,,,,,,,,,,,,,,,,
null,,learn_phase(without_color)2,502790,,,,,,,,black_plus_sign,,,null,object_02b.png,object_04c.png,,,,,,,,,,,,,,,,,,,,,,
null,,black_cross(without_color)2,503341,,,,,,,,green,,,null,object_02b.png,object_04c.png,,,,,,,,,,,,,,,,,,,,,,
null,,rt_plussign_withcolor2,503850,,,,,,,,green,,,null,object_02b.png,object_04c.png,,,,,,,,,,,,,,,,,,,,,,
1248.0999999642372,,rt_thecrossant_black2,505302,,,,,,,,black_plus_sign,,,50,,,1,,,,,,,1,,,,,,,,,,,,,,
null,,color_black2,505404,,,,,,,,black_plus_sign,,,null,,,,,,,,,,,,,,,,,,,,,,,,
null,,learn_phase(without_color)2,508906,,,,,,,,black_plus_sign,,,null,object_08c.png,object_13a.png,,,,,,,,,,,,,,,,,,,,,,
null,,black_cross(without_color)2,509989,,,,,,,,blue,,,null,object_08c.png,object_13a.png,,,,,,,,,,,,,,,,,,,,,,
null,,rt_plussign_withcolor2,510491,,,,,,,,blue,,,null,object_08c.png,object_13a.png,,,,,,,,,,,,,,,,,,,,,,
968.1999999880791,,rt_thecrossant_black2,511411,,,,,,,,black_plus_sign,,,49,,,1,,,,,,,1,,,,,,,,,,,,,,
null,,color_black2,511518,,,,,,,,black_plus_sign,,,null,,,,,,,,,,,,,,,,,,,,,,,,
null,,learn_phase(without_color)2,515020,,,,,,,,black_plus_sign,,,null,object_10b.png,object_13b.png,,,,,,,,,,,,,,,,,,,,,,
null,,black_cross(without_color)2,515674,,,,,,,,blue,,,null,object_10b.png,object_13b.png,,,,,,,,,,,,,,,,,,,,,,
null,,rt_plussign_withcolor2,516175,,,,,,,,blue,,,null,object_10b.png,object_13b.png,,,,,,,,,,,,,,,,,,,,,,
1621.5,,rt_thecrossant_black2,517525,,,,,,,,black_plus_sign,,,49,,,1,,,,,,,1,,,,,,,,,,,,,,
null,,color_black2,517626,,,,,,,,black_plus_sign,,,null,,,,,,,,,,,,,,,,,,,,,,,,
null,,learn_phase(without_color)2,521128,,,,,,,,black_plus_sign,,,null,object_11a.png,object_08a.png,,,,,,,,,,,,,,,,,,,,,,
null,,black_cross(without_color)2,521738,,,,,,,,blue,,,null,object_11a.png,object_08a.png,,,,,,,,,,,,,,,,,,,,,,
null,,rt_plussign_withcolor2,522240,,,,,,,,blue,,,null,object_11a.png,object_08a.png,,,,,,,,,,,,,,,,,,,,,,
1104.300000011921,,rt_thecrossant_black2,523634,,,,,,,,black_plus_sign,,,49,,,1,,,,,,,1,,,,,,,,,,,,,,
null,,color_black2,523736,,,,,,,,black_plus_sign,,,null,,,,,,,,,,,,,,,,,,,,,,,,
null,,learn_phase(without_color)2,527238,,,,,,,,black_plus_sign,,,null,object_05c.png,object_04a.png,,,,,,,,,,,,,,,,,,,,,,
null,,black_cross(without_color)2,527895,,,,,,,,blue,,,null,object_05c.png,object_04a.png,,,,,,,,,,,,,,,,,,,,,,
null,,rt_plussign_withcolor2,528396,,,,,,,,blue,,,null,object_05c.png,object_04a.png,,,,,,,,,,,,,,,,,,,,,,
1248.6000000238419,,rt_thecrossant_black2,529742,,,,,,,,black_plus_sign,,,49,,,1,,,,,,,1,,,,,,,,,,,,,,
null,,color_black2,529845,,,,,,,,black_plus_sign,,,null,,,,,,,,,,,,,,,,,,,,,,,,
null,,learn_phase(without_color)2,533347,,,,,,,,black_plus_sign,,,null,object_05b.png,object_15c.png,,,,,,,,,,,,,,,,,,,,,,
null,,black_cross(without_color)2,534324,,,,,,,,blue,,,null,object_05b.png,object_15c.png,,,,,,,,,,,,,,,,,,,,,,
null,,rt_plussign_withcolor2,534826,,,,,,,,blue,,,null,object_05b.png,object_15c.png,,,,,,,,,,,,,,,,,,,,,,
1135.0999999642372,,rt_thecrossant_black2,535855,,,,,,,,black_plus_sign,,,49,,,1,,,,,,,1,,,,,,,,,,,,,,
null,,color_black2,535956,,,,,,,,black_plus_sign,,,null,,,,,,,,,,,,,,,,,,,,,,,,
null,,learn_phase(without_color)2,539458,,,,,,,,black_plus_sign,,,null,object_02a.png,object_03c.png,,,,,,,,,,,,,,,,,,,,,,
null,,black_cross(without_color)2,540331,,,,,,,,blue,,,null,object_02a.png,object_03c.png,,,,,,,,,,,,,,,,,,,,,,
null,,rt_plussign_withcolor2,540832,,,,,,,,blue,,,null,object_02a.png,object_03c.png,,,,,,,,,,,,,,,,,,,,,,
1468.0999999642372,,rt_thecrossant_black2,541964,,,,,,,,black_plus_sign,,,49,,,1,,,,,,,1,,,,,,,,,,,,,,
null,,color_black2,542065,,,,,,,,black_plus_sign,,,null,,,,,,,,,,,,,,,,,,,,,,,,
null,,learn_phase(without_color)2,545567,,,,,,,,black_plus_sign,,,null,object_14c.png,object_11b.png,,,,,,,,,,,,,,,,,,,,,,
null,,black_cross(without_color)2,545975,,,,,,,,green,,,null,object_14c.png,object_11b.png,,,,,,,,,,,,,,,,,,,,,,
null,,rt_plussign_withcolor2,546476,,,,,,,,green,,,null,object_14c.png,object_11b.png,,,,,,,,,,,,,,,,,,,,,,
1476.699999988079,,rt_thecrossant_black2,548071,,,,,,,,black_plus_sign,,,50,,,1,,,,,,,1,,,,,,,,,,,,,,
null,,color_black2,548174,,,,,,,,black_plus_sign,,,null,,,,,,,,,,,,,,,,,,,,,,,,
null,,learn_phase(without_color)2,551676,,,,,,,,black_plus_sign,,,null,object_07b.png,object_01c.png,,,,,,,,,,,,,,,,,,,,,,
null,,black_cross(without_color)2,552682,,,,,,,,green,,,null,object_07b.png,object_01c.png,,,,,,,,,,,,,,,,,,,,,,
null,,rt_plussign_withcolor2,553184,,,,,,,,green,,,null,object_07b.png,object_01c.png,,,,,,,,,,,,,,,,,,,,,,
1219.699999988079,,rt_thecrossant_black2,554181,,,,,,,,black_plus_sign,,,50,,,1,,,,,,,1,,,,,,,,,,,,,,
null,,color_black2,554284,,,,,,,,black_plus_sign,,,null,,,,,,,,,,,,,,,,,,,,,,,,
null,,learn_phase(without_color)2,557785,,,,,,,,black_plus_sign,,,null,object_07a.png,object_15b.png,,,,,,,,,,,,,,,,,,,,,,
null,,black_cross(without_color)2,558694,,,,,,,,green,,,null,object_07a.png,object_15b.png,,,,,,,,,,,,,,,,,,,,,,
null,,rt_plussign_withcolor2,559195,,,,,,,,green,,,null,object_07a.png,object_15b.png,,,,,,,,,,,,,,,,,,,,,,
1488.3999999761581,,rt_thecrossant_black2,560289,,,,,,,,black_plus_sign,,,50,,,1,,,,,,,1,,,,,,,,,,,,,,
null,,color_black2,560391,,,,,,,,black_plus_sign,,,null,,,,,,,,,,,,,,,,,,,,,,,,
null,,learn_phase(without_color)2,563893,,,,,,,,black_plus_sign,,,null,object_09c.png,object_06c.png,,,,,,,,,,,,,,,,,,,,,,
null,,black_cross(without_color)2,564839,,,,,,,,green,,,null,object_09c.png,object_06c.png,,,,,,,,,,,,,,,,,,,,,,
null,,rt_plussign_withcolor2,565340,,,,,,,,green,,,null,object_09c.png,object_06c.png,,,,,,,,,,,,,,,,,,,,,,
1491.699999988079,,rt_thecrossant_black2,566397,,,,,,,,black_plus_sign,,,50,,,1,,,,,,,1,,,,,,,,,,,,,,
null,,color_black2,566499,,,,,,,,black_plus_sign,,,null,,,,,,,,,,,,,,,,,,,,,,,,
null,,learn_phase(without_color)2,570001,,,,,,,,black_plus_sign,,,null,object_03b.png,object_11c.png,,,,,,,,,,,,,,,,,,,,,,
null,,black_cross(without_color)2,570718,,,,,,,,green,,,null,object_03b.png,object_11c.png,,,,,,,,,,,,,,,,,,,,,,
null,,rt_plussign_withcolor2,571219,,,,,,,,green,,,null,object_03b.png,object_11c.png,,,,,,,,,,,,,,,,,,,,,,
1627.199999988079,,rt_thecrossant_black2,572505,,,,,,,,black_plus_sign,,,50,,,1,,,,,,,1,,,,,,,,,,,,,,
null,,color_black2,572607,,,,,,,,black_plus_sign,,,null,,,,,,,,,,,,,,,,,,,,,,,,
null,,thebreak,572708,,,,,,,,<p></p>,,,null,,,,,,,,,,,,,,,,,,,,,,,,
1979.199999988079,,intro_0,574689,,,,,,,,instruct,,,32,,,,,,,,,,,,,,,,,,,,,,,,
1696,,directmemory_phase2,576386,,,,,,,,object_11c.png,,,51,,,1,,object_10b.png,object_08c.png,object_03b.png,object_03b.png,,0.625,,1,,,,,,,,,,,,
2825.5,,directmemory_phase2,579213,,,,,,,,object_04a.png,,,50,,,1,,object_07b.png,object_05c.png,object_01a.png,object_05c.png,,0.6470588235294118,,1,,,,,,,,,,,,
3200.300000011921,,directmemory_phase2,582415,,,,,,,,object_13a.png,,,51,,,1,,object_03b.png,object_09c.png,object_08c.png,object_08c.png,,0.6666666666666666,,1,,,,,,,,,,,,
1835.699999988079,,directmemory_phase2,584252,,,,,,,,object_09b.png,,,49,,,1,,object_01a.png,object_02b.png,object_07a.png,object_01a.png,,0.6842105263157895,,1,,,,,,,,,,,,
1448.199999988079,,directmemory_phase2,585702,,,,,,,,object_03c.png,,,49,,,0,,object_09a.png,object_03b.png,object_02a.png,object_02a.png,,0.65,,0,,,,,,,,,,,,
1915,,directmemory_phase2,587619,,,,,,,,object_15b.png,,,49,,,1,,object_07a.png,object_05b.png,object_02a.png,object_07a.png,,0.6666666666666666,,1,,,,,,,,,,,,
1944.6000000238419,,directmemory_phase2,589565,,,,,,,,object_12c.png,,,51,,,1,,object_09a.png,object_09c.png,object_10a.png,object_10a.png,,0.6818181818181818,,1,,,,,,,,,,,,
2416.5,,directmemory_phase2,591983,,,,,,,,object_06b.png,,,50,,,0,,object_09a.png,object_07a.png,object_02a.png,object_09a.png,,0.6521739130434783,,0,,,,,,,,,,,,
1468.6000000238419,,directmemory_phase2,593453,,,,,,,,object_04c.png,,,49,,,1,,object_02b.png,object_05c.png,object_03b.png,object_02b.png,,0.6666666666666666,,1,,,,,,,,,,,,
1881.5,,directmemory_phase2,595336,,,,,,,,object_08a.png,,,51,,,1,,object_09a.png,object_07a.png,object_11a.png,object_11a.png,,0.68,,1,,,,,,,,,,,,
2455.5,,directmemory_phase2,597793,,,,,,,,object_11b.png,,,50,,,1,,object_07b.png,object_14c.png,object_01a.png,object_14c.png,,0.6923076923076923,,1,,,,,,,,,,,,
2657,,directmemory_phase2,600452,,,,,,,,object_06c.png,,,50,,,1,,object_10b.png,object_09c.png,object_03b.png,object_09c.png,,0.7037037037037037,,1,,,,,,,,,,,,
2710.100000023842,,directmemory_phase2,603164,,,,,,,,object_13b.png,,,50,,,1,,object_02b.png,object_10b.png,object_07b.png,object_10b.png,,0.7142857142857143,,1,,,,,,,,,,,,
1494.0999999642372,,directmemory_phase2,604660,,,,,,,,object_01c.png,,,49,,,1,,object_07b.png,object_05c.png,object_10a.png,object_07b.png,,0.7241379310344828,,1,,,,,,,,,,,,
2651.5,,directmemory_phase2,607313,,,,,,,,object_15c.png,,,51,,,1,,object_07a.png,object_09a.png,object_05b.png,object_05b.png,,0.7333333333333333,,1,,,,,,,,,,,,
null,,thebreak,607415,,,,,,,,<p></p>,,,null,,,,,,,,,,,,,,,,,,,,,,,,
1663.4000000357628,,intro_0,609079,,,,,,,,instruct,,,32,,,,,,,,,,,,,,,,,,,,,,,,
null,,learn_phase(without_color)3,612581,,,,,,,,black_plus_sign,,,null,object_10b.png,object_13b.png,,,,,,,,,,,,,,,,,,,,,,
null,,black_cross(without_color)3,613674,,,,,,,,green,,,null,object_10b.png,object_13b.png,,,,,,,,,,,,,,,,,,,,,,
null,,rt_plussign_withcolor3,614175,,,,,,,,green,,,null,object_10b.png,object_13b.png,,,,,,,,,,,,,,,,,,,,,,
1312.699999988079,,rt_thecrossant_black3,615085,,,,,,,,black_plus_sign,,,50,,,1,,,,,,,1,,,,,,,,,,,,,,
null,,color_black3,615186,,,,,,,,black_plus_sign,,,null,,,,,,,,,,,,,,,,,,,,,,,,
null,,learn_phase(without_color)3,618688,,,,,,,,black_plus_sign,,,null,object_08c.png,object_13a.png,,,,,,,,,,,,,,,,,,,,,,
null,,black_cross(without_color)3,619767,,,,,,,,green,,,null,object_08c.png,object_13a.png,,,,,,,,,,,,,,,,,,,,,,
null,,rt_plussign_withcolor3,620268,,,,,,,,green,,,null,object_08c.png,object_13a.png,,,,,,,,,,,,,,,,,,,,,,
1619.699999988079,,rt_thecrossant_black3,621192,,,,,,,,black_plus_sign,,,50,,,1,,,,,,,1,,,,,,,,,,,,,,
null,,color_black3,621294,,,,,,,,black_plus_sign,,,null,,,,,,,,,,,,,,,,,,,,,,,,
null,,learn_phase(without_color)3,624796,,,,,,,,black_plus_sign,,,null,object_05b.png,object_15c.png,,,,,,,,,,,,,,,,,,,,,,
null,,black_cross(without_color)3,625787,,,,,,,,blue,,,null,object_05b.png,object_15c.png,,,,,,,,,,,,,,,,,,,,,,
null,,rt_plussign_withcolor3,626288,,,,,,,,blue,,,null,object_05b.png,object_15c.png,,,,,,,,,,,,,,,,,,,,,,
1550.6000000238419,,rt_thecrossant_black3,627302,,,,,,,,black_plus_sign,,,49,,,1,,,,,,,1,,,,,,,,,,,,,,
null,,color_black3,627404,,,,,,,,black_plus_sign,,,null,,,,,,,,,,,,,,,,,,,,,,,,
null,,learn_phase(without_color)3,630907,,,,,,,,black_plus_sign,,,null,object_05c.png,object_04a.png,,,,,,,,,,,,,,,,,,,,,,
null,,black_cross(without_color)3,631331,,,,,,,,green,,,null,object_05c.png,object_04a.png,,,,,,,,,,,,,,,,,,,,,,
null,,rt_plussign_withcolor3,631833,,,,,,,,green,,,null,object_05c.png,object_04a.png,,,,,,,,,,,,,,,,,,,,,,
1656.300000011921,,rt_thecrossant_black3,633414,,,,,,,,black_plus_sign,,,50,,,1,,,,,,,1,,,,,,,,,,,,,,
null,,color_black3,633516,,,,,,,,black_plus_sign,,,null,,,,,,,,,,,,,,,,,,,,,,,,
null,,learn_phase(without_color)3,637018,,,,,,,,black_plus_sign,,,null,object_09a.png,object_06b.png,,,,,,,,,,,,,,,,,,,,,,
null,,black_cross(without_color)3,637704,,,,,,,,green,,,null,object_09a.png,object_06b.png,,,,,,,,,,,,,,,,,,,,,,
null,,rt_plussign_withcolor3,638205,,,,,,,,green,,,null,object_09a.png,object_06b.png,,,,,,,,,,,,,,,,,,,,,,
726.5,,rt_thecrossant_black3,639524,,,,,,,,black_plus_sign,,,50,,,1,,,,,,,1,,,,,,,,,,,,,,
null,,color_black3,639625,,,,,,,,black_plus_sign,,,null,,,,,,,,,,,,,,,,,,,,,,,,
null,,learn_phase(without_color)3,643127,,,,,,,,black_plus_sign,,,null,object_11a.png,object_08a.png,,,,,,,,,,,,,,,,,,,,,,
null,,black_cross(without_color)3,643704,,,,,,,,green,,,null,object_11a.png,object_08a.png,,,,,,,,,,,,,,,,,,,,,,
null,,rt_plussign_withcolor3,644205,,,,,,,,green,,,null,object_11a.png,object_08a.png,,,,,,,,,,,,,,,,,,,,,,
1297.7999999523163,,rt_thecrossant_black3,645632,,,,,,,,black_plus_sign,,,50,,,1,,,,,,,1,,,,,,,,,,,,,,
null,,color_black3,645734,,,,,,,,black_plus_sign,,,null,,,,,,,,,,,,,,,,,,,,,,,,
null,,learn_phase(without_color)3,649236,,,,,,,,black_plus_sign,,,null,object_02b.png,object_04c.png,,,,,,,,,,,,,,,,,,,,,,
null,,black_cross(without_color)3,649954,,,,,,,,green,,,null,object_02b.png,object_04c.png,,,,,,,,,,,,,,,,,,,,,,
null,,rt_plussign_withcolor3,650455,,,,,,,,green,,,null,object_02b.png,object_04c.png,,,,,,,,,,,,,,,,,,,,,,
1139,,rt_thecrossant_black3,651741,,,,,,,,black_plus_sign,,,50,,,1,,,,,,,1,,,,,,,,,,,,,,
null,,color_black3,651842,,,,,,,,black_plus_sign,,,null,,,,,,,,,,,,,,,,,,,,,,,,
null,,learn_phase(without_color)3,655344,,,,,,,,black_plus_sign,,,null,object_01a.png,object_09b.png,,,,,,,,,,,,,,,,,,,,,,
null,,black_cross(without_color)3,655892,,,,,,,,blue,,,null,object_01a.png,object_09b.png,,,,,,,,,,,,,,,,,,,,,,
null,,rt_plussign_withcolor3,656393,,,,,,,,blue,,,null,object_01a.png,object_09b.png,,,,,,,,,,,,,,,,,,,,,,
1287,,rt_thecrossant_black3,657849,,,,,,,,black_plus_sign,,,49,,,1,,,,,,,1,,,,,,,,,,,,,,
null,,color_black3,657950,,,,,,,,black_plus_sign,,,null,,,,,,,,,,,,,,,,,,,,,,,,
null,,learn_phase(without_color)3,661452,,,,,,,,black_plus_sign,,,null,object_07b.png,object_01c.png,,,,,,,,,,,,,,,,,,,,,,
null,,black_cross(without_color)3,662546,,,,,,,,green,,,null,object_07b.png,object_01c.png,,,,,,,,,,,,,,,,,,,,,,
null,,rt_plussign_withcolor3,663047,,,,,,,,green,,,null,object_07b.png,object_01c.png,,,,,,,,,,,,,,,,,,,,,,
1124.199999988079,,rt_thecrossant_black3,663957,,,,,,,,black_plus_sign,,,50,,,1,,,,,,,1,,,,,,,,,,,,,,
null,,color_black3,664059,,,,,,,,black_plus_sign,,,null,,,,,,,,,,,,,,,,,,,,,,,,
null,,learn_phase(without_color)3,667561,,,,,,,,black_plus_sign,,,null,object_03b.png,object_11c.png,,,,,,,,,,,,,,,,,,,,,,
null,,black_cross(without_color)3,668047,,,,,,,,green,,,null,object_03b.png,object_11c.png,,,,,,,,,,,,,,,,,,,,,,
null,,rt_plussign_withcolor3,668548,,,,,,,,green,,,null,object_03b.png,object_11c.png,,,,,,,,,,,,,,,,,,,,,,
1767.199999988079,,rt_thecrossant_black3,670066,,,,,,,,black_plus_sign,,,50,,,1,,,,,,,1,,,,,,,,,,,,,,
null,,color_black3,670168,,,,,,,,black_plus_sign,,,null,,,,,,,,,,,,,,,,,,,,,,,,
null,,learn_phase(without_color)3,673670,,,,,,,,black_plus_sign,,,null,object_09c.png,object_06c.png,,,,,,,,,,,,,,,,,,,,,,
null,,black_cross(without_color)3,674526,,,,,,,,green,,,null,object_09c.png,object_06c.png,,,,,,,,,,,,,,,,,,,,,,
null,,rt_plussign_withcolor3,675027,,,,,,,,green,,,null,object_09c.png,object_06c.png,,,,,,,,,,,,,,,,,,,,,,
1002.1000000238419,,rt_thecrossant_black3,676174,,,,,,,,black_plus_sign,,,50,,,1,,,,,,,1,,,,,,,,,,,,,,
null,,color_black3,676276,,,,,,,,black_plus_sign,,,null,,,,,,,,,,,,,,,,,,,,,,,,
null,,learn_phase(without_color)3,679778,,,,,,,,black_plus_sign,,,null,object_02a.png,object_03c.png,,,,,,,,,,,,,,,,,,,,,,
null,,black_cross(without_color)3,680266,,,,,,,,blue,,,null,object_02a.png,object_03c.png,,,,,,,,,,,,,,,,,,,,,,
null,,rt_plussign_withcolor3,680767,,,,,,,,blue,,,null,object_02a.png,object_03c.png,,,,,,,,,,,,,,,,,,,,,,
1446.699999988079,,rt_thecrossant_black3,682282,,,,,,,,black_plus_sign,,,49,,,1,,,,,,,1,,,,,,,,,,,,,,
null,,color_black3,682384,,,,,,,,black_plus_sign,,,null,,,,,,,,,,,,,,,,,,,,,,,,
null,,learn_phase(without_color)3,685885,,,,,,,,black_plus_sign,,,null,object_10a.png,object_12c.png,,,,,,,,,,,,,,,,,,,,,,
null,,black_cross(without_color)3,686434,,,,,,,,green,,,null,object_10a.png,object_12c.png,,,,,,,,,,,,,,,,,,,,,,
null,,rt_plussign_withcolor3,686936,,,,,,,,green,,,null,object_10a.png,object_12c.png,,,,,,,,,,,,,,,,,,,,,,
1374.3999999761581,,rt_thecrossant_black3,688390,,,,,,,,black_plus_sign,,,50,,,1,,,,,,,1,,,,,,,,,,,,,,
null,,color_black3,688499,,,,,,,,black_plus_sign,,,null,,,,,,,,,,,,,,,,,,,,,,,,
null,,learn_phase(without_color)3,692001,,,,,,,,black_plus_sign,,,null,object_07a.png,object_15b.png,,,,,,,,,,,,,,,,,,,,,,
null,,black_cross(without_color)3,693062,,,,,,,,blue,,,null,object_07a.png,object_15b.png,,,,,,,,,,,,,,,,,,,,,,
null,,rt_plussign_withcolor3,693564,,,,,,,,blue,,,null,object_07a.png,object_15b.png,,,,,,,,,,,,,,,,,,,,,,
1152.2000000476837,,rt_thecrossant_black3,694506,,,,,,,,black_plus_sign,,,49,,,1,,,,,,,1,,,,,,,,,,,,,,
null,,color_black3,694608,,,,,,,,black_plus_sign,,,null,,,,,,,,,,,,,,,,,,,,,,,,
null,,learn_phase(without_color)3,698109,,,,,,,,black_plus_sign,,,null,object_14c.png,object_11b.png,,,,,,,,,,,,,,,,,,,,,,
null,,black_cross(without_color)3,699064,,,,,,,,blue,,,null,object_14c.png,object_11b.png,,,,,,,,,,,,,,,,,,,,,,
null,,rt_plussign_withcolor3,699565,,,,,,,,blue,,,null,object_14c.png,object_11b.png,,,,,,,,,,,,,,,,,,,,,,
1548.3999999761581,,rt_thecrossant_black3,700615,,,,,,,,black_plus_sign,,,49,,,1,,,,,,,1,,,,,,,,,,,,,,
null,,color_black3,700717,,,,,,,,black_plus_sign,,,null,,,,,,,,,,,,,,,,,,,,,,,,
null,,thebreak,700818,,,,,,,,<p></p>,,,null,,,,,,,,,,,,,,,,,,,,,,,,
1637.3999999761581,,intro_0,702457,,,,,,,,instruct,,,32,,,,,,,,,,,,,,,,,,,,,,,,
2026.699999988079,,directmemory_phase3,704485,,,,,,,,object_12c.png,,,50,,,1,,object_07a.png,object_10a.png,object_03b.png,object_10a.png,,0.7419354838709677,,1,,,,,,,,,,,,
1858.5,,directmemory_phase3,706345,,,,,,,,object_01c.png,,,49,,,1,,object_07b.png,object_09c.png,object_10a.png,object_07b.png,,0.75,,1,,,,,,,,,,,,
1835.699999988079,,directmemory_phase3,708182,,,,,,,,object_13b.png,,,51,,,0,,object_05c.png,object_10b.png,object_11a.png,object_10b.png,,0.7272727272727273,,0,,,,,,,,,,,,
1790,,directmemory_phase3,709974,,,,,,,,object_04c.png,,,51,,,1,,object_01a.png,object_02a.png,object_02b.png,object_02b.png,,0.7352941176470589,,1,,,,,,,,,,,,
1477.7999999523163,,directmemory_phase3,711453,,,,,,,,object_09b.png,,,49,,,1,,object_01a.png,object_11a.png,object_05b.png,object_01a.png,,0.7428571428571429,,1,,,,,,,,,,,,
1820.1000000238419,,directmemory_phase3,713275,,,,,,,,object_15b.png,,,49,,,1,,object_07a.png,object_10b.png,object_08c.png,object_07a.png,,0.75,,1,,,,,,,,,,,,
2816,,directmemory_phase3,716093,,,,,,,,object_04a.png,,,50,,,1,,object_01a.png,object_05c.png,object_10b.png,object_05c.png,,0.7567567567567568,,1,,,,,,,,,,,,
2413.5,,directmemory_phase3,718508,,,,,,,,object_11b.png,,,49,,,1,,object_14c.png,object_10b.png,object_07b.png,object_14c.png,,0.7631578947368421,,1,,,,,,,,,,,,
2045.6000000238419,,directmemory_phase3,720556,,,,,,,,object_03c.png,,,49,,,1,,object_02a.png,object_08c.png,object_03b.png,object_02a.png,,0.7692307692307693,,1,,,,,,,,,,,,
3398.399999976158,,directmemory_phase3,723956,,,,,,,,object_15c.png,,,50,,,0,,object_07a.png,object_10a.png,object_05b.png,object_05b.png,,0.75,,0,,,,,,,,,,,,
1754.7999999523163,,directmemory_phase3,725712,,,,,,,,object_08a.png,,,51,,,1,,object_02b.png,object_10b.png,object_11a.png,object_11a.png,,0.7560975609756098,,1,,,,,,,,,,,,
2550.100000023842,,directmemory_phase3,728264,,,,,,,,object_13a.png,,,50,,,0,,object_08c.png,object_05c.png,object_07b.png,object_08c.png,,0.7380952380952381,,0,,,,,,,,,,,,
2139.699999988079,,directmemory_phase3,730405,,,,,,,,object_06b.png,,,51,,,1,,object_11a.png,object_05b.png,object_09a.png,object_09a.png,,0.7441860465116279,,1,,,,,,,,,,,,
2099.899999976158,,directmemory_phase3,732507,,,,,,,,object_11c.png,,,50,,,1,,object_01a.png,object_03b.png,object_10a.png,object_03b.png,,0.75,,1,,,,,,,,,,,,
1471.300000011921,,directmemory_phase3,733980,,,,,,,,object_06c.png,,,49,,,1,,object_09c.png,object_03b.png,object_02b.png,object_09c.png,,0.7555555555555555,,1,,,,,,,,,,,,
null,,thebreak,734088,,,,,,,,<p></p>,,,null,,,,,,,,,,,,,,,,,,,,,,,,
1370.7999999523163,,intro_0,735460,,,,,,,,instruct,,,32,,,,,,,,,,,,,,,,,,,,,,,,
null,,learn_phase(without_color)4,738961,,,,,,,,black_plus_sign,,,null,object_08c.png,object_13a.png,,,,,,,,,,,,,,,,,,,,,,
null,,black_cross(without_color)4,739547,,,,,,,,blue,,,null,object_08c.png,object_13a.png,,,,,,,,,,,,,,,,,,,,,,
null,,rt_plussign_withcolor4,740048,,,,,,,,blue,,,null,object_08c.png,object_13a.png,,,,,,,,,,,,,,,,,,,,,,
1104.1000000238419,,rt_thecrossant_black4,741466,,,,,,,,black_plus_sign,,,49,,,1,,,,,,,1,,,,,,,,,,,,,,
null,,color_black4,741568,,,,,,,,black_plus_sign,,,null,,,,,,,,,,,,,,,,,,,,,,,,
null,,learn_phase(without_color)4,745069,,,,,,,,black_plus_sign,,,null,object_02a.png,object_03c.png,,,,,,,,,,,,,,,,,,,,,,
null,,black_cross(without_color)4,745482,,,,,,,,blue,,,null,object_02a.png,object_03c.png,,,,,,,,,,,,,,,,,,,,,,
null,,rt_plussign_withcolor4,745983,,,,,,,,blue,,,null,object_02a.png,object_03c.png,,,,,,,,,,,,,,,,,,,,,,
856.9000000357628,,rt_thecrossant_black4,747574,,,,,,,,black_plus_sign,,,49,,,1,,,,,,,1,,,,,,,,,,,,,,
null,,color_black4,747676,,,,,,,,black_plus_sign,,,null,,,,,,,,,,,,,,,,,,,,,,,,
null,,learn_phase(without_color)4,751178,,,,,,,,black_plus_sign,,,null,object_05c.png,object_04a.png,,,,,,,,,,,,,,,,,,,,,,
null,,black_cross(without_color)4,752143,,,,,,,,green,,,null,object_05c.png,object_04a.png,,,,,,,,,,,,,,,,,,,,,,
null,,rt_plussign_withcolor4,752644,,,,,,,,green,,,null,object_05c.png,object_04a.png,,,,,,,,,,,,,,,,,,,,,,
913.9000000357628,,rt_thecrossant_black4,753684,,,,,,,,black_plus_sign,,,50,,,1,,,,,,,1,,,,,,,,,,,,,,
null,,color_black4,753786,,,,,,,,black_plus_sign,,,null,,,,,,,,,,,,,,,,,,,,,,,,
null,,learn_phase(without_color)4,757288,,,,,,,,black_plus_sign,,,null,object_09a.png,object_06b.png,,,,,,,,,,,,,,,,,,,,,,
null,,black_cross(without_color)4,758321,,,,,,,,green,,,null,object_09a.png,object_06b.png,,,,,,,,,,,,,,,,,,,,,,
null,,rt_plussign_withcolor4,758823,,,,,,,,green,,,null,object_09a.png,object_06b.png,,,,,,,,,,,,,,,,,,,,,,
1522.0999999642372,,rt_thecrossant_black4,759793,,,,,,,,black_plus_sign,,,50,,,1,,,,,,,1,,,,,,,,,,,,,,
null,,color_black4,759894,,,,,,,,black_plus_sign,,,null,,,,,,,,,,,,,,,,,,,,,,,,
null,,learn_phase(without_color)4,763396,,,,,,,,black_plus_sign,,,null,object_09c.png,object_06c.png,,,,,,,,,,,,,,,,,,,,,,
null,,black_cross(without_color)4,764029,,,,,,,,green,,,null,object_09c.png,object_06c.png,,,,,,,,,,,,,,,,,,,,,,
36.30000001192093,,rt_plussign_withcolor4,764530,,,,,,,,green,,,49,object_09c.png,object_06c.png,,,,,,,,,,,,,,,,,,,,,,
null,,rt_thecrossant_black4,765901,,,,,,,,black_plus_sign,,,null,,,0,,,,,,,0.8,,,,,,,,,,,,,,
null,,color_black4,766003,,,,,,,,black_plus_sign,,,null,,,,,,,,,,,,,,,,,,,,,,,,
null,,learn_phase(without_color)4,769505,,,,,,,,black_plus_sign,,,null,object_14c.png,object_11b.png,,,,,,,,,,,,,,,,,,,,,,
null,,black_cross(without_color)4,770420,,,,,,,,green,,,null,object_14c.png,object_11b.png,,,,,,,,,,,,,,,,,,,,,,
null,,rt_plussign_withcolor4,770921,,,,,,,,green,,,null,object_14c.png,object_11b.png,,,,,,,,,,,,,,,,,,,,,,
1246.800000011921,,rt_thecrossant_black4,772010,,,,,,,,black_plus_sign,,,50,,,1,,,,,,,0.8333333333333334,,,,,,,,,,,,,,
null,,color_black4,772112,,,,,,,,black_plus_sign,,,null,,,,,,,,,,,,,,,,,,,,,,,,
null,,learn_phase(without_color)4,775615,,,,,,,,black_plus_sign,,,null,object_01a.png,object_09b.png,,,,,,,,,,,,,,,,,,,,,,
null,,black_cross(without_color)4,776356,,,,,,,,green,,,null,object_01a.png,object_09b.png,,,,,,,,,,,,,,,,,,,,,,
null,,rt_plussign_withcolor4,776858,,,,,,,,green,,,null,object_01a.png,object_09b.png,,,,,,,,,,,,,,,,,,,,,,
1461.9000000357628,,rt_thecrossant_black4,778120,,,,,,,,black_plus_sign,,,50,,,1,,,,,,,0.8571428571428571,,,,,,,,,,,,,,
null,,color_black4,778221,,,,,,,,black_plus_sign,,,null,,,,,,,,,,,,,,,,,,,,,,,,
null,,learn_phase(without_color)4,781724,,,,,,,,black_plus_sign,,,null,object_02b.png,object_04c.png,,,,,,,,,,,,,,,,,,,,,,
null,,black_cross(without_color)4,782619,,,,,,,,blue,,,null,object_02b.png,object_04c.png,,,,,,,,,,,,,,,,,,,,,,
null,,rt_plussign_withcolor4,783121,,,,,,,,blue,,,null,object_02b.png,object_04c.png,,,,,,,,,,,,,,,,,,,,,,
1335.199999988079,,rt_thecrossant_black4,784230,,,,,,,,black_plus_sign,,,49,,,1,,,,,,,0.875,,,,,,,,,,,,,,
null,,color_black4,784331,,,,,,,,black_plus_sign,,,null,,,,,,,,,,,,,,,,,,,,,,,,
null,,learn_phase(without_color)4,787832,,,,,,,,black_plus_sign,,,null,object_05b.png,object_15c.png,,,,,,,,,,,,,,,,,,,,,,
null,,black_cross(without_color)4,788725,,,,,,,,green,,,null,object_05b.png,object_15c.png,,,,,,,,,,,,,,,,,,,,,,
null,,rt_plussign_withcolor4,789227,,,,,,,,green,,,null,object_05b.png,object_15c.png,,,,,,,,,,,,,,,,,,,,,,
1475.3999999761581,,rt_thecrossant_black4,790340,,,,,,,,black_plus_sign,,,50,,,1,,,,,,,0.8888888888888888,,,,,,,,,,,,,,
null,,color_black4,790442,,,,,,,,black_plus_sign,,,null,,,,,,,,,,,,,,,,,,,,,,,,
null,,learn_phase(without_color)4,793947,,,,,,,,black_plus_sign,,,null,object_07a.png,object_15b.png,,,,,,,,,,,,,,,,,,,,,,
null,,black_cross(without_color)4,794985,,,,,,,,green,,,null,object_07a.png,object_15b.png,,,,,,,,,,,,,,,,,,,,,,
null,,rt_plussign_withcolor4,795486,,,,,,,,green,,,null,object_07a.png,object_15b.png,,,,,,,,,,,,,,,,,,,,,,
1403,,rt_thecrossant_black4,796455,,,,,,,,black_plus_sign,,,50,,,1,,,,,,,0.9,,,,,,,,,,,,,,
null,,color_black4,796556,,,,,,,,black_plus_sign,,,null,,,,,,,,,,,,,,,,,,,,,,,,
null,,learn_phase(without_color)4,800059,,,,,,,,black_plus_sign,,,null,object_10a.png,object_12c.png,,,,,,,,,,,,,,,,,,,,,,
null,,black_cross(without_color)4,800557,,,,,,,,blue,,,null,object_10a.png,object_12c.png,,,,,,,,,,,,,,,,,,,,,,
null,,rt_plussign_withcolor4,801059,,,,,,,,blue,,,null,object_10a.png,object_12c.png,,,,,,,,,,,,,,,,,,,,,,
1756.9000000357628,,rt_thecrossant_black4,802565,,,,,,,,black_plus_sign,,,49,,,1,,,,,,,0.9090909090909091,,,,,,,,,,,,,,
null,,color_black4,802666,,,,,,,,black_plus_sign,,,null,,,,,,,,,,,,,,,,,,,,,,,,
null,,learn_phase(without_color)4,806169,,,,,,,,black_plus_sign,,,null,object_03b.png,object_11c.png,,,,,,,,,,,,,,,,,,,,,,
null,,black_cross(without_color)4,806705,,,,,,,,green,,,null,object_03b.png,object_11c.png,,,,,,,,,,,,,,,,,,,,,,
null,,rt_plussign_withcolor4,807206,,,,,,,,green,,,null,object_03b.png,object_11c.png,,,,,,,,,,,,,,,,,,,,,,
994.8000000119209,,rt_thecrossant_black4,808673,,,,,,,,black_plus_sign,,,50,,,1,,,,,,,0.9166666666666666,,,,,,,,,,,,,,
null,,color_black4,808775,,,,,,,,black_plus_sign,,,null,,,,,,,,,,,,,,,,,,,,,,,,
null,,learn_phase(without_color)4,812277,,,,,,,,black_plus_sign,,,null,object_07b.png,object_01c.png,,,,,,,,,,,,,,,,,,,,,,
null,,black_cross(without_color)4,813104,,,,,,,,blue,,,null,object_07b.png,object_01c.png,,,,,,,,,,,,,,,,,,,,,,
null,,rt_plussign_withcolor4,813605,,,,,,,,blue,,,null,object_07b.png,object_01c.png,,,,,,,,,,,,,,,,,,,,,,
1195.800000011921,,rt_thecrossant_black4,814781,,,,,,,,black_plus_sign,,,49,,,1,,,,,,,0.9230769230769231,,,,,,,,,,,,,,
null,,color_black4,814882,,,,,,,,black_plus_sign,,,null,,,,,,,,,,,,,,,,,,,,,,,,
null,,learn_phase(without_color)4,818385,,,,,,,,black_plus_sign,,,null,object_10b.png,object_13b.png,,,,,,,,,,,,,,,,,,,,,,
null,,black_cross(without_color)4,819376,,,,,,,,blue,,,null,object_10b.png,object_13b.png,,,,,,,,,,,,,,,,,,,,,,
null,,rt_plussign_withcolor4,819877,,,,,,,,blue,,,null,object_10b.png,object_13b.png,,,,,,,,,,,,,,,,,,,,,,
1414.8999999761581,,rt_thecrossant_black4,820889,,,,,,,,black_plus_sign,,,49,,,1,,,,,,,0.9285714285714286,,,,,,,,,,,,,,
null,,color_black4,820990,,,,,,,,black_plus_sign,,,null,,,,,,,,,,,,,,,,,,,,,,,,
null,,learn_phase(without_color)4,824492,,,,,,,,black_plus_sign,,,null,object_11a.png,object_08a.png,,,,,,,,,,,,,,,,,,,,,,
null,,black_cross(without_color)4,824962,,,,,,,,blue,,,null,object_11a.png,object_08a.png,,,,,,,,,,,,,,,,,,,,,,
null,,rt_plussign_withcolor4,825463,,,,,,,,blue,,,null,object_11a.png,object_08a.png,,,,,,,,,,,,,,,,,,,,,,
1576.8999999761581,,rt_thecrossant_black4,826996,,,,,,,,black_plus_sign,,,49,,,1,,,,,,,0.9333333333333333,,,,,,,,,,,,,,
null,,color_black4,827097,,,,,,,,black_plus_sign,,,null,,,,,,,,,,,,,,,,,,,,,,,,
null,,thebreak,827199,,,,,,,,<p></p>,,,null,,,,,,,,,,,,,,,,,,,,,,,,
1613.7999999523163,,intro_0,828814,,,,,,,,instruct,,,32,,,,,,,,,,,,,,,,,,,,,,,,
2461.600000023842,,directmemory_phase4,831276,,,,,,,,object_13a.png,,,51,,,0,,object_08c.png,object_09c.png,object_05b.png,object_08c.png,,0.7391304347826086,,0,,,,,,,,,,,,
1478.5,,directmemory_phase4,832757,,,,,,,,object_15c.png,,,50,,,0,,object_08c.png,object_10a.png,object_05b.png,object_05b.png,,0.723404255319149,,0,,,,,,,,,,,,
1423.3999999761581,,directmemory_phase4,834182,,,,,,,,object_11c.png,,,50,,,1,,object_05c.png,object_03b.png,object_08c.png,object_03b.png,,0.7291666666666666,,1,,,,,,,,,,,,
180.0999999642372,,directmemory_phase4,834364,,,,,,,,object_15b.png,,,50,,,0,,object_10a.png,object_05c.png,object_07a.png,object_07a.png,,0.7142857142857143,,0,,,,,,,,,,,,
1223.9000000357628,,directmemory_phase4,835590,,,,,,,,object_06b.png,,,50,,,1,,object_10b.png,object_09a.png,object_09c.png,object_09a.png,,0.72,,1,1,,,,,,,,,,,
null,,slowdown_page,845591,,,,,,,,too_quick,,,null,,,,,,,,,,,,,,,,,,,,,,,,
1996.699999988079,,directmemory_phase4,847589,,,,,,,,object_12c.png,,,51,,,1,,object_09c.png,object_02a.png,object_10a.png,object_10a.png,,0.7254901960784313,,1,,,,,,,,,,,,
2489,,directmemory_phase4,850080,,,,,,,,object_13b.png,,,51,,,1,,object_08c.png,object_03b.png,object_10b.png,object_10b.png,,0.7307692307692307,,1,,,,,,,,,,,,
2730.2000000476837,,directmemory_phase4,852813,,,,,,,,object_04a.png,,,51,,,1,,object_03b.png,object_09c.png,object_05c.png,object_05c.png,,0.7358490566037735,,1,,,,,,,,,,,,
1704.7000000476837,,directmemory_phase4,854519,,,,,,,,object_06c.png,,,51,,,1,,object_09a.png,object_02a.png,object_09c.png,object_09c.png,,0.7407407407407407,,1,,,,,,,,,,,,
1678.199999988079,,directmemory_phase4,856199,,,,,,,,object_04c.png,,,49,,,1,,object_02b.png,object_07b.png,object_10b.png,object_02b.png,,0.7454545454545455,,1,,,,,,,,,,,,
3493.199999988079,,directmemory_phase4,859694,,,,,,,,object_08a.png,,,51,,,1,,object_07a.png,object_05b.png,object_11a.png,object_11a.png,,0.75,,1,,,,,,,,,,,,
2168.800000011921,,directmemory_phase4,861864,,,,,,,,object_01c.png,,,50,,,1,,object_03b.png,object_07b.png,object_02a.png,object_07b.png,,0.7543859649122807,,1,,,,,,,,,,,,
1804.5999999642372,,directmemory_phase4,863670,,,,,,,,object_11b.png,,,50,,,1,,object_11a.png,object_14c.png,object_01a.png,object_14c.png,,0.7586206896551724,,1,,,,,,,,,,,,
3076.5,,directmemory_phase4,866748,,,,,,,,object_03c.png,,,51,,,0,,object_03b.png,object_02a.png,object_01a.png,object_02a.png,,0.7457627118644068,,0,,,,,,,,,,,,
2060,,directmemory_phase4,868810,,,,,,,,object_09b.png,,,49,,,1,,object_01a.png,object_05c.png,object_09c.png,object_01a.png,,0.75,,1,,,,,,,,,,,,
null,,thebreak,868913,,,,,,,,<p></p>,,,null,,,,,,,,,,,,,,,,,,,,,,,,
1276.800000011921,,intro_0,870191,,,,,,,,instruct,,,32,,,,,,,,,,,,,,,,,,,,,,,,
null,,learn_phase(without_color)5,873693,,,,,,,,black_plus_sign,,,null,object_15c.png,object_08b.png,,,,,,,,,,,,,,,,,,,,,,
null,,black_cross(without_color)5,874353,,,,,,,,green,,,null,object_15c.png,object_08b.png,,,,,,,,,,,,,,,,,,,,,,
null,,rt_plussign_withcolor5,874855,,,,,,,,green,,,null,object_15c.png,object_08b.png,,,,,,,,,,,,,,,,,,,,,,
863.2000000476837,,rt_thecrossant_black5,876198,,,,,,,,black_plus_sign,,,50,,,1,,,,,,,1,,,,,,,,,,,,,,
null,,color_black5,876300,,,,,,,,black_plus_sign,,,null,,,,,,,,,,,,,,,,,,,,,,,,
null,,learn_phase(without_color)5,879802,,,,,,,,black_plus_sign,,,null,object_13b.png,object_14b.png,,,,,,,,,,,,,,,,,,,,,,
null,,black_cross(without_color)5,880650,,,,,,,,blue,,,null,object_13b.png,object_14b.png,,,,,,,,,,,,,,,,,,,,,,
null,,rt_plussign_withcolor5,881151,,,,,,,,blue,,,null,object_13b.png,object_14b.png,,,,,,,,,,,,,,,,,,,,,,
775.8000000119209,,rt_thecrossant_black5,882306,,,,,,,,black_plus_sign,,,49,,,1,,,,,,,1,,,,,,,,,,,,,,
null,,color_black5,882408,,,,,,,,black_plus_sign,,,null,,,,,,,,,,,,,,,,,,,,,,,,
null,,learn_phase(without_color)5,885910,,,,,,,,black_plus_sign,,,null,object_06b.png,object_07c.png,,,,,,,,,,,,,,,,,,,,,,
null,,black_cross(without_color)5,886863,,,,,,,,green,,,null,object_06b.png,object_07c.png,,,,,,,,,,,,,,,,,,,,,,
null,,rt_plussign_withcolor5,887365,,,,,,,,green,,,null,object_06b.png,object_07c.png,,,,,,,,,,,,,,,,,,,,,,
1482.300000011921,,rt_thecrossant_black5,888431,,,,,,,,black_plus_sign,,,50,,,1,,,,,,,1,,,,,,,,,,,,,,
null,,color_black5,888533,,,,,,,,black_plus_sign,,,null,,,,,,,,,,,,,,,,,,,,,,,,
null,,learn_phase(without_color)5,892036,,,,,,,,black_plus_sign,,,null,object_04a.png,object_06a.png,,,,,,,,,,,,,,,,,,,,,,
null,,black_cross(without_color)5,892963,,,,,,,,green,,,null,object_04a.png,object_06a.png,,,,,,,,,,,,,,,,,,,,,,
126.19999998807907,,rt_plussign_withcolor5,893465,,,,,,,,green,,,50,object_04a.png,object_06a.png,,,,,,,,,,,,,,,,,,,,,,
null,,rt_thecrossant_black5,894541,,,,,,,,black_plus_sign,,,null,,,1,,,,,,,1,,,,,,,,,,,,,,
null,,color_black5,894644,,,,,,,,black_plus_sign,,,null,,,,,,,,,,,,,,,,,,,,,,,,
null,,learn_phase(without_color)5,898146,,,,,,,,black_plus_sign,,,null,object_01c.png,object_13c.png,,,,,,,,,,,,,,,,,,,,,,
null,,black_cross(without_color)5,899184,,,,,,,,blue,,,null,object_01c.png,object_13c.png,,,,,,,,,,,,,,,,,,,,,,
null,,rt_plussign_withcolor5,899685,,,,,,,,blue,,,null,object_01c.png,object_13c.png,,,,,,,,,,,,,,,,,,,,,,
1605.1000000238419,,rt_thecrossant_black5,900650,,,,,,,,black_plus_sign,,,49,,,1,,,,,,,1,,,,,,,,,,,,,,
null,,color_black5,900751,,,,,,,,black_plus_sign,,,null,,,,,,,,,,,,,,,,,,,,,,,,
null,,learn_phase(without_color)5,904254,,,,,,,,black_plus_sign,,,null,object_06c.png,object_14a.png,,,,,,,,,,,,,,,,,,,,,,
null,,black_cross(without_color)5,905048,,,,,,,,green,,,null,object_06c.png,object_14a.png,,,,,,,,,,,,,,,,,,,,,,
null,,rt_plussign_withcolor5,905549,,,,,,,,green,,,null,object_06c.png,object_14a.png,,,,,,,,,,,,,,,,,,,,,,
1593.5,,rt_thecrossant_black5,906759,,,,,,,,black_plus_sign,,,50,,,1,,,,,,,1,,,,,,,,,,,,,,
null,,color_black5,906861,,,,,,,,black_plus_sign,,,null,,,,,,,,,,,,,,,,,,,,,,,,
null,,learn_phase(without_color)5,910363,,,,,,,,black_plus_sign,,,null,object_09b.png,object_02c.png,,,,,,,,,,,,,,,,,,,,,,
null,,black_cross(without_color)5,911036,,,,,,,,green,,,null,object_09b.png,object_02c.png,,,,,,,,,,,,,,,,,,,,,,
null,,rt_plussign_withcolor5,911537,,,,,,,,green,,,null,object_09b.png,object_02c.png,,,,,,,,,,,,,,,,,,,,,,
1278.1000000238419,,rt_thecrossant_black5,912867,,,,,,,,black_plus_sign,,,50,,,1,,,,,,,1,,,,,,,,,,,,,,
null,,color_black5,912968,,,,,,,,black_plus_sign,,,null,,,,,,,,,,,,,,,,,,,,,,,,
null,,learn_phase(without_color)5,916471,,,,,,,,black_plus_sign,,,null,object_04c.png,object_15a.png,,,,,,,,,,,,,,,,,,,,,,
null,,black_cross(without_color)5,917520,,,,,,,,blue,,,null,object_04c.png,object_15a.png,,,,,,,,,,,,,,,,,,,,,,
null,,rt_plussign_withcolor5,918021,,,,,,,,blue,,,null,object_04c.png,object_15a.png,,,,,,,,,,,,,,,,,,,,,,
1374.300000011921,,rt_thecrossant_black5,918976,,,,,,,,black_plus_sign,,,49,,,1,,,,,,,1,,,,,,,,,,,,,,
null,,color_black5,919078,,,,,,,,black_plus_sign,,,null,,,,,,,,,,,,,,,,,,,,,,,,
null,,learn_phase(without_color)5,922580,,,,,,,,black_plus_sign,,,null,object_13a.png,object_03a.png,,,,,,,,,,,,,,,,,,,,,,
null,,black_cross(without_color)5,923147,,,,,,,,blue,,,null,object_13a.png,object_03a.png,,,,,,,,,,,,,,,,,,,,,,
null,,rt_plussign_withcolor5,923649,,,,,,,,blue,,,null,object_13a.png,object_03a.png,,,,,,,,,,,,,,,,,,,,,,
1594.9000000357628,,rt_thecrossant_black5,925084,,,,,,,,black_plus_sign,,,49,,,1,,,,,,,1,,,,,,,,,,,,,,
null,,color_black5,925186,,,,,,,,black_plus_sign,,,null,,,,,,,,,,,,,,,,,,,,,,,,
null,,learn_phase(without_color)5,928688,,,,,,,,black_plus_sign,,,null,object_15b.png,object_01b.png,,,,,,,,,,,,,,,,,,,,,,
null,,black_cross(without_color)5,929259,,,,,,,,blue,,,null,object_15b.png,object_01b.png,,,,,,,,,,,,,,,,,,,,,,
null,,rt_plussign_withcolor5,929760,,,,,,,,blue,,,null,object_15b.png,object_01b.png,,,,,,,,,,,,,,,,,,,,,,
1121.7999999523163,,rt_thecrossant_black5,931200,,,,,,,,black_plus_sign,,,49,,,1,,,,,,,1,,,,,,,,,,,,,,
null,,color_black5,931302,,,,,,,,black_plus_sign,,,null,,,,,,,,,,,,,,,,,,,,,,,,
null,,learn_phase(without_color)5,934804,,,,,,,,black_plus_sign,,,null,object_11b.png,object_12a.png,,,,,,,,,,,,,,,,,,,,,,
null,,black_cross(without_color)5,935327,,,,,,,,green,,,null,object_11b.png,object_12a.png,,,,,,,,,,,,,,,,,,,,,,
null,,rt_plussign_withcolor5,935828,,,,,,,,green,,,null,object_11b.png,object_12a.png,,,,,,,,,,,,,,,,,,,,,,
1175.199999988079,,rt_thecrossant_black5,937309,,,,,,,,black_plus_sign,,,50,,,1,,,,,,,1,,,,,,,,,,,,,,
null,,color_black5,937411,,,,,,,,black_plus_sign,,,null,,,,,,,,,,,,,,,,,,,,,,,,
null,,learn_phase(without_color)5,940913,,,,,,,,black_plus_sign,,,null,object_11c.png,object_05a.png,,,,,,,,,,,,,,,,,,,,,,
null,,black_cross(without_color)5,941610,,,,,,,,blue,,,null,object_11c.png,object_05a.png,,,,,,,,,,,,,,,,,,,,,,
null,,rt_plussign_withcolor5,942112,,,,,,,,blue,,,null,object_11c.png,object_05a.png,,,,,,,,,,,,,,,,,,,,,,
1242.800000011921,,rt_thecrossant_black5,943418,,,,,,,,black_plus_sign,,,49,,,1,,,,,,,1,,,,,,,,,,,,,,
null,,color_black5,943520,,,,,,,,black_plus_sign,,,null,,,,,,,,,,,,,,,,,,,,,,,,
null,,learn_phase(without_color)5,947022,,,,,,,,black_plus_sign,,,null,object_12c.png,object_04b.png,,,,,,,,,,,,,,,,,,,,,,
null,,black_cross(without_color)5,948041,,,,,,,,blue,,,null,object_12c.png,object_04b.png,,,,,,,,,,,,,,,,,,,,,,
null,,rt_plussign_withcolor5,948542,,,,,,,,blue,,,null,object_12c.png,object_04b.png,,,,,,,,,,,,,,,,,,,,,,
1249.1000000238419,,rt_thecrossant_black5,949527,,,,,,,,black_plus_sign,,,49,,,1,,,,,,,1,,,,,,,,,,,,,,
null,,color_black5,949628,,,,,,,,black_plus_sign,,,null,,,,,,,,,,,,,,,,,,,,,,,,
null,,learn_phase(without_color)5,953129,,,,,,,,black_plus_sign,,,null,object_08a.png,object_12b.png,,,,,,,,,,,,,,,,,,,,,,
null,,black_cross(without_color)5,953827,,,,,,,,green,,,null,object_08a.png,object_12b.png,,,,,,,,,,,,,,,,,,,,,,
null,,rt_plussign_withcolor5,954329,,,,,,,,green,,,null,object_08a.png,object_12b.png,,,,,,,,,,,,,,,,,,,,,,
1688.800000011921,,rt_thecrossant_black5,955645,,,,,,,,black_plus_sign,,,50,,,1,,,,,,,1,,,,,,,,,,,,,,
null,,color_black5,955748,,,,,,,,black_plus_sign,,,null,,,,,,,,,,,,,,,,,,,,,,,,
null,,learn_phase(without_color)5,959251,,,,,,,,black_plus_sign,,,null,object_03c.png,object_10c.png,,,,,,,,,,,,,,,,,,,,,,
null,,black_cross(without_color)5,960083,,,,,,,,green,,,null,object_03c.png,object_10c.png,,,,,,,,,,,,,,,,,,,,,,
null,,rt_plussign_withcolor5,960584,,,,,,,,green,,,null,object_03c.png,object_10c.png,,,,,,,,,,,,,,,,,,,,,,
1261.699999988079,,rt_thecrossant_black5,961756,,,,,,,,black_plus_sign,,,50,,,1,,,,,,,1,,,,,,,,,,,,,,
null,,color_black5,961868,,,,,,,,black_plus_sign,,,null,,,,,,,,,,,,,,,,,,,,,,,,
null,,thebreak,961971,,,,,,,,<p></p>,,,null,,,,,,,,,,,,,,,,,,,,,,,,
1561.199999988079,,intro_0,963534,,,,,,,,instruct,,,32,,,,,,,,,,,,,,,,,,,,,,,,
2606,,directmemory_phase5,966141,,,,,,,,object_06a.png,,,51,,,1,,object_15c.png,object_06b.png,object_04a.png,object_04a.png,,0.7540983606557377,,1,,,,,,,,,,,,
2405.199999988079,,directmemory_phase5,968548,,,,,,,,object_13c.png,,,51,,,0,,object_01c.png,object_04c.png,object_06c.png,object_01c.png,,0.7419354838709677,,0,,,,,,,,,,,,
2064.800000011921,,directmemory_phase5,970615,,,,,,,,object_12b.png,,,51,,,1,,object_12c.png,object_06c.png,object_08a.png,object_08a.png,,0.746031746031746,,1,,,,,,,,,,,,
1939.7999999523163,,directmemory_phase5,972557,,,,,,,,object_10c.png,,,50,,,1,,object_09b.png,object_03c.png,object_12c.png,object_03c.png,,0.75,,1,,,,,,,,,,,,
2675.699999988079,,directmemory_phase5,975234,,,,,,,,object_15a.png,,,51,,,0,,object_09b.png,object_04c.png,object_11c.png,object_04c.png,,0.7384615384615385,,0,,,,,,,,,,,,
2960.899999976158,,directmemory_phase5,978196,,,,,,,,object_01b.png,,,51,,,1,,object_04a.png,object_01c.png,object_15b.png,object_15b.png,,0.7424242424242424,,1,,,,,,,,,,,,
1930.1000000238419,,directmemory_phase5,980128,,,,,,,,object_05a.png,,,49,,,1,,object_11c.png,object_12c.png,object_09b.png,object_11c.png,,0.746268656716418,,1,,,,,,,,,,,,
1793.1000000238419,,directmemory_phase5,981923,,,,,,,,object_03a.png,,,49,,,1,,object_13a.png,object_12c.png,object_06b.png,object_13a.png,,0.75,,1,,,,,,,,,,,,
3477.900000035763,,directmemory_phase5,985403,,,,,,,,object_04b.png,,,49,,,0,,object_06b.png,object_15b.png,object_12c.png,object_12c.png,,0.7391304347826086,,0,,,,,,,,,,,,
2730.5,,directmemory_phase5,988135,,,,,,,,object_08b.png,,,50,,,1,,object_06b.png,object_15c.png,object_06c.png,object_15c.png,,0.7428571428571429,,1,,,,,,,,,,,,
2073.5,,directmemory_phase5,990211,,,,,,,,object_14b.png,,,51,,,1,,object_15b.png,object_03c.png,object_13b.png,object_13b.png,,0.7464788732394366,,1,,,,,,,,,,,,
1538.699999988079,,directmemory_phase5,991751,,,,,,,,object_02c.png,,,50,,,1,,object_15c.png,object_09b.png,object_06b.png,object_09b.png,,0.75,,1,,,,,,,,,,,,
2105.300000011921,,directmemory_phase5,993858,,,,,,,,object_07c.png,,,49,,,1,,object_06b.png,object_04c.png,object_13a.png,object_06b.png,,0.7534246575342466,,1,,,,,,,,,,,,
2254.699999988079,,directmemory_phase5,996115,,,,,,,,object_14a.png,,,50,,,0,,object_09b.png,object_13b.png,object_06c.png,object_06c.png,,0.7432432432432432,,0,,,,,,,,,,,,
2761.900000035763,,directmemory_phase5,998878,,,,,,,,object_12a.png,,,51,,,1,,object_11c.png,object_15c.png,object_11b.png,object_11b.png,,0.7466666666666667,,1,,,,,,,,,,,,
null,,thebreak,998981,,,,,,,,<p></p>,,,null,,,,,,,,,,,,,,,,,,,,,,,,
1358.699999988079,,intro_0,1000341,,,,,,,,instruct,,,32,,,,,,,,,,,,,,,,,,,,,,,,
null,,learn_phase(without_color)6,1003842,,,,,,,,black_plus_sign,,,null,object_04c.png,object_15a.png,,,,,,,,,,,,,,,,,,,,,,
null,,black_cross(without_color)6,1004863,,,,,,,,blue,,,null,object_04c.png,object_15a.png,,,,,,,,,,,,,,,,,,,,,,
null,,rt_plussign_withcolor6,1005365,,,,,,,,blue,,,null,object_04c.png,object_15a.png,,,,,,,,,,,,,,,,,,,,,,
1606.199999988079,,rt_thecrossant_black6,1006348,,,,,,,,black_plus_sign,,,49,,,1,,,,,,,1,,,,,,,,,,,,,,
null,,color_black6,1006449,,,,,,,,black_plus_sign,,,null,,,,,,,,,,,,,,,,,,,,,,,,
null,,learn_phase(without_color)6,1009952,,,,,,,,black_plus_sign,,,null,object_11b.png,object_12a.png,,,,,,,,,,,,,,,,,,,,,,
null,,black_cross(without_color)6,1010539,,,,,,,,green,,,null,object_11b.png,object_12a.png,,,,,,,,,,,,,,,,,,,,,,
null,,rt_plussign_withcolor6,1011040,,,,,,,,green,,,null,object_11b.png,object_12a.png,,,,,,,,,,,,,,,,,,,,,,
1790,,rt_thecrossant_black6,1012456,,,,,,,,black_plus_sign,,,50,,,1,,,,,,,1,,,,,,,,,,,,,,
null,,color_black6,1012558,,,,,,,,black_plus_sign,,,null,,,,,,,,,,,,,,,,,,,,,,,,
null,,learn_phase(without_color)6,1016060,,,,,,,,black_plus_sign,,,null,object_01c.png,object_13c.png,,,,,,,,,,,,,,,,,,,,,,
null,,black_cross(without_color)6,1016790,,,,,,,,green,,,null,object_01c.png,object_13c.png,,,,,,,,,,,,,,,,,,,,,,
null,,rt_plussign_withcolor6,1017292,,,,,,,,green,,,null,object_01c.png,object_13c.png,,,,,,,,,,,,,,,,,,,,,,
922.5,,rt_thecrossant_black6,1018564,,,,,,,,black_plus_sign,,,50,,,1,,,,,,,1,,,,,,,,,,,,,,
null,,color_black6,1018666,,,,,,,,black_plus_sign,,,null,,,,,,,,,,,,,,,,,,,,,,,,
null,,learn_phase(without_color)6,1022168,,,,,,,,black_plus_sign,,,null,object_15b.png,object_01b.png,,,,,,,,,,,,,,,,,,,,,,
null,,black_cross(without_color)6,1022861,,,,,,,,green,,,null,object_15b.png,object_01b.png,,,,,,,,,,,,,,,,,,,,,,
null,,rt_plussign_withcolor6,1023362,,,,,,,,green,,,null,object_15b.png,object_01b.png,,,,,,,,,,,,,,,,,,,,,,
1373.300000011921,,rt_thecrossant_black6,1024673,,,,,,,,black_plus_sign,,,49,,,0,,,,,,,0.75,,,,,,,,,,,,,,
null,,color_black6,1024776,,,,,,,,black_plus_sign,,,null,,,,,,,,,,,,,,,,,,,,,,,,
null,,learn_phase(without_color)6,1028277,,,,,,,,black_plus_sign,,,null,object_06b.png,object_07c.png,,,,,,,,,,,,,,,,,,,,,,
null,,black_cross(without_color)6,1028688,,,,,,,,blue,,,null,object_06b.png,object_07c.png,,,,,,,,,,,,,,,,,,,,,,
null,,rt_plussign_withcolor6,1029189,,,,,,,,blue,,,null,object_06b.png,object_07c.png,,,,,,,,,,,,,,,,,,,,,,
1324.4000000357628,,rt_thecrossant_black6,1030781,,,,,,,,black_plus_sign,,,49,,,1,,,,,,,0.8,,,,,,,,,,,,,,
null,,color_black6,1030883,,,,,,,,black_plus_sign,,,null,,,,,,,,,,,,,,,,,,,,,,,,
null,,learn_phase(without_color)6,1034386,,,,,,,,black_plus_sign,,,null,object_03c.png,object_10c.png,,,,,,,,,,,,,,,,,,,,,,
null,,black_cross(without_color)6,1035070,,,,,,,,blue,,,null,object_03c.png,object_10c.png,,,,,,,,,,,,,,,,,,,,,,
null,,rt_plussign_withcolor6,1035571,,,,,,,,blue,,,null,object_03c.png,object_10c.png,,,,,,,,,,,,,,,,,,,,,,
1022.1000000238419,,rt_thecrossant_black6,1036891,,,,,,,,black_plus_sign,,,49,,,1,,,,,,,0.8333333333333334,,,,,,,,,,,,,,
null,,color_black6,1036992,,,,,,,,black_plus_sign,,,null,,,,,,,,,,,,,,,,,,,,,,,,
null,,learn_phase(without_color)6,1040495,,,,,,,,black_plus_sign,,,null,object_06c.png,object_14a.png,,,,,,,,,,,,,,,,,,,,,,
null,,black_cross(without_color)6,1041128,,,,,,,,green,,,null,object_06c.png,object_14a.png,,,,,,,,,,,,,,,,,,,,,,
null,,rt_plussign_withcolor6,1041630,,,,,,,,green,,,null,object_06c.png,object_14a.png,,,,,,,,,,,,,,,,,,,,,,
1441.2000000476837,,rt_thecrossant_black6,1042999,,,,,,,,black_plus_sign,,,50,,,1,,,,,,,0.8571428571428571,,,,,,,,,,,,,,
null,,color_black6,1043101,,,,,,,,black_plus_sign,,,null,,,,,,,,,,,,,,,,,,,,,,,,
null,,learn_phase(without_color)6,1046604,,,,,,,,black_plus_sign,,,null,object_08a.png,object_12b.png,,,,,,,,,,,,,,,,,,,,,,
null,,black_cross(without_color)6,1047547,,,,,,,,green,,,null,object_08a.png,object_12b.png,,,,,,,,,,,,,,,,,,,,,,
null,,rt_plussign_withcolor6,1048048,,,,,,,,green,,,null,object_08a.png,object_12b.png,,,,,,,,,,,,,,,,,,,,,,
814.5999999642372,,rt_thecrossant_black6,1049108,,,,,,,,black_plus_sign,,,50,,,1,,,,,,,0.875,,,,,,,,,,,,,,
null,,color_black6,1049210,,,,,,,,black_plus_sign,,,null,,,,,,,,,,,,,,,,,,,,,,,,
null,,learn_phase(without_color)6,1052711,,,,,,,,black_plus_sign,,,null,object_12c.png,object_04b.png,,,,,,,,,,,,,,,,,,,,,,
null,,black_cross(without_color)6,1053204,,,,,,,,blue,,,null,object_12c.png,object_04b.png,,,,,,,,,,,,,,,,,,,,,,
null,,rt_plussign_withcolor6,1053705,,,,,,,,blue,,,null,object_12c.png,object_04b.png,,,,,,,,,,,,,,,,,,,,,,
1301.5999999642372,,rt_thecrossant_black6,1055216,,,,,,,,black_plus_sign,,,49,,,1,,,,,,,0.8888888888888888,,,,,,,,,,,,,,
null,,color_black6,1055317,,,,,,,,black_plus_sign,,,null,,,,,,,,,,,,,,,,,,,,,,,,
null,,learn_phase(without_color)6,1058820,,,,,,,,black_plus_sign,,,null,object_15c.png,object_08b.png,,,,,,,,,,,,,,,,,,,,,,
null,,black_cross(without_color)6,1059763,,,,,,,,green,,,null,object_15c.png,object_08b.png,,,,,,,,,,,,,,,,,,,,,,
null,,rt_plussign_withcolor6,1060264,,,,,,,,green,,,null,object_15c.png,object_08b.png,,,,,,,,,,,,,,,,,,,,,,
1104.199999988079,,rt_thecrossant_black6,1061325,,,,,,,,black_plus_sign,,,50,,,1,,,,,,,0.9,,,,,,,,,,,,,,
null,,color_black6,1061427,,,,,,,,black_plus_sign,,,null,,,,,,,,,,,,,,,,,,,,,,,,
null,,learn_phase(without_color)6,1064929,,,,,,,,black_plus_sign,,,null,object_04a.png,object_06a.png,,,,,,,,,,,,,,,,,,,,,,
null,,black_cross(without_color)6,1065417,,,,,,,,green,,,null,object_04a.png,object_06a.png,,,,,,,,,,,,,,,,,,,,,,
null,,rt_plussign_withcolor6,1065918,,,,,,,,green,,,null,object_04a.png,object_06a.png,,,,,,,,,,,,,,,,,,,,,,
2352,,rt_thecrossant_black6,1067434,,,,,,,,black_plus_sign,,,50,,,1,,,,,,,0.9090909090909091,,,,,,,,,,,,,,
null,,color_black6,1067535,,,,,,,,black_plus_sign,,,null,,,,,,,,,,,,,,,,,,,,,,,,
null,,learn_phase(without_color)6,1071037,,,,,,,,black_plus_sign,,,null,object_11c.png,object_05a.png,,,,,,,,,,,,,,,,,,,,,,
null,,black_cross(without_color)6,1071887,,,,,,,,blue,,,null,object_11c.png,object_05a.png,,,,,,,,,,,,,,,,,,,,,,
null,,rt_plussign_withcolor6,1072388,,,,,,,,blue,,,null,object_11c.png,object_05a.png,,,,,,,,,,,,,,,,,,,,,,
1024.199999988079,,rt_thecrossant_black6,1073542,,,,,,,,black_plus_sign,,,49,,,1,,,,,,,0.9166666666666666,,,,,,,,,,,,,,
null,,color_black6,1073645,,,,,,,,black_plus_sign,,,null,,,,,,,,,,,,,,,,,,,,,,,,
null,,learn_phase(without_color)6,1077146,,,,,,,,black_plus_sign,,,null,object_09b.png,object_02c.png,,,,,,,,,,,,,,,,,,,,,,
null,,black_cross(without_color)6,1078236,,,,,,,,green,,,null,object_09b.png,object_02c.png,,,,,,,,,,,,,,,,,,,,,,
null,,rt_plussign_withcolor6,1078737,,,,,,,,green,,,null,object_09b.png,object_02c.png,,,,,,,,,,,,,,,,,,,,,,
1386.4000000357628,,rt_thecrossant_black6,1079651,,,,,,,,black_plus_sign,,,50,,,1,,,,,,,0.9230769230769231,,,,,,,,,,,,,,
null,,color_black6,1079753,,,,,,,,black_plus_sign,,,null,,,,,,,,,,,,,,,,,,,,,,,,
null,,learn_phase(without_color)6,1083255,,,,,,,,black_plus_sign,,,null,object_13b.png,object_14b.png,,,,,,,,,,,,,,,,,,,,,,
null,,black_cross(without_color)6,1084160,,,,,,,,green,,,null,object_13b.png,object_14b.png,,,,,,,,,,,,,,,,,,,,,,
null,,rt_plussign_withcolor6,1084661,,,,,,,,green,,,null,object_13b.png,object_14b.png,,,,,,,,,,,,,,,,,,,,,,
1691,,rt_thecrossant_black6,1085759,,,,,,,,black_plus_sign,,,50,,,1,,,,,,,0.9285714285714286,,,,,,,,,,,,,,
null,,color_black6,1085860,,,,,,,,black_plus_sign,,,null,,,,,,,,,,,,,,,,,,,,,,,,
null,,learn_phase(without_color)6,1089362,,,,,,,,black_plus_sign,,,null,object_13a.png,object_03a.png,,,,,,,,,,,,,,,,,,,,,,
null,,black_cross(without_color)6,1090044,,,,,,,,blue,,,null,object_13a.png,object_03a.png,,,,,,,,,,,,,,,,,,,,,,
null,,rt_plussign_withcolor6,1090545,,,,,,,,blue,,,null,object_13a.png,object_03a.png,,,,,,,,,,,,,,,,,,,,,,
1482.8999999761581,,rt_thecrossant_black6,1091868,,,,,,,,black_plus_sign,,,49,,,1,,,,,,,0.9333333333333333,,,,,,,,,,,,,,
null,,color_black6,1091970,,,,,,,,black_plus_sign,,,null,,,,,,,,,,,,,,,,,,,,,,,,
null,,thebreak,1092072,,,,,,,,<p></p>,,,null,,,,,,,,,,,,,,,,,,,,,,,,
1434.199999988079,,intro_0,1093507,,,,,,,,instruct,,,32,,,,,,,,,,,,,,,,,,,,,,,,
2205.900000035763,,directmemory_phase6,1095714,,,,,,,,object_12a.png,,,51,,,1,,object_09b.png,object_11c.png,object_11b.png,object_11b.png,,0.75,,1,,,,,,,,,,,,
2785.699999988079,,directmemory_phase6,1098502,,,,,,,,object_08b.png,,,51,,,1,,object_15b.png,object_12c.png,object_15c.png,object_15c.png,,0.7532467532467533,,1,,,,,,,,,,,,
1770.2999999523163,,directmemory_phase6,1100274,,,,,,,,object_12b.png,,,51,,,1,,object_11c.png,object_12c.png,object_08a.png,object_08a.png,,0.7564102564102564,,1,,,,,,,,,,,,
1826,,directmemory_phase6,1102102,,,,,,,,object_05a.png,,,49,,,1,,object_11c.png,object_01c.png,object_13a.png,object_11c.png,,0.759493670886076,,1,,,,,,,,,,,,
1794.800000011921,,directmemory_phase6,1103899,,,,,,,,object_14a.png,,,49,,,1,,object_06c.png,object_15c.png,object_12c.png,object_06c.png,,0.7625,,1,,,,,,,,,,,,
1768.300000011921,,directmemory_phase6,1105669,,,,,,,,object_03a.png,,,50,,,1,,object_03c.png,object_13a.png,object_01c.png,object_13a.png,,0.7654320987654321,,1,,,,,,,,,,,,
1650.8999999761581,,directmemory_phase6,1107322,,,,,,,,object_14b.png,,,49,,,1,,object_13b.png,object_11c.png,object_15b.png,object_13b.png,,0.7682926829268293,,1,,,,,,,,,,,,
1570,,directmemory_phase6,1108894,,,,,,,,object_02c.png,,,51,,,1,,object_06b.png,object_03c.png,object_09b.png,object_09b.png,,0.7710843373493976,,1,,,,,,,,,,,,
2538.5,,directmemory_phase6,1111434,,,,,,,,object_04b.png,,,49,,,1,,object_12c.png,object_11c.png,object_06c.png,object_12c.png,,0.7738095238095238,,1,,,,,,,,,,,,
2470.5,,directmemory_phase6,1113907,,,,,,,,object_10c.png,,,49,,,1,,object_03c.png,object_13b.png,object_08a.png,object_03c.png,,0.7764705882352941,,1,,,,,,,,,,,,
2068.7000000476837,,directmemory_phase6,1115979,,,,,,,,object_13c.png,,,50,,,0,,object_01c.png,object_11c.png,object_04a.png,object_01c.png,,0.7674418604651163,,0,,,,,,,,,,,,
1836.3999999761581,,directmemory_phase6,1117818,,,,,,,,object_06a.png,,,49,,,1,,object_04a.png,object_13a.png,object_03c.png,object_04a.png,,0.7701149425287356,,1,,,,,,,,,,,,
1576,,directmemory_phase6,1119396,,,,,,,,object_01b.png,,,49,,,0,,object_11c.png,object_15b.png,object_03c.png,object_15b.png,,0.7613636363636364,,0,,,,,,,,,,,,
2049.899999976158,,directmemory_phase6,1121448,,,,,,,,object_15a.png,,,49,,,1,,object_04c.png,object_06b.png,object_03c.png,object_04c.png,,0.7640449438202247,,1,,,,,,,,,,,,
4715.099999964237,,directmemory_phase6,1126165,,,,,,,,object_07c.png,,,51,,,0,,object_06b.png,object_03c.png,object_15c.png,object_06b.png,,0.7555555555555555,,0,,,,,,,,,,,,
null,,thebreak,1126267,,,,,,,,<p></p>,,,null,,,,,,,,,,,,,,,,,,,,,,,,
1474.2000000476837,,intro_0,1127742,,,,,,,,instruct,,,32,,,,,,,,,,,,,,,,,,,,,,,,
null,,learn_phase(without_color)7,1131245,,,,,,,,black_plus_sign,,,null,object_11c.png,object_05a.png,,,,,,,,,,,,,,,,,,,,,,
null,,black_cross(without_color)7,1132198,,,,,,,,blue,,,null,object_11c.png,object_05a.png,,,,,,,,,,,,,,,,,,,,,,
null,,rt_plussign_withcolor7,1132698,,,,,,,,blue,,,null,object_11c.png,object_05a.png,,,,,,,,,,,,,,,,,,,,,,
null,,rt_thecrossant_black7,1133749,,,,,,,,black_plus_sign,,,null,,,,,,,,,,NaN,,,,,,,,,,,,,,
null,,color_black7,1133851,,,,,,,,black_plus_sign,,,null,,,,,,,,,,,,,,,,,,,,,,,,
null,,learn_phase(without_color)7,1137354,,,,,,,,black_plus_sign,,,null,object_15b.png,object_01b.png,,,,,,,,,,,,,,,,,,,,,,
null,,black_cross(without_color)7,1137987,,,,,,,,green,,,null,object_15b.png,object_01b.png,,,,,,,,,,,,,,,,,,,,,,
null,,rt_plussign_withcolor7,1138489,,,,,,,,green,,,null,object_15b.png,object_01b.png,,,,,,,,,,,,,,,,,,,,,,
1597.5,,rt_thecrossant_black7,1139861,,,,,,,,black_plus_sign,,,50,,,1,,,,,,,1,,,,,,,,,,,,,,
null,,color_black7,1139963,,,,,,,,black_plus_sign,,,null,,,,,,,,,,,,,,,,,,,,,,,,
null,,learn_phase(without_color)7,1143465,,,,,,,,black_plus_sign,,,null,object_08a.png,object_12b.png,,,,,,,,,,,,,,,,,,,,,,
null,,black_cross(without_color)7,1144203,,,,,,,,green,,,null,object_08a.png,object_12b.png,,,,,,,,,,,,,,,,,,,,,,
491.80000001192093,,rt_plussign_withcolor7,1144705,,,,,,,,green,,,50,object_08a.png,object_12b.png,,,,,,,,,,,,,,,,,,,,,,
null,,rt_thecrossant_black7,1145970,,,,,,,,black_plus_sign,,,null,,,1,,,,,,,1,,,,,,,,,,,,,,
null,,color_black7,1146071,,,,,,,,black_plus_sign,,,null,,,,,,,,,,,,,,,,,,,,,,,,
null,,learn_phase(without_color)7,1149573,,,,,,,,black_plus_sign,,,null,object_13a.png,object_03a.png,,,,,,,,,,,,,,,,,,,,,,
null,,black_cross(without_color)7,1150454,,,,,,,,green,,,null,object_13a.png,object_03a.png,,,,,,,,,,,,,,,,,,,,,,
null,,rt_plussign_withcolor7,1150956,,,,,,,,green,,,null,object_13a.png,object_03a.png,,,,,,,,,,,,,,,,,,,,,,
947.8000000119209,,rt_thecrossant_black7,1152079,,,,,,,,black_plus_sign,,,50,,,1,,,,,,,1,,,,,,,,,,,,,,
null,,color_black7,1152181,,,,,,,,black_plus_sign,,,null,,,,,,,,,,,,,,,,,,,,,,,,
null,,learn_phase(without_color)7,1155683,,,,,,,,black_plus_sign,,,null,object_12c.png,object_04b.png,,,,,,,,,,,,,,,,,,,,,,
null,,black_cross(without_color)7,1156670,,,,,,,,blue,,,null,object_12c.png,object_04b.png,,,,,,,,,,,,,,,,,,,,,,
null,,rt_plussign_withcolor7,1157172,,,,,,,,blue,,,null,object_12c.png,object_04b.png,,,,,,,,,,,,,,,,,,,,,,
1700.5999999642372,,rt_thecrossant_black7,1158198,,,,,,,,black_plus_sign,,,49,,,1,,,,,,,1,,,,,,,,,,,,,,
null,,color_black7,1158300,,,,,,,,black_plus_sign,,,null,,,,,,,,,,,,,,,,,,,,,,,,
null,,learn_phase(without_color)7,1161802,,,,,,,,black_plus_sign,,,null,object_06b.png,object_07c.png,,,,,,,,,,,,,,,,,,,,,,
null,,black_cross(without_color)7,1162509,,,,,,,,blue,,,null,object_06b.png,object_07c.png,,,,,,,,,,,,,,,,,,,,,,
null,,rt_plussign_withcolor7,1163011,,,,,,,,blue,,,null,object_06b.png,object_07c.png,,,,,,,,,,,,,,,,,,,,,,
1604.300000011921,,rt_thecrossant_black7,1164307,,,,,,,,black_plus_sign,,,49,,,1,,,,,,,1,,,,,,,,,,,,,,
null,,color_black7,1164409,,,,,,,,black_plus_sign,,,null,,,,,,,,,,,,,,,,,,,,,,,,
null,,learn_phase(without_color)7,1167911,,,,,,,,black_plus_sign,,,null,object_11b.png,object_12a.png,,,,,,,,,,,,,,,,,,,,,,
null,,black_cross(without_color)7,1168345,,,,,,,,blue,,,null,object_11b.png,object_12a.png,,,,,,,,,,,,,,,,,,,,,,
null,,rt_plussign_withcolor7,1168845,,,,,,,,blue,,,null,object_11b.png,object_12a.png,,,,,,,,,,,,,,,,,,,,,,
1218.7000000476837,,rt_thecrossant_black7,1170416,,,,,,,,black_plus_sign,,,49,,,1,,,,,,,1,,,,,,,,,,,,,,
null,,color_black7,1170518,,,,,,,,black_plus_sign,,,null,,,,,,,,,,,,,,,,,,,,,,,,
null,,learn_phase(without_color)7,1174019,,,,,,,,black_plus_sign,,,null,object_04c.png,object_15a.png,,,,,,,,,,,,,,,,,,,,,,
null,,black_cross(without_color)7,1174458,,,,,,,,blue,,,null,object_04c.png,object_15a.png,,,,,,,,,,,,,,,,,,,,,,
null,,rt_plussign_withcolor7,1174959,,,,,,,,blue,,,null,object_04c.png,object_15a.png,,,,,,,,,,,,,,,,,,,,,,
1116,,rt_thecrossant_black7,1176524,,,,,,,,black_plus_sign,,,49,,,1,,,,,,,1,,,,,,,,,,,,,,
null,,color_black7,1176626,,,,,,,,black_plus_sign,,,null,,,,,,,,,,,,,,,,,,,,,,,,
null,,learn_phase(without_color)7,1180128,,,,,,,,black_plus_sign,,,null,object_15c.png,object_08b.png,,,,,,,,,,,,,,,,,,,,,,
null,,black_cross(without_color)7,1180914,,,,,,,,blue,,,null,object_15c.png,object_08b.png,,,,,,,,,,,,,,,,,,,,,,
null,,rt_plussign_withcolor7,1181416,,,,,,,,blue,,,null,object_15c.png,object_08b.png,,,,,,,,,,,,,,,,,,,,,,
984.5,,rt_thecrossant_black7,1182647,,,,,,,,black_plus_sign,,,49,,,1,,,,,,,1,,,,,,,,,,,,,,
null,,color_black7,1182748,,,,,,,,black_plus_sign,,,null,,,,,,,,,,,,,,,,,,,,,,,,
null,,learn_phase(without_color)7,1186250,,,,,,,,black_plus_sign,,,null,object_09b.png,object_02c.png,,,,,,,,,,,,,,,,,,,,,,
null,,black_cross(without_color)7,1186711,,,,,,,,blue,,,null,object_09b.png,object_02c.png,,,,,,,,,,,,,,,,,,,,,,
null,,rt_plussign_withcolor7,1187213,,,,,,,,blue,,,null,object_09b.png,object_02c.png,,,,,,,,,,,,,,,,,,,,,,
1367.699999988079,,rt_thecrossant_black7,1188755,,,,,,,,black_plus_sign,,,49,,,1,,,,,,,1,,,,,,,,,,,,,,
null,,color_black7,1188857,,,,,,,,black_plus_sign,,,null,,,,,,,,,,,,,,,,,,,,,,,,
null,,learn_phase(without_color)7,1192359,,,,,,,,black_plus_sign,,,null,object_13b.png,object_14b.png,,,,,,,,,,,,,,,,,,,,,,
null,,black_cross(without_color)7,1192849,,,,,,,,blue,,,null,object_13b.png,object_14b.png,,,,,,,,,,,,,,,,,,,,,,
null,,rt_plussign_withcolor7,1193350,,,,,,,,blue,,,null,object_13b.png,object_14b.png,,,,,,,,,,,,,,,,,,,,,,
1048.2000000476837,,rt_thecrossant_black7,1194864,,,,,,,,black_plus_sign,,,49,,,1,,,,,,,1,,,,,,,,,,,,,,
null,,color_black7,1194967,,,,,,,,black_plus_sign,,,null,,,,,,,,,,,,,,,,,,,,,,,,
null,,learn_phase(without_color)7,1198469,,,,,,,,black_plus_sign,,,null,object_04a.png,object_06a.png,,,,,,,,,,,,,,,,,,,,,,
null,,black_cross(without_color)7,1199274,,,,,,,,green,,,null,object_04a.png,object_06a.png,,,,,,,,,,,,,,,,,,,,,,
null,,rt_plussign_withcolor7,1199775,,,,,,,,green,,,null,object_04a.png,object_06a.png,,,,,,,,,,,,,,,,,,,,,,
1075.5999999642372,,rt_thecrossant_black7,1200974,,,,,,,,black_plus_sign,,,50,,,1,,,,,,,1,,,,,,,,,,,,,,
null,,color_black7,1201076,,,,,,,,black_plus_sign,,,null,,,,,,,,,,,,,,,,,,,,,,,,
null,,learn_phase(without_color)7,1204579,,,,,,,,black_plus_sign,,,null,object_01c.png,object_13c.png,,,,,,,,,,,,,,,,,,,,,,
null,,black_cross(without_color)7,1205468,,,,,,,,blue,,,null,object_01c.png,object_13c.png,,,,,,,,,,,,,,,,,,,,,,
null,,rt_plussign_withcolor7,1205969,,,,,,,,blue,,,null,object_01c.png,object_13c.png,,,,,,,,,,,,,,,,,,,,,,
1363.3999999761581,,rt_thecrossant_black7,1207083,,,,,,,,black_plus_sign,,,49,,,1,,,,,,,1,,,,,,,,,,,,,,
null,,color_black7,1207185,,,,,,,,black_plus_sign,,,null,,,,,,,,,,,,,,,,,,,,,,,,
null,,learn_phase(without_color)7,1210687,,,,,,,,black_plus_sign,,,null,object_06c.png,object_14a.png,,,,,,,,,,,,,,,,,,,,,,
null,,black_cross(without_color)7,1211431,,,,,,,,blue,,,null,object_06c.png,object_14a.png,,,,,,,,,,,,,,,,,,,,,,
null,,rt_plussign_withcolor7,1211932,,,,,,,,blue,,,null,object_06c.png,object_14a.png,,,,,,,,,,,,,,,,,,,,,,
1356.4000000357628,,rt_thecrossant_black7,1213192,,,,,,,,black_plus_sign,,,49,,,1,,,,,,,1,,,,,,,,,,,,,,
null,,color_black7,1213294,,,,,,,,black_plus_sign,,,null,,,,,,,,,,,,,,,,,,,,,,,,
null,,learn_phase(without_color)7,1216796,,,,,,,,black_plus_sign,,,null,object_03c.png,object_10c.png,,,,,,,,,,,,,,,,,,,,,,
null,,black_cross(without_color)7,1217404,,,,,,,,blue,,,null,object_03c.png,object_10c.png,,,,,,,,,,,,,,,,,,,,,,
null,,rt_plussign_withcolor7,1217906,,,,,,,,blue,,,null,object_03c.png,object_10c.png,,,,,,,,,,,,,,,,,,,,,,
1258.4000000357628,,rt_thecrossant_black7,1219301,,,,,,,,black_plus_sign,,,49,,,1,,,,,,,1,,,,,,,,,,,,,,
null,,color_black7,1219404,,,,,,,,black_plus_sign,,,null,,,,,,,,,,,,,,,,,,,,,,,,
null,,thebreak,1219506,,,,,,,,<p></p>,,,null,,,,,,,,,,,,,,,,,,,,,,,,
1634.699999988079,,intro_0,1221142,,,,,,,,instruct,,,32,,,,,,,,,,,,,,,,,,,,,,,,
3300.400000035763,,directmemory_phase7,1224443,,,,,,,,object_07c.png,,,49,,,1,,object_06b.png,object_12c.png,object_09b.png,object_06b.png,,0.7582417582417582,,1,,,,,,,,,,,,
1695.1000000238419,,directmemory_phase7,1226140,,,,,,,,object_14a.png,,,51,,,1,,object_13b.png,object_11c.png,object_06c.png,object_06c.png,,0.7608695652173914,,1,,,,,,,,,,,,
1854.800000011921,,directmemory_phase7,1227997,,,,,,,,object_12a.png,,,50,,,1,,object_06b.png,object_11b.png,object_08a.png,object_11b.png,,0.7634408602150538,,1,,,,,,,,,,,,
1709.800000011921,,directmemory_phase7,1229709,,,,,,,,object_14b.png,,,51,,,1,,object_01c.png,object_15b.png,object_13b.png,object_13b.png,,0.7659574468085106,,1,,,,,,,,,,,,
2164.699999988079,,directmemory_phase7,1231875,,,,,,,,object_01b.png,,,49,,,1,,object_15b.png,object_12c.png,object_09b.png,object_15b.png,,0.7684210526315789,,1,,,,,,,,,,,,
2228.699999988079,,directmemory_phase7,1234106,,,,,,,,object_03a.png,,,50,,,1,,object_03c.png,object_13a.png,object_04c.png,object_13a.png,,0.7708333333333334,,1,,,,,,,,,,,,
1625,,directmemory_phase7,1235733,,,,,,,,object_10c.png,,,49,,,1,,object_03c.png,object_15c.png,object_11c.png,object_03c.png,,0.7731958762886598,,1,,,,,,,,,,,,
1757.699999988079,,directmemory_phase7,1237493,,,,,,,,object_13c.png,,,50,,,0,,object_01c.png,object_06c.png,object_09b.png,object_01c.png,,0.7653061224489796,,0,,,,,,,,,,,,
2256.5,,directmemory_phase7,1239751,,,,,,,,object_15a.png,,,49,,,0,,object_03c.png,object_06b.png,object_04c.png,object_04c.png,,0.7575757575757576,,0,,,,,,,,,,,,
1428.699999988079,,directmemory_phase7,1241182,,,,,,,,object_02c.png,,,50,,,1,,object_12c.png,object_09b.png,object_15b.png,object_09b.png,,0.76,,1,,,,,,,,,,,,
2896.300000011921,,directmemory_phase7,1244080,,,,,,,,object_08b.png,,,51,,,1,,object_06c.png,object_01c.png,object_15c.png,object_15c.png,,0.7623762376237624,,1,,,,,,,,,,,,
2871.600000023842,,directmemory_phase7,1246954,,,,,,,,object_05a.png,,,50,,,0,,object_08a.png,object_06b.png,object_11c.png,object_11c.png,,0.7549019607843137,,0,,,,,,,,,,,,
2755.300000011921,,directmemory_phase7,1249711,,,,,,,,object_06a.png,,,50,,,1,,object_13b.png,object_04a.png,object_11c.png,object_04a.png,,0.7572815533980582,,1,,,,,,,,,,,,
2633.899999976158,,directmemory_phase7,1252347,,,,,,,,object_12b.png,,,51,,,1,,object_11c.png,object_09b.png,object_08a.png,object_08a.png,,0.7596153846153846,,1,,,,,,,,,,,,
1445.199999988079,,directmemory_phase7,1253794,,,,,,,,object_04b.png,,,49,,,1,,object_12c.png,object_04a.png,object_06c.png,object_12c.png,,0.7619047619047619,,1,,,,,,,,,,,,
null,,thebreak,1253896,,,,,,,,<p></p>,,,null,,,,,,,,,,,,,,,,,,,,,,,,
1448.199999988079,,intro_0,1255345,,,,,,,,instruct,,,32,,,,,,,,,,,,,,,,,,,,,,,,
null,,learn_phase(without_color)8,1258847,,,,,,,,black_plus_sign,,,null,object_09b.png,object_02c.png,,,,,,,,,,,,,,,,,,,,,,
null,,black_cross(without_color)8,1259940,,,,,,,,green,,,null,object_09b.png,object_02c.png,,,,,,,,,,,,,,,,,,,,,,
null,,rt_plussign_withcolor8,1260441,,,,,,,,green,,,null,object_09b.png,object_02c.png,,,,,,,,,,,,,,,,,,,,,,
1623.6000000238419,,rt_thecrossant_black8,1261351,,,,,,,,black_plus_sign,,,50,,,1,,,,,,,1,,,,,,,,,,,,,,
null,,color_black8,1261454,,,,,,,,black_plus_sign,,,null,,,,,,,,,,,,,,,,,,,,,,,,
null,,learn_phase(without_color)8,1264955,,,,,,,,black_plus_sign,,,null,object_01c.png,object_13c.png,,,,,,,,,,,,,,,,,,,,,,
null,,black_cross(without_color)8,1265621,,,,,,,,blue,,,null,object_01c.png,object_13c.png,,,,,,,,,,,,,,,,,,,,,,
null,,rt_plussign_withcolor8,1266122,,,,,,,,blue,,,null,object_01c.png,object_13c.png,,,,,,,,,,,,,,,,,,,,,,
1566.5999999642372,,rt_thecrossant_black8,1267461,,,,,,,,black_plus_sign,,,49,,,1,,,,,,,1,,,,,,,,,,,,,,
null,,color_black8,1267564,,,,,,,,black_plus_sign,,,null,,,,,,,,,,,,,,,,,,,,,,,,
null,,learn_phase(without_color)8,1271066,,,,,,,,black_plus_sign,,,null,object_11b.png,object_12a.png,,,,,,,,,,,,,,,,,,,,,,
null,,black_cross(without_color)8,1271829,,,,,,,,blue,,,null,object_11b.png,object_12a.png,,,,,,,,,,,,,,,,,,,,,,
null,,rt_plussign_withcolor8,1272331,,,,,,,,blue,,,null,object_11b.png,object_12a.png,,,,,,,,,,,,,,,,,,,,,,
1178.6000000238419,,rt_thecrossant_black8,1273573,,,,,,,,black_plus_sign,,,49,,,1,,,,,,,1,,,,,,,,,,,,,,
null,,color_black8,1273676,,,,,,,,black_plus_sign,,,null,,,,,,,,,,,,,,,,,,,,,,,,
null,,learn_phase(without_color)8,1277179,,,,,,,,black_plus_sign,,,null,object_06c.png,object_14a.png,,,,,,,,,,,,,,,,,,,,,,
null,,black_cross(without_color)8,1277719,,,,,,,,blue,,,null,object_06c.png,object_14a.png,,,,,,,,,,,,,,,,,,,,,,
null,,rt_plussign_withcolor8,1278220,,,,,,,,blue,,,null,object_06c.png,object_14a.png,,,,,,,,,,,,,,,,,,,,,,
1288.3999999761581,,rt_thecrossant_black8,1279684,,,,,,,,black_plus_sign,,,49,,,1,,,,,,,1,,,,,,,,,,,,,,
null,,color_black8,1279785,,,,,,,,black_plus_sign,,,null,,,,,,,,,,,,,,,,,,,,,,,,
null,,learn_phase(without_color)8,1283287,,,,,,,,black_plus_sign,,,null,object_03c.png,object_10c.png,,,,,,,,,,,,,,,,,,,,,,
null,,black_cross(without_color)8,1284224,,,,,,,,blue,,,null,object_03c.png,object_10c.png,,,,,,,,,,,,,,,,,,,,,,
null,,rt_plussign_withcolor8,1284726,,,,,,,,blue,,,null,object_03c.png,object_10c.png,,,,,,,,,,,,,,,,,,,,,,
694.4000000357628,,rt_thecrossant_black8,1285792,,,,,,,,black_plus_sign,,,49,,,1,,,,,,,1,,,,,,,,,,,,,,
null,,color_black8,1285894,,,,,,,,black_plus_sign,,,null,,,,,,,,,,,,,,,,,,,,,,,,
null,,learn_phase(without_color)8,1289397,,,,,,,,black_plus_sign,,,null,object_11c.png,object_05a.png,,,,,,,,,,,,,,,,,,,,,,
null,,black_cross(without_color)8,1290169,,,,,,,,blue,,,null,object_11c.png,object_05a.png,,,,,,,,,,,,,,,,,,,,,,
null,,rt_plussign_withcolor8,1290671,,,,,,,,blue,,,null,object_11c.png,object_05a.png,,,,,,,,,,,,,,,,,,,,,,
1436.8999999761581,,rt_thecrossant_black8,1291902,,,,,,,,black_plus_sign,,,49,,,1,,,,,,,1,,,,,,,,,,,,,,
null,,color_black8,1292005,,,,,,,,black_plus_sign,,,null,,,,,,,,,,,,,,,,,,,,,,,,
null,,learn_phase(without_color)8,1295507,,,,,,,,black_plus_sign,,,null,object_08a.png,object_12b.png,,,,,,,,,,,,,,,,,,,,,,
null,,black_cross(without_color)8,1296454,,,,,,,,green,,,null,object_08a.png,object_12b.png,,,,,,,,,,,,,,,,,,,,,,
null,,rt_plussign_withcolor8,1296955,,,,,,,,green,,,null,object_08a.png,object_12b.png,,,,,,,,,,,,,,,,,,,,,,
1324.6000000238419,,rt_thecrossant_black8,1298012,,,,,,,,black_plus_sign,,,50,,,1,,,,,,,1,,,,,,,,,,,,,,
null,,color_black8,1298114,,,,,,,,black_plus_sign,,,null,,,,,,,,,,,,,,,,,,,,,,,,
null,,learn_phase(without_color)8,1301616,,,,,,,,black_plus_sign,,,null,object_12c.png,object_04b.png,,,,,,,,,,,,,,,,,,,,,,
null,,black_cross(without_color)8,1302358,,,,,,,,blue,,,null,object_12c.png,object_04b.png,,,,,,,,,,,,,,,,,,,,,,
null,,rt_plussign_withcolor8,1302859,,,,,,,,blue,,,null,object_12c.png,object_04b.png,,,,,,,,,,,,,,,,,,,,,,
1404.2999999523163,,rt_thecrossant_black8,1304121,,,,,,,,black_plus_sign,,,49,,,1,,,,,,,1,,,,,,,,,,,,,,
null,,color_black8,1304223,,,,,,,,black_plus_sign,,,null,,,,,,,,,,,,,,,,,,,,,,,,
null,,learn_phase(without_color)8,1307725,,,,,,,,black_plus_sign,,,null,object_15c.png,object_08b.png,,,,,,,,,,,,,,,,,,,,,,
null,,black_cross(without_color)8,1308666,,,,,,,,blue,,,null,object_15c.png,object_08b.png,,,,,,,,,,,,,,,,,,,,,,
null,,rt_plussign_withcolor8,1309167,,,,,,,,blue,,,null,object_15c.png,object_08b.png,,,,,,,,,,,,,,,,,,,,,,
1204.8999999761581,,rt_thecrossant_black8,1310230,,,,,,,,black_plus_sign,,,49,,,1,,,,,,,1,,,,,,,,,,,,,,
null,,color_black8,1310331,,,,,,,,black_plus_sign,,,null,,,,,,,,,,,,,,,,,,,,,,,,
null,,learn_phase(without_color)8,1313835,,,,,,,,black_plus_sign,,,null,object_15b.png,object_01b.png,,,,,,,,,,,,,,,,,,,,,,
null,,black_cross(without_color)8,1314931,,,,,,,,green,,,null,object_15b.png,object_01b.png,,,,,,,,,,,,,,,,,,,,,,
null,,rt_plussign_withcolor8,1315432,,,,,,,,green,,,null,object_15b.png,object_01b.png,,,,,,,,,,,,,,,,,,,,,,
1487.3999999761581,,rt_thecrossant_black8,1316339,,,,,,,,black_plus_sign,,,50,,,1,,,,,,,1,,,,,,,,,,,,,,
null,,color_black8,1316441,,,,,,,,black_plus_sign,,,null,,,,,,,,,,,,,,,,,,,,,,,,
null,,learn_phase(without_color)8,1319944,,,,,,,,black_plus_sign,,,null,object_13a.png,object_03a.png,,,,,,,,,,,,,,,,,,,,,,
null,,black_cross(without_color)8,1320359,,,,,,,,green,,,null,object_13a.png,object_03a.png,,,,,,,,,,,,,,,,,,,,,,
null,,rt_plussign_withcolor8,1320861,,,,,,,,green,,,null,object_13a.png,object_03a.png,,,,,,,,,,,,,,,,,,,,,,
1831.5,,rt_thecrossant_black8,1322450,,,,,,,,black_plus_sign,,,50,,,1,,,,,,,1,,,,,,,,,,,,,,
null,,color_black8,1322552,,,,,,,,black_plus_sign,,,null,,,,,,,,,,,,,,,,,,,,,,,,
null,,learn_phase(without_color)8,1326054,,,,,,,,black_plus_sign,,,null,object_04a.png,object_06a.png,,,,,,,,,,,,,,,,,,,,,,
null,,black_cross(without_color)8,1326595,,,,,,,,blue,,,null,object_04a.png,object_06a.png,,,,,,,,,,,,,,,,,,,,,,
null,,rt_plussign_withcolor8,1327097,,,,,,,,blue,,,null,object_04a.png,object_06a.png,,,,,,,,,,,,,,,,,,,,,,
910,,rt_thecrossant_black8,1328560,,,,,,,,black_plus_sign,,,49,,,1,,,,,,,1,,,,,,,,,,,,,,
null,,color_black8,1328662,,,,,,,,black_plus_sign,,,null,,,,,,,,,,,,,,,,,,,,,,,,
null,,learn_phase(without_color)8,1332165,,,,,,,,black_plus_sign,,,null,object_13b.png,object_14b.png,,,,,,,,,,,,,,,,,,,,,,
null,,black_cross(without_color)8,1332910,,,,,,,,green,,,null,object_13b.png,object_14b.png,,,,,,,,,,,,,,,,,,,,,,
null,,rt_plussign_withcolor8,1333412,,,,,,,,green,,,null,object_13b.png,object_14b.png,,,,,,,,,,,,,,,,,,,,,,
1168.4000000357628,,rt_thecrossant_black8,1334670,,,,,,,,black_plus_sign,,,50,,,1,,,,,,,1,,,,,,,,,,,,,,
null,,color_black8,1334772,,,,,,,,black_plus_sign,,,null,,,,,,,,,,,,,,,,,,,,,,,,
null,,learn_phase(without_color)8,1338275,,,,,,,,black_plus_sign,,,null,object_04c.png,object_15a.png,,,,,,,,,,,,,,,,,,,,,,
null,,black_cross(without_color)8,1338812,,,,,,,,blue,,,null,object_04c.png,object_15a.png,,,,,,,,,,,,,,,,,,,,,,
null,,rt_plussign_withcolor8,1339315,,,,,,,,blue,,,null,object_04c.png,object_15a.png,,,,,,,,,,,,,,,,,,,,,,
1315.1000000238419,,rt_thecrossant_black8,1340781,,,,,,,,black_plus_sign,,,49,,,1,,,,,,,1,,,,,,,,,,,,,,
null,,color_black8,1340883,,,,,,,,black_plus_sign,,,null,,,,,,,,,,,,,,,,,,,,,,,,
null,,learn_phase(without_color)8,1344385,,,,,,,,black_plus_sign,,,null,object_06b.png,object_07c.png,,,,,,,,,,,,,,,,,,,,,,
null,,black_cross(without_color)8,1345434,,,,,,,,green,,,null,object_06b.png,object_07c.png,,,,,,,,,,,,,,,,,,,,,,
null,,rt_plussign_withcolor8,1345935,,,,,,,,green,,,null,object_06b.png,object_07c.png,,,,,,,,,,,,,,,,,,,,,,
1093,,rt_thecrossant_black8,1346890,,,,,,,,black_plus_sign,,,50,,,1,,,,,,,1,,,,,,,,,,,,,,
null,,color_black8,1346992,,,,,,,,black_plus_sign,,,null,,,,,,,,,,,,,,,,,,,,,,,,
null,,thebreak,1347094,,,,,,,,<p></p>,,,null,,,,,,,,,,,,,,,,,,,,,,,,
2191.400000035763,,intro_0,1349287,,,,,,,,instruct,,,32,,,,,,,,,,,,,,,,,,,,,,,,
2779.600000023842,,directmemory_phase8,1352068,,,,,,,,object_06a.png,,,49,,,1,,object_04a.png,object_12c.png,object_06c.png,object_04a.png,,0.7641509433962265,,1,,,,,,,,,,,,
1705.300000011921,,directmemory_phase8,1353775,,,,,,,,object_01b.png,,,49,,,1,,object_15b.png,object_15c.png,object_12c.png,object_15b.png,,0.7663551401869159,,1,,,,,,,,,,,,
1550,,directmemory_phase8,1355327,,,,,,,,object_12a.png,,,50,,,1,,object_03c.png,object_11b.png,object_08a.png,object_11b.png,,0.7685185185185185,,1,,,,,,,,,,,,
1623.2000000476837,,directmemory_phase8,1356952,,,,,,,,object_04b.png,,,49,,,1,,object_12c.png,object_09b.png,object_15c.png,object_12c.png,,0.7706422018348624,,1,,,,,,,,,,,,
1829.8999999761581,,directmemory_phase8,1358784,,,,,,,,object_07c.png,,,51,,,1,,object_04c.png,object_15b.png,object_06b.png,object_06b.png,,0.7727272727272727,,1,,,,,,,,,,,,
1711.3999999761581,,directmemory_phase8,1360498,,,,,,,,object_14b.png,,,51,,,1,,object_09b.png,object_15c.png,object_13b.png,object_13b.png,,0.7747747747747747,,1,,,,,,,,,,,,
1635.7999999523163,,directmemory_phase8,1362136,,,,,,,,object_10c.png,,,49,,,0,,object_04c.png,object_03c.png,object_09b.png,object_03c.png,,0.7678571428571429,,0,,,,,,,,,,,,
2211.399999976158,,directmemory_phase8,1364349,,,,,,,,object_12b.png,,,49,,,0,,object_01c.png,object_13a.png,object_08a.png,object_08a.png,,0.7610619469026548,,0,,,,,,,,,,,,
1613.5999999642372,,directmemory_phase8,1365965,,,,,,,,object_02c.png,,,50,,,1,,object_06b.png,object_09b.png,object_15c.png,object_09b.png,,0.7631578947368421,,1,,,,,,,,,,,,
1395.5999999642372,,directmemory_phase8,1367362,,,,,,,,object_03a.png,,,50,,,1,,object_15c.png,object_13a.png,object_09b.png,object_13a.png,,0.7652173913043478,,1,,,,,,,,,,,,
1848.4000000357628,,directmemory_phase8,1369212,,,,,,,,object_05a.png,,,51,,,1,,object_04c.png,object_03c.png,object_11c.png,object_11c.png,,0.7672413793103449,,1,,,,,,,,,,,,
2291.5,,directmemory_phase8,1371506,,,,,,,,object_08b.png,,,49,,,0,,object_03c.png,object_12c.png,object_15c.png,object_15c.png,,0.7606837606837606,,0,,,,,,,,,,,,
2334.400000035763,,directmemory_phase8,1373843,,,,,,,,object_13c.png,,,50,,,0,,object_12c.png,object_03c.png,object_01c.png,object_01c.png,,0.7542372881355932,,0,,,,,,,,,,,,
2109.5,,directmemory_phase8,1375954,,,,,,,,object_15a.png,,,49,,,1,,object_04c.png,object_03c.png,object_15b.png,object_04c.png,,0.7563025210084033,,1,,,,,,,,,,,,
1397.8999999761581,,directmemory_phase8,1377355,,,,,,,,object_14a.png,,,49,,,1,,object_06c.png,object_11c.png,object_04a.png,object_06c.png,,0.7583333333333333,,1,,,,,,,,,,,,
null,,thebreak,1377456,,,,,,,,<p></p>,,,null,,,,,,,,,,,,,,,,,,,,,,,,
6428.5,,intro_0,1383886,,,,,,,,instruct,,,32,,,,,,,,,,,,,,,,,,,,,,,,
16322.099999964237,,intro_1,1400209,,,,,,,,instruct,,,32,,,,,,,,,,,,,,,,,,,,,,,,
5764.699999988079,,intro_2,1405975,,,,,,,,instruct,,,32,,,,,,,,,,,,,,,,,,,,,,,,
,,intro_3,1421926,,,,,,,,instruct,,,,,,,,,,,,,,,,,,,,,,,,,,,
5911.100000023842,,intro_4,1427838,,,,,,,,instruct,,,32,,,,,,,,,,,,,,,,,,,,,,,,
2220.699999988079,,inference_phase,1430060,,,,,,,,object_10c.png,,,51,object_02a.png,object_02b.png,0,,,,,object_02a.png,,0,,,,object_05b.png,,,,,,,,,,
2819.899999976158,,inference_phase,1432882,,,,,,,,object_02c.png,,,49,object_08c.png,object_01a.png,0,,,,,object_01a.png,,0,,,,object_10a.png,,,,,,,,,,
