rt,responses,trial_type,time_elapsed,identifier_a,identifier_b,identifier_c,tasktype,browser_type,local_time,UTC_time,stimulus,button_pressed,response,key_press,stimulus_left,stimulus_right,accuracy,practice_cumulative_accuracy,stimulus_down_left,stimulus_down_mid,stimulus_down_right,stimulus_correct,prac_weighted_accuracy,cumulative_accuracy,weighted_accuracy,stimulus_middle,problems,smooth,distraction,strategies,easier,similar,comments,detectfocus,breakfocus,completion_code
17004.20000000298,{worker_id:676d746ed2391d1de669298a},id_enter,17006,object_05c.png; object_08b.png; object_01b.png; object_12a.png; object_03a.png; object_02b.png; object_12c.png; object_03c.png; object_14a.png; object_15b.png; object_13b.png; object_10b.png; object_02a.png; object_03b.png; object_11a.png,object_13c.png; object_01a.png; object_04c.png; object_04b.png; object_01c.png; object_08c.png; object_11b.png; object_04a.png; object_13a.png; object_05a.png; object_15a.png; object_05b.png; object_06c.png; object_15c.png; object_08a.png,object_02c.png; object_09b.png; object_14c.png; object_07c.png; object_09c.png; object_10a.png; object_12b.png; object_06b.png; object_07b.png; object_11c.png; object_10c.png; object_07a.png; object_09a.png; object_06a.png; object_14b.png,interleaved,Mozilla/5.0 (Windows NT 10.0; Win64; x64) AppleWebKit/537.36 (KHTML, like Gecko) Chrome/135.0.0.0 Safari/537.36,4/28/2025, 7:33:12 PM,2025-04-28 23:33:12.440,,,,,,,,,,,,,,,,,,,,,,,,,,
11958.69999999553,,make_fullscreen,29003,,,,,,,,fullscreen,0,,,,,,,,,,,,,,,,,,,,,,,,
3544,,instruct_1,32570,,,,,,,,instruct,0,Next,,,,,,,,,,,,,,,,,,,,,,,
8950.5,,instruct_2,41543,,,,,,,,instruct,1,Next,,,,,,,,,,,,,,,,,,,,,,,
6732,,instruct_3,48277,,,,,,,,instruct,1,Next,,,,,,,,,,,,,,,,,,,,,,,
14913.29999999702,,instruct_4,63193,,,,,,,,instruct,1,Next,,,,,,,,,,,,,,,,,,,,,,,
12246.29999999702,,instruct_5,75441,,,,,,,,instruct,1,Next,,,,,,,,,,,,,,,,,,,,,,,
4629.39999999851,,instruct_6,80072,,,,,,,,instruct,1,Next,,,,,,,,,,,,,,,,,,,,,,,
20239.79999999702,,instruct_7,100313,,,,,,,,instruct,1,Next,,,,,,,,,,,,,,,,,,,,,,,
null,,prac_atten_color_black,100800,,,,,,,,black_plus_sign,,,null,,,,,,,,,,,,,,,,,,,,,,
null,,prac_atten_color,101733,,,,,,,,<p style='position:absolute;top: 50%;right: 50%;transform: translate(50%, -50%);font-size: 125px;color: blue;'>+</p>,,,null,,,,,,,,,,,,,,,,,,,,,,
null,,prac_atten_color_black,103737,,,,,,,,black_plus_sign,,,null,,,,,,,,,,,,,,,,,,,,,,
11134.60000000149,,attentioncheck_help,114874,,,,,,,,instruct,,,32,,,,,,,,,,,,,,,,,,,,,,
null,,prac_atten_color_black,115370,,,,,,,,black_plus_sign,,,null,,,,,,,,,,,,,,,,,,,,,,
781.8000000044703,,prac_atten_color,116458,,,,,,,,<p style='position:absolute;top: 50%;right: 50%;transform: translate(50%, -50%);font-size: 125px;color: green;'>+</p>,,,50,,,,,,,,,,,,,,,,,,,,,,
null,,prac_atten_color_black,118466,,,,,,,,black_plus_sign,,,null,,,,,,,,,,,,,,,,,,,,,,
null,,prac_atten_color_black,118806,,,,,,,,black_plus_sign,,,null,,,,,,,,,,,,,,,,,,,,,,
643.6000000014901,,prac_atten_color,119816,,,,,,,,<p style='position:absolute;top: 50%;right: 50%;transform: translate(50%, -50%);font-size: 125px;color: green;'>+</p>,,,50,,,,,,,,,,,,,,,,,,,,,,
null,,prac_atten_color_black,121825,,,,,,,,black_plus_sign,,,null,,,,,,,,,,,,,,,,,,,,,,
null,,prac_atten_color_black,122239,,,,,,,,black_plus_sign,,,null,,,,,,,,,,,,,,,,,,,,,,
726.1999999955297,,prac_atten_color,123031,,,,,,,,<p style='position:absolute;top: 50%;right: 50%;transform: translate(50%, -50%);font-size: 125px;color: blue;'>+</p>,,,49,,,,,,,,,,,,,,,,,,,,,,
null,,prac_atten_color_black,125038,,,,,,,,black_plus_sign,,,null,,,,,,,,,,,,,,,,,,,,,,
null,,prac_atten_color_black,125663,,,,,,,,black_plus_sign,,,null,,,,,,,,,,,,,,,,,,,,,,
663.2000000029802,,prac_atten_color,126606,,,,,,,,<p style='position:absolute;top: 50%;right: 50%;transform: translate(50%, -50%);font-size: 125px;color: green;'>+</p>,,,50,,,,,,,,,,,,,,,,,,,,,,
null,,prac_atten_color_black,128624,,,,,,,,black_plus_sign,,,null,,,,,,,,,,,,,,,,,,,,,,
null,,prac_atten_color_black,129104,,,,,,,,black_plus_sign,,,null,,,,,,,,,,,,,,,,,,,,,,
771.8999999985099,,prac_atten_color,129878,,,,,,,,<p style='position:absolute;top: 50%;right: 50%;transform: translate(50%, -50%);font-size: 125px;color: green;'>+</p>,,,50,,,,,,,,,,,,,,,,,,,,,,
null,,prac_atten_color_black,131892,,,,,,,,black_plus_sign,,,null,,,,,,,,,,,,,,,,,,,,,,
null,,prac_atten_color_black,132528,,,,,,,,black_plus_sign,,,null,,,,,,,,,,,,,,,,,,,,,,
null,,prac_atten_color,133482,,,,,,,,<p style='position:absolute;top: 50%;right: 50%;transform: translate(50%, -50%);font-size: 125px;color: blue;'>+</p>,,,null,,,,,,,,,,,,,,,,,,,,,,
81.60000000149012,,prac_atten_color_black,135495,,,,,,,,black_plus_sign,,,49,,,,,,,,,,,,,,,,,,,,,,
null,,prac_atten_color_black,135965,,,,,,,,black_plus_sign,,,null,,,,,,,,,,,,,,,,,,,,,,
null,,prac_atten_color,136596,,,,,,,,<p style='position:absolute;top: 50%;right: 50%;transform: translate(50%, -50%);font-size: 125px;color: green;'>+</p>,,,null,,,,,,,,,,,,,,,,,,,,,,
null,,prac_atten_color_black,138608,,,,,,,,black_plus_sign,,,null,,,,,,,,,,,,,,,,,,,,,,
6023.5,,attentioncheck_help,144633,,,,,,,,instruct,,,32,,,,,,,,,,,,,,,,,,,,,,
null,,prac_atten_color_black,145421,,,,,,,,black_plus_sign,,,null,,,,,,,,,,,,,,,,,,,,,,
null,,prac_atten_color,145838,,,,,,,,<p style='position:absolute;top: 50%;right: 50%;transform: translate(50%, -50%);font-size: 125px;color: blue;'>+</p>,,,null,,,,,,,,,,,,,,,,,,,,,,
468.20000000298023,,prac_atten_color_black,147848,,,,,,,,black_plus_sign,,,49,,,,,,,,,,,,,,,,,,,,,,
null,,prac_atten_color_black,148865,,,,,,,,black_plus_sign,,,null,,,,,,,,,,,,,,,,,,,,,,
null,,prac_atten_color,149477,,,,,,,,<p style='position:absolute;top: 50%;right: 50%;transform: translate(50%, -50%);font-size: 125px;color: blue;'>+</p>,,,null,,,,,,,,,,,,,,,,,,,,,,
45.29999999701977,,prac_atten_color_black,151494,,,,,,,,black_plus_sign,,,49,,,,,,,,,,,,,,,,,,,,,,
7981.30000000447,,attentioncheck_feedback,159477,,,,,,,,cross_check_feedback,0,,,,,,,,,,,,,,,,,,,,,,,,
6996.60000000149,,last_instruct,166475,,,,,,,,instruct,,,32,,,,,,,,,,,,,,,,,,,,,,
null,,prac_learn_phase(without_color),169986,,,,,,,,black_plus_sign,,,null,object_15b.png,object_05a.png,,,,,,,,,,,,,,,,,,,,
null,,prac_black_cross(without_color),170804,,,,,,,,green,,,null,object_15b.png,object_05a.png,,,,,,,,,,,,,,,,,,,,
null,,prac_rt_plussign_withcolor,171318,,,,,,,,green,,,null,object_15b.png,object_05a.png,,,,,,,,,,,,,,,,,,,,
787.1000000014901,,prac_rt_thecrossant_black,172531,,,,,,,,black_plus_sign,,,50,,,1,1,,,,,,,,,,,,,,,,,,
null,,prac_color_black,172649,,,,,,,,black_plus_sign,,,null,,,,,,,,,,,,,,,,,,,,,,
null,,prac_learn_phase(without_color),176164,,,,,,,,black_plus_sign,,,null,object_01a.png,object_09b.png,,,,,,,,,,,,,,,,,,,,
null,,black_cross(without_color)1,176649,,,,,,,,green,,,null,object_15b.png,object_05a.png,,,,,,,,,,,,,,,,,,,,
null,,prac_rt_plussign_withcolor,177166,,,,,,,,blue,,,null,object_01a.png,object_09b.png,,,,,,,,,,,,,,,,,,,,
1251.2000000029802,,prac_rt_thecrossant_black,178369,,,,,,,,black_plus_sign,,,49,,,1,1,,,,,,,,,,,,,,,,,,
null,,prac_color_black,178481,,,,,,,,black_plus_sign,,,null,,,,,,,,,,,,,,,,,,,,,,
null,,prac_learn_phase(without_color),181995,,,,,,,,black_plus_sign,,,null,object_05b.png,object_07a.png,,,,,,,,,,,,,,,,,,,,
null,,black_cross(without_color)1,182483,,,,,,,,green,,,null,object_15b.png,object_05a.png,,,,,,,,,,,,,,,,,,,,
null,,prac_rt_plussign_withcolor,182996,,,,,,,,green,,,null,object_05b.png,object_07a.png,,,,,,,,,,,,,,,,,,,,
1116.6000000014901,,prac_rt_thecrossant_black,184035,,,,,,,,black_plus_sign,,,50,,,1,1,,,,,,,,,,,,,,,,,,
null,,prac_color_black,184145,,,,,,,,black_plus_sign,,,null,,,,,,,,,,,,,,,,,,,,,,
null,,prac_learn_phase(without_color),187659,,,,,,,,black_plus_sign,,,null,object_05a.png,object_11c.png,,,,,,,,,,,,,,,,,,,,
null,,black_cross(without_color)1,188150,,,,,,,,green,,,null,object_15b.png,object_05a.png,,,,,,,,,,,,,,,,,,,,
null,,prac_rt_plussign_withcolor,188667,,,,,,,,blue,,,null,object_05a.png,object_11c.png,,,,,,,,,,,,,,,,,,,,
1336.3999999985099,,prac_rt_thecrossant_black,190085,,,,,,,,black_plus_sign,,,49,,,1,1,,,,,,,,,,,,,,,,,,
null,,prac_color_black,190198,,,,,,,,black_plus_sign,,,null,,,,,,,,,,,,,,,,,,,,,,
3724,,instruct_dir_01,193924,,,,,,,,instruct,0,Next,,,,,,,,,,,,,,,,,,,,,,,
9065.5,,instruct_dir_2,202991,,,,,,,,instruct,1,Next,,,,,,,,,,,,,,,,,,,,,,,
7049.89999999851,,instruct_dir_3,210043,,,,,,,,instruct,1,Next,,,,,,,,,,,,,,,,,,,,,,,
5526.70000000298,,instruct_dir_4,215571,,,,,,,,instruct,1,Start,,,,,,,,,,,,,,,,,,,,,,,
null,,thebreak,215678,,,,,,,,<p></p>,,,null,,,,,,,,,,,,,,,,,,,,,,
2330,,intro_0,218009,,,,,,,,instruct,,,32,,,,,,,,,,,,,,,,,,,,,,
4249.10000000149,,prac_directmemory_phase,222259,,,,,,,,practice/object_03b.png,,,50,,,1,,practice/object_04a.png,practice/object_03a.png,practice/object_02a.png,practice/object_03a.png,1,1,,,,,,,,,,,,
3410.89999999851,,prac_directmemory_phase,225693,,,,,,,,practice/object_01b.png,,,50,,,1,,practice/object_03a.png,practice/object_01a.png,practice/object_04a.png,practice/object_01a.png,1,1,,,,,,,,,,,,
2360.39999999851,,prac_directmemory_phase,228054,,,,,,,,practice/object_04b.png,,,49,,,1,,practice/object_04a.png,practice/object_03a.png,practice/object_01a.png,practice/object_04a.png,1,1,,,,,,,,,,,,
2787.7000000029802,,prac_directmemory_phase,230844,,,,,,,,practice/object_02b.png,,,50,,,1,,practice/object_03a.png,practice/object_02a.png,practice/object_04a.png,practice/object_02a.png,1,1,,,,,,,,,,,,
4608,,practice_feedback,235453,,,,,,,,practice_feedback,1,,,,,,,,,,,,,,,,,,,,,,,,
9828.19999999553,,proceed_actualTask,245282,,,,,,,,proceed_actualTask,1,Continue,,,,,,,,,,,,,,,,,,,,,,,
11891.5,,last_inst,257175,,,,,,,,last_inst,,,32,,,,,,,,,,,,,,,,,,,,,,
null,,learn_phase(without_color)1,260693,,,,,,,,black_plus_sign,,,null,object_15b.png,object_05a.png,,,,,,,,,,,,,,,,,,,,
null,,black_cross(without_color)1,261182,,,,,,,,green,,,null,object_15b.png,object_05a.png,,,,,,,,,,,,,,,,,,,,
null,,rt_plussign_withcolor1,261694,,,,,,,,green,,,null,object_15b.png,object_05a.png,,,,,,,,,,,,,,,,,,,,
1840.2000000029802,,rt_thecrossant_black1,263225,,,,,,,,black_plus_sign,,,50,,,1,,,,,,,1,,,,,,,,,,,,
null,,color_black1,263332,,,,,,,,black_plus_sign,,,null,,,,,,,,,,,,,,,,,,,,,,
null,,learn_phase(without_color)1,266843,,,,,,,,black_plus_sign,,,null,object_01a.png,object_09b.png,,,,,,,,,,,,,,,,,,,,
null,,black_cross(without_color)1,267429,,,,,,,,green,,,null,object_01a.png,object_09b.png,,,,,,,,,,,,,,,,,,,,
null,,rt_plussign_withcolor1,267946,,,,,,,,green,,,null,object_01a.png,object_09b.png,,,,,,,,,,,,,,,,,,,,
1287.3000000044703,,rt_thecrossant_black1,269398,,,,,,,,black_plus_sign,,,50,,,1,,,,,,,1,,,,,,,,,,,,
null,,color_black1,269512,,,,,,,,black_plus_sign,,,null,,,,,,,,,,,,,,,,,,,,,,
null,,learn_phase(without_color)1,273034,,,,,,,,black_plus_sign,,,null,object_05b.png,object_07a.png,,,,,,,,,,,,,,,,,,,,
null,,black_cross(without_color)1,273709,,,,,,,,blue,,,null,object_05b.png,object_07a.png,,,,,,,,,,,,,,,,,,,,
null,,rt_plussign_withcolor1,274215,,,,,,,,blue,,,null,object_05b.png,object_07a.png,,,,,,,,,,,,,,,,,,,,
755.7000000029802,,rt_thecrossant_black1,275565,,,,,,,,black_plus_sign,,,49,,,1,,,,,,,1,,,,,,,,,,,,
null,,color_black1,275677,,,,,,,,black_plus_sign,,,null,,,,,,,,,,,,,,,,,,,,,,
null,,learn_phase(without_color)1,279182,,,,,,,,black_plus_sign,,,null,object_05a.png,object_11c.png,,,,,,,,,,,,,,,,,,,,
null,,black_cross(without_color)1,280159,,,,,,,,green,,,null,object_05a.png,object_11c.png,,,,,,,,,,,,,,,,,,,,
null,,rt_plussign_withcolor1,280662,,,,,,,,green,,,null,object_05a.png,object_11c.png,,,,,,,,,,,,,,,,,,,,
896.8999999985099,,rt_thecrossant_black1,281714,,,,,,,,black_plus_sign,,,50,,,1,,,,,,,1,,,,,,,,,,,,
null,,color_black1,281829,,,,,,,,black_plus_sign,,,null,,,,,,,,,,,,,,,,,,,,,,
null,,learn_phase(without_color)1,285350,,,,,,,,black_plus_sign,,,null,object_15c.png,object_06a.png,,,,,,,,,,,,,,,,,,,,
null,,black_cross(without_color)1,286329,,,,,,,,blue,,,null,object_15c.png,object_06a.png,,,,,,,,,,,,,,,,,,,,
null,,rt_plussign_withcolor1,286836,,,,,,,,blue,,,null,object_15c.png,object_06a.png,,,,,,,,,,,,,,,,,,,,
1212.8999999985099,,rt_thecrossant_black1,287880,,,,,,,,black_plus_sign,,,49,,,1,,,,,,,1,,,,,,,,,,,,
null,,color_black1,287993,,,,,,,,black_plus_sign,,,null,,,,,,,,,,,,,,,,,,,,,,
null,,learn_phase(without_color)1,291500,,,,,,,,black_plus_sign,,,null,object_11a.png,object_08a.png,,,,,,,,,,,,,,,,,,,,
null,,black_cross(without_color)1,292542,,,,,,,,green,,,null,object_11a.png,object_08a.png,,,,,,,,,,,,,,,,,,,,
null,,rt_plussign_withcolor1,293048,,,,,,,,green,,,null,object_11a.png,object_08a.png,,,,,,,,,,,,,,,,,,,,
1216.6000000014901,,rt_thecrossant_black1,294031,,,,,,,,black_plus_sign,,,50,,,1,,,,,,,1,,,,,,,,,,,,
null,,color_black1,294144,,,,,,,,black_plus_sign,,,null,,,,,,,,,,,,,,,,,,,,,,
null,,learn_phase(without_color)1,297655,,,,,,,,black_plus_sign,,,null,object_06c.png,object_09a.png,,,,,,,,,,,,,,,,,,,,
null,,black_cross(without_color)1,298228,,,,,,,,blue,,,null,object_06c.png,object_09a.png,,,,,,,,,,,,,,,,,,,,
null,,rt_plussign_withcolor1,298745,,,,,,,,blue,,,null,object_06c.png,object_09a.png,,,,,,,,,,,,,,,,,,,,
1582.6000000014901,,rt_thecrossant_black1,300193,,,,,,,,black_plus_sign,,,49,,,1,,,,,,,1,,,,,,,,,,,,
null,,color_black1,300309,,,,,,,,black_plus_sign,,,null,,,,,,,,,,,,,,,,,,,,,,
null,,learn_phase(without_color)1,303817,,,,,,,,black_plus_sign,,,null,object_05c.png,object_13c.png,,,,,,,,,,,,,,,,,,,,
null,,black_cross(without_color)1,304930,,,,,,,,blue,,,null,object_05c.png,object_13c.png,,,,,,,,,,,,,,,,,,,,
null,,rt_plussign_withcolor1,305438,,,,,,,,blue,,,null,object_05c.png,object_13c.png,,,,,,,,,,,,,,,,,,,,
885.6999999955297,,rt_thecrossant_black1,306353,,,,,,,,black_plus_sign,,,49,,,1,,,,,,,1,,,,,,,,,,,,
null,,color_black1,306460,,,,,,,,black_plus_sign,,,null,,,,,,,,,,,,,,,,,,,,,,
null,,learn_phase(without_color)1,309978,,,,,,,,black_plus_sign,,,null,object_02a.png,object_06c.png,,,,,,,,,,,,,,,,,,,,
null,,black_cross(without_color)1,310962,,,,,,,,green,,,null,object_02a.png,object_06c.png,,,,,,,,,,,,,,,,,,,,
null,,rt_plussign_withcolor1,311474,,,,,,,,green,,,null,object_02a.png,object_06c.png,,,,,,,,,,,,,,,,,,,,
1449.1000000014901,,rt_thecrossant_black1,312503,,,,,,,,black_plus_sign,,,50,,,1,,,,,,,1,,,,,,,,,,,,
null,,color_black1,312609,,,,,,,,black_plus_sign,,,null,,,,,,,,,,,,,,,,,,,,,,
null,,learn_phase(without_color)1,316112,,,,,,,,black_plus_sign,,,null,object_13c.png,object_02c.png,,,,,,,,,,,,,,,,,,,,
null,,black_cross(without_color)1,317031,,,,,,,,blue,,,null,object_13c.png,object_02c.png,,,,,,,,,,,,,,,,,,,,
null,,rt_plussign_withcolor1,317541,,,,,,,,blue,,,null,object_13c.png,object_02c.png,,,,,,,,,,,,,,,,,,,,
1308.0999999940395,,rt_thecrossant_black1,318647,,,,,,,,black_plus_sign,,,49,,,1,,,,,,,1,,,,,,,,,,,,
null,,color_black1,318759,,,,,,,,black_plus_sign,,,null,,,,,,,,,,,,,,,,,,,,,,
null,,learn_phase(without_color)1,322270,,,,,,,,black_plus_sign,,,null,object_08c.png,object_10a.png,,,,,,,,,,,,,,,,,,,,
null,,black_cross(without_color)1,323341,,,,,,,,blue,,,null,object_08c.png,object_10a.png,,,,,,,,,,,,,,,,,,,,
null,,rt_plussign_withcolor1,323851,,,,,,,,blue,,,null,object_08c.png,object_10a.png,,,,,,,,,,,,,,,,,,,,
1155.5,,rt_thecrossant_black1,324812,,,,,,,,black_plus_sign,,,49,,,1,,,,,,,1,,,,,,,,,,,,
null,,color_black1,324930,,,,,,,,black_plus_sign,,,null,,,,,,,,,,,,,,,,,,,,,,
null,,learn_phase(without_color)1,328439,,,,,,,,black_plus_sign,,,null,object_15a.png,object_10c.png,,,,,,,,,,,,,,,,,,,,
null,,black_cross(without_color)1,329427,,,,,,,,blue,,,null,object_15a.png,object_10c.png,,,,,,,,,,,,,,,,,,,,
null,,rt_plussign_withcolor1,329945,,,,,,,,blue,,,null,object_15a.png,object_10c.png,,,,,,,,,,,,,,,,,,,,
1573.2999999970198,,rt_thecrossant_black1,330988,,,,,,,,black_plus_sign,,,49,,,1,,,,,,,1,,,,,,,,,,,,
null,,color_black1,331092,,,,,,,,black_plus_sign,,,null,,,,,,,,,,,,,,,,,,,,,,
null,,learn_phase(without_color)1,334597,,,,,,,,black_plus_sign,,,null,object_13b.png,object_15a.png,,,,,,,,,,,,,,,,,,,,
null,,black_cross(without_color)1,335019,,,,,,,,green,,,null,object_13b.png,object_15a.png,,,,,,,,,,,,,,,,,,,,
null,,rt_plussign_withcolor1,335527,,,,,,,,green,,,null,object_13b.png,object_15a.png,,,,,,,,,,,,,,,,,,,,
1328,,rt_thecrossant_black1,337130,,,,,,,,black_plus_sign,,,50,,,1,,,,,,,1,,,,,,,,,,,,
null,,color_black1,337242,,,,,,,,black_plus_sign,,,null,,,,,,,,,,,,,,,,,,,,,,
null,,learn_phase(without_color)1,340760,,,,,,,,black_plus_sign,,,null,object_04a.png,object_06b.png,,,,,,,,,,,,,,,,,,,,
null,,black_cross(without_color)1,341744,,,,,,,,blue,,,null,object_04a.png,object_06b.png,,,,,,,,,,,,,,,,,,,,
null,,rt_plussign_withcolor1,342260,,,,,,,,blue,,,null,object_04a.png,object_06b.png,,,,,,,,,,,,,,,,,,,,
671.6000000014901,,rt_thecrossant_black1,343304,,,,,,,,black_plus_sign,,,49,,,1,,,,,,,1,,,,,,,,,,,,
null,,color_black1,343409,,,,,,,,black_plus_sign,,,null,,,,,,,,,,,,,,,,,,,,,,
null,,learn_phase(without_color)1,346920,,,,,,,,black_plus_sign,,,null,object_10b.png,object_05b.png,,,,,,,,,,,,,,,,,,,,
null,,black_cross(without_color)1,347651,,,,,,,,green,,,null,object_10b.png,object_05b.png,,,,,,,,,,,,,,,,,,,,
null,,rt_plussign_withcolor1,348167,,,,,,,,green,,,null,object_10b.png,object_05b.png,,,,,,,,,,,,,,,,,,,,
1363.8999999985099,,rt_thecrossant_black1,349460,,,,,,,,black_plus_sign,,,50,,,1,,,,,,,1,,,,,,,,,,,,
null,,color_black1,349578,,,,,,,,black_plus_sign,,,null,,,,,,,,,,,,,,,,,,,,,,
null,,learn_phase(without_color)1,353094,,,,,,,,black_plus_sign,,,null,object_03a.png,object_01c.png,,,,,,,,,,,,,,,,,,,,
null,,black_cross(without_color)1,353932,,,,,,,,green,,,null,object_03a.png,object_01c.png,,,,,,,,,,,,,,,,,,,,
null,,rt_plussign_withcolor1,354444,,,,,,,,green,,,null,object_03a.png,object_01c.png,,,,,,,,,,,,,,,,,,,,
1155.3999999985099,,rt_thecrossant_black1,355645,,,,,,,,black_plus_sign,,,49,,,0,,,,,,,0.9375,,,,,,,,,,,,
null,,color_black1,355758,,,,,,,,black_plus_sign,,,null,,,,,,,,,,,,,,,,,,,,,,
null,,learn_phase(without_color)1,359264,,,,,,,,black_plus_sign,,,null,object_01b.png,object_04c.png,,,,,,,,,,,,,,,,,,,,
null,,black_cross(without_color)1,360259,,,,,,,,blue,,,null,object_01b.png,object_04c.png,,,,,,,,,,,,,,,,,,,,
null,,rt_plussign_withcolor1,360774,,,,,,,,blue,,,null,object_01b.png,object_04c.png,,,,,,,,,,,,,,,,,,,,
1245.0999999940395,,rt_thecrossant_black1,361801,,,,,,,,black_plus_sign,,,49,,,1,,,,,,,0.9411764705882353,,,,,,,,,,,,
null,,color_black1,361908,,,,,,,,black_plus_sign,,,null,,,,,,,,,,,,,,,,,,,,,,
null,,learn_phase(without_color)1,365422,,,,,,,,black_plus_sign,,,null,object_03c.png,object_04a.png,,,,,,,,,,,,,,,,,,,,
null,,black_cross(without_color)1,366410,,,,,,,,blue,,,null,object_03c.png,object_04a.png,,,,,,,,,,,,,,,,,,,,
null,,rt_plussign_withcolor1,366925,,,,,,,,blue,,,null,object_03c.png,object_04a.png,,,,,,,,,,,,,,,,,,,,
1244.5999999940395,,rt_thecrossant_black1,367958,,,,,,,,black_plus_sign,,,49,,,1,,,,,,,0.9444444444444444,,,,,,,,,,,,
null,,color_black1,368074,,,,,,,,black_plus_sign,,,null,,,,,,,,,,,,,,,,,,,,,,
null,,learn_phase(without_color)1,371582,,,,,,,,black_plus_sign,,,null,object_04c.png,object_14c.png,,,,,,,,,,,,,,,,,,,,
null,,black_cross(without_color)1,372492,,,,,,,,green,,,null,object_04c.png,object_14c.png,,,,,,,,,,,,,,,,,,,,
null,,rt_plussign_withcolor1,373011,,,,,,,,green,,,null,object_04c.png,object_14c.png,,,,,,,,,,,,,,,,,,,,
1265.6999999955297,,rt_thecrossant_black1,374110,,,,,,,,black_plus_sign,,,50,,,1,,,,,,,0.9473684210526315,,,,,,,,,,,,
null,,color_black1,374225,,,,,,,,black_plus_sign,,,null,,,,,,,,,,,,,,,,,,,,,,
null,,learn_phase(without_color)1,377743,,,,,,,,black_plus_sign,,,null,object_12a.png,object_04b.png,,,,,,,,,,,,,,,,,,,,
null,,black_cross(without_color)1,378596,,,,,,,,green,,,null,object_12a.png,object_04b.png,,,,,,,,,,,,,,,,,,,,
null,,rt_plussign_withcolor1,379110,,,,,,,,green,,,null,object_12a.png,object_04b.png,,,,,,,,,,,,,,,,,,,,
1341.3000000044703,,rt_thecrossant_black1,380282,,,,,,,,black_plus_sign,,,50,,,1,,,,,,,0.95,,,,,,,,,,,,
null,,color_black1,380391,,,,,,,,black_plus_sign,,,null,,,,,,,,,,,,,,,,,,,,,,
null,,learn_phase(without_color)1,383909,,,,,,,,black_plus_sign,,,null,object_12c.png,object_11b.png,,,,,,,,,,,,,,,,,,,,
null,,black_cross(without_color)1,384411,,,,,,,,blue,,,null,object_12c.png,object_11b.png,,,,,,,,,,,,,,,,,,,,
null,,rt_plussign_withcolor1,384928,,,,,,,,blue,,,null,object_12c.png,object_11b.png,,,,,,,,,,,,,,,,,,,,
1236.2000000029802,,rt_thecrossant_black1,386462,,,,,,,,black_plus_sign,,,49,,,1,,,,,,,0.9523809523809523,,,,,,,,,,,,
null,,color_black1,386574,,,,,,,,black_plus_sign,,,null,,,,,,,,,,,,,,,,,,,,,,
null,,learn_phase(without_color)1,390087,,,,,,,,black_plus_sign,,,null,object_13a.png,object_07b.png,,,,,,,,,,,,,,,,,,,,
null,,black_cross(without_color)1,391171,,,,,,,,green,,,null,object_13a.png,object_07b.png,,,,,,,,,,,,,,,,,,,,
null,,rt_plussign_withcolor1,391677,,,,,,,,green,,,null,object_13a.png,object_07b.png,,,,,,,,,,,,,,,,,,,,
783.5,,rt_thecrossant_black1,392612,,,,,,,,black_plus_sign,,,50,,,1,,,,,,,0.9545454545454546,,,,,,,,,,,,
null,,color_black1,392725,,,,,,,,black_plus_sign,,,null,,,,,,,,,,,,,,,,,,,,,,
null,,learn_phase(without_color)1,396243,,,,,,,,black_plus_sign,,,null,object_11b.png,object_12b.png,,,,,,,,,,,,,,,,,,,,
null,,black_cross(without_color)1,397273,,,,,,,,blue,,,null,object_11b.png,object_12b.png,,,,,,,,,,,,,,,,,,,,
null,,rt_plussign_withcolor1,397780,,,,,,,,blue,,,null,object_11b.png,object_12b.png,,,,,,,,,,,,,,,,,,,,
1286.2000000029802,,rt_thecrossant_black1,398777,,,,,,,,black_plus_sign,,,49,,,1,,,,,,,0.9565217391304348,,,,,,,,,,,,
null,,color_black1,398890,,,,,,,,black_plus_sign,,,null,,,,,,,,,,,,,,,,,,,,,,
null,,learn_phase(without_color)1,402405,,,,,,,,black_plus_sign,,,null,object_08a.png,object_14b.png,,,,,,,,,,,,,,,,,,,,
null,,black_cross(without_color)1,403231,,,,,,,,blue,,,null,object_08a.png,object_14b.png,,,,,,,,,,,,,,,,,,,,
null,,rt_plussign_withcolor1,403741,,,,,,,,blue,,,null,object_08a.png,object_14b.png,,,,,,,,,,,,,,,,,,,,
1290.2000000029802,,rt_thecrossant_black1,404938,,,,,,,,black_plus_sign,,,49,,,1,,,,,,,0.9583333333333334,,,,,,,,,,,,
null,,color_black1,405040,,,,,,,,black_plus_sign,,,null,,,,,,,,,,,,,,,,,,,,,,
null,,learn_phase(without_color)1,408547,,,,,,,,black_plus_sign,,,null,object_08b.png,object_01a.png,,,,,,,,,,,,,,,,,,,,
null,,black_cross(without_color)1,409045,,,,,,,,blue,,,null,object_08b.png,object_01a.png,,,,,,,,,,,,,,,,,,,,
null,,rt_plussign_withcolor1,409558,,,,,,,,blue,,,null,object_08b.png,object_01a.png,,,,,,,,,,,,,,,,,,,,
1368,,rt_thecrossant_black1,411084,,,,,,,,black_plus_sign,,,49,,,1,,,,,,,0.96,,,,,,,,,,,,
null,,color_black1,411189,,,,,,,,black_plus_sign,,,null,,,,,,,,,,,,,,,,,,,,,,
null,,learn_phase(without_color)1,414706,,,,,,,,black_plus_sign,,,null,object_04b.png,object_07c.png,,,,,,,,,,,,,,,,,,,,
null,,black_cross(without_color)1,415403,,,,,,,,blue,,,null,object_04b.png,object_07c.png,,,,,,,,,,,,,,,,,,,,
null,,rt_plussign_withcolor1,415910,,,,,,,,blue,,,null,object_04b.png,object_07c.png,,,,,,,,,,,,,,,,,,,,
597.8000000044703,,rt_thecrossant_black1,417228,,,,,,,,black_plus_sign,,,50,,,0,,,,,,,0.9230769230769231,,,,,,,,,,,,
null,,color_black1,417341,,,,,,,,black_plus_sign,,,null,,,,,,,,,,,,,,,,,,,,,,
null,,learn_phase(without_color)1,420847,,,,,,,,black_plus_sign,,,null,object_01c.png,object_09c.png,,,,,,,,,,,,,,,,,,,,
null,,black_cross(without_color)1,421713,,,,,,,,blue,,,null,object_01c.png,object_09c.png,,,,,,,,,,,,,,,,,,,,
null,,rt_plussign_withcolor1,422229,,,,,,,,blue,,,null,object_01c.png,object_09c.png,,,,,,,,,,,,,,,,,,,,
999.3000000044703,,rt_thecrossant_black1,423389,,,,,,,,black_plus_sign,,,50,,,0,,,,,,,0.8888888888888888,,,,,,,,,,,,
null,,warning_page,428396,,,,,,,,warning,,,null,,,,,,,,,,,,,,,,,,,,,,
null,,color_black1,428507,,,,,,,,black_plus_sign,,,null,,,,,,,,,,,,,,,,,,,,,,
null,,learn_phase(without_color)1,432025,,,,,,,,black_plus_sign,,,null,object_02b.png,object_08c.png,,,,,,,,,,,,,,,,,,,,
null,,black_cross(without_color)1,432992,,,,,,,,green,,,null,object_02b.png,object_08c.png,,,,,,,,,,,,,,,,,,,,
null,,rt_plussign_withcolor1,433510,,,,,,,,green,,,null,object_02b.png,object_08c.png,,,,,,,,,,,,,,,,,,,,
1151,,rt_thecrossant_black1,434571,,,,,,,,black_plus_sign,,,50,,,1,,,,,,,0.8928571428571429,,,,,,,,,,,,
null,,color_black1,434692,,,,,,,,black_plus_sign,,,null,,,,,,,,,,,,,,,,,,,,,,
null,,learn_phase(without_color)1,438207,,,,,,,,black_plus_sign,,,null,object_03b.png,object_15c.png,,,,,,,,,,,,,,,,,,,,
null,,black_cross(without_color)1,438948,,,,,,,,blue,,,null,object_03b.png,object_15c.png,,,,,,,,,,,,,,,,,,,,
null,,rt_plussign_withcolor1,439461,,,,,,,,blue,,,null,object_03b.png,object_15c.png,,,,,,,,,,,,,,,,,,,,
1226.2000000029802,,rt_thecrossant_black1,440740,,,,,,,,black_plus_sign,,,49,,,1,,,,,,,0.896551724137931,,,,,,,,,,,,
null,,color_black1,440856,,,,,,,,black_plus_sign,,,null,,,,,,,,,,,,,,,,,,,,,,
null,,learn_phase(without_color)1,444373,,,,,,,,black_plus_sign,,,null,object_14a.png,object_13a.png,,,,,,,,,,,,,,,,,,,,
null,,black_cross(without_color)1,445195,,,,,,,,green,,,null,object_14a.png,object_13a.png,,,,,,,,,,,,,,,,,,,,
null,,rt_plussign_withcolor1,445709,,,,,,,,green,,,null,object_14a.png,object_13a.png,,,,,,,,,,,,,,,,,,,,
1200.2999999970198,,rt_thecrossant_black1,446908,,,,,,,,black_plus_sign,,,50,,,1,,,,,,,0.9,,,,,,,,,,,,
null,,color_black1,447025,,,,,,,,black_plus_sign,,,null,,,,,,,,,,,,,,,,,,,,,,
null,,thebreak,447153,,,,,,,,<p></p>,,,null,,,,,,,,,,,,,,,,,,,,,,
2287.5,,intro_0,449442,,,,,,,,instruct,,,32,,,,,,,,,,,,,,,,,,,,,,
4272.70000000298,,directmemory_phase1,453715,,,,,,,,object_07c.png,,,50,,,1,,object_13a.png,object_04b.png,object_06c.png,object_04b.png,,1,1,,,,,,,,,,,
2460.5,,directmemory_phase1,456177,,,,,,,,object_04b.png,,,50,,,1,,object_15b.png,object_12a.png,object_08b.png,object_12a.png,,1,1,,,,,,,,,,,
3418.5999999940395,,directmemory_phase1,459598,,,,,,,,object_05b.png,,,50,,,1,,object_03a.png,object_10b.png,object_12c.png,object_10b.png,,1,1,,,,,,,,,,,
3576.39999999851,,directmemory_phase1,463175,,,,,,,,object_04a.png,,,51,,,1,,object_03a.png,object_02b.png,object_03c.png,object_03c.png,,1,1,,,,,,,,,,,
3398.7999999970198,,directmemory_phase1,466575,,,,,,,,object_01c.png,,,51,,,1,,object_10b.png,object_03c.png,object_03a.png,object_03a.png,,1,1,,,,,,,,,,,
1504.6000000014901,,directmemory_phase1,468081,,,,,,,,object_06a.png,,,51,,,1,,object_05a.png,object_13c.png,object_15c.png,object_15c.png,,1,1,,,,,,,,,,,
2509.0999999940395,,directmemory_phase1,470592,,,,,,,,object_07a.png,,,49,,,0,,object_15a.png,object_15c.png,object_05b.png,object_05b.png,,0.8571428571428571,0,,,,,,,,,,,
2510.5,,directmemory_phase1,473104,,,,,,,,object_15c.png,,,51,,,1,,object_02a.png,object_02b.png,object_03b.png,object_03b.png,,0.875,1,,,,,,,,,,,
2353.2999999970198,,directmemory_phase1,475459,,,,,,,,object_04c.png,,,49,,,1,,object_01b.png,object_08b.png,object_03b.png,object_01b.png,,0.8888888888888888,1,,,,,,,,,,,
2134.2000000029802,,directmemory_phase1,477595,,,,,,,,object_08a.png,,,50,,,1,,object_08b.png,object_11a.png,object_10b.png,object_11a.png,,0.9,1,,,,,,,,,,,
2226.0999999940395,,directmemory_phase1,479822,,,,,,,,object_13c.png,,,51,,,0,,object_12c.png,object_05c.png,object_08b.png,object_05c.png,,0.8181818181818182,0,,,,,,,,,,,
2157.1999999955297,,directmemory_phase1,481981,,,,,,,,object_08c.png,,,49,,,0,,object_03b.png,object_05c.png,object_02b.png,object_02b.png,,0.75,0,,,,,,,,,,,
2278.7000000029802,,directmemory_phase1,484262,,,,,,,,object_12b.png,,,49,,,0,,object_15a.png,object_11b.png,object_04a.png,object_11b.png,,0.6923076923076923,0,,,,,,,,,,,
2158.10000000149,,directmemory_phase1,486421,,,,,,,,object_06c.png,,,49,,,1,,object_02a.png,object_14a.png,object_02b.png,object_02a.png,,0.7142857142857143,1,,,,,,,,,,,
2523.7999999970198,,directmemory_phase1,488946,,,,,,,,object_11b.png,,,49,,,1,,object_12c.png,object_12a.png,object_13b.png,object_12c.png,,0.7333333333333333,1,,,,,,,,,,,
1921.3000000044703,,directmemory_phase1,490869,,,,,,,,object_09a.png,,,51,,,1,,object_05b.png,object_04a.png,object_06c.png,object_06c.png,,0.75,1,,,,,,,,,,,
2724.4000000059605,,directmemory_phase1,493595,,,,,,,,object_11c.png,,,51,,,0,,object_06c.png,object_05a.png,object_11b.png,object_05a.png,,0.7058823529411765,0,,,,,,,,,,,
2365.2000000029802,,directmemory_phase1,495961,,,,,,,,object_06b.png,,,50,,,0,,object_05a.png,object_08c.png,object_04a.png,object_04a.png,,0.6666666666666666,0,,,,,,,,,,,
2045.7999999970198,,directmemory_phase1,498009,,,,,,,,object_02c.png,,,50,,,1,,object_05a.png,object_13c.png,object_04b.png,object_13c.png,,0.6842105263157895,1,,,,,,,,,,,
2137.5999999940395,,directmemory_phase1,500148,,,,,,,,object_14c.png,,,50,,,1,,object_15a.png,object_04c.png,object_11b.png,object_04c.png,,0.7,1,,,,,,,,,,,
2405.8000000044703,,directmemory_phase1,502556,,,,,,,,object_01a.png,,,49,,,0,,object_05c.png,object_08b.png,object_14a.png,object_08b.png,,0.6666666666666666,0,,,,,,,,,,,
1664.7000000029802,,directmemory_phase1,504222,,,,,,,,object_13a.png,,,51,,,1,,object_08b.png,object_02b.png,object_14a.png,object_14a.png,,0.6818181818181818,1,,,,,,,,,,,
1633.3000000044703,,directmemory_phase1,505857,,,,,,,,object_10a.png,,,51,,,1,,object_15a.png,object_05a.png,object_08c.png,object_08c.png,,0.6956521739130435,1,,,,,,,,,,,
2161.60000000149,,directmemory_phase1,508020,,,,,,,,object_14b.png,,,49,,,1,,object_08a.png,object_01c.png,object_08c.png,object_08a.png,,0.7083333333333334,1,,,,,,,,,,,
2248.3000000044703,,directmemory_phase1,510270,,,,,,,,object_05a.png,,,50,,,1,,object_02b.png,object_15b.png,object_08b.png,object_15b.png,,0.72,1,,,,,,,,,,,
1562.6000000014901,,directmemory_phase1,511835,,,,,,,,object_07b.png,,,50,,,1,,object_04a.png,object_13a.png,object_05b.png,object_13a.png,,0.7307692307692307,1,,,,,,,,,,,
2658.7999999970198,,directmemory_phase1,514495,,,,,,,,object_15a.png,,,50,,,0,,object_02a.png,object_15b.png,object_13b.png,object_13b.png,,0.7037037037037037,0,,,,,,,,,,,
1554.8000000044703,,directmemory_phase1,516052,,,,,,,,object_09b.png,,,50,,,1,,object_08c.png,object_01a.png,object_06c.png,object_01a.png,,0.7142857142857143,1,,,,,,,,,,,
221.80000000447035,,directmemory_phase1,516275,,,,,,,,object_10c.png,,,50,,,1,,object_01c.png,object_15a.png,object_04b.png,object_15a.png,,0.7241379310344828,1,,,,,,,,,,,
1723.3999999985099,,directmemory_phase1,518000,,,,,,,,object_09c.png,,,49,,,0,,object_13a.png,object_01c.png,object_15c.png,object_01c.png,,0.7,0,,,,,,,,,,,
null,,thebreak,518106,,,,,,,,<p></p>,,,null,,,,,,,,,,,,,,,,,,,,,,
2913.89999999851,,intro_0,521020,,,,,,,,instruct,,,32,,,,,,,,,,,,,,,,,,,,,,
null,,learn_phase(without_color)2,524528,,,,,,,,black_plus_sign,,,null,object_02b.png,object_08c.png,,,,,,,,,,,,,,,,,,,,
null,,black_cross(without_color)2,525230,,,,,,,,green,,,null,object_02b.png,object_08c.png,,,,,,,,,,,,,,,,,,,,
null,,rt_plussign_withcolor2,525739,,,,,,,,green,,,null,object_02b.png,object_08c.png,,,,,,,,,,,,,,,,,,,,
902.1000000014901,,rt_thecrossant_black2,527060,,,,,,,,black_plus_sign,,,50,,,1,,,,,,,1,,,,,,,,,,,,
null,,color_black2,527172,,,,,,,,black_plus_sign,,,null,,,,,,,,,,,,,,,,,,,,,,
null,,learn_phase(without_color)2,530690,,,,,,,,black_plus_sign,,,null,object_11b.png,object_12b.png,,,,,,,,,,,,,,,,,,,,
null,,black_cross(without_color)2,531785,,,,,,,,green,,,null,object_11b.png,object_12b.png,,,,,,,,,,,,,,,,,,,,
null,,rt_plussign_withcolor2,532291,,,,,,,,green,,,null,object_11b.png,object_12b.png,,,,,,,,,,,,,,,,,,,,
1076.7000000029802,,rt_thecrossant_black2,533215,,,,,,,,black_plus_sign,,,50,,,1,,,,,,,1,,,,,,,,,,,,
null,,color_black2,533320,,,,,,,,black_plus_sign,,,null,,,,,,,,,,,,,,,,,,,,,,
null,,learn_phase(without_color)2,536837,,,,,,,,black_plus_sign,,,null,object_04c.png,object_14c.png,,,,,,,,,,,,,,,,,,,,
null,,black_cross(without_color)2,537646,,,,,,,,blue,,,null,object_04c.png,object_14c.png,,,,,,,,,,,,,,,,,,,,
null,,rt_plussign_withcolor2,538156,,,,,,,,blue,,,null,object_04c.png,object_14c.png,,,,,,,,,,,,,,,,,,,,
1646.6999999955297,,rt_thecrossant_black2,539365,,,,,,,,black_plus_sign,,,49,,,1,,,,,,,1,,,,,,,,,,,,
null,,color_black2,539470,,,,,,,,black_plus_sign,,,null,,,,,,,,,,,,,,,,,,,,,,
null,,learn_phase(without_color)2,542994,,,,,,,,black_plus_sign,,,null,object_01c.png,object_09c.png,,,,,,,,,,,,,,,,,,,,
null,,black_cross(without_color)2,543507,,,,,,,,green,,,null,object_01c.png,object_09c.png,,,,,,,,,,,,,,,,,,,,
null,,rt_plussign_withcolor2,544022,,,,,,,,green,,,null,object_01c.png,object_09c.png,,,,,,,,,,,,,,,,,,,,
943.8000000044703,,rt_thecrossant_black2,545549,,,,,,,,black_plus_sign,,,50,,,1,,,,,,,1,,,,,,,,,,,,
null,,color_black2,545653,,,,,,,,black_plus_sign,,,null,,,,,,,,,,,,,,,,,,,,,,
null,,learn_phase(without_color)2,549167,,,,,,,,black_plus_sign,,,null,object_01a.png,object_09b.png,,,,,,,,,,,,,,,,,,,,
null,,black_cross(without_color)2,549691,,,,,,,,green,,,null,object_01a.png,object_09b.png,,,,,,,,,,,,,,,,,,,,
null,,rt_plussign_withcolor2,550206,,,,,,,,green,,,null,object_01a.png,object_09b.png,,,,,,,,,,,,,,,,,,,,
871.6000000014901,,rt_thecrossant_black2,551711,,,,,,,,black_plus_sign,,,50,,,1,,,,,,,1,,,,,,,,,,,,
null,,color_black2,551820,,,,,,,,black_plus_sign,,,null,,,,,,,,,,,,,,,,,,,,,,
null,,learn_phase(without_color)2,555335,,,,,,,,black_plus_sign,,,null,object_14a.png,object_13a.png,,,,,,,,,,,,,,,,,,,,
null,,black_cross(without_color)2,556305,,,,,,,,green,,,null,object_14a.png,object_13a.png,,,,,,,,,,,,,,,,,,,,
null,,rt_plussign_withcolor2,556820,,,,,,,,green,,,null,object_14a.png,object_13a.png,,,,,,,,,,,,,,,,,,,,
684.8999999985099,,rt_thecrossant_black2,557868,,,,,,,,black_plus_sign,,,50,,,1,,,,,,,1,,,,,,,,,,,,
null,,color_black2,557986,,,,,,,,black_plus_sign,,,null,,,,,,,,,,,,,,,,,,,,,,
null,,learn_phase(without_color)2,561505,,,,,,,,black_plus_sign,,,null,object_13c.png,object_02c.png,,,,,,,,,,,,,,,,,,,,
null,,black_cross(without_color)2,562486,,,,,,,,green,,,null,object_13c.png,object_02c.png,,,,,,,,,,,,,,,,,,,,
null,,rt_plussign_withcolor2,562991,,,,,,,,green,,,null,object_13c.png,object_02c.png,,,,,,,,,,,,,,,,,,,,
1187.8000000044703,,rt_thecrossant_black2,564023,,,,,,,,black_plus_sign,,,50,,,1,,,,,,,1,,,,,,,,,,,,
null,,color_black2,564136,,,,,,,,black_plus_sign,,,null,,,,,,,,,,,,,,,,,,,,,,
null,,learn_phase(without_color)2,567652,,,,,,,,black_plus_sign,,,null,object_04b.png,object_07c.png,,,,,,,,,,,,,,,,,,,,
null,,black_cross(without_color)2,568654,,,,,,,,blue,,,null,object_04b.png,object_07c.png,,,,,,,,,,,,,,,,,,,,
null,,rt_plussign_withcolor2,569172,,,,,,,,blue,,,null,object_04b.png,object_07c.png,,,,,,,,,,,,,,,,,,,,
1144.6000000014901,,rt_thecrossant_black2,570200,,,,,,,,black_plus_sign,,,49,,,1,,,,,,,1,,,,,,,,,,,,
null,,color_black2,570304,,,,,,,,black_plus_sign,,,null,,,,,,,,,,,,,,,,,,,,,,
null,,learn_phase(without_color)2,573816,,,,,,,,black_plus_sign,,,null,object_03a.png,object_01c.png,,,,,,,,,,,,,,,,,,,,
null,,black_cross(without_color)2,574264,,,,,,,,green,,,null,object_03a.png,object_01c.png,,,,,,,,,,,,,,,,,,,,
null,,rt_plussign_withcolor2,574772,,,,,,,,green,,,null,object_03a.png,object_01c.png,,,,,,,,,,,,,,,,,,,,
1376.4000000059605,,rt_thecrossant_black2,576358,,,,,,,,black_plus_sign,,,50,,,1,,,,,,,1,,,,,,,,,,,,
null,,color_black2,576469,,,,,,,,black_plus_sign,,,null,,,,,,,,,,,,,,,,,,,,,,
null,,learn_phase(without_color)2,579985,,,,,,,,black_plus_sign,,,null,object_15c.png,object_06a.png,,,,,,,,,,,,,,,,,,,,
null,,black_cross(without_color)2,580778,,,,,,,,blue,,,null,object_15c.png,object_06a.png,,,,,,,,,,,,,,,,,,,,
null,,rt_plussign_withcolor2,581290,,,,,,,,blue,,,null,object_15c.png,object_06a.png,,,,,,,,,,,,,,,,,,,,
593.2999999970198,,rt_thecrossant_black2,582509,,,,,,,,black_plus_sign,,,49,,,1,,,,,,,1,,,,,,,,,,,,
null,,color_black2,582619,,,,,,,,black_plus_sign,,,null,,,,,,,,,,,,,,,,,,,,,,
null,,learn_phase(without_color)2,586136,,,,,,,,black_plus_sign,,,null,object_11a.png,object_08a.png,,,,,,,,,,,,,,,,,,,,
null,,black_cross(without_color)2,586882,,,,,,,,blue,,,null,object_11a.png,object_08a.png,,,,,,,,,,,,,,,,,,,,
null,,rt_plussign_withcolor2,587391,,,,,,,,blue,,,null,object_11a.png,object_08a.png,,,,,,,,,,,,,,,,,,,,
1121.7999999970198,,rt_thecrossant_black2,588663,,,,,,,,black_plus_sign,,,49,,,1,,,,,,,1,,,,,,,,,,,,
null,,color_black2,588768,,,,,,,,black_plus_sign,,,null,,,,,,,,,,,,,,,,,,,,,,
null,,learn_phase(without_color)2,592286,,,,,,,,black_plus_sign,,,null,object_02a.png,object_06c.png,,,,,,,,,,,,,,,,,,,,
null,,black_cross(without_color)2,592949,,,,,,,,green,,,null,object_02a.png,object_06c.png,,,,,,,,,,,,,,,,,,,,
null,,rt_plussign_withcolor2,593459,,,,,,,,green,,,null,object_02a.png,object_06c.png,,,,,,,,,,,,,,,,,,,,
1080.5,,rt_thecrossant_black2,594830,,,,,,,,black_plus_sign,,,50,,,1,,,,,,,1,,,,,,,,,,,,
null,,color_black2,594936,,,,,,,,black_plus_sign,,,null,,,,,,,,,,,,,,,,,,,,,,
null,,learn_phase(without_color)2,598452,,,,,,,,black_plus_sign,,,null,object_13a.png,object_07b.png,,,,,,,,,,,,,,,,,,,,
null,,black_cross(without_color)2,599548,,,,,,,,green,,,null,object_13a.png,object_07b.png,,,,,,,,,,,,,,,,,,,,
null,,rt_plussign_withcolor2,600056,,,,,,,,green,,,null,object_13a.png,object_07b.png,,,,,,,,,,,,,,,,,,,,
923.2000000029802,,rt_thecrossant_black2,600992,,,,,,,,black_plus_sign,,,50,,,1,,,,,,,1,,,,,,,,,,,,
null,,color_black2,601102,,,,,,,,black_plus_sign,,,null,,,,,,,,,,,,,,,,,,,,,,
null,,learn_phase(without_color)2,604620,,,,,,,,black_plus_sign,,,null,object_04a.png,object_06b.png,,,,,,,,,,,,,,,,,,,,
null,,black_cross(without_color)2,605282,,,,,,,,green,,,null,object_04a.png,object_06b.png,,,,,,,,,,,,,,,,,,,,
null,,rt_plussign_withcolor2,605788,,,,,,,,green,,,null,object_04a.png,object_06b.png,,,,,,,,,,,,,,,,,,,,
1444.1999999955297,,rt_thecrossant_black2,607147,,,,,,,,black_plus_sign,,,50,,,1,,,,,,,1,,,,,,,,,,,,
null,,color_black2,607250,,,,,,,,black_plus_sign,,,null,,,,,,,,,,,,,,,,,,,,,,
null,,learn_phase(without_color)2,610766,,,,,,,,black_plus_sign,,,null,object_10b.png,object_05b.png,,,,,,,,,,,,,,,,,,,,
null,,black_cross(without_color)2,611190,,,,,,,,green,,,null,object_10b.png,object_05b.png,,,,,,,,,,,,,,,,,,,,
null,,rt_plussign_withcolor2,611704,,,,,,,,green,,,null,object_10b.png,object_05b.png,,,,,,,,,,,,,,,,,,,,
844.3999999985099,,rt_thecrossant_black2,613314,,,,,,,,black_plus_sign,,,50,,,1,,,,,,,1,,,,,,,,,,,,
null,,color_black2,613418,,,,,,,,black_plus_sign,,,null,,,,,,,,,,,,,,,,,,,,,,
null,,learn_phase(without_color)2,616937,,,,,,,,black_plus_sign,,,null,object_06c.png,object_09a.png,,,,,,,,,,,,,,,,,,,,
null,,black_cross(without_color)2,617822,,,,,,,,green,,,null,object_06c.png,object_09a.png,,,,,,,,,,,,,,,,,,,,
null,,rt_plussign_withcolor2,618335,,,,,,,,green,,,null,object_06c.png,object_09a.png,,,,,,,,,,,,,,,,,,,,
783.7000000029802,,rt_thecrossant_black2,619473,,,,,,,,black_plus_sign,,,50,,,1,,,,,,,1,,,,,,,,,,,,
null,,color_black2,619585,,,,,,,,black_plus_sign,,,null,,,,,,,,,,,,,,,,,,,,,,
null,,learn_phase(without_color)2,623095,,,,,,,,black_plus_sign,,,null,object_08b.png,object_01a.png,,,,,,,,,,,,,,,,,,,,
null,,black_cross(without_color)2,623716,,,,,,,,blue,,,null,object_08b.png,object_01a.png,,,,,,,,,,,,,,,,,,,,
null,,rt_plussign_withcolor2,624218,,,,,,,,blue,,,null,object_08b.png,object_01a.png,,,,,,,,,,,,,,,,,,,,
1032.6000000014901,,rt_thecrossant_black2,625633,,,,,,,,black_plus_sign,,,49,,,1,,,,,,,1,,,,,,,,,,,,
null,,color_black2,625755,,,,,,,,black_plus_sign,,,null,,,,,,,,,,,,,,,,,,,,,,
null,,learn_phase(without_color)2,629271,,,,,,,,black_plus_sign,,,null,object_03c.png,object_04a.png,,,,,,,,,,,,,,,,,,,,
null,,black_cross(without_color)2,629918,,,,,,,,green,,,null,object_03c.png,object_04a.png,,,,,,,,,,,,,,,,,,,,
null,,rt_plussign_withcolor2,630435,,,,,,,,green,,,null,object_03c.png,object_04a.png,,,,,,,,,,,,,,,,,,,,
1090.7000000029802,,rt_thecrossant_black2,631818,,,,,,,,black_plus_sign,,,50,,,1,,,,,,,1,,,,,,,,,,,,
null,,color_black2,631937,,,,,,,,black_plus_sign,,,null,,,,,,,,,,,,,,,,,,,,,,
null,,learn_phase(without_color)2,635448,,,,,,,,black_plus_sign,,,null,object_15b.png,object_05a.png,,,,,,,,,,,,,,,,,,,,
null,,black_cross(without_color)2,636515,,,,,,,,green,,,null,object_15b.png,object_05a.png,,,,,,,,,,,,,,,,,,,,
null,,rt_plussign_withcolor2,637018,,,,,,,,green,,,null,object_15b.png,object_05a.png,,,,,,,,,,,,,,,,,,,,
898.1000000014901,,rt_thecrossant_black2,637974,,,,,,,,black_plus_sign,,,50,,,1,,,,,,,1,,,,,,,,,,,,
null,,color_black2,638084,,,,,,,,black_plus_sign,,,null,,,,,,,,,,,,,,,,,,,,,,
null,,learn_phase(without_color)2,641602,,,,,,,,black_plus_sign,,,null,object_05b.png,object_07a.png,,,,,,,,,,,,,,,,,,,,
null,,black_cross(without_color)2,642473,,,,,,,,green,,,null,object_05b.png,object_07a.png,,,,,,,,,,,,,,,,,,,,
null,,rt_plussign_withcolor2,642988,,,,,,,,green,,,null,object_05b.png,object_07a.png,,,,,,,,,,,,,,,,,,,,
1323.2999999970198,,rt_thecrossant_black2,644135,,,,,,,,black_plus_sign,,,50,,,1,,,,,,,1,,,,,,,,,,,,
null,,color_black2,644253,,,,,,,,black_plus_sign,,,null,,,,,,,,,,,,,,,,,,,,,,
null,,learn_phase(without_color)2,647764,,,,,,,,black_plus_sign,,,null,object_03b.png,object_15c.png,,,,,,,,,,,,,,,,,,,,
null,,black_cross(without_color)2,648448,,,,,,,,green,,,null,object_03b.png,object_15c.png,,,,,,,,,,,,,,,,,,,,
null,,rt_plussign_withcolor2,648954,,,,,,,,green,,,null,object_03b.png,object_15c.png,,,,,,,,,,,,,,,,,,,,
1590.6000000014901,,rt_thecrossant_black2,650296,,,,,,,,black_plus_sign,,,50,,,1,,,,,,,1,,,,,,,,,,,,
null,,color_black2,650400,,,,,,,,black_plus_sign,,,null,,,,,,,,,,,,,,,,,,,,,,
null,,learn_phase(without_color)2,653912,,,,,,,,black_plus_sign,,,null,object_08a.png,object_14b.png,,,,,,,,,,,,,,,,,,,,
null,,black_cross(without_color)2,654870,,,,,,,,blue,,,null,object_08a.png,object_14b.png,,,,,,,,,,,,,,,,,,,,
null,,rt_plussign_withcolor2,655385,,,,,,,,blue,,,null,object_08a.png,object_14b.png,,,,,,,,,,,,,,,,,,,,
989.8999999985099,,rt_thecrossant_black2,656454,,,,,,,,black_plus_sign,,,49,,,1,,,,,,,1,,,,,,,,,,,,
null,,color_black2,656567,,,,,,,,black_plus_sign,,,null,,,,,,,,,,,,,,,,,,,,,,
null,,learn_phase(without_color)2,660088,,,,,,,,black_plus_sign,,,null,object_12c.png,object_11b.png,,,,,,,,,,,,,,,,,,,,
null,,black_cross(without_color)2,661099,,,,,,,,blue,,,null,object_12c.png,object_11b.png,,,,,,,,,,,,,,,,,,,,
null,,rt_plussign_withcolor2,661605,,,,,,,,blue,,,null,object_12c.png,object_11b.png,,,,,,,,,,,,,,,,,,,,
1386.5,,rt_thecrossant_black2,662630,,,,,,,,black_plus_sign,,,49,,,1,,,,,,,1,,,,,,,,,,,,
null,,color_black2,662737,,,,,,,,black_plus_sign,,,null,,,,,,,,,,,,,,,,,,,,,,
null,,learn_phase(without_color)2,666255,,,,,,,,black_plus_sign,,,null,object_05a.png,object_11c.png,,,,,,,,,,,,,,,,,,,,
null,,black_cross(without_color)2,666897,,,,,,,,green,,,null,object_05a.png,object_11c.png,,,,,,,,,,,,,,,,,,,,
null,,rt_plussign_withcolor2,667405,,,,,,,,green,,,null,object_05a.png,object_11c.png,,,,,,,,,,,,,,,,,,,,
1498.2999999970198,,rt_thecrossant_black2,668800,,,,,,,,black_plus_sign,,,50,,,1,,,,,,,1,,,,,,,,,,,,
null,,color_black2,668915,,,,,,,,black_plus_sign,,,null,,,,,,,,,,,,,,,,,,,,,,
null,,learn_phase(without_color)2,672438,,,,,,,,black_plus_sign,,,null,object_05c.png,object_13c.png,,,,,,,,,,,,,,,,,,,,
null,,black_cross(without_color)2,673259,,,,,,,,blue,,,null,object_05c.png,object_13c.png,,,,,,,,,,,,,,,,,,,,
null,,rt_plussign_withcolor2,673772,,,,,,,,blue,,,null,object_05c.png,object_13c.png,,,,,,,,,,,,,,,,,,,,
1137.2000000029802,,rt_thecrossant_black2,674974,,,,,,,,black_plus_sign,,,49,,,1,,,,,,,1,,,,,,,,,,,,
null,,color_black2,675083,,,,,,,,black_plus_sign,,,null,,,,,,,,,,,,,,,,,,,,,,
null,,learn_phase(without_color)2,678599,,,,,,,,black_plus_sign,,,null,object_08c.png,object_10a.png,,,,,,,,,,,,,,,,,,,,
null,,black_cross(without_color)2,679666,,,,,,,,blue,,,null,object_08c.png,object_10a.png,,,,,,,,,,,,,,,,,,,,
null,,rt_plussign_withcolor2,680185,,,,,,,,blue,,,null,object_08c.png,object_10a.png,,,,,,,,,,,,,,,,,,,,
1422.7999999970198,,rt_thecrossant_black2,681154,,,,,,,,black_plus_sign,,,49,,,1,,,,,,,1,,,,,,,,,,,,
null,,color_black2,681266,,,,,,,,black_plus_sign,,,null,,,,,,,,,,,,,,,,,,,,,,
null,,learn_phase(without_color)2,684783,,,,,,,,black_plus_sign,,,null,object_15a.png,object_10c.png,,,,,,,,,,,,,,,,,,,,
null,,black_cross(without_color)2,685526,,,,,,,,green,,,null,object_15a.png,object_10c.png,,,,,,,,,,,,,,,,,,,,
null,,rt_plussign_withcolor2,686036,,,,,,,,green,,,null,object_15a.png,object_10c.png,,,,,,,,,,,,,,,,,,,,
1767.1999999955297,,rt_thecrossant_black2,687329,,,,,,,,black_plus_sign,,,50,,,1,,,,,,,1,,,,,,,,,,,,
null,,color_black2,687433,,,,,,,,black_plus_sign,,,null,,,,,,,,,,,,,,,,,,,,,,
null,,learn_phase(without_color)2,690951,,,,,,,,black_plus_sign,,,null,object_12a.png,object_04b.png,,,,,,,,,,,,,,,,,,,,
null,,black_cross(without_color)2,691675,,,,,,,,green,,,null,object_12a.png,object_04b.png,,,,,,,,,,,,,,,,,,,,
null,,rt_plussign_withcolor2,692187,,,,,,,,green,,,null,object_12a.png,object_04b.png,,,,,,,,,,,,,,,,,,,,
1104.6999999955297,,rt_thecrossant_black2,693495,,,,,,,,black_plus_sign,,,50,,,1,,,,,,,1,,,,,,,,,,,,
null,,color_black2,693599,,,,,,,,black_plus_sign,,,null,,,,,,,,,,,,,,,,,,,,,,
null,,learn_phase(without_color)2,697116,,,,,,,,black_plus_sign,,,null,object_13b.png,object_15a.png,,,,,,,,,,,,,,,,,,,,
null,,black_cross(without_color)2,697555,,,,,,,,blue,,,null,object_13b.png,object_15a.png,,,,,,,,,,,,,,,,,,,,
null,,rt_plussign_withcolor2,698069,,,,,,,,blue,,,null,object_13b.png,object_15a.png,,,,,,,,,,,,,,,,,,,,
1194.1000000014901,,rt_thecrossant_black2,699656,,,,,,,,black_plus_sign,,,49,,,1,,,,,,,1,,,,,,,,,,,,
null,,color_black2,699766,,,,,,,,black_plus_sign,,,null,,,,,,,,,,,,,,,,,,,,,,
null,,learn_phase(without_color)2,703281,,,,,,,,black_plus_sign,,,null,object_01b.png,object_04c.png,,,,,,,,,,,,,,,,,,,,
null,,black_cross(without_color)2,703850,,,,,,,,green,,,null,object_01b.png,object_04c.png,,,,,,,,,,,,,,,,,,,,
null,,rt_plussign_withcolor2,704369,,,,,,,,green,,,null,object_01b.png,object_04c.png,,,,,,,,,,,,,,,,,,,,
841.6000000014901,,rt_thecrossant_black2,705827,,,,,,,,black_plus_sign,,,50,,,1,,,,,,,1,,,,,,,,,,,,
null,,color_black2,705932,,,,,,,,black_plus_sign,,,null,,,,,,,,,,,,,,,,,,,,,,
null,,thebreak,706048,,,,,,,,<p></p>,,,null,,,,,,,,,,,,,,,,,,,,,,
4402.60000000149,,intro_0,710452,,,,,,,,instruct,,,32,,,,,,,,,,,,,,,,,,,,,,
4357.10000000149,,directmemory_phase2,714810,,,,,,,,object_08c.png,,,50,,,1,,object_12c.png,object_02b.png,object_01b.png,object_02b.png,,0.7096774193548387,1,,,,,,,,,,,
1678,,directmemory_phase2,716489,,,,,,,,object_07b.png,,,50,,,1,,object_04c.png,object_13a.png,object_04a.png,object_13a.png,,0.71875,1,,,,,,,,,,,
2474.4000000059605,,directmemory_phase2,718965,,,,,,,,object_15a.png,,,51,,,1,,object_15b.png,object_02b.png,object_13b.png,object_13b.png,,0.7272727272727273,1,,,,,,,,,,,
191.60000000149012,,directmemory_phase2,719158,,,,,,,,object_12b.png,,,51,,,0,,object_11b.png,object_15a.png,object_13a.png,object_11b.png,,0.7058823529411765,0,,,,,,,,,,,
2008.5,,directmemory_phase2,721168,,,,,,,,object_04a.png,,,49,,,0,,object_12a.png,object_03c.png,object_12c.png,object_03c.png,,0.6857142857142857,0,,,,,,,,,,,
2692.7999999970198,,directmemory_phase2,723862,,,,,,,,object_01c.png,,,51,,,1,,object_12a.png,object_13b.png,object_03a.png,object_03a.png,,0.6944444444444444,1,,,,,,,,,,,
2457.7999999970198,,directmemory_phase2,726322,,,,,,,,object_08a.png,,,50,,,1,,object_03a.png,object_11a.png,object_12a.png,object_11a.png,,0.7027027027027027,1,,,,,,,,,,,
2374.10000000149,,directmemory_phase2,728697,,,,,,,,object_10a.png,,,49,,,1,,object_08c.png,object_04c.png,object_04b.png,object_08c.png,,0.7105263157894737,1,,,,,,,,,,,
1456.1000000014901,,directmemory_phase2,730155,,,,,,,,object_06a.png,,,50,,,1,,object_15a.png,object_15c.png,object_04b.png,object_15c.png,,0.717948717948718,1,,,,,,,,,,,
2828.39999999851,,directmemory_phase2,732986,,,,,,,,object_09c.png,,,51,,,0,,object_06c.png,object_01c.png,object_04a.png,object_01c.png,,0.7,0,,,,,,,,,,,
2078,,directmemory_phase2,735065,,,,,,,,object_07c.png,,,51,,,1,,object_15a.png,object_04a.png,object_04b.png,object_04b.png,,0.7073170731707317,1,,,,,,,,,,,
1590.3000000044703,,directmemory_phase2,736656,,,,,,,,object_10c.png,,,51,,,1,,object_04a.png,object_05a.png,object_15a.png,object_15a.png,,0.7142857142857143,1,,,,,,,,,,,
1740.5999999940395,,directmemory_phase2,738398,,,,,,,,object_11c.png,,,50,,,1,,object_04a.png,object_05a.png,object_04b.png,object_05a.png,,0.7209302325581395,1,,,,,,,,,,,
1998,,directmemory_phase2,740398,,,,,,,,object_13a.png,,,50,,,1,,object_13b.png,object_14a.png,object_01b.png,object_14a.png,,0.7272727272727273,1,,,,,,,,,,,
2425.2000000029802,,directmemory_phase2,742825,,,,,,,,object_06b.png,,,50,,,1,,object_01c.png,object_04a.png,object_13a.png,object_04a.png,,0.7333333333333333,1,,,,,,,,,,,
1921.3999999985099,,directmemory_phase2,744748,,,,,,,,object_11b.png,,,49,,,0,,object_05c.png,object_12c.png,object_02b.png,object_12c.png,,0.717391304347826,0,,,,,,,,,,,
2460.89999999851,,directmemory_phase2,747210,,,,,,,,object_09b.png,,,49,,,1,,object_01a.png,object_06c.png,object_15a.png,object_01a.png,,0.723404255319149,1,,,,,,,,,,,
1549.5,,directmemory_phase2,748761,,,,,,,,object_04b.png,,,50,,,1,,object_02b.png,object_12a.png,object_03c.png,object_12a.png,,0.7291666666666666,1,,,,,,,,,,,
2170.2000000029802,,directmemory_phase2,750933,,,,,,,,object_09a.png,,,50,,,0,,object_05b.png,object_15a.png,object_06c.png,object_06c.png,,0.7142857142857143,0,,,,,,,,,,,
1673.1000000014901,,directmemory_phase2,752608,,,,,,,,object_07a.png,,,49,,,1,,object_05b.png,object_05a.png,object_04b.png,object_05b.png,,0.72,1,,,,,,,,,,,
1462.6000000014901,,directmemory_phase2,754072,,,,,,,,object_02c.png,,,50,,,1,,object_05a.png,object_13c.png,object_01a.png,object_13c.png,,0.7254901960784313,1,,,,,,,,,,,
1994.7999999970198,,directmemory_phase2,756068,,,,,,,,object_01a.png,,,49,,,0,,object_03c.png,object_05c.png,object_08b.png,object_08b.png,,0.7115384615384616,0,,,,,,,,,,,
2050.2000000029802,,directmemory_phase2,758120,,,,,,,,object_14c.png,,,50,,,1,,object_01a.png,object_04c.png,object_13a.png,object_04c.png,,0.7169811320754716,1,,,,,,,,,,,
2246.7000000029802,,directmemory_phase2,760368,,,,,,,,object_06c.png,,,50,,,1,,object_05c.png,object_02a.png,object_02b.png,object_02a.png,,0.7222222222222222,1,,,,,,,,,,,
2614.60000000149,,directmemory_phase2,762984,,,,,,,,object_13c.png,,,50,,,0,,object_05c.png,object_12c.png,object_14a.png,object_05c.png,,0.7090909090909091,0,,,,,,,,,,,
2133,,directmemory_phase2,765119,,,,,,,,object_04c.png,,,49,,,0,,object_05c.png,object_03b.png,object_01b.png,object_01b.png,,0.6964285714285714,0,,,,,,,,,,,
1971.6000000014901,,directmemory_phase2,767092,,,,,,,,object_05a.png,,,51,,,1,,object_13b.png,object_12a.png,object_15b.png,object_15b.png,,0.7017543859649122,1,,,,,,,,,,,
2421,,directmemory_phase2,769514,,,,,,,,object_05b.png,,,50,,,0,,object_15b.png,object_13b.png,object_10b.png,object_10b.png,,0.6896551724137931,0,,,,,,,,,,,
1536.2000000029802,,directmemory_phase2,771052,,,,,,,,object_15c.png,,,50,,,0,,object_13b.png,object_12c.png,object_03b.png,object_03b.png,,0.6779661016949152,0,,,,,,,,,,,
1960.6000000014901,,directmemory_phase2,773015,,,,,,,,object_14b.png,,,50,,,0,,object_08c.png,object_11b.png,object_08a.png,object_08a.png,,0.6666666666666666,0,,,,,,,,,,,
null,,thebreak,773130,,,,,,,,<p></p>,,,null,,,,,,,,,,,,,,,,,,,,,,
8230,,intro_0,781362,,,,,,,,instruct,,,32,,,,,,,,,,,,,,,,,,,,,,
null,,learn_phase(without_color)3,784881,,,,,,,,black_plus_sign,,,null,object_01b.png,object_04c.png,,,,,,,,,,,,,,,,,,,,
null,,black_cross(without_color)3,785672,,,,,,,,blue,,,null,object_01b.png,object_04c.png,,,,,,,,,,,,,,,,,,,,
null,,rt_plussign_withcolor3,786185,,,,,,,,blue,,,null,object_01b.png,object_04c.png,,,,,,,,,,,,,,,,,,,,
1229.7999999970198,,rt_thecrossant_black3,787417,,,,,,,,black_plus_sign,,,49,,,1,,,,,,,1,,,,,,,,,,,,
null,,color_black3,787531,,,,,,,,black_plus_sign,,,null,,,,,,,,,,,,,,,,,,,,,,
null,,learn_phase(without_color)3,791042,,,,,,,,black_plus_sign,,,null,object_06c.png,object_09a.png,,,,,,,,,,,,,,,,,,,,
null,,black_cross(without_color)3,791710,,,,,,,,blue,,,null,object_06c.png,object_09a.png,,,,,,,,,,,,,,,,,,,,
null,,rt_plussign_withcolor3,792219,,,,,,,,blue,,,null,object_06c.png,object_09a.png,,,,,,,,,,,,,,,,,,,,
1249.8999999985099,,rt_thecrossant_black3,793577,,,,,,,,black_plus_sign,,,49,,,1,,,,,,,1,,,,,,,,,,,,
null,,color_black3,793680,,,,,,,,black_plus_sign,,,null,,,,,,,,,,,,,,,,,,,,,,
null,,learn_phase(without_color)3,797196,,,,,,,,black_plus_sign,,,null,object_08a.png,object_14b.png,,,,,,,,,,,,,,,,,,,,
null,,black_cross(without_color)3,798246,,,,,,,,blue,,,null,object_08a.png,object_14b.png,,,,,,,,,,,,,,,,,,,,
null,,rt_plussign_withcolor3,798751,,,,,,,,blue,,,null,object_08a.png,object_14b.png,,,,,,,,,,,,,,,,,,,,
1003.7999999970198,,rt_thecrossant_black3,799737,,,,,,,,black_plus_sign,,,49,,,1,,,,,,,1,,,,,,,,,,,,
null,,color_black3,799847,,,,,,,,black_plus_sign,,,null,,,,,,,,,,,,,,,,,,,,,,
null,,learn_phase(without_color)3,803361,,,,,,,,black_plus_sign,,,null,object_03c.png,object_04a.png,,,,,,,,,,,,,,,,,,,,
null,,black_cross(without_color)3,804204,,,,,,,,blue,,,null,object_03c.png,object_04a.png,,,,,,,,,,,,,,,,,,,,
null,,rt_plussign_withcolor3,804717,,,,,,,,blue,,,null,object_03c.png,object_04a.png,,,,,,,,,,,,,,,,,,,,
1262.1000000014901,,rt_thecrossant_black3,805910,,,,,,,,black_plus_sign,,,49,,,1,,,,,,,1,,,,,,,,,,,,
null,,color_black3,806013,,,,,,,,black_plus_sign,,,null,,,,,,,,,,,,,,,,,,,,,,
null,,learn_phase(without_color)3,809528,,,,,,,,black_plus_sign,,,null,object_02a.png,object_06c.png,,,,,,,,,,,,,,,,,,,,
null,,black_cross(without_color)3,810418,,,,,,,,blue,,,null,object_02a.png,object_06c.png,,,,,,,,,,,,,,,,,,,,
null,,rt_plussign_withcolor3,810933,,,,,,,,blue,,,null,object_02a.png,object_06c.png,,,,,,,,,,,,,,,,,,,,
1039.5,,rt_thecrossant_black3,812077,,,,,,,,black_plus_sign,,,49,,,1,,,,,,,1,,,,,,,,,,,,
null,,color_black3,812199,,,,,,,,black_plus_sign,,,null,,,,,,,,,,,,,,,,,,,,,,
null,,learn_phase(without_color)3,815713,,,,,,,,black_plus_sign,,,null,object_13b.png,object_15a.png,,,,,,,,,,,,,,,,,,,,
null,,black_cross(without_color)3,816617,,,,,,,,green,,,null,object_13b.png,object_15a.png,,,,,,,,,,,,,,,,,,,,
506.8999999985099,,rt_plussign_withcolor3,817126,,,,,,,,green,,,50,object_13b.png,object_15a.png,,,,,,,,,,,,,,,,,,,,
null,,rt_thecrossant_black3,818244,,,,,,,,black_plus_sign,,,null,,,1,,,,,,,1,,,,,,,,,,,,
null,,color_black3,818365,,,,,,,,black_plus_sign,,,null,,,,,,,,,,,,,,,,,,,,,,
null,,learn_phase(without_color)3,821879,,,,,,,,black_plus_sign,,,null,object_04b.png,object_07c.png,,,,,,,,,,,,,,,,,,,,
null,,black_cross(without_color)3,822979,,,,,,,,green,,,null,object_04b.png,object_07c.png,,,,,,,,,,,,,,,,,,,,
null,,rt_plussign_withcolor3,823498,,,,,,,,green,,,null,object_04b.png,object_07c.png,,,,,,,,,,,,,,,,,,,,
1177.3999999985099,,rt_thecrossant_black3,824420,,,,,,,,black_plus_sign,,,50,,,1,,,,,,,1,,,,,,,,,,,,
null,,color_black3,824532,,,,,,,,black_plus_sign,,,null,,,,,,,,,,,,,,,,,,,,,,
null,,learn_phase(without_color)3,828044,,,,,,,,black_plus_sign,,,null,object_04c.png,object_14c.png,,,,,,,,,,,,,,,,,,,,
null,,black_cross(without_color)3,828646,,,,,,,,blue,,,null,object_04c.png,object_14c.png,,,,,,,,,,,,,,,,,,,,
null,,rt_plussign_withcolor3,829164,,,,,,,,blue,,,null,object_04c.png,object_14c.png,,,,,,,,,,,,,,,,,,,,
1396.5999999940395,,rt_thecrossant_black3,830587,,,,,,,,black_plus_sign,,,49,,,1,,,,,,,1,,,,,,,,,,,,
null,,color_black3,830695,,,,,,,,black_plus_sign,,,null,,,,,,,,,,,,,,,,,,,,,,
null,,learn_phase(without_color)3,834212,,,,,,,,black_plus_sign,,,null,object_10b.png,object_05b.png,,,,,,,,,,,,,,,,,,,,
null,,black_cross(without_color)3,835162,,,,,,,,green,,,null,object_10b.png,object_05b.png,,,,,,,,,,,,,,,,,,,,
null,,rt_plussign_withcolor3,835683,,,,,,,,green,,,null,object_10b.png,object_05b.png,,,,,,,,,,,,,,,,,,,,
1339.6999999955297,,rt_thecrossant_black3,836766,,,,,,,,black_plus_sign,,,50,,,1,,,,,,,1,,,,,,,,,,,,
null,,color_black3,836879,,,,,,,,black_plus_sign,,,null,,,,,,,,,,,,,,,,,,,,,,
null,,learn_phase(without_color)3,840396,,,,,,,,black_plus_sign,,,null,object_08b.png,object_01a.png,,,,,,,,,,,,,,,,,,,,
null,,black_cross(without_color)3,841282,,,,,,,,blue,,,null,object_08b.png,object_01a.png,,,,,,,,,,,,,,,,,,,,
null,,rt_plussign_withcolor3,841798,,,,,,,,blue,,,null,object_08b.png,object_01a.png,,,,,,,,,,,,,,,,,,,,
1507,,rt_thecrossant_black3,842925,,,,,,,,black_plus_sign,,,49,,,1,,,,,,,1,,,,,,,,,,,,
null,,color_black3,843029,,,,,,,,black_plus_sign,,,null,,,,,,,,,,,,,,,,,,,,,,
null,,learn_phase(without_color)3,846549,,,,,,,,black_plus_sign,,,null,object_03a.png,object_01c.png,,,,,,,,,,,,,,,,,,,,
null,,black_cross(without_color)3,847030,,,,,,,,blue,,,null,object_03a.png,object_01c.png,,,,,,,,,,,,,,,,,,,,
null,,rt_plussign_withcolor3,847543,,,,,,,,blue,,,null,object_03a.png,object_01c.png,,,,,,,,,,,,,,,,,,,,
1555.3000000044703,,rt_thecrossant_black3,849079,,,,,,,,black_plus_sign,,,50,,,0,,,,,,,0.9090909090909091,,,,,,,,,,,,
null,,color_black3,849200,,,,,,,,black_plus_sign,,,null,,,,,,,,,,,,,,,,,,,,,,
null,,learn_phase(without_color)3,852712,,,,,,,,black_plus_sign,,,null,object_01a.png,object_09b.png,,,,,,,,,,,,,,,,,,,,
null,,black_cross(without_color)3,853502,,,,,,,,green,,,null,object_01a.png,object_09b.png,,,,,,,,,,,,,,,,,,,,
null,,rt_plussign_withcolor3,854017,,,,,,,,green,,,null,object_01a.png,object_09b.png,,,,,,,,,,,,,,,,,,,,
813.1999999955297,,rt_thecrossant_black3,855256,,,,,,,,black_plus_sign,,,50,,,1,,,,,,,0.9166666666666666,,,,,,,,,,,,
null,,color_black3,855365,,,,,,,,black_plus_sign,,,null,,,,,,,,,,,,,,,,,,,,,,
null,,learn_phase(without_color)3,858881,,,,,,,,black_plus_sign,,,null,object_08c.png,object_10a.png,,,,,,,,,,,,,,,,,,,,
null,,black_cross(without_color)3,859894,,,,,,,,blue,,,null,object_08c.png,object_10a.png,,,,,,,,,,,,,,,,,,,,
null,,rt_plussign_withcolor3,860414,,,,,,,,blue,,,null,object_08c.png,object_10a.png,,,,,,,,,,,,,,,,,,,,
1156.2000000029802,,rt_thecrossant_black3,861418,,,,,,,,black_plus_sign,,,49,,,1,,,,,,,0.9230769230769231,,,,,,,,,,,,
null,,color_black3,861529,,,,,,,,black_plus_sign,,,null,,,,,,,,,,,,,,,,,,,,,,
null,,learn_phase(without_color)3,865047,,,,,,,,black_plus_sign,,,null,object_01c.png,object_09c.png,,,,,,,,,,,,,,,,,,,,
null,,black_cross(without_color)3,866077,,,,,,,,blue,,,null,object_01c.png,object_09c.png,,,,,,,,,,,,,,,,,,,,
null,,rt_plussign_withcolor3,866598,,,,,,,,blue,,,null,object_01c.png,object_09c.png,,,,,,,,,,,,,,,,,,,,
1247.7999999970198,,rt_thecrossant_black3,867599,,,,,,,,black_plus_sign,,,49,,,1,,,,,,,0.9285714285714286,,,,,,,,,,,,
null,,color_black3,867711,,,,,,,,black_plus_sign,,,null,,,,,,,,,,,,,,,,,,,,,,
null,,learn_phase(without_color)3,871231,,,,,,,,black_plus_sign,,,null,object_05c.png,object_13c.png,,,,,,,,,,,,,,,,,,,,
null,,black_cross(without_color)3,872052,,,,,,,,blue,,,null,object_05c.png,object_13c.png,,,,,,,,,,,,,,,,,,,,
null,,rt_plussign_withcolor3,872565,,,,,,,,blue,,,null,object_05c.png,object_13c.png,,,,,,,,,,,,,,,,,,,,
1723.7999999970198,,rt_thecrossant_black3,873763,,,,,,,,black_plus_sign,,,49,,,1,,,,,,,0.9333333333333333,,,,,,,,,,,,
null,,color_black3,873879,,,,,,,,black_plus_sign,,,null,,,,,,,,,,,,,,,,,,,,,,
null,,learn_phase(without_color)3,877395,,,,,,,,black_plus_sign,,,null,object_02b.png,object_08c.png,,,,,,,,,,,,,,,,,,,,
null,,black_cross(without_color)3,878495,,,,,,,,green,,,null,object_02b.png,object_08c.png,,,,,,,,,,,,,,,,,,,,
null,,rt_plussign_withcolor3,879015,,,,,,,,green,,,null,object_02b.png,object_08c.png,,,,,,,,,,,,,,,,,,,,
1156.8999999985099,,rt_thecrossant_black3,879939,,,,,,,,black_plus_sign,,,50,,,1,,,,,,,0.9375,,,,,,,,,,,,
null,,color_black3,880044,,,,,,,,black_plus_sign,,,null,,,,,,,,,,,,,,,,,,,,,,
null,,learn_phase(without_color)3,883557,,,,,,,,black_plus_sign,,,null,object_03b.png,object_15c.png,,,,,,,,,,,,,,,,,,,,
null,,black_cross(without_color)3,884113,,,,,,,,blue,,,null,object_03b.png,object_15c.png,,,,,,,,,,,,,,,,,,,,
null,,rt_plussign_withcolor3,884631,,,,,,,,blue,,,null,object_03b.png,object_15c.png,,,,,,,,,,,,,,,,,,,,
1383.8999999985099,,rt_thecrossant_black3,886113,,,,,,,,black_plus_sign,,,49,,,1,,,,,,,0.9411764705882353,,,,,,,,,,,,
null,,color_black3,886227,,,,,,,,black_plus_sign,,,null,,,,,,,,,,,,,,,,,,,,,,
null,,learn_phase(without_color)3,889748,,,,,,,,black_plus_sign,,,null,object_15c.png,object_06a.png,,,,,,,,,,,,,,,,,,,,
null,,black_cross(without_color)3,890586,,,,,,,,green,,,null,object_15c.png,object_06a.png,,,,,,,,,,,,,,,,,,,,
null,,rt_plussign_withcolor3,891098,,,,,,,,green,,,null,object_15c.png,object_06a.png,,,,,,,,,,,,,,,,,,,,
1009.6000000014901,,rt_thecrossant_black3,892284,,,,,,,,black_plus_sign,,,50,,,1,,,,,,,0.9444444444444444,,,,,,,,,,,,
null,,color_black3,892394,,,,,,,,black_plus_sign,,,null,,,,,,,,,,,,,,,,,,,,,,
null,,learn_phase(without_color)3,895913,,,,,,,,black_plus_sign,,,null,object_12c.png,object_11b.png,,,,,,,,,,,,,,,,,,,,
null,,black_cross(without_color)3,896719,,,,,,,,green,,,null,object_12c.png,object_11b.png,,,,,,,,,,,,,,,,,,,,
null,,rt_plussign_withcolor3,897229,,,,,,,,green,,,null,object_12c.png,object_11b.png,,,,,,,,,,,,,,,,,,,,
1847.1999999955297,,rt_thecrossant_black3,898453,,,,,,,,black_plus_sign,,,50,,,1,,,,,,,0.9473684210526315,,,,,,,,,,,,
null,,color_black3,898561,,,,,,,,black_plus_sign,,,null,,,,,,,,,,,,,,,,,,,,,,
null,,learn_phase(without_color)3,902077,,,,,,,,black_plus_sign,,,null,object_15b.png,object_05a.png,,,,,,,,,,,,,,,,,,,,
null,,black_cross(without_color)3,902549,,,,,,,,blue,,,null,object_15b.png,object_05a.png,,,,,,,,,,,,,,,,,,,,
null,,rt_plussign_withcolor3,903065,,,,,,,,blue,,,null,object_15b.png,object_05a.png,,,,,,,,,,,,,,,,,,,,
1292.1000000014901,,rt_thecrossant_black3,904619,,,,,,,,black_plus_sign,,,49,,,1,,,,,,,0.95,,,,,,,,,,,,
null,,color_black3,904725,,,,,,,,black_plus_sign,,,null,,,,,,,,,,,,,,,,,,,,,,
null,,learn_phase(without_color)3,908234,,,,,,,,black_plus_sign,,,null,object_15a.png,object_10c.png,,,,,,,,,,,,,,,,,,,,
null,,black_cross(without_color)3,909228,,,,,,,,blue,,,null,object_15a.png,object_10c.png,,,,,,,,,,,,,,,,,,,,
null,,rt_plussign_withcolor3,909750,,,,,,,,blue,,,null,object_15a.png,object_10c.png,,,,,,,,,,,,,,,,,,,,
971.6999999955297,,rt_thecrossant_black3,910773,,,,,,,,black_plus_sign,,,49,,,1,,,,,,,0.9523809523809523,,,,,,,,,,,,
null,,color_black3,910882,,,,,,,,black_plus_sign,,,null,,,,,,,,,,,,,,,,,,,,,,
null,,learn_phase(without_color)3,914401,,,,,,,,black_plus_sign,,,null,object_13c.png,object_02c.png,,,,,,,,,,,,,,,,,,,,
null,,black_cross(without_color)3,914994,,,,,,,,green,,,null,object_13c.png,object_02c.png,,,,,,,,,,,,,,,,,,,,
null,,rt_plussign_withcolor3,915512,,,,,,,,green,,,null,object_13c.png,object_02c.png,,,,,,,,,,,,,,,,,,,,
1627.6000000014901,,rt_thecrossant_black3,916947,,,,,,,,black_plus_sign,,,50,,,1,,,,,,,0.9545454545454546,,,,,,,,,,,,
null,,color_black3,917060,,,,,,,,black_plus_sign,,,null,,,,,,,,,,,,,,,,,,,,,,
null,,learn_phase(without_color)3,920574,,,,,,,,black_plus_sign,,,null,object_05b.png,object_07a.png,,,,,,,,,,,,,,,,,,,,
null,,black_cross(without_color)3,921577,,,,,,,,blue,,,null,object_05b.png,object_07a.png,,,,,,,,,,,,,,,,,,,,
null,,rt_plussign_withcolor3,922082,,,,,,,,blue,,,null,object_05b.png,object_07a.png,,,,,,,,,,,,,,,,,,,,
1008.3000000044703,,rt_thecrossant_black3,923101,,,,,,,,black_plus_sign,,,49,,,1,,,,,,,0.9565217391304348,,,,,,,,,,,,
null,,color_black3,923211,,,,,,,,black_plus_sign,,,null,,,,,,,,,,,,,,,,,,,,,,
null,,learn_phase(without_color)3,926726,,,,,,,,black_plus_sign,,,null,object_11b.png,object_12b.png,,,,,,,,,,,,,,,,,,,,
null,,black_cross(without_color)3,927425,,,,,,,,blue,,,null,object_11b.png,object_12b.png,,,,,,,,,,,,,,,,,,,,
null,,rt_plussign_withcolor3,927930,,,,,,,,blue,,,null,object_11b.png,object_12b.png,,,,,,,,,,,,,,,,,,,,
1559.3000000044703,,rt_thecrossant_black3,929258,,,,,,,,black_plus_sign,,,49,,,1,,,,,,,0.9583333333333334,,,,,,,,,,,,
null,,color_black3,929378,,,,,,,,black_plus_sign,,,null,,,,,,,,,,,,,,,,,,,,,,
null,,learn_phase(without_color)3,932890,,,,,,,,black_plus_sign,,,null,object_05a.png,object_11c.png,,,,,,,,,,,,,,,,,,,,
null,,black_cross(without_color)3,933842,,,,,,,,blue,,,null,object_05a.png,object_11c.png,,,,,,,,,,,,,,,,,,,,
null,,rt_plussign_withcolor3,934347,,,,,,,,blue,,,null,object_05a.png,object_11c.png,,,,,,,,,,,,,,,,,,,,
1194.3999999985099,,rt_thecrossant_black3,935420,,,,,,,,black_plus_sign,,,49,,,1,,,,,,,0.96,,,,,,,,,,,,
null,,color_black3,935526,,,,,,,,black_plus_sign,,,null,,,,,,,,,,,,,,,,,,,,,,
null,,learn_phase(without_color)3,939040,,,,,,,,black_plus_sign,,,null,object_11a.png,object_08a.png,,,,,,,,,,,,,,,,,,,,
null,,black_cross(without_color)3,939705,,,,,,,,green,,,null,object_11a.png,object_08a.png,,,,,,,,,,,,,,,,,,,,
null,,rt_plussign_withcolor3,940210,,,,,,,,green,,,null,object_11a.png,object_08a.png,,,,,,,,,,,,,,,,,,,,
1303.3999999985099,,rt_thecrossant_black3,941571,,,,,,,,black_plus_sign,,,50,,,1,,,,,,,0.9615384615384616,,,,,,,,,,,,
null,,color_black3,941676,,,,,,,,black_plus_sign,,,null,,,,,,,,,,,,,,,,,,,,,,
null,,learn_phase(without_color)3,945193,,,,,,,,black_plus_sign,,,null,object_14a.png,object_13a.png,,,,,,,,,,,,,,,,,,,,
null,,black_cross(without_color)3,946272,,,,,,,,green,,,null,object_14a.png,object_13a.png,,,,,,,,,,,,,,,,,,,,
null,,rt_plussign_withcolor3,946779,,,,,,,,green,,,null,object_14a.png,object_13a.png,,,,,,,,,,,,,,,,,,,,
812.1000000014901,,rt_thecrossant_black3,947729,,,,,,,,black_plus_sign,,,50,,,1,,,,,,,0.9629629629629629,,,,,,,,,,,,
null,,color_black3,947843,,,,,,,,black_plus_sign,,,null,,,,,,,,,,,,,,,,,,,,,,
null,,learn_phase(without_color)3,951358,,,,,,,,black_plus_sign,,,null,object_04a.png,object_06b.png,,,,,,,,,,,,,,,,,,,,
null,,black_cross(without_color)3,952000,,,,,,,,green,,,null,object_04a.png,object_06b.png,,,,,,,,,,,,,,,,,,,,
null,,rt_plussign_withcolor3,952513,,,,,,,,green,,,null,object_04a.png,object_06b.png,,,,,,,,,,,,,,,,,,,,
1611.5999999940395,,rt_thecrossant_black3,953892,,,,,,,,black_plus_sign,,,50,,,1,,,,,,,0.9642857142857143,,,,,,,,,,,,
null,,color_black3,954011,,,,,,,,black_plus_sign,,,null,,,,,,,,,,,,,,,,,,,,,,
null,,learn_phase(without_color)3,957528,,,,,,,,black_plus_sign,,,null,object_13a.png,object_07b.png,,,,,,,,,,,,,,,,,,,,
null,,black_cross(without_color)3,958139,,,,,,,,green,,,null,object_13a.png,object_07b.png,,,,,,,,,,,,,,,,,,,,
null,,rt_plussign_withcolor3,958643,,,,,,,,green,,,null,object_13a.png,object_07b.png,,,,,,,,,,,,,,,,,,,,
846.1000000014901,,rt_thecrossant_black3,960062,,,,,,,,black_plus_sign,,,50,,,1,,,,,,,0.9655172413793104,,,,,,,,,,,,
null,,color_black3,960175,,,,,,,,black_plus_sign,,,null,,,,,,,,,,,,,,,,,,,,,,
null,,learn_phase(without_color)3,963689,,,,,,,,black_plus_sign,,,null,object_12a.png,object_04b.png,,,,,,,,,,,,,,,,,,,,
null,,black_cross(without_color)3,964211,,,,,,,,blue,,,null,object_12a.png,object_04b.png,,,,,,,,,,,,,,,,,,,,
null,,rt_plussign_withcolor3,964727,,,,,,,,blue,,,null,object_12a.png,object_04b.png,,,,,,,,,,,,,,,,,,,,
757.7999999970198,,rt_thecrossant_black3,966238,,,,,,,,black_plus_sign,,,49,,,1,,,,,,,0.9666666666666667,,,,,,,,,,,,
null,,color_black3,966342,,,,,,,,black_plus_sign,,,null,,,,,,,,,,,,,,,,,,,,,,
null,,thebreak,966458,,,,,,,,<p></p>,,,null,,,,,,,,,,,,,,,,,,,,,,
1682,,intro_0,968141,,,,,,,,instruct,,,32,,,,,,,,,,,,,,,,,,,,,,
2234.5,,directmemory_phase3,970376,,,,,,,,object_09b.png,,,50,,,0,,object_11b.png,object_08c.png,object_01a.png,object_01a.png,,0.6557377049180327,0,,,,,,,,,,,
1486.7000000029802,,directmemory_phase3,971865,,,,,,,,object_02c.png,,,50,,,1,,object_01a.png,object_13c.png,object_15c.png,object_13c.png,,0.6612903225806451,1,,,,,,,,,,,
1626.5,,directmemory_phase3,973493,,,,,,,,object_12b.png,,,49,,,1,,object_11b.png,object_15c.png,object_01c.png,object_11b.png,,0.6666666666666666,1,,,,,,,,,,,
1824.7999999970198,,directmemory_phase3,975320,,,,,,,,object_13a.png,,,50,,,1,,object_01b.png,object_14a.png,object_10b.png,object_14a.png,,0.671875,1,,,,,,,,,,,
1480.6000000014901,,directmemory_phase3,976802,,,,,,,,object_07a.png,,,51,,,1,,object_04a.png,object_15a.png,object_05b.png,object_05b.png,,0.676923076923077,1,,,,,,,,,,,
2391.7000000029802,,directmemory_phase3,979195,,,,,,,,object_14c.png,,,49,,,1,,object_04c.png,object_13a.png,object_06c.png,object_04c.png,,0.6818181818181818,1,,,,,,,,,,,
2620.9000000059605,,directmemory_phase3,981818,,,,,,,,object_15a.png,,,49,,,1,,object_13b.png,object_08b.png,object_15b.png,object_13b.png,,0.6865671641791045,1,,,,,,,,,,,
2093,,directmemory_phase3,983912,,,,,,,,object_06a.png,,,51,,,1,,object_11b.png,object_13a.png,object_15c.png,object_15c.png,,0.6911764705882353,1,,,,,,,,,,,
2505,,directmemory_phase3,986419,,,,,,,,object_04a.png,,,51,,,0,,object_03c.png,object_10b.png,object_03a.png,object_03c.png,,0.6811594202898551,0,,,,,,,,,,,
2835.89999999851,,directmemory_phase3,989257,,,,,,,,object_10a.png,,,51,,,0,,object_13c.png,object_08c.png,object_11b.png,object_08c.png,,0.6714285714285714,0,,,,,,,,,,,
2760.1999999955297,,directmemory_phase3,992018,,,,,,,,object_09c.png,,,49,,,1,,object_01c.png,object_05b.png,object_01a.png,object_01c.png,,0.676056338028169,1,,,,,,,,,,,
1597.5,,directmemory_phase3,993617,,,,,,,,object_06c.png,,,49,,,1,,object_02a.png,object_14a.png,object_03c.png,object_02a.png,,0.6805555555555556,1,,,,,,,,,,,
1958.2000000029802,,directmemory_phase3,995577,,,,,,,,object_15c.png,,,49,,,1,,object_03b.png,object_02a.png,object_13b.png,object_03b.png,,0.684931506849315,1,,,,,,,,,,,
3083.2999999970198,,directmemory_phase3,998663,,,,,,,,object_05b.png,,,50,,,1,,object_15b.png,object_10b.png,object_13b.png,object_10b.png,,0.6891891891891891,1,,,,,,,,,,,
1725.2000000029802,,directmemory_phase3,1000389,,,,,,,,object_11c.png,,,50,,,1,,object_01a.png,object_05a.png,object_08c.png,object_05a.png,,0.6933333333333334,1,,,,,,,,,,,
2505.89999999851,,directmemory_phase3,1002897,,,,,,,,object_09a.png,,,49,,,1,,object_06c.png,object_11b.png,object_01a.png,object_06c.png,,0.6973684210526315,1,,,,,,,,,,,
1219.2000000029802,,directmemory_phase3,1004118,,,,,,,,object_10c.png,,,50,,,1,,object_05b.png,object_15a.png,object_13a.png,object_15a.png,,0.7012987012987013,1,,,,,,,,,,,
1537.2000000029802,,directmemory_phase3,1005657,,,,,,,,object_07c.png,,,49,,,1,,object_04b.png,object_15a.png,object_13a.png,object_04b.png,,0.7051282051282052,1,,,,,,,,,,,
2656.5,,directmemory_phase3,1008315,,,,,,,,object_11b.png,,,51,,,0,,object_12c.png,object_02a.png,object_14a.png,object_12c.png,,0.6962025316455697,0,,,,,,,,,,,
2539.5,,directmemory_phase3,1010856,,,,,,,,object_08c.png,,,51,,,0,,object_02b.png,object_03b.png,object_02a.png,object_02b.png,,0.6875,0,,,,,,,,,,,
1723.2000000029802,,directmemory_phase3,1012581,,,,,,,,object_06b.png,,,51,,,1,,object_06c.png,object_04b.png,object_04a.png,object_04a.png,,0.691358024691358,1,,,,,,,,,,,
1589.8999999985099,,directmemory_phase3,1014172,,,,,,,,object_07b.png,,,50,,,1,,object_01c.png,object_13a.png,object_11b.png,object_13a.png,,0.6951219512195121,1,,,,,,,,,,,
1796.1000000014901,,directmemory_phase3,1015970,,,,,,,,object_14b.png,,,50,,,1,,object_04b.png,object_08a.png,object_01c.png,object_08a.png,,0.6987951807228916,1,,,,,,,,,,,
1598.3999999985099,,directmemory_phase3,1017570,,,,,,,,object_01c.png,,,50,,,1,,object_15b.png,object_03a.png,object_02b.png,object_03a.png,,0.7023809523809523,1,,,,,,,,,,,
2040.7999999970198,,directmemory_phase3,1019612,,,,,,,,object_04c.png,,,49,,,0,,object_05c.png,object_03a.png,object_01b.png,object_01b.png,,0.6941176470588235,0,,,,,,,,,,,
2036.3999999985099,,directmemory_phase3,1021650,,,,,,,,object_08a.png,,,50,,,1,,object_05c.png,object_11a.png,object_02b.png,object_11a.png,,0.6976744186046512,1,,,,,,,,,,,
2330.0999999940395,,directmemory_phase3,1023982,,,,,,,,object_13c.png,,,51,,,0,,object_05c.png,object_01b.png,object_03c.png,object_05c.png,,0.6896551724137931,0,,,,,,,,,,,
2046.3000000044703,,directmemory_phase3,1026031,,,,,,,,object_01a.png,,,49,,,0,,object_01b.png,object_08b.png,object_02b.png,object_08b.png,,0.6818181818181818,0,,,,,,,,,,,
1585.5,,directmemory_phase3,1027618,,,,,,,,object_04b.png,,,50,,,1,,object_03b.png,object_12a.png,object_08b.png,object_12a.png,,0.6853932584269663,1,,,,,,,,,,,
1756.1000000014901,,directmemory_phase3,1029375,,,,,,,,object_05a.png,,,51,,,1,,object_03a.png,object_02a.png,object_15b.png,object_15b.png,,0.6888888888888889,1,,,,,,,,,,,
null,,thebreak,1029489,,,,,,,,<p></p>,,,null,,,,,,,,,,,,,,,,,,,,,,
1715.5999999940395,,intro_0,1031206,,,,,,,,instruct,,,32,,,,,,,,,,,,,,,,,,,,,,
null,,learn_phase(without_color)4,1034711,,,,,,,,black_plus_sign,,,null,object_01b.png,object_04c.png,,,,,,,,,,,,,,,,,,,,
null,,black_cross(without_color)4,1035467,,,,,,,,green,,,null,object_01b.png,object_04c.png,,,,,,,,,,,,,,,,,,,,
null,,rt_plussign_withcolor4,1035977,,,,,,,,green,,,null,object_01b.png,object_04c.png,,,,,,,,,,,,,,,,,,,,
1278.3000000044703,,rt_thecrossant_black4,1037245,,,,,,,,black_plus_sign,,,50,,,1,,,,,,,1,,,,,,,,,,,,
null,,color_black4,1037357,,,,,,,,black_plus_sign,,,null,,,,,,,,,,,,,,,,,,,,,,
null,,learn_phase(without_color)4,1040874,,,,,,,,black_plus_sign,,,null,object_11b.png,object_12b.png,,,,,,,,,,,,,,,,,,,,
null,,black_cross(without_color)4,1041876,,,,,,,,blue,,,null,object_11b.png,object_12b.png,,,,,,,,,,,,,,,,,,,,
null,,rt_plussign_withcolor4,1042393,,,,,,,,blue,,,null,object_11b.png,object_12b.png,,,,,,,,,,,,,,,,,,,,
1199,,rt_thecrossant_black4,1043415,,,,,,,,black_plus_sign,,,49,,,1,,,,,,,1,,,,,,,,,,,,
null,,color_black4,1043525,,,,,,,,black_plus_sign,,,null,,,,,,,,,,,,,,,,,,,,,,
null,,learn_phase(without_color)4,1047041,,,,,,,,black_plus_sign,,,null,object_12c.png,object_11b.png,,,,,,,,,,,,,,,,,,,,
null,,black_cross(without_color)4,1047801,,,,,,,,blue,,,null,object_12c.png,object_11b.png,,,,,,,,,,,,,,,,,,,,
null,,rt_plussign_withcolor4,1048310,,,,,,,,blue,,,null,object_12c.png,object_11b.png,,,,,,,,,,,,,,,,,,,,
1328,,rt_thecrossant_black4,1049575,,,,,,,,black_plus_sign,,,49,,,1,,,,,,,1,,,,,,,,,,,,
null,,color_black4,1049690,,,,,,,,black_plus_sign,,,null,,,,,,,,,,,,,,,,,,,,,,
null,,learn_phase(without_color)4,1053204,,,,,,,,black_plus_sign,,,null,object_05a.png,object_11c.png,,,,,,,,,,,,,,,,,,,,
null,,black_cross(without_color)4,1054255,,,,,,,,blue,,,null,object_05a.png,object_11c.png,,,,,,,,,,,,,,,,,,,,
null,,rt_plussign_withcolor4,1054762,,,,,,,,blue,,,null,object_05a.png,object_11c.png,,,,,,,,,,,,,,,,,,,,
969.6999999955297,,rt_thecrossant_black4,1055728,,,,,,,,black_plus_sign,,,49,,,1,,,,,,,1,,,,,,,,,,,,
null,,color_black4,1055839,,,,,,,,black_plus_sign,,,null,,,,,,,,,,,,,,,,,,,,,,
null,,learn_phase(without_color)4,1059357,,,,,,,,black_plus_sign,,,null,object_14a.png,object_13a.png,,,,,,,,,,,,,,,,,,,,
null,,black_cross(without_color)4,1060372,,,,,,,,blue,,,null,object_14a.png,object_13a.png,,,,,,,,,,,,,,,,,,,,
null,,rt_plussign_withcolor4,1060877,,,,,,,,blue,,,null,object_14a.png,object_13a.png,,,,,,,,,,,,,,,,,,,,
1385.6999999955297,,rt_thecrossant_black4,1061880,,,,,,,,black_plus_sign,,,49,,,1,,,,,,,1,,,,,,,,,,,,
null,,color_black4,1061989,,,,,,,,black_plus_sign,,,null,,,,,,,,,,,,,,,,,,,,,,
null,,learn_phase(without_color)4,1065506,,,,,,,,black_plus_sign,,,null,object_01a.png,object_09b.png,,,,,,,,,,,,,,,,,,,,
null,,black_cross(without_color)4,1066540,,,,,,,,green,,,null,object_01a.png,object_09b.png,,,,,,,,,,,,,,,,,,,,
null,,rt_plussign_withcolor4,1067057,,,,,,,,green,,,null,object_01a.png,object_09b.png,,,,,,,,,,,,,,,,,,,,
1404.2000000029802,,rt_thecrossant_black4,1068050,,,,,,,,black_plus_sign,,,50,,,1,,,,,,,1,,,,,,,,,,,,
null,,color_black4,1068156,,,,,,,,black_plus_sign,,,null,,,,,,,,,,,,,,,,,,,,,,
null,,learn_phase(without_color)4,1071670,,,,,,,,black_plus_sign,,,null,object_15c.png,object_06a.png,,,,,,,,,,,,,,,,,,,,
null,,black_cross(without_color)4,1072622,,,,,,,,blue,,,null,object_15c.png,object_06a.png,,,,,,,,,,,,,,,,,,,,
null,,rt_plussign_withcolor4,1073127,,,,,,,,blue,,,null,object_15c.png,object_06a.png,,,,,,,,,,,,,,,,,,,,
1329.6000000014901,,rt_thecrossant_black4,1074196,,,,,,,,black_plus_sign,,,49,,,1,,,,,,,1,,,,,,,,,,,,
null,,color_black4,1074305,,,,,,,,black_plus_sign,,,null,,,,,,,,,,,,,,,,,,,,,,
null,,learn_phase(without_color)4,1077818,,,,,,,,black_plus_sign,,,null,object_08a.png,object_14b.png,,,,,,,,,,,,,,,,,,,,
null,,black_cross(without_color)4,1078820,,,,,,,,blue,,,null,object_08a.png,object_14b.png,,,,,,,,,,,,,,,,,,,,
null,,rt_plussign_withcolor4,1079341,,,,,,,,blue,,,null,object_08a.png,object_14b.png,,,,,,,,,,,,,,,,,,,,
1567.5,,rt_thecrossant_black4,1080354,,,,,,,,black_plus_sign,,,49,,,1,,,,,,,1,,,,,,,,,,,,
null,,color_black4,1080471,,,,,,,,black_plus_sign,,,null,,,,,,,,,,,,,,,,,,,,,,
null,,learn_phase(without_color)4,1083990,,,,,,,,black_plus_sign,,,null,object_03b.png,object_15c.png,,,,,,,,,,,,,,,,,,,,
null,,black_cross(without_color)4,1084925,,,,,,,,green,,,null,object_03b.png,object_15c.png,,,,,,,,,,,,,,,,,,,,
null,,rt_plussign_withcolor4,1085445,,,,,,,,green,,,null,object_03b.png,object_15c.png,,,,,,,,,,,,,,,,,,,,
1680.6000000014901,,rt_thecrossant_black4,1086540,,,,,,,,black_plus_sign,,,50,,,1,,,,,,,1,,,,,,,,,,,,
null,,color_black4,1086657,,,,,,,,black_plus_sign,,,null,,,,,,,,,,,,,,,,,,,,,,
null,,learn_phase(without_color)4,1090177,,,,,,,,black_plus_sign,,,null,object_15b.png,object_05a.png,,,,,,,,,,,,,,,,,,,,
null,,black_cross(without_color)4,1091092,,,,,,,,blue,,,null,object_15b.png,object_05a.png,,,,,,,,,,,,,,,,,,,,
null,,rt_plussign_withcolor4,1091608,,,,,,,,blue,,,null,object_15b.png,object_05a.png,,,,,,,,,,,,,,,,,,,,
1257.4000000059605,,rt_thecrossant_black4,1092709,,,,,,,,black_plus_sign,,,49,,,1,,,,,,,1,,,,,,,,,,,,
null,,color_black4,1092823,,,,,,,,black_plus_sign,,,null,,,,,,,,,,,,,,,,,,,,,,
null,,learn_phase(without_color)4,1096339,,,,,,,,black_plus_sign,,,null,object_10b.png,object_05b.png,,,,,,,,,,,,,,,,,,,,
null,,black_cross(without_color)4,1097018,,,,,,,,blue,,,null,object_10b.png,object_05b.png,,,,,,,,,,,,,,,,,,,,
null,,rt_plussign_withcolor4,1097526,,,,,,,,blue,,,null,object_10b.png,object_05b.png,,,,,,,,,,,,,,,,,,,,
1246.1000000014901,,rt_thecrossant_black4,1098867,,,,,,,,black_plus_sign,,,49,,,1,,,,,,,1,,,,,,,,,,,,
null,,color_black4,1098971,,,,,,,,black_plus_sign,,,null,,,,,,,,,,,,,,,,,,,,,,
null,,learn_phase(without_color)4,1102487,,,,,,,,black_plus_sign,,,null,object_12a.png,object_04b.png,,,,,,,,,,,,,,,,,,,,
null,,black_cross(without_color)4,1103394,,,,,,,,blue,,,null,object_12a.png,object_04b.png,,,,,,,,,,,,,,,,,,,,
null,,rt_plussign_withcolor4,1103909,,,,,,,,blue,,,null,object_12a.png,object_04b.png,,,,,,,,,,,,,,,,,,,,
857.7000000029802,,rt_thecrossant_black4,1105019,,,,,,,,black_plus_sign,,,49,,,1,,,,,,,1,,,,,,,,,,,,
null,,color_black4,1105137,,,,,,,,black_plus_sign,,,null,,,,,,,,,,,,,,,,,,,,,,
null,,learn_phase(without_color)4,1108647,,,,,,,,black_plus_sign,,,null,object_04c.png,object_14c.png,,,,,,,,,,,,,,,,,,,,
null,,black_cross(without_color)4,1109623,,,,,,,,green,,,null,object_04c.png,object_14c.png,,,,,,,,,,,,,,,,,,,,
null,,rt_plussign_withcolor4,1110141,,,,,,,,green,,,null,object_04c.png,object_14c.png,,,,,,,,,,,,,,,,,,,,
1320.6999999955297,,rt_thecrossant_black4,1111198,,,,,,,,black_plus_sign,,,50,,,1,,,,,,,1,,,,,,,,,,,,
null,,color_black4,1111305,,,,,,,,black_plus_sign,,,null,,,,,,,,,,,,,,,,,,,,,,
null,,learn_phase(without_color)4,1114822,,,,,,,,black_plus_sign,,,null,object_13b.png,object_15a.png,,,,,,,,,,,,,,,,,,,,
null,,black_cross(without_color)4,1115549,,,,,,,,green,,,null,object_13b.png,object_15a.png,,,,,,,,,,,,,,,,,,,,
null,,rt_plussign_withcolor4,1116059,,,,,,,,green,,,null,object_13b.png,object_15a.png,,,,,,,,,,,,,,,,,,,,
1329.7000000029802,,rt_thecrossant_black4,1117355,,,,,,,,black_plus_sign,,,50,,,1,,,,,,,1,,,,,,,,,,,,
null,,color_black4,1117474,,,,,,,,black_plus_sign,,,null,,,,,,,,,,,,,,,,,,,,,,
null,,learn_phase(without_color)4,1120985,,,,,,,,black_plus_sign,,,null,object_04a.png,object_06b.png,,,,,,,,,,,,,,,,,,,,
null,,black_cross(without_color)4,1122067,,,,,,,,green,,,null,object_04a.png,object_06b.png,,,,,,,,,,,,,,,,,,,,
null,,rt_plussign_withcolor4,1122573,,,,,,,,green,,,null,object_04a.png,object_06b.png,,,,,,,,,,,,,,,,,,,,
1208.2000000029802,,rt_thecrossant_black4,1123518,,,,,,,,black_plus_sign,,,50,,,1,,,,,,,1,,,,,,,,,,,,
null,,color_black4,1123624,,,,,,,,black_plus_sign,,,null,,,,,,,,,,,,,,,,,,,,,,
null,,learn_phase(without_color)4,1127134,,,,,,,,black_plus_sign,,,null,object_05c.png,object_13c.png,,,,,,,,,,,,,,,,,,,,
null,,black_cross(without_color)4,1127932,,,,,,,,blue,,,null,object_05c.png,object_13c.png,,,,,,,,,,,,,,,,,,,,
null,,rt_plussign_withcolor4,1128441,,,,,,,,blue,,,null,object_05c.png,object_13c.png,,,,,,,,,,,,,,,,,,,,
1667.3999999985099,,rt_thecrossant_black4,1129663,,,,,,,,black_plus_sign,,,49,,,1,,,,,,,1,,,,,,,,,,,,
null,,color_black4,1129771,,,,,,,,black_plus_sign,,,null,,,,,,,,,,,,,,,,,,,,,,
null,,learn_phase(without_color)4,1133288,,,,,,,,black_plus_sign,,,null,object_06c.png,object_09a.png,,,,,,,,,,,,,,,,,,,,
null,,black_cross(without_color)4,1134271,,,,,,,,green,,,null,object_06c.png,object_09a.png,,,,,,,,,,,,,,,,,,,,
null,,rt_plussign_withcolor4,1134791,,,,,,,,green,,,null,object_06c.png,object_09a.png,,,,,,,,,,,,,,,,,,,,
1307,,rt_thecrossant_black4,1135849,,,,,,,,black_plus_sign,,,50,,,1,,,,,,,1,,,,,,,,,,,,
null,,color_black4,1135954,,,,,,,,black_plus_sign,,,null,,,,,,,,,,,,,,,,,,,,,,
null,,learn_phase(without_color)4,1139473,,,,,,,,black_plus_sign,,,null,object_11a.png,object_08a.png,,,,,,,,,,,,,,,,,,,,
null,,black_cross(without_color)4,1139911,,,,,,,,green,,,null,object_11a.png,object_08a.png,,,,,,,,,,,,,,,,,,,,
null,,rt_plussign_withcolor4,1140425,,,,,,,,green,,,null,object_11a.png,object_08a.png,,,,,,,,,,,,,,,,,,,,
1801.3000000044703,,rt_thecrossant_black4,1142026,,,,,,,,black_plus_sign,,,50,,,1,,,,,,,1,,,,,,,,,,,,
null,,color_black4,1142137,,,,,,,,black_plus_sign,,,null,,,,,,,,,,,,,,,,,,,,,,
null,,learn_phase(without_color)4,1145644,,,,,,,,black_plus_sign,,,null,object_05b.png,object_07a.png,,,,,,,,,,,,,,,,,,,,
null,,black_cross(without_color)4,1146430,,,,,,,,blue,,,null,object_05b.png,object_07a.png,,,,,,,,,,,,,,,,,,,,
null,,rt_plussign_withcolor4,1146941,,,,,,,,blue,,,null,object_05b.png,object_07a.png,,,,,,,,,,,,,,,,,,,,
1217.5,,rt_thecrossant_black4,1148171,,,,,,,,black_plus_sign,,,49,,,1,,,,,,,1,,,,,,,,,,,,
null,,color_black4,1148287,,,,,,,,black_plus_sign,,,null,,,,,,,,,,,,,,,,,,,,,,
null,,learn_phase(without_color)4,1151806,,,,,,,,black_plus_sign,,,null,object_13a.png,object_07b.png,,,,,,,,,,,,,,,,,,,,
null,,black_cross(without_color)4,1152470,,,,,,,,blue,,,null,object_13a.png,object_07b.png,,,,,,,,,,,,,,,,,,,,
null,,rt_plussign_withcolor4,1152975,,,,,,,,blue,,,null,object_13a.png,object_07b.png,,,,,,,,,,,,,,,,,,,,
1192.1000000014901,,rt_thecrossant_black4,1154349,,,,,,,,black_plus_sign,,,49,,,1,,,,,,,1,,,,,,,,,,,,
null,,color_black4,1154453,,,,,,,,black_plus_sign,,,null,,,,,,,,,,,,,,,,,,,,,,
null,,learn_phase(without_color)4,1157975,,,,,,,,black_plus_sign,,,null,object_15a.png,object_10c.png,,,,,,,,,,,,,,,,,,,,
null,,black_cross(without_color)4,1158666,,,,,,,,blue,,,null,object_15a.png,object_10c.png,,,,,,,,,,,,,,,,,,,,
null,,rt_plussign_withcolor4,1159174,,,,,,,,blue,,,null,object_15a.png,object_10c.png,,,,,,,,,,,,,,,,,,,,
1122.2999999970198,,rt_thecrossant_black4,1160504,,,,,,,,black_plus_sign,,,49,,,1,,,,,,,1,,,,,,,,,,,,
null,,color_black4,1160620,,,,,,,,black_plus_sign,,,null,,,,,,,,,,,,,,,,,,,,,,
null,,learn_phase(without_color)4,1164139,,,,,,,,black_plus_sign,,,null,object_04b.png,object_07c.png,,,,,,,,,,,,,,,,,,,,
null,,black_cross(without_color)4,1164977,,,,,,,,green,,,null,object_04b.png,object_07c.png,,,,,,,,,,,,,,,,,,,,
null,,rt_plussign_withcolor4,1165487,,,,,,,,green,,,null,object_04b.png,object_07c.png,,,,,,,,,,,,,,,,,,,,
892.1000000014901,,rt_thecrossant_black4,1166664,,,,,,,,black_plus_sign,,,50,,,1,,,,,,,1,,,,,,,,,,,,
null,,color_black4,1166773,,,,,,,,black_plus_sign,,,null,,,,,,,,,,,,,,,,,,,,,,
null,,learn_phase(without_color)4,1170288,,,,,,,,black_plus_sign,,,null,object_02a.png,object_06c.png,,,,,,,,,,,,,,,,,,,,
null,,black_cross(without_color)4,1171077,,,,,,,,blue,,,null,object_02a.png,object_06c.png,,,,,,,,,,,,,,,,,,,,
null,,rt_plussign_withcolor4,1171590,,,,,,,,blue,,,null,object_02a.png,object_06c.png,,,,,,,,,,,,,,,,,,,,
1110.2000000029802,,rt_thecrossant_black4,1172816,,,,,,,,black_plus_sign,,,49,,,1,,,,,,,1,,,,,,,,,,,,
null,,color_black4,1172918,,,,,,,,black_plus_sign,,,null,,,,,,,,,,,,,,,,,,,,,,
null,,learn_phase(without_color)4,1176436,,,,,,,,black_plus_sign,,,null,object_01c.png,object_09c.png,,,,,,,,,,,,,,,,,,,,
null,,black_cross(without_color)4,1176909,,,,,,,,blue,,,null,object_01c.png,object_09c.png,,,,,,,,,,,,,,,,,,,,
null,,rt_plussign_withcolor4,1177423,,,,,,,,blue,,,null,object_01c.png,object_09c.png,,,,,,,,,,,,,,,,,,,,
1453.2000000029802,,rt_thecrossant_black4,1178986,,,,,,,,black_plus_sign,,,49,,,1,,,,,,,1,,,,,,,,,,,,
null,,color_black4,1179102,,,,,,,,black_plus_sign,,,null,,,,,,,,,,,,,,,,,,,,,,
null,,learn_phase(without_color)4,1182618,,,,,,,,black_plus_sign,,,null,object_08c.png,object_10a.png,,,,,,,,,,,,,,,,,,,,
null,,black_cross(without_color)4,1183091,,,,,,,,green,,,null,object_08c.png,object_10a.png,,,,,,,,,,,,,,,,,,,,
null,,rt_plussign_withcolor4,1183607,,,,,,,,green,,,null,object_08c.png,object_10a.png,,,,,,,,,,,,,,,,,,,,
1009.6000000014901,,rt_thecrossant_black4,1185163,,,,,,,,black_plus_sign,,,50,,,1,,,,,,,1,,,,,,,,,,,,
null,,color_black4,1185269,,,,,,,,black_plus_sign,,,null,,,,,,,,,,,,,,,,,,,,,,
null,,learn_phase(without_color)4,1188785,,,,,,,,black_plus_sign,,,null,object_03c.png,object_04a.png,,,,,,,,,,,,,,,,,,,,
null,,black_cross(without_color)4,1189355,,,,,,,,blue,,,null,object_03c.png,object_04a.png,,,,,,,,,,,,,,,,,,,,
null,,rt_plussign_withcolor4,1189874,,,,,,,,blue,,,null,object_03c.png,object_04a.png,,,,,,,,,,,,,,,,,,,,
656.3999999985099,,rt_thecrossant_black4,1191336,,,,,,,,black_plus_sign,,,49,,,1,,,,,,,1,,,,,,,,,,,,
null,,color_black4,1191452,,,,,,,,black_plus_sign,,,null,,,,,,,,,,,,,,,,,,,,,,
null,,learn_phase(without_color)4,1194973,,,,,,,,black_plus_sign,,,null,object_02b.png,object_08c.png,,,,,,,,,,,,,,,,,,,,
null,,black_cross(without_color)4,1195999,,,,,,,,blue,,,null,object_02b.png,object_08c.png,,,,,,,,,,,,,,,,,,,,
null,,rt_plussign_withcolor4,1196509,,,,,,,,blue,,,null,object_02b.png,object_08c.png,,,,,,,,,,,,,,,,,,,,
844.8999999985099,,rt_thecrossant_black4,1197496,,,,,,,,black_plus_sign,,,49,,,1,,,,,,,1,,,,,,,,,,,,
null,,color_black4,1197603,,,,,,,,black_plus_sign,,,null,,,,,,,,,,,,,,,,,,,,,,
null,,learn_phase(without_color)4,1201122,,,,,,,,black_plus_sign,,,null,object_03a.png,object_01c.png,,,,,,,,,,,,,,,,,,,,
null,,black_cross(without_color)4,1201992,,,,,,,,blue,,,null,object_03a.png,object_01c.png,,,,,,,,,,,,,,,,,,,,
null,,rt_plussign_withcolor4,1202499,,,,,,,,blue,,,null,object_03a.png,object_01c.png,,,,,,,,,,,,,,,,,,,,
1691,,rt_thecrossant_black4,1203652,,,,,,,,black_plus_sign,,,49,,,1,,,,,,,1,,,,,,,,,,,,
null,,color_black4,1203772,,,,,,,,black_plus_sign,,,null,,,,,,,,,,,,,,,,,,,,,,
null,,learn_phase(without_color)4,1207289,,,,,,,,black_plus_sign,,,null,object_13c.png,object_02c.png,,,,,,,,,,,,,,,,,,,,
null,,black_cross(without_color)4,1207886,,,,,,,,green,,,null,object_13c.png,object_02c.png,,,,,,,,,,,,,,,,,,,,
null,,rt_plussign_withcolor4,1208406,,,,,,,,green,,,null,object_13c.png,object_02c.png,,,,,,,,,,,,,,,,,,,,
1532.2999999970198,,rt_thecrossant_black4,1209827,,,,,,,,black_plus_sign,,,50,,,1,,,,,,,1,,,,,,,,,,,,
null,,color_black4,1209936,,,,,,,,black_plus_sign,,,null,,,,,,,,,,,,,,,,,,,,,,
null,,learn_phase(without_color)4,1213452,,,,,,,,black_plus_sign,,,null,object_08b.png,object_01a.png,,,,,,,,,,,,,,,,,,,,
null,,black_cross(without_color)4,1214565,,,,,,,,green,,,null,object_08b.png,object_01a.png,,,,,,,,,,,,,,,,,,,,
null,,rt_plussign_withcolor4,1215072,,,,,,,,green,,,null,object_08b.png,object_01a.png,,,,,,,,,,,,,,,,,,,,
1082,,rt_thecrossant_black4,1215985,,,,,,,,black_plus_sign,,,50,,,1,,,,,,,1,,,,,,,,,,,,
null,,color_black4,1216102,,,,,,,,black_plus_sign,,,null,,,,,,,,,,,,,,,,,,,,,,
null,,thebreak,1216219,,,,,,,,<p></p>,,,null,,,,,,,,,,,,,,,,,,,,,,
2269.2999999970198,,intro_0,1218489,,,,,,,,instruct,,,32,,,,,,,,,,,,,,,,,,,,,,
3502.9000000059605,,directmemory_phase4,1221993,,,,,,,,object_04a.png,,,51,,,1,,object_15b.png,object_01b.png,object_03c.png,object_03c.png,,0.6923076923076923,1,,,,,,,,,,,
2302.8000000044703,,directmemory_phase4,1224298,,,,,,,,object_11c.png,,,50,,,1,,object_04b.png,object_05a.png,object_06c.png,object_05a.png,,0.6956521739130435,1,,,,,,,,,,,
2446.60000000149,,directmemory_phase4,1226746,,,,,,,,object_09b.png,,,51,,,1,,object_04a.png,object_01c.png,object_01a.png,object_01a.png,,0.6989247311827957,1,,,,,,,,,,,
2113.5,,directmemory_phase4,1228862,,,,,,,,object_08a.png,,,50,,,1,,object_10b.png,object_11a.png,object_14a.png,object_11a.png,,0.7021276595744681,1,,,,,,,,,,,
2099.10000000149,,directmemory_phase4,1230963,,,,,,,,object_14c.png,,,51,,,1,,object_13a.png,object_15a.png,object_04c.png,object_04c.png,,0.7052631578947368,1,,,,,,,,,,,
2170.60000000149,,directmemory_phase4,1233135,,,,,,,,object_01c.png,,,49,,,1,,object_03a.png,object_13b.png,object_14a.png,object_03a.png,,0.7083333333333334,1,,,,,,,,,,,
1878.0999999940395,,directmemory_phase4,1235015,,,,,,,,object_12b.png,,,50,,,1,,object_15c.png,object_11b.png,object_08c.png,object_11b.png,,0.711340206185567,1,,,,,,,,,,,
2324.39999999851,,directmemory_phase4,1237341,,,,,,,,object_08c.png,,,51,,,1,,object_05c.png,object_15b.png,object_02b.png,object_02b.png,,0.7142857142857143,1,,,,,,,,,,,
1665.2000000029802,,directmemory_phase4,1239008,,,,,,,,object_06a.png,,,49,,,1,,object_15c.png,object_04c.png,object_01c.png,object_15c.png,,0.7171717171717171,1,,,,,,,,,,,
2579,,directmemory_phase4,1241589,,,,,,,,object_13a.png,,,51,,,1,,object_12c.png,object_05c.png,object_14a.png,object_14a.png,,0.72,1,,,,,,,,,,,
2704.10000000149,,directmemory_phase4,1244295,,,,,,,,object_01a.png,,,51,,,1,,object_15b.png,object_02a.png,object_08b.png,object_08b.png,,0.7227722772277227,1,,,,,,,,,,,
1999,,directmemory_phase4,1246296,,,,,,,,object_05a.png,,,49,,,1,,object_15b.png,object_14a.png,object_02a.png,object_15b.png,,0.7254901960784313,1,,,,,,,,,,,
2217.8000000044703,,directmemory_phase4,1248515,,,,,,,,object_15a.png,,,50,,,1,,object_02a.png,object_13b.png,object_12c.png,object_13b.png,,0.7281553398058253,1,,,,,,,,,,,
2715.3000000044703,,directmemory_phase4,1251232,,,,,,,,object_07c.png,,,49,,,1,,object_04b.png,object_08c.png,object_05b.png,object_04b.png,,0.7307692307692307,1,,,,,,,,,,,
1627.2999999970198,,directmemory_phase4,1252861,,,,,,,,object_04b.png,,,49,,,1,,object_12a.png,object_03c.png,object_14a.png,object_12a.png,,0.7333333333333333,1,,,,,,,,,,,
1549.1999999955297,,directmemory_phase4,1254412,,,,,,,,object_05b.png,,,50,,,1,,object_12c.png,object_10b.png,object_03a.png,object_10b.png,,0.7358490566037735,1,,,,,,,,,,,
1595.1999999955297,,directmemory_phase4,1256010,,,,,,,,object_14b.png,,,51,,,1,,object_13a.png,object_11b.png,object_08a.png,object_08a.png,,0.7383177570093458,1,,,,,,,,,,,
1655.1999999955297,,directmemory_phase4,1257667,,,,,,,,object_06b.png,,,49,,,1,,object_04a.png,object_13a.png,object_05b.png,object_04a.png,,0.7407407407407407,1,,,,,,,,,,,
1574.1000000014901,,directmemory_phase4,1259243,,,,,,,,object_02c.png,,,50,,,1,,object_01a.png,object_13c.png,object_11b.png,object_13c.png,,0.7431192660550459,1,,,,,,,,,,,
1970.3000000044703,,directmemory_phase4,1261215,,,,,,,,object_07a.png,,,51,,,1,,object_15a.png,object_13a.png,object_05b.png,object_05b.png,,0.7454545454545455,1,,,,,,,,,,,
2655.60000000149,,directmemory_phase4,1263873,,,,,,,,object_13c.png,,,51,,,1,,object_13b.png,object_12a.png,object_05c.png,object_05c.png,,0.7477477477477478,1,,,,,,,,,,,
1359.5,,directmemory_phase4,1265234,,,,,,,,object_07b.png,,,50,,,1,,object_04b.png,object_13a.png,object_08c.png,object_13a.png,,0.75,1,,,,,,,,,,,
1586.2999999970198,,directmemory_phase4,1266822,,,,,,,,object_15c.png,,,49,,,1,,object_03b.png,object_08b.png,object_14a.png,object_03b.png,,0.7522123893805309,1,,,,,,,,,,,
1716,,directmemory_phase4,1268540,,,,,,,,object_06c.png,,,49,,,1,,object_02a.png,object_13b.png,object_12c.png,object_02a.png,,0.7543859649122807,1,,,,,,,,,,,
2428.7999999970198,,directmemory_phase4,1270970,,,,,,,,object_09a.png,,,49,,,1,,object_06c.png,object_04b.png,object_15c.png,object_06c.png,,0.7565217391304347,1,,,,,,,,,,,
1391.1000000014901,,directmemory_phase4,1272364,,,,,,,,object_10c.png,,,49,,,1,,object_15a.png,object_08c.png,object_13a.png,object_15a.png,,0.7586206896551724,1,,,,,,,,,,,
2118,,directmemory_phase4,1274484,,,,,,,,object_04c.png,,,50,,,0,,object_05c.png,object_02b.png,object_01b.png,object_01b.png,,0.7521367521367521,0,,,,,,,,,,,
2399.60000000149,,directmemory_phase4,1276885,,,,,,,,object_09c.png,,,51,,,1,,object_05b.png,object_04c.png,object_01c.png,object_01c.png,,0.7542372881355932,1,,,,,,,,,,,
1865.5,,directmemory_phase4,1278752,,,,,,,,object_10a.png,,,51,,,1,,object_05a.png,object_01c.png,object_08c.png,object_08c.png,,0.7563025210084033,1,,,,,,,,,,,
2755.1999999955297,,directmemory_phase4,1281509,,,,,,,,object_11b.png,,,50,,,0,,object_01b.png,object_03a.png,object_12c.png,object_12c.png,,0.75,0,,,,,,,,,,,
null,,thebreak,1281616,,,,,,,,<p></p>,,,null,,,,,,,,,,,,,,,,,,,,,,
7913.89999999851,,intro_0,1289531,,,,,,,,instruct,,,32,,,,,,,,,,,,,,,,,,,,,,
25831.10000000149,,intro_1,1315363,,,,,,,,instruct,,,32,,,,,,,,,,,,,,,,,,,,,,
8167.39999999851,,intro_2,1323531,,,,,,,,instruct,,,32,,,,,,,,,,,,,,,,,,,,,,
,,intro_3,1336966,,,,,,,,instruct,,,,,,,,,,,,,,,,,,,,,,,,,
5607.70000000298,,intro_4,1342574,,,,,,,,instruct,,,32,,,,,,,,,,,,,,,,,,,,,,
2913.2999999970198,,inference_phase,1345489,,,,,,,,object_10a.png,,,49,object_02b.png,object_14a.png,1,,,,,object_02b.png,,1,,object_12a.png,,,,,,,,,,
2657.3000000044703,,inference_phase,1348149,,,,,,,,object_02c.png,,,51,object_03a.png,object_05c.png,1,,,,,object_05c.png,,1,,object_12a.png,,,,,,,,,,
3512.5,,inference_phase,1351663,,,,,,,,object_12b.png,,,49,object_14a.png,object_12c.png,0,,,,,object_12c.png,,0.6666666666666666,,object_08b.png,,,,,,,,,,
2823.2000000029802,,inference_phase,1354488,,,,,,,,object_07b.png,,,51,object_05c.png,object_14a.png,1,,,,,object_14a.png,,0.75,,object_02a.png,,,,,,,,,,
2501.60000000149,,inference_phase,1356991,,,,,,,,object_11c.png,,,49,object_15b.png,object_03c.png,1,,,,,object_15b.png,,0.8,,object_10b.png,,,,,,,,,,
2721,,inference_phase,1359714,,,,,,,,object_09c.png,,,49,object_03a.png,object_12a.png,1,,,,,object_03a.png,,0.8333333333333334,,object_10b.png,,,,,,,,,,
2691.2999999970198,,inference_phase,1362407,,,,,,,,object_07a.png,,,50,object_12a.png,object_02b.png,1,,,,,object_10b.png,,0.8571428571428571,,object_10b.png,,,,,,,,,,
2722.2000000029802,,inference_phase,1365131,,,,,,,,object_07c.png,,,51,object_12a.png,object_03b.png,0,,,,,object_12a.png,,0.75,,object_12c.png,,,,,,,,,,
2270.89999999851,,inference_phase,1367403,,,,,,,,object_09a.png,,,51,object_13b.png,object_03a.png,0,,,,,object_02a.png,,0.6666666666666666,,object_02a.png,,,,,,,,,,
1838.7999999970198,,inference_phase,1369244,,,,,,,,object_06b.png,,,51,object_05c.png,object_14a.png,0,,,,,object_03c.png,,0.6,,object_03c.png,,,,,,,,,,
1891.2000000029802,,inference_phase,1371137,,,,,,,,object_06a.png,,,51,object_13b.png,object_03b.png,1,,,,,object_03b.png,,0.6363636363636364,,object_14a.png,,,,,,,,,,
2804.60000000149,,inference_phase,1373944,,,,,,,,object_09b.png,,,51,object_01b.png,object_08b.png,1,,,,,object_08b.png,,0.6666666666666666,,object_02b.png,,,,,,,,,,
2164.6999999955297,,inference_phase,1376110,,,,,,,,object_10c.png,,,51,object_14a.png,object_13b.png,1,,,,,object_13b.png,,0.6923076923076923,,object_08b.png,,,,,,,,,,
2283.3000000044703,,inference_phase,1378396,,,,,,,,object_14c.png,,,49,object_02a.png,object_01b.png,0,,,,,object_01b.png,,0.6428571428571429,,object_13b.png,,,,,,,,,,
2750.7999999970198,,inference_phase,1381148,,,,,,,,object_14b.png,,,50,object_10b.png,object_03c.png,1,,,,,object_11a.png,,0.6666666666666666,,object_11a.png,,,,,,,,,,
,,survey,1535392,,,,,,,,survey-questions,,,,,,,,,,,,,,,,none,high,I was concentrating entirely on this project - 100%,I tried stacking and similar colors,no - the very last trial with 'friends' was entirely guesswork on my part--I couldn't relate the objects through memory,no, this one is new to me,the remembering seemed to get easier as I went, until the very last round,,,
13999.39999999851,,thank_you,1549417,,,,,,,,<p> Congratulations, you are all done!</p><p> <strong>Please click space on your keyboard to end the experiment!</strong> The secret code to enter at the beginning screen is: <strong>CIMBPENS</strong></p><p> Please make sure to submit the HIT and email uciccnl@gmail.com if you had any issues! </p><br><p>Please remember to submit this data by clicking space after copying the code. Failure of submission will lead to in-complete payment</p>,,,32,,,,,,,,,,,,,,,,,,,,1,0,C78LSMTN
