rt,responses,trial_type,time_elapsed,identifier_a,identifier_b,identifier_c,tasktype,browser_type,local_time,UTC_time,stimulus,button_pressed,response,key_press,stimulus_left,stimulus_right,accuracy,practice_cumulative_accuracy,stimulus_down_left,stimulus_down_mid,stimulus_down_right,stimulus_correct,prac_weighted_accuracy,cumulative_accuracy,weighted_accuracy,stimulus_middle,problems,smooth,distraction,strategies,easier,similar,comments
22966.60000000894,{worker_id:67dda883ae02e40c22d3b064},id_enter,22976,object_08a.png; object_01c.png; object_11c.png; object_06c.png; object_06b.png; object_01b.png; object_08b.png; object_05a.png; object_10a.png; object_05c.png; object_13c.png; object_13b.png; object_11a.png; object_11b.png; object_10b.png,object_03b.png; object_04b.png; object_04c.png; object_10c.png; object_09a.png; object_02c.png; object_15c.png; object_12b.png; object_12a.png; object_09b.png; object_02a.png; object_07a.png; object_02b.png; object_12c.png; object_14b.png,object_07c.png; object_08c.png; object_04a.png; object_03c.png; object_03a.png; object_06a.png; object_15a.png; object_01a.png; object_15b.png; object_13a.png; object_07b.png; object_09c.png; object_14c.png; object_05b.png; object_14a.png,blocked,Mozilla/5.0 (Windows NT 10.0; Win64; x64) AppleWebKit/537.36 (KHTML, like Gecko) Chrome/131.0.0.0 Safari/537.36,4/28/2025, 7:39:46 PM,2025-04-28 23:39:46.343,,,,,,,,,,,,,,,,,,,,,,,
18531.20000000298,,make_fullscreen,41601,,,,,,,,fullscreen,0,,,,,,,,,,,,,,,,,,,,,
11647.70000000298,,instruct_1,53260,,,,,,,,instruct,0,Next,,,,,,,,,,,,,,,,,,,,
21910.79999999702,,instruct_2,75177,,,,,,,,instruct,1,Next,,,,,,,,,,,,,,,,,,,,
20295.89999999106,,instruct_3,95479,,,,,,,,instruct,1,Next,,,,,,,,,,,,,,,,,,,,
28234.70000000298,,instruct_4,123720,,,,,,,,instruct,1,Next,,,,,,,,,,,,,,,,,,,,
13573.70000000298,,instruct_5,137299,,,,,,,,instruct,1,Next,,,,,,,,,,,,,,,,,,,,
6216.70000000298,,instruct_6,143522,,,,,,,,instruct,1,Next,,,,,,,,,,,,,,,,,,,,
33830.59999999404,,instruct_7,177359,,,,,,,,instruct,1,Next,,,,,,,,,,,,,,,,,,,,
null,,prac_atten_color_black,178362,,,,,,,,black_plus_sign,,,null,,,,,,,,,,,,,,,,,,,
null,,prac_atten_color,178793,,,,,,,,<p style='position:absolute;top: 50%;right: 50%;transform: translate(50%, -50%);font-size: 125px;color: blue;'>+</p>,,,null,,,,,,,,,,,,,,,,,,,
583.0999999940395,,prac_atten_color_black,180808,,,,,,,,black_plus_sign,,,49,,,,,,,,,,,,,,,,,,,
null,,prac_atten_color_black,181805,,,,,,,,black_plus_sign,,,null,,,,,,,,,,,,,,,,,,,
null,,prac_atten_color,182819,,,,,,,,<p style='position:absolute;top: 50%;right: 50%;transform: translate(50%, -50%);font-size: 125px;color: green;'>+</p>,,,null,,,,,,,,,,,,,,,,,,,
179.59999999403954,,prac_atten_color_black,184823,,,,,,,,black_plus_sign,,,50,,,,,,,,,,,,,,,,,,,
null,,prac_atten_color_black,185239,,,,,,,,black_plus_sign,,,null,,,,,,,,,,,,,,,,,,,
330.90000000596046,,prac_atten_color,185723,,,,,,,,<p style='position:absolute;top: 50%;right: 50%;transform: translate(50%, -50%);font-size: 125px;color: green;'>+</p>,,,49,,,,,,,,,,,,,,,,,,,
223.5,,prac_atten_color_black,187731,,,,,,,,black_plus_sign,,,50,,,,,,,,,,,,,,,,,,,
null,,prac_atten_color_black,188660,,,,,,,,black_plus_sign,,,null,,,,,,,,,,,,,,,,,,,
393.70000000298023,,prac_atten_color,189476,,,,,,,,<p style='position:absolute;top: 50%;right: 50%;transform: translate(50%, -50%);font-size: 125px;color: blue;'>+</p>,,,49,,,,,,,,,,,,,,,,,,,
null,,prac_atten_color_black,191487,,,,,,,,black_plus_sign,,,null,,,,,,,,,,,,,,,,,,,
null,,prac_atten_color_black,192092,,,,,,,,black_plus_sign,,,null,,,,,,,,,,,,,,,,,,,
364.40000000596046,,prac_atten_color,193044,,,,,,,,<p style='position:absolute;top: 50%;right: 50%;transform: translate(50%, -50%);font-size: 125px;color: green;'>+</p>,,,50,,,,,,,,,,,,,,,,,,,
null,,prac_atten_color_black,195054,,,,,,,,black_plus_sign,,,null,,,,,,,,,,,,,,,,,,,
null,,prac_atten_color_black,195514,,,,,,,,black_plus_sign,,,null,,,,,,,,,,,,,,,,,,,
366.59999999403954,,prac_atten_color,196414,,,,,,,,<p style='position:absolute;top: 50%;right: 50%;transform: translate(50%, -50%);font-size: 125px;color: green;'>+</p>,,,49,,,,,,,,,,,,,,,,,,,
null,,prac_atten_color_black,198424,,,,,,,,black_plus_sign,,,null,,,,,,,,,,,,,,,,,,,
19633.20000000298,,attentioncheck_help,218061,,,,,,,,instruct,,,32,,,,,,,,,,,,,,,,,,,
null,,prac_atten_color_black,218584,,,,,,,,black_plus_sign,,,null,,,,,,,,,,,,,,,,,,,
null,,prac_atten_color,218996,,,,,,,,<p style='position:absolute;top: 50%;right: 50%;transform: translate(50%, -50%);font-size: 125px;color: blue;'>+</p>,,,null,,,,,,,,,,,,,,,,,,,
null,,prac_atten_color_black,221001,,,,,,,,black_plus_sign,,,null,,,,,,,,,,,,,,,,,,,
3574.8999999910593,,attentioncheck_help,224581,,,,,,,,instruct,,,32,,,,,,,,,,,,,,,,,,,
null,,prac_atten_color_black,225592,,,,,,,,black_plus_sign,,,null,,,,,,,,,,,,,,,,,,,
912.5,,prac_atten_color,226518,,,,,,,,<p style='position:absolute;top: 50%;right: 50%;transform: translate(50%, -50%);font-size: 125px;color: green;'>+</p>,,,50,,,,,,,,,,,,,,,,,,,
null,,prac_atten_color_black,228522,,,,,,,,black_plus_sign,,,null,,,,,,,,,,,,,,,,,,,
null,,prac_atten_color_black,229013,,,,,,,,black_plus_sign,,,null,,,,,,,,,,,,,,,,,,,
829.1999999880791,,prac_atten_color,229938,,,,,,,,<p style='position:absolute;top: 50%;right: 50%;transform: translate(50%, -50%);font-size: 125px;color: blue;'>+</p>,,,49,,,,,,,,,,,,,,,,,,,
null,,prac_atten_color_black,231944,,,,,,,,black_plus_sign,,,null,,,,,,,,,,,,,,,,,,,
null,,prac_atten_color_black,232438,,,,,,,,black_plus_sign,,,null,,,,,,,,,,,,,,,,,,,
null,,prac_atten_color,232869,,,,,,,,<p style='position:absolute;top: 50%;right: 50%;transform: translate(50%, -50%);font-size: 125px;color: blue;'>+</p>,,,null,,,,,,,,,,,,,,,,,,,
407.5,,prac_atten_color_black,234879,,,,,,,,black_plus_sign,,,49,,,,,,,,,,,,,,,,,,,
8638.79999999702,,attentioncheck_feedback,243525,,,,,,,,cross_check_feedback,0,,,,,,,,,,,,,,,,,,,,,
20434.5,,last_instruct,263963,,,,,,,,instruct,,,32,,,,,,,,,,,,,,,,,,,
null,,prac_learn_phase(without_color),267472,,,,,,,,black_plus_sign,,,null,object_10b.png,object_14b.png,,,,,,,,,,,,,,,,,
null,,prac_black_cross(without_color),268267,,,,,,,,green,,,null,object_10b.png,object_14b.png,,,,,,,,,,,,,,,,,
null,,prac_rt_plussign_withcolor,268776,,,,,,,,green,,,null,object_10b.png,object_14b.png,,,,,,,,,,,,,,,,,
1470.5,,prac_rt_thecrossant_black,270007,,,,,,,,black_plus_sign,,,50,,,1,1,,,,,,,,,,,,,,,
null,,prac_color_black,270120,,,,,,,,black_plus_sign,,,null,,,,,,,,,,,,,,,,,,,
null,,prac_learn_phase(without_color),273631,,,,,,,,black_plus_sign,,,null,object_08a.png,object_03b.png,,,,,,,,,,,,,,,,,
null,,black_cross(without_color)1,274709,,,,,,,,blue,,,null,object_10b.png,object_14b.png,,,,,,,,,,,,,,,,,
null,,prac_rt_plussign_withcolor,275219,,,,,,,,green,,,null,object_08a.png,object_03b.png,,,,,,,,,,,,,,,,,
1028.2000000029802,,prac_rt_thecrossant_black,276584,,,,,,,,black_plus_sign,,,50,,,1,1,,,,,,,,,,,,,,,
null,,prac_color_black,276697,,,,,,,,black_plus_sign,,,null,,,,,,,,,,,,,,,,,,,
null,,prac_learn_phase(without_color),280209,,,,,,,,black_plus_sign,,,null,object_01c.png,object_04b.png,,,,,,,,,,,,,,,,,
null,,black_cross(without_color)1,281292,,,,,,,,blue,,,null,object_10b.png,object_14b.png,,,,,,,,,,,,,,,,,
null,,prac_rt_plussign_withcolor,281796,,,,,,,,blue,,,null,object_01c.png,object_04b.png,,,,,,,,,,,,,,,,,
1448,,prac_rt_thecrossant_black,282831,,,,,,,,black_plus_sign,,,49,,,1,1,,,,,,,,,,,,,,,
null,,prac_color_black,282935,,,,,,,,black_plus_sign,,,null,,,,,,,,,,,,,,,,,,,
null,,prac_learn_phase(without_color),286442,,,,,,,,black_plus_sign,,,null,object_11b.png,object_12c.png,,,,,,,,,,,,,,,,,
null,,black_cross(without_color)1,287523,,,,,,,,blue,,,null,object_10b.png,object_14b.png,,,,,,,,,,,,,,,,,
null,,prac_rt_plussign_withcolor,288028,,,,,,,,green,,,null,object_11b.png,object_12c.png,,,,,,,,,,,,,,,,,
1386.5,,prac_rt_thecrossant_black,289104,,,,,,,,black_plus_sign,,,50,,,1,1,,,,,,,,,,,,,,,
null,,prac_color_black,289215,,,,,,,,black_plus_sign,,,null,,,,,,,,,,,,,,,,,,,
10703.89999999106,,instruct_dir_01,299926,,,,,,,,instruct,0,Next,,,,,,,,,,,,,,,,,,,,
9996.59999999404,,instruct_dir_2,309929,,,,,,,,instruct,1,Next,,,,,,,,,,,,,,,,,,,,
8871.90000000596,,instruct_dir_3,318806,,,,,,,,instruct,1,Next,,,,,,,,,,,,,,,,,,,,
19767.89999999106,,instruct_dir_4,338580,,,,,,,,instruct,1,Start,,,,,,,,,,,,,,,,,,,,
null,,thebreak,338694,,,,,,,,<p></p>,,,null,,,,,,,,,,,,,,,,,,,
1813.199999988079,,intro_0,340511,,,,,,,,instruct,,,32,,,,,,,,,,,,,,,,,,,
4468.29999999702,,prac_directmemory_phase,344984,,,,,,,,practice/object_04b.png,,,51,,,1,,practice/object_01a.png,practice/object_02a.png,practice/object_04a.png,practice/object_04a.png,1,1,,,,,,,,,
4322.0999999940395,,prac_directmemory_phase,349314,,,,,,,,practice/object_02b.png,,,51,,,0,,practice/object_02a.png,practice/object_01a.png,practice/object_04a.png,practice/object_02a.png,0,0.5,,,,,,,,,
4752.5999999940395,,prac_directmemory_phase,354072,,,,,,,,practice/object_03b.png,,,49,,,1,,practice/object_03a.png,practice/object_01a.png,practice/object_04a.png,practice/object_03a.png,1,0.6666666666666666,,,,,,,,,
3031.7000000029802,,prac_directmemory_phase,357110,,,,,,,,practice/object_01b.png,,,50,,,1,,practice/object_03a.png,practice/object_01a.png,practice/object_04a.png,practice/object_01a.png,1,0.75,,,,,,,,,
10460.59999999404,,practice_feedback,367576,,,,,,,,practice_feedback,1,,,,,,,,,,,,,,,,,,,,,
25918.70000000298,,proceed_actualTask,393502,,,,,,,,proceed_actualTask,1,Continue,,,,,,,,,,,,,,,,,,,,
19921.40000000596,,last_inst,413428,,,,,,,,last_inst,,,32,,,,,,,,,,,,,,,,,,,
null,,learn_phase(without_color)1,416936,,,,,,,,black_plus_sign,,,null,object_10b.png,object_14b.png,,,,,,,,,,,,,,,,,
null,,black_cross(without_color)1,418013,,,,,,,,blue,,,null,object_10b.png,object_14b.png,,,,,,,,,,,,,,,,,
null,,rt_plussign_withcolor1,418528,,,,,,,,blue,,,null,object_10b.png,object_14b.png,,,,,,,,,,,,,,,,,
1346.1000000089407,,rt_thecrossant_black1,419470,,,,,,,,black_plus_sign,,,49,,,1,,,,,,,1,,,,,,,,,
null,,color_black1,419586,,,,,,,,black_plus_sign,,,null,,,,,,,,,,,,,,,,,,,
null,,learn_phase(without_color)1,423100,,,,,,,,black_plus_sign,,,null,object_08a.png,object_03b.png,,,,,,,,,,,,,,,,,
null,,black_cross(without_color)1,423733,,,,,,,,blue,,,null,object_08a.png,object_03b.png,,,,,,,,,,,,,,,,,
null,,rt_plussign_withcolor1,424244,,,,,,,,blue,,,null,object_08a.png,object_03b.png,,,,,,,,,,,,,,,,,
1016.8000000119209,,rt_thecrossant_black1,425625,,,,,,,,black_plus_sign,,,49,,,1,,,,,,,1,,,,,,,,,
null,,color_black1,425742,,,,,,,,black_plus_sign,,,null,,,,,,,,,,,,,,,,,,,
null,,learn_phase(without_color)1,429259,,,,,,,,black_plus_sign,,,null,object_01c.png,object_04b.png,,,,,,,,,,,,,,,,,
null,,black_cross(without_color)1,430112,,,,,,,,green,,,null,object_01c.png,object_04b.png,,,,,,,,,,,,,,,,,
null,,rt_plussign_withcolor1,430622,,,,,,,,green,,,null,object_01c.png,object_04b.png,,,,,,,,,,,,,,,,,
990.3999999910593,,rt_thecrossant_black1,431791,,,,,,,,black_plus_sign,,,50,,,1,,,,,,,1,,,,,,,,,
null,,color_black1,431898,,,,,,,,black_plus_sign,,,null,,,,,,,,,,,,,,,,,,,
null,,learn_phase(without_color)1,435404,,,,,,,,black_plus_sign,,,null,object_11b.png,object_12c.png,,,,,,,,,,,,,,,,,
null,,black_cross(without_color)1,436100,,,,,,,,blue,,,null,object_11b.png,object_12c.png,,,,,,,,,,,,,,,,,
null,,rt_plussign_withcolor1,436611,,,,,,,,blue,,,null,object_11b.png,object_12c.png,,,,,,,,,,,,,,,,,
1237,,rt_thecrossant_black1,437944,,,,,,,,black_plus_sign,,,49,,,1,,,,,,,1,,,,,,,,,
null,,color_black1,438052,,,,,,,,black_plus_sign,,,null,,,,,,,,,,,,,,,,,,,
null,,learn_phase(without_color)1,441564,,,,,,,,black_plus_sign,,,null,object_05c.png,object_09b.png,,,,,,,,,,,,,,,,,
null,,black_cross(without_color)1,442275,,,,,,,,green,,,null,object_05c.png,object_09b.png,,,,,,,,,,,,,,,,,
null,,rt_plussign_withcolor1,442784,,,,,,,,green,,,null,object_05c.png,object_09b.png,,,,,,,,,,,,,,,,,
1044,,rt_thecrossant_black1,444085,,,,,,,,black_plus_sign,,,50,,,1,,,,,,,1,,,,,,,,,
null,,color_black1,444199,,,,,,,,black_plus_sign,,,null,,,,,,,,,,,,,,,,,,,
null,,learn_phase(without_color)1,447713,,,,,,,,black_plus_sign,,,null,object_05a.png,object_12b.png,,,,,,,,,,,,,,,,,
null,,black_cross(without_color)1,448305,,,,,,,,blue,,,null,object_05a.png,object_12b.png,,,,,,,,,,,,,,,,,
null,,rt_plussign_withcolor1,448815,,,,,,,,blue,,,null,object_05a.png,object_12b.png,,,,,,,,,,,,,,,,,
1134.2000000029802,,rt_thecrossant_black1,450242,,,,,,,,black_plus_sign,,,49,,,1,,,,,,,1,,,,,,,,,
null,,color_black1,450355,,,,,,,,black_plus_sign,,,null,,,,,,,,,,,,,,,,,,,
null,,learn_phase(without_color)1,453867,,,,,,,,black_plus_sign,,,null,object_11c.png,object_04c.png,,,,,,,,,,,,,,,,,
null,,black_cross(without_color)1,454724,,,,,,,,blue,,,null,object_11c.png,object_04c.png,,,,,,,,,,,,,,,,,
null,,rt_plussign_withcolor1,455238,,,,,,,,blue,,,null,object_11c.png,object_04c.png,,,,,,,,,,,,,,,,,
930.2000000029802,,rt_thecrossant_black1,456413,,,,,,,,black_plus_sign,,,49,,,1,,,,,,,1,,,,,,,,,
null,,color_black1,456522,,,,,,,,black_plus_sign,,,null,,,,,,,,,,,,,,,,,,,
null,,learn_phase(without_color)1,460029,,,,,,,,black_plus_sign,,,null,object_06b.png,object_09a.png,,,,,,,,,,,,,,,,,
null,,black_cross(without_color)1,461025,,,,,,,,green,,,null,object_06b.png,object_09a.png,,,,,,,,,,,,,,,,,
null,,rt_plussign_withcolor1,461535,,,,,,,,green,,,null,object_06b.png,object_09a.png,,,,,,,,,,,,,,,,,
1100.9000000059605,,rt_thecrossant_black1,462574,,,,,,,,black_plus_sign,,,50,,,1,,,,,,,1,,,,,,,,,
null,,color_black1,462683,,,,,,,,black_plus_sign,,,null,,,,,,,,,,,,,,,,,,,
null,,learn_phase(without_color)1,466188,,,,,,,,black_plus_sign,,,null,object_13b.png,object_07a.png,,,,,,,,,,,,,,,,,
null,,black_cross(without_color)1,467220,,,,,,,,green,,,null,object_13b.png,object_07a.png,,,,,,,,,,,,,,,,,
null,,rt_plussign_withcolor1,467731,,,,,,,,green,,,null,object_13b.png,object_07a.png,,,,,,,,,,,,,,,,,
1333.2999999970198,,rt_thecrossant_black1,468720,,,,,,,,black_plus_sign,,,50,,,1,,,,,,,1,,,,,,,,,
null,,color_black1,468835,,,,,,,,black_plus_sign,,,null,,,,,,,,,,,,,,,,,,,
null,,learn_phase(without_color)1,472345,,,,,,,,black_plus_sign,,,null,object_10a.png,object_12a.png,,,,,,,,,,,,,,,,,
null,,black_cross(without_color)1,472793,,,,,,,,green,,,null,object_10a.png,object_12a.png,,,,,,,,,,,,,,,,,
null,,rt_plussign_withcolor1,473299,,,,,,,,green,,,null,object_10a.png,object_12a.png,,,,,,,,,,,,,,,,,
1498.2999999970198,,rt_thecrossant_black1,474902,,,,,,,,black_plus_sign,,,50,,,1,,,,,,,1,,,,,,,,,
null,,color_black1,475009,,,,,,,,black_plus_sign,,,null,,,,,,,,,,,,,,,,,,,
null,,learn_phase(without_color)1,478519,,,,,,,,black_plus_sign,,,null,object_13c.png,object_02a.png,,,,,,,,,,,,,,,,,
null,,black_cross(without_color)1,479273,,,,,,,,blue,,,null,object_13c.png,object_02a.png,,,,,,,,,,,,,,,,,
null,,rt_plussign_withcolor1,479777,,,,,,,,blue,,,null,object_13c.png,object_02a.png,,,,,,,,,,,,,,,,,
594,,rt_thecrossant_black1,481050,,,,,,,,black_plus_sign,,,49,,,1,,,,,,,1,,,,,,,,,
null,,color_black1,481167,,,,,,,,black_plus_sign,,,null,,,,,,,,,,,,,,,,,,,
null,,learn_phase(without_color)1,484682,,,,,,,,black_plus_sign,,,null,object_08b.png,object_15c.png,,,,,,,,,,,,,,,,,
null,,black_cross(without_color)1,485257,,,,,,,,green,,,null,object_08b.png,object_15c.png,,,,,,,,,,,,,,,,,
null,,rt_plussign_withcolor1,485766,,,,,,,,green,,,null,object_08b.png,object_15c.png,,,,,,,,,,,,,,,,,
897.2999999970198,,rt_thecrossant_black1,487216,,,,,,,,black_plus_sign,,,50,,,1,,,,,,,1,,,,,,,,,
null,,color_black1,487321,,,,,,,,black_plus_sign,,,null,,,,,,,,,,,,,,,,,,,
null,,learn_phase(without_color)1,490831,,,,,,,,black_plus_sign,,,null,object_06c.png,object_10c.png,,,,,,,,,,,,,,,,,
null,,black_cross(without_color)1,491653,,,,,,,,blue,,,null,object_06c.png,object_10c.png,,,,,,,,,,,,,,,,,
null,,rt_plussign_withcolor1,492167,,,,,,,,blue,,,null,object_06c.png,object_10c.png,,,,,,,,,,,,,,,,,
962,,rt_thecrossant_black1,493374,,,,,,,,black_plus_sign,,,49,,,1,,,,,,,1,,,,,,,,,
null,,color_black1,493480,,,,,,,,black_plus_sign,,,null,,,,,,,,,,,,,,,,,,,
null,,learn_phase(without_color)1,496985,,,,,,,,black_plus_sign,,,null,object_11a.png,object_02b.png,,,,,,,,,,,,,,,,,
null,,black_cross(without_color)1,498017,,,,,,,,blue,,,null,object_11a.png,object_02b.png,,,,,,,,,,,,,,,,,
null,,rt_plussign_withcolor1,498525,,,,,,,,blue,,,null,object_11a.png,object_02b.png,,,,,,,,,,,,,,,,,
1082.2000000029802,,rt_thecrossant_black1,499510,,,,,,,,black_plus_sign,,,49,,,1,,,,,,,1,,,,,,,,,
null,,color_black1,499614,,,,,,,,black_plus_sign,,,null,,,,,,,,,,,,,,,,,,,
null,,learn_phase(without_color)1,503121,,,,,,,,black_plus_sign,,,null,object_01b.png,object_02c.png,,,,,,,,,,,,,,,,,
null,,black_cross(without_color)1,503948,,,,,,,,green,,,null,object_01b.png,object_02c.png,,,,,,,,,,,,,,,,,
null,,rt_plussign_withcolor1,504453,,,,,,,,green,,,null,object_01b.png,object_02c.png,,,,,,,,,,,,,,,,,
1175,,rt_thecrossant_black1,505648,,,,,,,,black_plus_sign,,,50,,,1,,,,,,,1,,,,,,,,,
null,,color_black1,505760,,,,,,,,black_plus_sign,,,null,,,,,,,,,,,,,,,,,,,
null,,thebreak,505873,,,,,,,,<p></p>,,,null,,,,,,,,,,,,,,,,,,,
28485.59999999404,,intro_0,534362,,,,,,,,instruct,,,32,,,,,,,,,,,,,,,,,,,
null,,directmemory_phase1,549369,,,,,,,,object_10c.png,,,null,,,0,,object_06c.png,object_11b.png,object_10a.png,object_06c.png,,0,0,,,,,,,,
null,,warning_page,554392,,,,,,,,warning,,,null,,,,,,,,,,,,,,,,,,,
5880.600000008941,,directmemory_phase1,560277,,,,,,,,object_02a.png,,,49,,,0,,object_05c.png,object_06b.png,object_13c.png,object_13c.png,,0,0,,,,,,,,
5622.5999999940395,,directmemory_phase1,565906,,,,,,,,object_14b.png,,,51,,,0,,object_08a.png,object_10b.png,object_01b.png,object_10b.png,,0,0,,,,,,,,
5200.0999999940395,,directmemory_phase1,571112,,,,,,,,object_12a.png,,,50,,,0,,object_08a.png,object_01b.png,object_10a.png,object_10a.png,,0,0,,,,,,,,
6906.20000000298,,directmemory_phase1,578025,,,,,,,,object_03b.png,,,51,,,0,,object_13c.png,object_08a.png,object_11a.png,object_08a.png,,0,0,,,,,,,,
5130.100000008941,,directmemory_phase1,583161,,,,,,,,object_09a.png,,,49,,,0,,object_05a.png,object_06b.png,object_05c.png,object_06b.png,,0,0,,,,,,,,
7714.20000000298,,directmemory_phase1,590877,,,,,,,,object_12c.png,,,50,,,1,,object_13c.png,object_11b.png,object_01c.png,object_11b.png,,0.14285714285714285,1,,,,,,,,
6263.0999999940395,,directmemory_phase1,597143,,,,,,,,object_04b.png,,,50,,,0,,object_11a.png,object_06b.png,object_01c.png,object_01c.png,,0.125,0,,,,,,,,
5169.600000008941,,directmemory_phase1,602318,,,,,,,,object_02b.png,,,51,,,0,,object_11a.png,object_06c.png,object_10a.png,object_11a.png,,0.1111111111111111,0,,,,,,,,
7680.29999999702,,directmemory_phase1,610004,,,,,,,,object_09b.png,,,50,,,1,,object_11a.png,object_05c.png,object_01b.png,object_05c.png,,0.2,1,,,,,,,,
7833,,directmemory_phase1,617843,,,,,,,,object_12b.png,,,50,,,0,,object_05a.png,object_08b.png,object_11a.png,object_05a.png,,0.18181818181818182,0,,,,,,,,
3474.800000011921,,directmemory_phase1,621324,,,,,,,,object_04c.png,,,50,,,1,,object_06c.png,object_11c.png,object_11a.png,object_11c.png,,0.25,1,,,,,,,,
5923.5,,directmemory_phase1,627254,,,,,,,,object_02c.png,,,49,,,1,,object_01b.png,object_05c.png,object_06b.png,object_01b.png,,0.3076923076923077,1,,,,,,,,
6341.79999999702,,directmemory_phase1,633601,,,,,,,,object_15c.png,,,50,,,0,,object_01b.png,object_05c.png,object_08b.png,object_08b.png,,0.2857142857142857,0,,,,,,,,
6260.5,,directmemory_phase1,639868,,,,,,,,object_07a.png,,,51,,,0,,object_13b.png,object_11c.png,object_05a.png,object_13b.png,,0.26666666666666666,0,,,,,,,,
null,,thebreak,639981,,,,,,,,<p></p>,,,null,,,,,,,,,,,,,,,,,,,
29106,,intro_0,669090,,,,,,,,instruct,,,32,,,,,,,,,,,,,,,,,,,
null,,learn_phase(without_color)2,672595,,,,,,,,black_plus_sign,,,null,object_11a.png,object_02b.png,,,,,,,,,,,,,,,,,
null,,black_cross(without_color)2,673105,,,,,,,,blue,,,null,object_11a.png,object_02b.png,,,,,,,,,,,,,,,,,
null,,rt_plussign_withcolor2,673614,,,,,,,,blue,,,null,object_11a.png,object_02b.png,,,,,,,,,,,,,,,,,
935.1000000089407,,rt_thecrossant_black2,675130,,,,,,,,black_plus_sign,,,49,,,1,,,,,,,1,,,,,,,,,
null,,color_black2,675241,,,,,,,,black_plus_sign,,,null,,,,,,,,,,,,,,,,,,,
null,,learn_phase(without_color)2,678751,,,,,,,,black_plus_sign,,,null,object_10b.png,object_14b.png,,,,,,,,,,,,,,,,,
null,,black_cross(without_color)2,679251,,,,,,,,green,,,null,object_10b.png,object_14b.png,,,,,,,,,,,,,,,,,
null,,rt_plussign_withcolor2,679773,,,,,,,,green,,,null,object_10b.png,object_14b.png,,,,,,,,,,,,,,,,,
826.8999999910593,,rt_thecrossant_black2,681290,,,,,,,,black_plus_sign,,,50,,,1,,,,,,,1,,,,,,,,,
null,,color_black2,681412,,,,,,,,black_plus_sign,,,null,,,,,,,,,,,,,,,,,,,
null,,learn_phase(without_color)2,684918,,,,,,,,black_plus_sign,,,null,object_01c.png,object_04b.png,,,,,,,,,,,,,,,,,
null,,black_cross(without_color)2,685554,,,,,,,,green,,,null,object_01c.png,object_04b.png,,,,,,,,,,,,,,,,,
null,,rt_plussign_withcolor2,686058,,,,,,,,green,,,null,object_01c.png,object_04b.png,,,,,,,,,,,,,,,,,
910.6000000089407,,rt_thecrossant_black2,687448,,,,,,,,black_plus_sign,,,50,,,1,,,,,,,1,,,,,,,,,
null,,color_black2,687558,,,,,,,,black_plus_sign,,,null,,,,,,,,,,,,,,,,,,,
null,,learn_phase(without_color)2,691073,,,,,,,,black_plus_sign,,,null,object_05a.png,object_12b.png,,,,,,,,,,,,,,,,,
null,,black_cross(without_color)2,691805,,,,,,,,blue,,,null,object_05a.png,object_12b.png,,,,,,,,,,,,,,,,,
null,,rt_plussign_withcolor2,692319,,,,,,,,blue,,,null,object_05a.png,object_12b.png,,,,,,,,,,,,,,,,,
1060,,rt_thecrossant_black2,693605,,,,,,,,black_plus_sign,,,49,,,1,,,,,,,1,,,,,,,,,
null,,color_black2,693713,,,,,,,,black_plus_sign,,,null,,,,,,,,,,,,,,,,,,,
null,,learn_phase(without_color)2,697225,,,,,,,,black_plus_sign,,,null,object_06c.png,object_10c.png,,,,,,,,,,,,,,,,,
null,,black_cross(without_color)2,697926,,,,,,,,blue,,,null,object_06c.png,object_10c.png,,,,,,,,,,,,,,,,,
null,,rt_plussign_withcolor2,698437,,,,,,,,blue,,,null,object_06c.png,object_10c.png,,,,,,,,,,,,,,,,,
1361.8999999910593,,rt_thecrossant_black2,699768,,,,,,,,black_plus_sign,,,49,,,1,,,,,,,1,,,,,,,,,
null,,color_black2,699882,,,,,,,,black_plus_sign,,,null,,,,,,,,,,,,,,,,,,,
null,,learn_phase(without_color)2,703399,,,,,,,,black_plus_sign,,,null,object_05c.png,object_09b.png,,,,,,,,,,,,,,,,,
null,,black_cross(without_color)2,704489,,,,,,,,blue,,,null,object_05c.png,object_09b.png,,,,,,,,,,,,,,,,,
null,,rt_plussign_withcolor2,704998,,,,,,,,blue,,,null,object_05c.png,object_09b.png,,,,,,,,,,,,,,,,,
966.9000000059605,,rt_thecrossant_black2,705945,,,,,,,,black_plus_sign,,,49,,,1,,,,,,,1,,,,,,,,,
null,,color_black2,706055,,,,,,,,black_plus_sign,,,null,,,,,,,,,,,,,,,,,,,
null,,learn_phase(without_color)2,709570,,,,,,,,black_plus_sign,,,null,object_08a.png,object_03b.png,,,,,,,,,,,,,,,,,
null,,black_cross(without_color)2,710028,,,,,,,,blue,,,null,object_08a.png,object_03b.png,,,,,,,,,,,,,,,,,
null,,rt_plussign_withcolor2,710533,,,,,,,,blue,,,null,object_08a.png,object_03b.png,,,,,,,,,,,,,,,,,
1328.7000000029802,,rt_thecrossant_black2,712094,,,,,,,,black_plus_sign,,,49,,,1,,,,,,,1,,,,,,,,,
null,,color_black2,712206,,,,,,,,black_plus_sign,,,null,,,,,,,,,,,,,,,,,,,
null,,learn_phase(without_color)2,715734,,,,,,,,black_plus_sign,,,null,object_01b.png,object_02c.png,,,,,,,,,,,,,,,,,
null,,black_cross(without_color)2,716579,,,,,,,,blue,,,null,object_01b.png,object_02c.png,,,,,,,,,,,,,,,,,
null,,rt_plussign_withcolor2,717100,,,,,,,,blue,,,null,object_01b.png,object_02c.png,,,,,,,,,,,,,,,,,
666.5999999940395,,rt_thecrossant_black2,718275,,,,,,,,black_plus_sign,,,49,,,1,,,,,,,1,,,,,,,,,
null,,color_black2,718381,,,,,,,,black_plus_sign,,,null,,,,,,,,,,,,,,,,,,,
null,,learn_phase(without_color)2,721890,,,,,,,,black_plus_sign,,,null,object_11c.png,object_04c.png,,,,,,,,,,,,,,,,,
null,,black_cross(without_color)2,722365,,,,,,,,blue,,,null,object_11c.png,object_04c.png,,,,,,,,,,,,,,,,,
null,,rt_plussign_withcolor2,722877,,,,,,,,blue,,,null,object_11c.png,object_04c.png,,,,,,,,,,,,,,,,,
985.8999999910593,,rt_thecrossant_black2,724428,,,,,,,,black_plus_sign,,,49,,,1,,,,,,,1,,,,,,,,,
null,,color_black2,724537,,,,,,,,black_plus_sign,,,null,,,,,,,,,,,,,,,,,,,
null,,learn_phase(without_color)2,728048,,,,,,,,black_plus_sign,,,null,object_08b.png,object_15c.png,,,,,,,,,,,,,,,,,
null,,black_cross(without_color)2,728842,,,,,,,,green,,,null,object_08b.png,object_15c.png,,,,,,,,,,,,,,,,,
375.6000000089407,,rt_plussign_withcolor2,729354,,,,,,,,green,,,49,object_08b.png,object_15c.png,,,,,,,,,,,,,,,,,
null,,rt_thecrossant_black2,730583,,,,,,,,black_plus_sign,,,null,,,0,,,,,,,0.9,,,,,,,,,
null,,color_black2,730689,,,,,,,,black_plus_sign,,,null,,,,,,,,,,,,,,,,,,,
null,,learn_phase(without_color)2,734212,,,,,,,,black_plus_sign,,,null,object_13c.png,object_02a.png,,,,,,,,,,,,,,,,,
null,,black_cross(without_color)2,735095,,,,,,,,green,,,null,object_13c.png,object_02a.png,,,,,,,,,,,,,,,,,
null,,rt_plussign_withcolor2,735600,,,,,,,,green,,,null,object_13c.png,object_02a.png,,,,,,,,,,,,,,,,,
1238,,rt_thecrossant_black2,736743,,,,,,,,black_plus_sign,,,50,,,1,,,,,,,0.9090909090909091,,,,,,,,,
null,,color_black2,736851,,,,,,,,black_plus_sign,,,null,,,,,,,,,,,,,,,,,,,
null,,learn_phase(without_color)2,740365,,,,,,,,black_plus_sign,,,null,object_11b.png,object_12c.png,,,,,,,,,,,,,,,,,
null,,black_cross(without_color)2,741424,,,,,,,,blue,,,null,object_11b.png,object_12c.png,,,,,,,,,,,,,,,,,
null,,rt_plussign_withcolor2,741929,,,,,,,,blue,,,null,object_11b.png,object_12c.png,,,,,,,,,,,,,,,,,
1130.2999999970198,,rt_thecrossant_black2,742896,,,,,,,,black_plus_sign,,,49,,,1,,,,,,,0.9166666666666666,,,,,,,,,
null,,color_black2,743005,,,,,,,,black_plus_sign,,,null,,,,,,,,,,,,,,,,,,,
null,,learn_phase(without_color)2,746525,,,,,,,,black_plus_sign,,,null,object_06b.png,object_09a.png,,,,,,,,,,,,,,,,,
null,,black_cross(without_color)2,747370,,,,,,,,green,,,null,object_06b.png,object_09a.png,,,,,,,,,,,,,,,,,
null,,rt_plussign_withcolor2,747874,,,,,,,,green,,,null,object_06b.png,object_09a.png,,,,,,,,,,,,,,,,,
1422.9000000059605,,rt_thecrossant_black2,749055,,,,,,,,black_plus_sign,,,50,,,1,,,,,,,0.9230769230769231,,,,,,,,,
null,,color_black2,749168,,,,,,,,black_plus_sign,,,null,,,,,,,,,,,,,,,,,,,
null,,learn_phase(without_color)2,752675,,,,,,,,black_plus_sign,,,null,object_13b.png,object_07a.png,,,,,,,,,,,,,,,,,
null,,black_cross(without_color)2,753679,,,,,,,,green,,,null,object_13b.png,object_07a.png,,,,,,,,,,,,,,,,,
null,,rt_plussign_withcolor2,754185,,,,,,,,green,,,null,object_13b.png,object_07a.png,,,,,,,,,,,,,,,,,
1285.5,,rt_thecrossant_black2,755207,,,,,,,,black_plus_sign,,,50,,,1,,,,,,,0.9285714285714286,,,,,,,,,
null,,color_black2,755328,,,,,,,,black_plus_sign,,,null,,,,,,,,,,,,,,,,,,,
null,,learn_phase(without_color)2,758843,,,,,,,,black_plus_sign,,,null,object_10a.png,object_12a.png,,,,,,,,,,,,,,,,,
null,,black_cross(without_color)2,759273,,,,,,,,blue,,,null,object_10a.png,object_12a.png,,,,,,,,,,,,,,,,,
null,,rt_plussign_withcolor2,759777,,,,,,,,blue,,,null,object_10a.png,object_12a.png,,,,,,,,,,,,,,,,,
1485,,rt_thecrossant_black2,761361,,,,,,,,black_plus_sign,,,49,,,1,,,,,,,0.9333333333333333,,,,,,,,,
null,,color_black2,761478,,,,,,,,black_plus_sign,,,null,,,,,,,,,,,,,,,,,,,
null,,thebreak,761592,,,,,,,,<p></p>,,,null,,,,,,,,,,,,,,,,,,,
19657.5,,intro_0,781253,,,,,,,,instruct,,,32,,,,,,,,,,,,,,,,,,,
3721.7999999970198,,directmemory_phase2,784979,,,,,,,,object_09b.png,,,50,,,1,,object_11c.png,object_05c.png,object_13b.png,object_05c.png,,0.3125,1,,,,,,,,
6872.4000000059605,,directmemory_phase2,791857,,,,,,,,object_12b.png,,,51,,,1,,object_11c.png,object_13b.png,object_05a.png,object_05a.png,,0.35294117647058826,1,,,,,,,,
5009.20000000298,,directmemory_phase2,796874,,,,,,,,object_12c.png,,,51,,,1,,object_01b.png,object_08b.png,object_11b.png,object_11b.png,,0.3888888888888889,1,,,,,,,,
4973.70000000298,,directmemory_phase2,801854,,,,,,,,object_03b.png,,,51,,,1,,object_13b.png,object_06c.png,object_08a.png,object_08a.png,,0.42105263157894735,1,,,,,,,,
3266.4000000059605,,directmemory_phase2,805126,,,,,,,,object_10c.png,,,50,,,1,,object_10a.png,object_06c.png,object_01c.png,object_06c.png,,0.45,1,,,,,,,,
8765.60000000894,,directmemory_phase2,813899,,,,,,,,object_12a.png,,,50,,,1,,object_06b.png,object_10a.png,object_11a.png,object_10a.png,,0.47619047619047616,1,,,,,,,,
3260.5,,directmemory_phase2,817167,,,,,,,,object_04c.png,,,50,,,1,,object_13c.png,object_11c.png,object_05a.png,object_11c.png,,0.5,1,,,,,,,,
2995.2000000029802,,directmemory_phase2,820169,,,,,,,,object_02c.png,,,49,,,1,,object_01b.png,object_08a.png,object_05c.png,object_01b.png,,0.5217391304347826,1,,,,,,,,
8669.29999999702,,directmemory_phase2,828845,,,,,,,,object_07a.png,,,50,,,1,,object_06b.png,object_13b.png,object_08a.png,object_13b.png,,0.5416666666666666,1,,,,,,,,
7390.29999999702,,directmemory_phase2,836242,,,,,,,,object_04b.png,,,51,,,1,,object_13c.png,object_11c.png,object_01c.png,object_01c.png,,0.56,1,,,,,,,,
3470.2000000029802,,directmemory_phase2,839720,,,,,,,,object_14b.png,,,49,,,1,,object_10b.png,object_11a.png,object_01c.png,object_10b.png,,0.5769230769230769,1,,,,,,,,
6157.899999991059,,directmemory_phase2,845885,,,,,,,,object_09a.png,,,51,,,1,,object_11a.png,object_10a.png,object_06b.png,object_06b.png,,0.5925925925925926,1,,,,,,,,
3876.8999999910593,,directmemory_phase2,849769,,,,,,,,object_02a.png,,,51,,,1,,object_01c.png,object_11b.png,object_13c.png,object_13c.png,,0.6071428571428571,1,,,,,,,,
3328.7000000029802,,directmemory_phase2,853104,,,,,,,,object_15c.png,,,50,,,1,,object_05a.png,object_08b.png,object_06b.png,object_08b.png,,0.6206896551724138,1,,,,,,,,
7676.199999988079,,directmemory_phase2,860787,,,,,,,,object_02b.png,,,49,,,1,,object_11a.png,object_13c.png,object_13b.png,object_11a.png,,0.6333333333333333,1,,,,,,,,
null,,thebreak,860892,,,,,,,,<p></p>,,,null,,,,,,,,,,,,,,,,,,,
28443.70000000298,,intro_0,889339,,,,,,,,instruct,,,32,,,,,,,,,,,,,,,,,,,
null,,learn_phase(without_color)3,892846,,,,,,,,black_plus_sign,,,null,object_11a.png,object_02b.png,,,,,,,,,,,,,,,,,
null,,black_cross(without_color)3,893634,,,,,,,,green,,,null,object_11a.png,object_02b.png,,,,,,,,,,,,,,,,,
null,,rt_plussign_withcolor3,894139,,,,,,,,green,,,null,object_11a.png,object_02b.png,,,,,,,,,,,,,,,,,
1215.9000000059605,,rt_thecrossant_black3,895371,,,,,,,,black_plus_sign,,,50,,,1,,,,,,,1,,,,,,,,,
null,,color_black3,895488,,,,,,,,black_plus_sign,,,null,,,,,,,,,,,,,,,,,,,
null,,learn_phase(without_color)3,898993,,,,,,,,black_plus_sign,,,null,object_06c.png,object_10c.png,,,,,,,,,,,,,,,,,
null,,black_cross(without_color)3,899624,,,,,,,,blue,,,null,object_06c.png,object_10c.png,,,,,,,,,,,,,,,,,
null,,rt_plussign_withcolor3,900130,,,,,,,,blue,,,null,object_06c.png,object_10c.png,,,,,,,,,,,,,,,,,
1012.4000000059605,,rt_thecrossant_black3,901521,,,,,,,,black_plus_sign,,,49,,,1,,,,,,,1,,,,,,,,,
null,,color_black3,901641,,,,,,,,black_plus_sign,,,null,,,,,,,,,,,,,,,,,,,
null,,learn_phase(without_color)3,905153,,,,,,,,black_plus_sign,,,null,object_01b.png,object_02c.png,,,,,,,,,,,,,,,,,
null,,black_cross(without_color)3,905711,,,,,,,,green,,,null,object_01b.png,object_02c.png,,,,,,,,,,,,,,,,,
null,,rt_plussign_withcolor3,906224,,,,,,,,green,,,null,object_01b.png,object_02c.png,,,,,,,,,,,,,,,,,
1022.2999999970198,,rt_thecrossant_black3,907690,,,,,,,,black_plus_sign,,,50,,,1,,,,,,,1,,,,,,,,,
null,,color_black3,907797,,,,,,,,black_plus_sign,,,null,,,,,,,,,,,,,,,,,,,
null,,learn_phase(without_color)3,911313,,,,,,,,black_plus_sign,,,null,object_08b.png,object_15c.png,,,,,,,,,,,,,,,,,
null,,black_cross(without_color)3,911996,,,,,,,,green,,,null,object_08b.png,object_15c.png,,,,,,,,,,,,,,,,,
null,,rt_plussign_withcolor3,912506,,,,,,,,green,,,null,object_08b.png,object_15c.png,,,,,,,,,,,,,,,,,
884,,rt_thecrossant_black3,913857,,,,,,,,black_plus_sign,,,50,,,1,,,,,,,1,,,,,,,,,
null,,color_black3,913979,,,,,,,,black_plus_sign,,,null,,,,,,,,,,,,,,,,,,,
null,,learn_phase(without_color)3,917485,,,,,,,,black_plus_sign,,,null,object_10a.png,object_12a.png,,,,,,,,,,,,,,,,,
null,,black_cross(without_color)3,918307,,,,,,,,green,,,null,object_10a.png,object_12a.png,,,,,,,,,,,,,,,,,
null,,rt_plussign_withcolor3,918819,,,,,,,,green,,,null,object_10a.png,object_12a.png,,,,,,,,,,,,,,,,,
848.1999999880791,,rt_thecrossant_black3,920026,,,,,,,,black_plus_sign,,,50,,,1,,,,,,,1,,,,,,,,,
null,,color_black3,920132,,,,,,,,black_plus_sign,,,null,,,,,,,,,,,,,,,,,,,
null,,learn_phase(without_color)3,923647,,,,,,,,black_plus_sign,,,null,object_05c.png,object_09b.png,,,,,,,,,,,,,,,,,
null,,black_cross(without_color)3,924523,,,,,,,,blue,,,null,object_05c.png,object_09b.png,,,,,,,,,,,,,,,,,
null,,rt_plussign_withcolor3,925032,,,,,,,,blue,,,null,object_05c.png,object_09b.png,,,,,,,,,,,,,,,,,
1450.9000000059605,,rt_thecrossant_black3,926174,,,,,,,,black_plus_sign,,,49,,,1,,,,,,,1,,,,,,,,,
null,,color_black3,926281,,,,,,,,black_plus_sign,,,null,,,,,,,,,,,,,,,,,,,
null,,learn_phase(without_color)3,929798,,,,,,,,black_plus_sign,,,null,object_08a.png,object_03b.png,,,,,,,,,,,,,,,,,
null,,black_cross(without_color)3,930404,,,,,,,,green,,,null,object_08a.png,object_03b.png,,,,,,,,,,,,,,,,,
null,,rt_plussign_withcolor3,930920,,,,,,,,green,,,null,object_08a.png,object_03b.png,,,,,,,,,,,,,,,,,
1204.7999999970198,,rt_thecrossant_black3,932341,,,,,,,,black_plus_sign,,,50,,,1,,,,,,,1,,,,,,,,,
null,,color_black3,932454,,,,,,,,black_plus_sign,,,null,,,,,,,,,,,,,,,,,,,
null,,learn_phase(without_color)3,935960,,,,,,,,black_plus_sign,,,null,object_11c.png,object_04c.png,,,,,,,,,,,,,,,,,
null,,black_cross(without_color)3,936650,,,,,,,,green,,,null,object_11c.png,object_04c.png,,,,,,,,,,,,,,,,,
null,,rt_plussign_withcolor3,937165,,,,,,,,green,,,null,object_11c.png,object_04c.png,,,,,,,,,,,,,,,,,
967.0999999940395,,rt_thecrossant_black3,938490,,,,,,,,black_plus_sign,,,50,,,1,,,,,,,1,,,,,,,,,
null,,color_black3,938607,,,,,,,,black_plus_sign,,,null,,,,,,,,,,,,,,,,,,,
null,,learn_phase(without_color)3,942113,,,,,,,,black_plus_sign,,,null,object_05a.png,object_12b.png,,,,,,,,,,,,,,,,,
null,,black_cross(without_color)3,943124,,,,,,,,green,,,null,object_05a.png,object_12b.png,,,,,,,,,,,,,,,,,
null,,rt_plussign_withcolor3,943641,,,,,,,,green,,,null,object_05a.png,object_12b.png,,,,,,,,,,,,,,,,,
912.0999999940395,,rt_thecrossant_black3,944667,,,,,,,,black_plus_sign,,,50,,,1,,,,,,,1,,,,,,,,,
null,,color_black3,944785,,,,,,,,black_plus_sign,,,null,,,,,,,,,,,,,,,,,,,
null,,learn_phase(without_color)3,948298,,,,,,,,black_plus_sign,,,null,object_01c.png,object_04b.png,,,,,,,,,,,,,,,,,
null,,black_cross(without_color)3,949210,,,,,,,,blue,,,null,object_01c.png,object_04b.png,,,,,,,,,,,,,,,,,
null,,rt_plussign_withcolor3,949719,,,,,,,,blue,,,null,object_01c.png,object_04b.png,,,,,,,,,,,,,,,,,
1571.1000000089407,,rt_thecrossant_black3,950833,,,,,,,,black_plus_sign,,,49,,,1,,,,,,,1,,,,,,,,,
null,,color_black3,950942,,,,,,,,black_plus_sign,,,null,,,,,,,,,,,,,,,,,,,
null,,learn_phase(without_color)3,954459,,,,,,,,black_plus_sign,,,null,object_13c.png,object_02a.png,,,,,,,,,,,,,,,,,
null,,black_cross(without_color)3,955531,,,,,,,,green,,,null,object_13c.png,object_02a.png,,,,,,,,,,,,,,,,,
null,,rt_plussign_withcolor3,956044,,,,,,,,green,,,null,object_13c.png,object_02a.png,,,,,,,,,,,,,,,,,
1290.7000000029802,,rt_thecrossant_black3,957002,,,,,,,,black_plus_sign,,,50,,,1,,,,,,,1,,,,,,,,,
null,,color_black3,957117,,,,,,,,black_plus_sign,,,null,,,,,,,,,,,,,,,,,,,
null,,learn_phase(without_color)3,960635,,,,,,,,black_plus_sign,,,null,object_06b.png,object_09a.png,,,,,,,,,,,,,,,,,
null,,black_cross(without_color)3,961135,,,,,,,,blue,,,null,object_06b.png,object_09a.png,,,,,,,,,,,,,,,,,
null,,rt_plussign_withcolor3,961639,,,,,,,,blue,,,null,object_06b.png,object_09a.png,,,,,,,,,,,,,,,,,
1838.5999999940395,,rt_thecrossant_black3,963175,,,,,,,,black_plus_sign,,,49,,,1,,,,,,,1,,,,,,,,,
null,,color_black3,963284,,,,,,,,black_plus_sign,,,null,,,,,,,,,,,,,,,,,,,
null,,learn_phase(without_color)3,966797,,,,,,,,black_plus_sign,,,null,object_10b.png,object_14b.png,,,,,,,,,,,,,,,,,
null,,black_cross(without_color)3,967325,,,,,,,,blue,,,null,object_10b.png,object_14b.png,,,,,,,,,,,,,,,,,
null,,rt_plussign_withcolor3,967844,,,,,,,,blue,,,null,object_10b.png,object_14b.png,,,,,,,,,,,,,,,,,
963.1000000089407,,rt_thecrossant_black3,969333,,,,,,,,black_plus_sign,,,49,,,1,,,,,,,1,,,,,,,,,
null,,color_black3,969438,,,,,,,,black_plus_sign,,,null,,,,,,,,,,,,,,,,,,,
null,,learn_phase(without_color)3,972950,,,,,,,,black_plus_sign,,,null,object_11b.png,object_12c.png,,,,,,,,,,,,,,,,,
null,,black_cross(without_color)3,973670,,,,,,,,green,,,null,object_11b.png,object_12c.png,,,,,,,,,,,,,,,,,
null,,rt_plussign_withcolor3,974182,,,,,,,,green,,,null,object_11b.png,object_12c.png,,,,,,,,,,,,,,,,,
679.5,,rt_thecrossant_black3,975497,,,,,,,,black_plus_sign,,,50,,,1,,,,,,,1,,,,,,,,,
null,,color_black3,975605,,,,,,,,black_plus_sign,,,null,,,,,,,,,,,,,,,,,,,
null,,learn_phase(without_color)3,979112,,,,,,,,black_plus_sign,,,null,object_13b.png,object_07a.png,,,,,,,,,,,,,,,,,
null,,black_cross(without_color)3,979634,,,,,,,,blue,,,null,object_13b.png,object_07a.png,,,,,,,,,,,,,,,,,
null,,rt_plussign_withcolor3,980142,,,,,,,,blue,,,null,object_13b.png,object_07a.png,,,,,,,,,,,,,,,,,
982.7000000029802,,rt_thecrossant_black3,981650,,,,,,,,black_plus_sign,,,49,,,1,,,,,,,1,,,,,,,,,
null,,color_black3,981769,,,,,,,,black_plus_sign,,,null,,,,,,,,,,,,,,,,,,,
null,,thebreak,981881,,,,,,,,<p></p>,,,null,,,,,,,,,,,,,,,,,,,
20018.80000001192,,intro_0,1001902,,,,,,,,instruct,,,32,,,,,,,,,,,,,,,,,,,
2504.7999999970198,,directmemory_phase3,1004413,,,,,,,,object_14b.png,,,51,,,1,,object_06c.png,object_13b.png,object_10b.png,object_10b.png,,0.6451612903225806,1,,,,,,,,
2926.8999999910593,,directmemory_phase3,1007347,,,,,,,,object_12c.png,,,51,,,1,,object_01c.png,object_13c.png,object_11b.png,object_11b.png,,0.65625,1,,,,,,,,
4434.20000000298,,directmemory_phase3,1011788,,,,,,,,object_04c.png,,,51,,,1,,object_01c.png,object_11a.png,object_11c.png,object_11c.png,,0.6666666666666666,1,,,,,,,,
6732.699999988079,,directmemory_phase3,1018530,,,,,,,,object_07a.png,,,50,,,1,,object_06c.png,object_13b.png,object_05a.png,object_13b.png,,0.6764705882352942,1,,,,,,,,
4234.20000000298,,directmemory_phase3,1022771,,,,,,,,object_09b.png,,,50,,,1,,object_05a.png,object_05c.png,object_06b.png,object_05c.png,,0.6857142857142857,1,,,,,,,,
3183.199999988079,,directmemory_phase3,1025967,,,,,,,,object_15c.png,,,51,,,1,,object_06b.png,object_06c.png,object_08b.png,object_08b.png,,0.6944444444444444,1,,,,,,,,
4839.79999999702,,directmemory_phase3,1030814,,,,,,,,object_02c.png,,,49,,,1,,object_01b.png,object_11c.png,object_08a.png,object_01b.png,,0.7027027027027027,1,,,,,,,,
3074.7000000029802,,directmemory_phase3,1033895,,,,,,,,object_02b.png,,,51,,,1,,object_05c.png,object_08b.png,object_11a.png,object_11a.png,,0.7105263157894737,1,,,,,,,,
3770,,directmemory_phase3,1037672,,,,,,,,object_03b.png,,,51,,,1,,object_05c.png,object_11a.png,object_08a.png,object_08a.png,,0.717948717948718,1,,,,,,,,
3218.199999988079,,directmemory_phase3,1040899,,,,,,,,object_09a.png,,,49,,,1,,object_06b.png,object_05a.png,object_10a.png,object_06b.png,,0.725,1,,,,,,,,
5811.29999999702,,directmemory_phase3,1046717,,,,,,,,object_10c.png,,,49,,,1,,object_06c.png,object_01b.png,object_01c.png,object_06c.png,,0.7317073170731707,1,,,,,,,,
4669.0999999940395,,directmemory_phase3,1051394,,,,,,,,object_12a.png,,,50,,,1,,object_11b.png,object_10a.png,object_06c.png,object_10a.png,,0.7380952380952381,1,,,,,,,,
3984.5,,directmemory_phase3,1055386,,,,,,,,object_12b.png,,,51,,,1,,object_13c.png,object_06c.png,object_05a.png,object_05a.png,,0.7441860465116279,1,,,,,,,,
2948.0999999940395,,directmemory_phase3,1058341,,,,,,,,object_04b.png,,,49,,,1,,object_01c.png,object_10a.png,object_06c.png,object_01c.png,,0.75,1,,,,,,,,
3214.7999999970198,,directmemory_phase3,1061563,,,,,,,,object_02a.png,,,49,,,1,,object_13c.png,object_11a.png,object_05a.png,object_13c.png,,0.7555555555555555,1,,,,,,,,
null,,thebreak,1061668,,,,,,,,<p></p>,,,null,,,,,,,,,,,,,,,,,,,
24949.80000001192,,intro_0,1086627,,,,,,,,instruct,,,32,,,,,,,,,,,,,,,,,,,
null,,learn_phase(without_color)4,1090137,,,,,,,,black_plus_sign,,,null,object_01c.png,object_04b.png,,,,,,,,,,,,,,,,,
null,,black_cross(without_color)4,1090976,,,,,,,,blue,,,null,object_01c.png,object_04b.png,,,,,,,,,,,,,,,,,
null,,rt_plussign_withcolor4,1091485,,,,,,,,blue,,,null,object_01c.png,object_04b.png,,,,,,,,,,,,,,,,,
1194,,rt_thecrossant_black4,1092665,,,,,,,,black_plus_sign,,,49,,,1,,,,,,,1,,,,,,,,,
null,,color_black4,1092786,,,,,,,,black_plus_sign,,,null,,,,,,,,,,,,,,,,,,,
null,,learn_phase(without_color)4,1096307,,,,,,,,black_plus_sign,,,null,object_05c.png,object_09b.png,,,,,,,,,,,,,,,,,
null,,black_cross(without_color)4,1097344,,,,,,,,green,,,null,object_05c.png,object_09b.png,,,,,,,,,,,,,,,,,
null,,rt_plussign_withcolor4,1097848,,,,,,,,green,,,null,object_05c.png,object_09b.png,,,,,,,,,,,,,,,,,
1274.9000000059605,,rt_thecrossant_black4,1098842,,,,,,,,black_plus_sign,,,50,,,1,,,,,,,1,,,,,,,,,
null,,color_black4,1098957,,,,,,,,black_plus_sign,,,null,,,,,,,,,,,,,,,,,,,
null,,learn_phase(without_color)4,1102468,,,,,,,,black_plus_sign,,,null,object_08a.png,object_03b.png,,,,,,,,,,,,,,,,,
null,,black_cross(without_color)4,1103345,,,,,,,,green,,,null,object_08a.png,object_03b.png,,,,,,,,,,,,,,,,,
null,,rt_plussign_withcolor4,1103855,,,,,,,,green,,,null,object_08a.png,object_03b.png,,,,,,,,,,,,,,,,,
1848.2000000029802,,rt_thecrossant_black4,1105000,,,,,,,,black_plus_sign,,,50,,,1,,,,,,,1,,,,,,,,,
null,,color_black4,1105115,,,,,,,,black_plus_sign,,,null,,,,,,,,,,,,,,,,,,,
null,,learn_phase(without_color)4,1108624,,,,,,,,black_plus_sign,,,null,object_10a.png,object_12a.png,,,,,,,,,,,,,,,,,
null,,black_cross(without_color)4,1109615,,,,,,,,blue,,,null,object_10a.png,object_12a.png,,,,,,,,,,,,,,,,,
385.29999999701977,,rt_plussign_withcolor4,1110120,,,,,,,,blue,,,49,object_10a.png,object_12a.png,,,,,,,,,,,,,,,,,
null,,rt_thecrossant_black4,1111151,,,,,,,,black_plus_sign,,,null,,,1,,,,,,,1,,,,,,,,,
null,,color_black4,1111265,,,,,,,,black_plus_sign,,,null,,,,,,,,,,,,,,,,,,,
null,,learn_phase(without_color)4,1114777,,,,,,,,black_plus_sign,,,null,object_11c.png,object_04c.png,,,,,,,,,,,,,,,,,
null,,black_cross(without_color)4,1115605,,,,,,,,green,,,null,object_11c.png,object_04c.png,,,,,,,,,,,,,,,,,
487.59999999403954,,rt_plussign_withcolor4,1116109,,,,,,,,green,,,50,object_11c.png,object_04c.png,,,,,,,,,,,,,,,,,
null,,rt_thecrossant_black4,1117301,,,,,,,,black_plus_sign,,,null,,,1,,,,,,,1,,,,,,,,,
null,,color_black4,1117415,,,,,,,,black_plus_sign,,,null,,,,,,,,,,,,,,,,,,,
null,,learn_phase(without_color)4,1120924,,,,,,,,black_plus_sign,,,null,object_11a.png,object_02b.png,,,,,,,,,,,,,,,,,
null,,black_cross(without_color)4,1121482,,,,,,,,green,,,null,object_11a.png,object_02b.png,,,,,,,,,,,,,,,,,
null,,rt_plussign_withcolor4,1121995,,,,,,,,green,,,null,object_11a.png,object_02b.png,,,,,,,,,,,,,,,,,
954.6999999880791,,rt_thecrossant_black4,1123469,,,,,,,,black_plus_sign,,,49,,,0,,,,,,,0.8333333333333334,,,,,,,,,
null,,color_black4,1123589,,,,,,,,black_plus_sign,,,null,,,,,,,,,,,,,,,,,,,
null,,learn_phase(without_color)4,1127103,,,,,,,,black_plus_sign,,,null,object_13b.png,object_07a.png,,,,,,,,,,,,,,,,,
null,,black_cross(without_color)4,1128016,,,,,,,,green,,,null,object_13b.png,object_07a.png,,,,,,,,,,,,,,,,,
null,,rt_plussign_withcolor4,1128531,,,,,,,,green,,,null,object_13b.png,object_07a.png,,,,,,,,,,,,,,,,,
763.3999999910593,,rt_thecrossant_black4,1129643,,,,,,,,black_plus_sign,,,50,,,1,,,,,,,0.8571428571428571,,,,,,,,,
null,,color_black4,1129764,,,,,,,,black_plus_sign,,,null,,,,,,,,,,,,,,,,,,,
null,,learn_phase(without_color)4,1133280,,,,,,,,black_plus_sign,,,null,object_10b.png,object_14b.png,,,,,,,,,,,,,,,,,
null,,black_cross(without_color)4,1133950,,,,,,,,blue,,,null,object_10b.png,object_14b.png,,,,,,,,,,,,,,,,,
null,,rt_plussign_withcolor4,1134456,,,,,,,,blue,,,null,object_10b.png,object_14b.png,,,,,,,,,,,,,,,,,
1337.5999999940395,,rt_thecrossant_black4,1135812,,,,,,,,black_plus_sign,,,49,,,1,,,,,,,0.875,,,,,,,,,
null,,color_black4,1135931,,,,,,,,black_plus_sign,,,null,,,,,,,,,,,,,,,,,,,
null,,learn_phase(without_color)4,1139446,,,,,,,,black_plus_sign,,,null,object_05a.png,object_12b.png,,,,,,,,,,,,,,,,,
null,,black_cross(without_color)4,1140032,,,,,,,,blue,,,null,object_05a.png,object_12b.png,,,,,,,,,,,,,,,,,
null,,rt_plussign_withcolor4,1140547,,,,,,,,blue,,,null,object_05a.png,object_12b.png,,,,,,,,,,,,,,,,,
1130.2000000029802,,rt_thecrossant_black4,1141986,,,,,,,,black_plus_sign,,,49,,,1,,,,,,,0.8888888888888888,,,,,,,,,
null,,color_black4,1142091,,,,,,,,black_plus_sign,,,null,,,,,,,,,,,,,,,,,,,
null,,learn_phase(without_color)4,1145599,,,,,,,,black_plus_sign,,,null,object_01b.png,object_02c.png,,,,,,,,,,,,,,,,,
null,,black_cross(without_color)4,1146260,,,,,,,,green,,,null,object_01b.png,object_02c.png,,,,,,,,,,,,,,,,,
null,,rt_plussign_withcolor4,1146776,,,,,,,,green,,,null,object_01b.png,object_02c.png,,,,,,,,,,,,,,,,,
1116.2000000029802,,rt_thecrossant_black4,1148145,,,,,,,,black_plus_sign,,,50,,,1,,,,,,,0.9,,,,,,,,,
null,,color_black4,1148263,,,,,,,,black_plus_sign,,,null,,,,,,,,,,,,,,,,,,,
null,,learn_phase(without_color)4,1151770,,,,,,,,black_plus_sign,,,null,object_08b.png,object_15c.png,,,,,,,,,,,,,,,,,
null,,black_cross(without_color)4,1152636,,,,,,,,blue,,,null,object_08b.png,object_15c.png,,,,,,,,,,,,,,,,,
null,,rt_plussign_withcolor4,1153150,,,,,,,,blue,,,null,object_08b.png,object_15c.png,,,,,,,,,,,,,,,,,
892,,rt_thecrossant_black4,1154302,,,,,,,,black_plus_sign,,,49,,,1,,,,,,,0.9090909090909091,,,,,,,,,
null,,color_black4,1154422,,,,,,,,black_plus_sign,,,null,,,,,,,,,,,,,,,,,,,
null,,learn_phase(without_color)4,1157937,,,,,,,,black_plus_sign,,,null,object_06b.png,object_09a.png,,,,,,,,,,,,,,,,,
null,,black_cross(without_color)4,1159048,,,,,,,,green,,,null,object_06b.png,object_09a.png,,,,,,,,,,,,,,,,,
null,,rt_plussign_withcolor4,1159561,,,,,,,,green,,,null,object_06b.png,object_09a.png,,,,,,,,,,,,,,,,,
969.7000000029802,,rt_thecrossant_black4,1160478,,,,,,,,black_plus_sign,,,50,,,1,,,,,,,0.9166666666666666,,,,,,,,,
null,,color_black4,1160591,,,,,,,,black_plus_sign,,,null,,,,,,,,,,,,,,,,,,,
null,,learn_phase(without_color)4,1164100,,,,,,,,black_plus_sign,,,null,object_11b.png,object_12c.png,,,,,,,,,,,,,,,,,
null,,black_cross(without_color)4,1164893,,,,,,,,blue,,,null,object_11b.png,object_12c.png,,,,,,,,,,,,,,,,,
453.1000000089407,,rt_plussign_withcolor4,1165403,,,,,,,,blue,,,49,object_11b.png,object_12c.png,,,,,,,,,,,,,,,,,
null,,rt_thecrossant_black4,1166624,,,,,,,,black_plus_sign,,,null,,,1,,,,,,,0.9230769230769231,,,,,,,,,
null,,color_black4,1166731,,,,,,,,black_plus_sign,,,null,,,,,,,,,,,,,,,,,,,
null,,learn_phase(without_color)4,1170245,,,,,,,,black_plus_sign,,,null,object_06c.png,object_10c.png,,,,,,,,,,,,,,,,,
null,,black_cross(without_color)4,1170786,,,,,,,,green,,,null,object_06c.png,object_10c.png,,,,,,,,,,,,,,,,,
null,,rt_plussign_withcolor4,1171295,,,,,,,,green,,,null,object_06c.png,object_10c.png,,,,,,,,,,,,,,,,,
1227.2999999970198,,rt_thecrossant_black4,1172777,,,,,,,,black_plus_sign,,,50,,,1,,,,,,,0.9285714285714286,,,,,,,,,
null,,color_black4,1172887,,,,,,,,black_plus_sign,,,null,,,,,,,,,,,,,,,,,,,
null,,learn_phase(without_color)4,1176399,,,,,,,,black_plus_sign,,,null,object_13c.png,object_02a.png,,,,,,,,,,,,,,,,,
null,,black_cross(without_color)4,1177090,,,,,,,,green,,,null,object_13c.png,object_02a.png,,,,,,,,,,,,,,,,,
null,,rt_plussign_withcolor4,1177599,,,,,,,,green,,,null,object_13c.png,object_02a.png,,,,,,,,,,,,,,,,,
889.5,,rt_thecrossant_black4,1178933,,,,,,,,black_plus_sign,,,50,,,1,,,,,,,0.9333333333333333,,,,,,,,,
null,,color_black4,1179038,,,,,,,,black_plus_sign,,,null,,,,,,,,,,,,,,,,,,,
null,,thebreak,1179147,,,,,,,,<p></p>,,,null,,,,,,,,,,,,,,,,,,,
17079.79999999702,,intro_0,1196231,,,,,,,,instruct,,,32,,,,,,,,,,,,,,,,,,,
5527.5,,directmemory_phase4,1201764,,,,,,,,object_04c.png,,,51,,,1,,object_01c.png,object_06c.png,object_11c.png,object_11c.png,,0.7608695652173914,1,,,,,,,,
9071.09999999404,,directmemory_phase4,1210851,,,,,,,,object_12a.png,,,49,,,0,,object_13b.png,object_10a.png,object_11c.png,object_10a.png,,0.7446808510638298,0,,,,,,,,
3601.4000000059605,,directmemory_phase4,1214460,,,,,,,,object_15c.png,,,49,,,1,,object_08b.png,object_05c.png,object_01b.png,object_08b.png,,0.75,1,,,,,,,,
8023.0999999940395,,directmemory_phase4,1222490,,,,,,,,object_02a.png,,,50,,,0,,object_05c.png,object_05a.png,object_13c.png,object_13c.png,,0.7346938775510204,0,,,,,,,,
2704.0999999940395,,directmemory_phase4,1225201,,,,,,,,object_09b.png,,,49,,,1,,object_05c.png,object_11c.png,object_10a.png,object_05c.png,,0.74,1,,,,,,,,
3106.7000000029802,,directmemory_phase4,1228315,,,,,,,,object_02b.png,,,49,,,1,,object_11a.png,object_01c.png,object_08b.png,object_11a.png,,0.7450980392156863,1,,,,,,,,
3736.1000000089407,,directmemory_phase4,1232060,,,,,,,,object_02c.png,,,49,,,1,,object_01b.png,object_01c.png,object_10a.png,object_01b.png,,0.75,1,,,,,,,,
3458.2999999970198,,directmemory_phase4,1235525,,,,,,,,object_12c.png,,,51,,,1,,object_06b.png,object_05a.png,object_11b.png,object_11b.png,,0.7547169811320755,1,,,,,,,,
7353.79999999702,,directmemory_phase4,1242887,,,,,,,,object_04b.png,,,50,,,1,,object_11a.png,object_01c.png,object_06b.png,object_01c.png,,0.7592592592592593,1,,,,,,,,
5786,,directmemory_phase4,1248681,,,,,,,,object_09a.png,,,50,,,1,,object_01b.png,object_06b.png,object_10a.png,object_06b.png,,0.7636363636363637,1,,,,,,,,
5228.29999999702,,directmemory_phase4,1253916,,,,,,,,object_12b.png,,,49,,,1,,object_05a.png,object_06c.png,object_11a.png,object_05a.png,,0.7678571428571429,1,,,,,,,,
2532,,directmemory_phase4,1256455,,,,,,,,object_07a.png,,,51,,,1,,object_08a.png,object_11b.png,object_13b.png,object_13b.png,,0.7719298245614035,1,,,,,,,,
9668.90000000596,,directmemory_phase4,1266131,,,,,,,,object_03b.png,,,50,,,1,,object_05a.png,object_08a.png,object_10a.png,object_08a.png,,0.7758620689655172,1,,,,,,,,
5786.79999999702,,directmemory_phase4,1271926,,,,,,,,object_14b.png,,,51,,,1,,object_11a.png,object_11c.png,object_10b.png,object_10b.png,,0.7796610169491526,1,,,,,,,,
3379.7999999970198,,directmemory_phase4,1275313,,,,,,,,object_10c.png,,,50,,,1,,object_08b.png,object_06c.png,object_11c.png,object_06c.png,,0.7833333333333333,1,,,,,,,,
null,,thebreak,1275426,,,,,,,,<p></p>,,,null,,,,,,,,,,,,,,,,,,,
30078.89999999106,,intro_0,1305509,,,,,,,,instruct,,,32,,,,,,,,,,,,,,,,,,,
null,,learn_phase(without_color)5,1309022,,,,,,,,black_plus_sign,,,null,object_02b.png,object_14c.png,,,,,,,,,,,,,,,,,
null,,black_cross(without_color)5,1309997,,,,,,,,blue,,,null,object_02b.png,object_14c.png,,,,,,,,,,,,,,,,,
null,,rt_plussign_withcolor5,1310516,,,,,,,,blue,,,null,object_02b.png,object_14c.png,,,,,,,,,,,,,,,,,
1082.2000000029802,,rt_thecrossant_black5,1311561,,,,,,,,black_plus_sign,,,49,,,1,,,,,,,1,,,,,,,,,
null,,color_black5,1311670,,,,,,,,black_plus_sign,,,null,,,,,,,,,,,,,,,,,,,
null,,learn_phase(without_color)5,1315184,,,,,,,,black_plus_sign,,,null,object_12b.png,object_01a.png,,,,,,,,,,,,,,,,,
null,,black_cross(without_color)5,1315651,,,,,,,,green,,,null,object_12b.png,object_01a.png,,,,,,,,,,,,,,,,,
null,,rt_plussign_withcolor5,1316164,,,,,,,,green,,,null,object_12b.png,object_01a.png,,,,,,,,,,,,,,,,,
1066.7000000029802,,rt_thecrossant_black5,1317715,,,,,,,,black_plus_sign,,,50,,,1,,,,,,,1,,,,,,,,,
null,,color_black5,1317823,,,,,,,,black_plus_sign,,,null,,,,,,,,,,,,,,,,,,,
null,,learn_phase(without_color)5,1321334,,,,,,,,black_plus_sign,,,null,object_03b.png,object_07c.png,,,,,,,,,,,,,,,,,
null,,black_cross(without_color)5,1321765,,,,,,,,blue,,,null,object_03b.png,object_07c.png,,,,,,,,,,,,,,,,,
null,,rt_plussign_withcolor5,1322271,,,,,,,,blue,,,null,object_03b.png,object_07c.png,,,,,,,,,,,,,,,,,
945,,rt_thecrossant_black5,1323868,,,,,,,,black_plus_sign,,,49,,,1,,,,,,,1,,,,,,,,,
null,,color_black5,1323990,,,,,,,,black_plus_sign,,,null,,,,,,,,,,,,,,,,,,,
null,,learn_phase(without_color)5,1327503,,,,,,,,black_plus_sign,,,null,object_04b.png,object_08c.png,,,,,,,,,,,,,,,,,
null,,black_cross(without_color)5,1327943,,,,,,,,green,,,null,object_04b.png,object_08c.png,,,,,,,,,,,,,,,,,
null,,rt_plussign_withcolor5,1328455,,,,,,,,green,,,null,object_04b.png,object_08c.png,,,,,,,,,,,,,,,,,
763.7000000029802,,rt_thecrossant_black5,1330044,,,,,,,,black_plus_sign,,,50,,,1,,,,,,,1,,,,,,,,,
null,,color_black5,1330158,,,,,,,,black_plus_sign,,,null,,,,,,,,,,,,,,,,,,,
null,,learn_phase(without_color)5,1333669,,,,,,,,black_plus_sign,,,null,object_12c.png,object_05b.png,,,,,,,,,,,,,,,,,
null,,black_cross(without_color)5,1334143,,,,,,,,green,,,null,object_12c.png,object_05b.png,,,,,,,,,,,,,,,,,
null,,rt_plussign_withcolor5,1334650,,,,,,,,green,,,null,object_12c.png,object_05b.png,,,,,,,,,,,,,,,,,
925,,rt_thecrossant_black5,1336196,,,,,,,,black_plus_sign,,,50,,,1,,,,,,,1,,,,,,,,,
null,,color_black5,1336315,,,,,,,,black_plus_sign,,,null,,,,,,,,,,,,,,,,,,,
null,,learn_phase(without_color)5,1339824,,,,,,,,black_plus_sign,,,null,object_09a.png,object_03a.png,,,,,,,,,,,,,,,,,
null,,black_cross(without_color)5,1340905,,,,,,,,blue,,,null,object_09a.png,object_03a.png,,,,,,,,,,,,,,,,,
null,,rt_plussign_withcolor5,1341419,,,,,,,,blue,,,null,object_09a.png,object_03a.png,,,,,,,,,,,,,,,,,
964.4000000059605,,rt_thecrossant_black5,1342370,,,,,,,,black_plus_sign,,,49,,,1,,,,,,,1,,,,,,,,,
null,,color_black5,1342479,,,,,,,,black_plus_sign,,,null,,,,,,,,,,,,,,,,,,,
null,,learn_phase(without_color)5,1345994,,,,,,,,black_plus_sign,,,null,object_12a.png,object_15b.png,,,,,,,,,,,,,,,,,
null,,black_cross(without_color)5,1346684,,,,,,,,blue,,,null,object_12a.png,object_15b.png,,,,,,,,,,,,,,,,,
null,,rt_plussign_withcolor5,1347195,,,,,,,,blue,,,null,object_12a.png,object_15b.png,,,,,,,,,,,,,,,,,
1564.4000000059605,,rt_thecrossant_black5,1348547,,,,,,,,black_plus_sign,,,49,,,1,,,,,,,1,,,,,,,,,
null,,color_black5,1348662,,,,,,,,black_plus_sign,,,null,,,,,,,,,,,,,,,,,,,
null,,learn_phase(without_color)5,1352176,,,,,,,,black_plus_sign,,,null,object_07a.png,object_09c.png,,,,,,,,,,,,,,,,,
null,,black_cross(without_color)5,1353033,,,,,,,,blue,,,null,object_07a.png,object_09c.png,,,,,,,,,,,,,,,,,
null,,rt_plussign_withcolor5,1353538,,,,,,,,blue,,,null,object_07a.png,object_09c.png,,,,,,,,,,,,,,,,,
928.7999999970198,,rt_thecrossant_black5,1354706,,,,,,,,black_plus_sign,,,49,,,1,,,,,,,1,,,,,,,,,
null,,color_black5,1354814,,,,,,,,black_plus_sign,,,null,,,,,,,,,,,,,,,,,,,
null,,learn_phase(without_color)5,1358323,,,,,,,,black_plus_sign,,,null,object_15c.png,object_15a.png,,,,,,,,,,,,,,,,,
null,,black_cross(without_color)5,1359398,,,,,,,,blue,,,null,object_15c.png,object_15a.png,,,,,,,,,,,,,,,,,
null,,rt_plussign_withcolor5,1359905,,,,,,,,blue,,,null,object_15c.png,object_15a.png,,,,,,,,,,,,,,,,,
1149.3999999910593,,rt_thecrossant_black5,1360856,,,,,,,,black_plus_sign,,,49,,,1,,,,,,,1,,,,,,,,,
null,,color_black5,1360969,,,,,,,,black_plus_sign,,,null,,,,,,,,,,,,,,,,,,,
null,,learn_phase(without_color)5,1364476,,,,,,,,black_plus_sign,,,null,object_04c.png,object_04a.png,,,,,,,,,,,,,,,,,
null,,black_cross(without_color)5,1365229,,,,,,,,green,,,null,object_04c.png,object_04a.png,,,,,,,,,,,,,,,,,
null,,rt_plussign_withcolor5,1365737,,,,,,,,green,,,null,object_04c.png,object_04a.png,,,,,,,,,,,,,,,,,
1502.0999999940395,,rt_thecrossant_black5,1367013,,,,,,,,black_plus_sign,,,50,,,1,,,,,,,1,,,,,,,,,
null,,color_black5,1367125,,,,,,,,black_plus_sign,,,null,,,,,,,,,,,,,,,,,,,
null,,learn_phase(without_color)5,1370631,,,,,,,,black_plus_sign,,,null,object_02a.png,object_07b.png,,,,,,,,,,,,,,,,,
null,,black_cross(without_color)5,1371298,,,,,,,,green,,,null,object_02a.png,object_07b.png,,,,,,,,,,,,,,,,,
null,,rt_plussign_withcolor5,1371810,,,,,,,,green,,,null,object_02a.png,object_07b.png,,,,,,,,,,,,,,,,,
1272.4000000059605,,rt_thecrossant_black5,1373165,,,,,,,,black_plus_sign,,,50,,,1,,,,,,,1,,,,,,,,,
null,,color_black5,1373276,,,,,,,,black_plus_sign,,,null,,,,,,,,,,,,,,,,,,,
null,,learn_phase(without_color)5,1376791,,,,,,,,black_plus_sign,,,null,object_09b.png,object_13a.png,,,,,,,,,,,,,,,,,
null,,black_cross(without_color)5,1377560,,,,,,,,green,,,null,object_09b.png,object_13a.png,,,,,,,,,,,,,,,,,
null,,rt_plussign_withcolor5,1378078,,,,,,,,green,,,null,object_09b.png,object_13a.png,,,,,,,,,,,,,,,,,
1165.3999999910593,,rt_thecrossant_black5,1379355,,,,,,,,black_plus_sign,,,50,,,1,,,,,,,1,,,,,,,,,
null,,color_black5,1379462,,,,,,,,black_plus_sign,,,null,,,,,,,,,,,,,,,,,,,
null,,learn_phase(without_color)5,1382974,,,,,,,,black_plus_sign,,,null,object_02c.png,object_06a.png,,,,,,,,,,,,,,,,,
null,,black_cross(without_color)5,1383841,,,,,,,,green,,,null,object_02c.png,object_06a.png,,,,,,,,,,,,,,,,,
null,,rt_plussign_withcolor5,1384350,,,,,,,,green,,,null,object_02c.png,object_06a.png,,,,,,,,,,,,,,,,,
1059.2000000029802,,rt_thecrossant_black5,1385494,,,,,,,,black_plus_sign,,,50,,,1,,,,,,,1,,,,,,,,,
null,,color_black5,1385612,,,,,,,,black_plus_sign,,,null,,,,,,,,,,,,,,,,,,,
null,,learn_phase(without_color)5,1389123,,,,,,,,black_plus_sign,,,null,object_10c.png,object_03c.png,,,,,,,,,,,,,,,,,
null,,black_cross(without_color)5,1389792,,,,,,,,green,,,null,object_10c.png,object_03c.png,,,,,,,,,,,,,,,,,
null,,rt_plussign_withcolor5,1390296,,,,,,,,green,,,null,object_10c.png,object_03c.png,,,,,,,,,,,,,,,,,
1260.2000000029802,,rt_thecrossant_black5,1391649,,,,,,,,black_plus_sign,,,50,,,1,,,,,,,1,,,,,,,,,
null,,color_black5,1391763,,,,,,,,black_plus_sign,,,null,,,,,,,,,,,,,,,,,,,
null,,learn_phase(without_color)5,1395276,,,,,,,,black_plus_sign,,,null,object_14b.png,object_14a.png,,,,,,,,,,,,,,,,,
null,,black_cross(without_color)5,1395715,,,,,,,,green,,,null,object_14b.png,object_14a.png,,,,,,,,,,,,,,,,,
null,,rt_plussign_withcolor5,1396235,,,,,,,,green,,,null,object_14b.png,object_14a.png,,,,,,,,,,,,,,,,,
1036.9000000059605,,rt_thecrossant_black5,1397812,,,,,,,,black_plus_sign,,,50,,,1,,,,,,,1,,,,,,,,,
null,,color_black5,1397930,,,,,,,,black_plus_sign,,,null,,,,,,,,,,,,,,,,,,,
null,,thebreak,1398047,,,,,,,,<p></p>,,,null,,,,,,,,,,,,,,,,,,,
14697.10000000894,,intro_0,1412748,,,,,,,,instruct,,,32,,,,,,,,,,,,,,,,,,,
6411.20000000298,,directmemory_phase5,1419167,,,,,,,,object_13a.png,,,50,,,1,,object_04c.png,object_09b.png,object_10c.png,object_09b.png,,0.7868852459016393,1,,,,,,,,
2300.699999988079,,directmemory_phase5,1421475,,,,,,,,object_06a.png,,,49,,,1,,object_02c.png,object_15c.png,object_09b.png,object_02c.png,,0.7903225806451613,1,,,,,,,,
9031.09999999404,,directmemory_phase5,1430514,,,,,,,,object_05b.png,,,49,,,0,,object_15c.png,object_02b.png,object_12c.png,object_12c.png,,0.7777777777777778,0,,,,,,,,
3189.4000000059605,,directmemory_phase5,1433711,,,,,,,,object_07c.png,,,49,,,1,,object_03b.png,object_12b.png,object_04c.png,object_03b.png,,0.78125,1,,,,,,,,
4147,,directmemory_phase5,1437867,,,,,,,,object_08c.png,,,49,,,1,,object_04b.png,object_12c.png,object_07a.png,object_04b.png,,0.7846153846153846,1,,,,,,,,
3391.9000000059605,,directmemory_phase5,1441269,,,,,,,,object_15b.png,,,50,,,1,,object_09a.png,object_12a.png,object_07a.png,object_12a.png,,0.7878787878787878,1,,,,,,,,
5835.4000000059605,,directmemory_phase5,1447112,,,,,,,,object_14a.png,,,49,,,1,,object_14b.png,object_04c.png,object_02b.png,object_14b.png,,0.7910447761194029,1,,,,,,,,
2502.1000000089407,,directmemory_phase5,1449622,,,,,,,,object_03c.png,,,50,,,1,,object_02c.png,object_10c.png,object_04c.png,object_10c.png,,0.7941176470588235,1,,,,,,,,
4094.4000000059605,,directmemory_phase5,1453728,,,,,,,,object_09c.png,,,51,,,1,,object_12c.png,object_02b.png,object_07a.png,object_07a.png,,0.7971014492753623,1,,,,,,,,
6337.5,,directmemory_phase5,1460075,,,,,,,,object_07b.png,,,50,,,1,,object_09a.png,object_02a.png,object_07a.png,object_02a.png,,0.8,1,,,,,,,,
2351.2999999970198,,directmemory_phase5,1462434,,,,,,,,object_04a.png,,,49,,,1,,object_04c.png,object_12c.png,object_12b.png,object_04c.png,,0.8028169014084507,1,,,,,,,,
10702.59999999404,,directmemory_phase5,1473144,,,,,,,,object_14c.png,,,49,,,0,,object_12c.png,object_15c.png,object_02b.png,object_02b.png,,0.7916666666666666,0,,,,,,,,
2809,,directmemory_phase5,1475961,,,,,,,,object_15a.png,,,50,,,1,,object_03b.png,object_15c.png,object_09a.png,object_15c.png,,0.7945205479452054,1,,,,,,,,
5371.800000011921,,directmemory_phase5,1481341,,,,,,,,object_01a.png,,,49,,,1,,object_12b.png,object_09a.png,object_02b.png,object_12b.png,,0.7972972972972973,1,,,,,,,,
5043.29999999702,,directmemory_phase5,1486392,,,,,,,,object_03a.png,,,51,,,1,,object_03b.png,object_02c.png,object_09a.png,object_09a.png,,0.8,1,,,,,,,,
null,,thebreak,1486507,,,,,,,,<p></p>,,,null,,,,,,,,,,,,,,,,,,,
38534.70000000298,,intro_0,1525046,,,,,,,,instruct,,,32,,,,,,,,,,,,,,,,,,,
null,,learn_phase(without_color)6,1528559,,,,,,,,black_plus_sign,,,null,object_09b.png,object_13a.png,,,,,,,,,,,,,,,,,
null,,black_cross(without_color)6,1529422,,,,,,,,blue,,,null,object_09b.png,object_13a.png,,,,,,,,,,,,,,,,,
null,,rt_plussign_withcolor6,1529941,,,,,,,,blue,,,null,object_09b.png,object_13a.png,,,,,,,,,,,,,,,,,
1249.3999999910593,,rt_thecrossant_black6,1531094,,,,,,,,black_plus_sign,,,49,,,1,,,,,,,1,,,,,,,,,
null,,color_black6,1531214,,,,,,,,black_plus_sign,,,null,,,,,,,,,,,,,,,,,,,
null,,learn_phase(without_color)6,1534725,,,,,,,,black_plus_sign,,,null,object_12a.png,object_15b.png,,,,,,,,,,,,,,,,,
null,,black_cross(without_color)6,1535691,,,,,,,,blue,,,null,object_12a.png,object_15b.png,,,,,,,,,,,,,,,,,
null,,rt_plussign_withcolor6,1536211,,,,,,,,blue,,,null,object_12a.png,object_15b.png,,,,,,,,,,,,,,,,,
1173.7000000029802,,rt_thecrossant_black6,1537268,,,,,,,,black_plus_sign,,,49,,,1,,,,,,,1,,,,,,,,,
null,,color_black6,1537384,,,,,,,,black_plus_sign,,,null,,,,,,,,,,,,,,,,,,,
null,,learn_phase(without_color)6,1540898,,,,,,,,black_plus_sign,,,null,object_10c.png,object_03c.png,,,,,,,,,,,,,,,,,
null,,black_cross(without_color)6,1541914,,,,,,,,blue,,,null,object_10c.png,object_03c.png,,,,,,,,,,,,,,,,,
null,,rt_plussign_withcolor6,1542433,,,,,,,,blue,,,null,object_10c.png,object_03c.png,,,,,,,,,,,,,,,,,
1285.0999999940395,,rt_thecrossant_black6,1543437,,,,,,,,black_plus_sign,,,49,,,1,,,,,,,1,,,,,,,,,
null,,color_black6,1543551,,,,,,,,black_plus_sign,,,null,,,,,,,,,,,,,,,,,,,
null,,learn_phase(without_color)6,1547063,,,,,,,,black_plus_sign,,,null,object_04c.png,object_04a.png,,,,,,,,,,,,,,,,,
null,,black_cross(without_color)6,1547865,,,,,,,,green,,,null,object_04c.png,object_04a.png,,,,,,,,,,,,,,,,,
null,,rt_plussign_withcolor6,1548375,,,,,,,,green,,,null,object_04c.png,object_04a.png,,,,,,,,,,,,,,,,,
1414.2999999970198,,rt_thecrossant_black6,1549585,,,,,,,,black_plus_sign,,,50,,,1,,,,,,,1,,,,,,,,,
null,,color_black6,1549697,,,,,,,,black_plus_sign,,,null,,,,,,,,,,,,,,,,,,,
null,,learn_phase(without_color)6,1553205,,,,,,,,black_plus_sign,,,null,object_03b.png,object_07c.png,,,,,,,,,,,,,,,,,
null,,black_cross(without_color)6,1553875,,,,,,,,blue,,,null,object_03b.png,object_07c.png,,,,,,,,,,,,,,,,,
null,,rt_plussign_withcolor6,1554380,,,,,,,,blue,,,null,object_03b.png,object_07c.png,,,,,,,,,,,,,,,,,
1236.5999999940395,,rt_thecrossant_black6,1555735,,,,,,,,black_plus_sign,,,49,,,1,,,,,,,1,,,,,,,,,
null,,color_black6,1555852,,,,,,,,black_plus_sign,,,null,,,,,,,,,,,,,,,,,,,
null,,learn_phase(without_color)6,1559363,,,,,,,,black_plus_sign,,,null,object_02b.png,object_14c.png,,,,,,,,,,,,,,,,,
null,,black_cross(without_color)6,1560004,,,,,,,,blue,,,null,object_02b.png,object_14c.png,,,,,,,,,,,,,,,,,
null,,rt_plussign_withcolor6,1560515,,,,,,,,blue,,,null,object_02b.png,object_14c.png,,,,,,,,,,,,,,,,,
1238.5,,rt_thecrossant_black6,1561899,,,,,,,,black_plus_sign,,,49,,,1,,,,,,,1,,,,,,,,,
null,,color_black6,1562006,,,,,,,,black_plus_sign,,,null,,,,,,,,,,,,,,,,,,,
null,,learn_phase(without_color)6,1565518,,,,,,,,black_plus_sign,,,null,object_12c.png,object_05b.png,,,,,,,,,,,,,,,,,
null,,black_cross(without_color)6,1566386,,,,,,,,green,,,null,object_12c.png,object_05b.png,,,,,,,,,,,,,,,,,
null,,rt_plussign_withcolor6,1566893,,,,,,,,green,,,null,object_12c.png,object_05b.png,,,,,,,,,,,,,,,,,
1185.7999999970198,,rt_thecrossant_black6,1568044,,,,,,,,black_plus_sign,,,50,,,1,,,,,,,1,,,,,,,,,
null,,color_black6,1568156,,,,,,,,black_plus_sign,,,null,,,,,,,,,,,,,,,,,,,
null,,learn_phase(without_color)6,1571671,,,,,,,,black_plus_sign,,,null,object_07a.png,object_09c.png,,,,,,,,,,,,,,,,,
null,,black_cross(without_color)6,1572500,,,,,,,,blue,,,null,object_07a.png,object_09c.png,,,,,,,,,,,,,,,,,
null,,rt_plussign_withcolor6,1573016,,,,,,,,blue,,,null,object_07a.png,object_09c.png,,,,,,,,,,,,,,,,,
1473.5999999940395,,rt_thecrossant_black6,1574219,,,,,,,,black_plus_sign,,,49,,,1,,,,,,,1,,,,,,,,,
null,,color_black6,1574340,,,,,,,,black_plus_sign,,,null,,,,,,,,,,,,,,,,,,,
null,,learn_phase(without_color)6,1577854,,,,,,,,black_plus_sign,,,null,object_02a.png,object_07b.png,,,,,,,,,,,,,,,,,
null,,black_cross(without_color)6,1578480,,,,,,,,blue,,,null,object_02a.png,object_07b.png,,,,,,,,,,,,,,,,,
null,,rt_plussign_withcolor6,1579001,,,,,,,,blue,,,null,object_02a.png,object_07b.png,,,,,,,,,,,,,,,,,
1371.5,,rt_thecrossant_black6,1580395,,,,,,,,black_plus_sign,,,49,,,1,,,,,,,1,,,,,,,,,
null,,color_black6,1580509,,,,,,,,black_plus_sign,,,null,,,,,,,,,,,,,,,,,,,
null,,learn_phase(without_color)6,1584016,,,,,,,,black_plus_sign,,,null,object_15c.png,object_15a.png,,,,,,,,,,,,,,,,,
null,,black_cross(without_color)6,1584878,,,,,,,,green,,,null,object_15c.png,object_15a.png,,,,,,,,,,,,,,,,,
null,,rt_plussign_withcolor6,1585390,,,,,,,,green,,,null,object_15c.png,object_15a.png,,,,,,,,,,,,,,,,,
1487.2000000029802,,rt_thecrossant_black6,1586556,,,,,,,,black_plus_sign,,,50,,,1,,,,,,,1,,,,,,,,,
null,,color_black6,1586663,,,,,,,,black_plus_sign,,,null,,,,,,,,,,,,,,,,,,,
null,,learn_phase(without_color)6,1590173,,,,,,,,black_plus_sign,,,null,object_12b.png,object_01a.png,,,,,,,,,,,,,,,,,
null,,black_cross(without_color)6,1590850,,,,,,,,blue,,,null,object_12b.png,object_01a.png,,,,,,,,,,,,,,,,,
null,,rt_plussign_withcolor6,1591359,,,,,,,,blue,,,null,object_12b.png,object_01a.png,,,,,,,,,,,,,,,,,
1136.8999999910593,,rt_thecrossant_black6,1592713,,,,,,,,black_plus_sign,,,49,,,1,,,,,,,1,,,,,,,,,
null,,color_black6,1592825,,,,,,,,black_plus_sign,,,null,,,,,,,,,,,,,,,,,,,
null,,learn_phase(without_color)6,1596337,,,,,,,,black_plus_sign,,,null,object_02c.png,object_06a.png,,,,,,,,,,,,,,,,,
null,,black_cross(without_color)6,1597135,,,,,,,,blue,,,null,object_02c.png,object_06a.png,,,,,,,,,,,,,,,,,
null,,rt_plussign_withcolor6,1597640,,,,,,,,blue,,,null,object_02c.png,object_06a.png,,,,,,,,,,,,,,,,,
1098.5999999940395,,rt_thecrossant_black6,1598871,,,,,,,,black_plus_sign,,,49,,,1,,,,,,,1,,,,,,,,,
null,,color_black6,1598979,,,,,,,,black_plus_sign,,,null,,,,,,,,,,,,,,,,,,,
null,,learn_phase(without_color)6,1602496,,,,,,,,black_plus_sign,,,null,object_09a.png,object_03a.png,,,,,,,,,,,,,,,,,
null,,black_cross(without_color)6,1603525,,,,,,,,blue,,,null,object_09a.png,object_03a.png,,,,,,,,,,,,,,,,,
null,,rt_plussign_withcolor6,1604036,,,,,,,,blue,,,null,object_09a.png,object_03a.png,,,,,,,,,,,,,,,,,
1031.300000011921,,rt_thecrossant_black6,1605035,,,,,,,,black_plus_sign,,,49,,,1,,,,,,,1,,,,,,,,,
null,,color_black6,1605159,,,,,,,,black_plus_sign,,,null,,,,,,,,,,,,,,,,,,,
null,,learn_phase(without_color)6,1608673,,,,,,,,black_plus_sign,,,null,object_04b.png,object_08c.png,,,,,,,,,,,,,,,,,
null,,black_cross(without_color)6,1609655,,,,,,,,green,,,null,object_04b.png,object_08c.png,,,,,,,,,,,,,,,,,
null,,rt_plussign_withcolor6,1610160,,,,,,,,green,,,null,object_04b.png,object_08c.png,,,,,,,,,,,,,,,,,
1377.5,,rt_thecrossant_black6,1611190,,,,,,,,black_plus_sign,,,50,,,1,,,,,,,1,,,,,,,,,
null,,color_black6,1611306,,,,,,,,black_plus_sign,,,null,,,,,,,,,,,,,,,,,,,
null,,learn_phase(without_color)6,1614825,,,,,,,,black_plus_sign,,,null,object_14b.png,object_14a.png,,,,,,,,,,,,,,,,,
null,,black_cross(without_color)6,1615359,,,,,,,,blue,,,null,object_14b.png,object_14a.png,,,,,,,,,,,,,,,,,
null,,rt_plussign_withcolor6,1615872,,,,,,,,blue,,,null,object_14b.png,object_14a.png,,,,,,,,,,,,,,,,,
1496.199999988079,,rt_thecrossant_black6,1617372,,,,,,,,black_plus_sign,,,49,,,1,,,,,,,1,,,,,,,,,
null,,color_black6,1617496,,,,,,,,black_plus_sign,,,null,,,,,,,,,,,,,,,,,,,
null,,thebreak,1617604,,,,,,,,<p></p>,,,null,,,,,,,,,,,,,,,,,,,
14515,,intro_0,1632123,,,,,,,,instruct,,,32,,,,,,,,,,,,,,,,,,,
4538.5,,directmemory_phase6,1636666,,,,,,,,object_14c.png,,,50,,,1,,object_12c.png,object_02b.png,object_07a.png,object_02b.png,,0.8026315789473685,1,,,,,,,,
3579.5,,directmemory_phase6,1640253,,,,,,,,object_06a.png,,,50,,,1,,object_07a.png,object_02c.png,object_02b.png,object_02c.png,,0.8051948051948052,1,,,,,,,,
2222.8999999910593,,directmemory_phase6,1642485,,,,,,,,object_15a.png,,,50,,,1,,object_07a.png,object_15c.png,object_02a.png,object_15c.png,,0.8076923076923077,1,,,,,,,,
5104.699999988079,,directmemory_phase6,1647598,,,,,,,,object_04a.png,,,49,,,1,,object_04c.png,object_07a.png,object_09b.png,object_04c.png,,0.810126582278481,1,,,,,,,,
3067.2999999970198,,directmemory_phase6,1650675,,,,,,,,object_07c.png,,,50,,,1,,object_04c.png,object_03b.png,object_15c.png,object_03b.png,,0.8125,1,,,,,,,,
8320.09999999404,,directmemory_phase6,1659003,,,,,,,,object_14a.png,,,50,,,1,,object_12c.png,object_14b.png,object_02b.png,object_14b.png,,0.8148148148148148,1,,,,,,,,
8034.79999999702,,directmemory_phase6,1667046,,,,,,,,object_15b.png,,,50,,,1,,object_15c.png,object_12a.png,object_02b.png,object_12a.png,,0.8170731707317073,1,,,,,,,,
3859.4000000059605,,directmemory_phase6,1670912,,,,,,,,object_07b.png,,,50,,,1,,object_10c.png,object_02a.png,object_04c.png,object_02a.png,,0.8192771084337349,1,,,,,,,,
3683.6000000089407,,directmemory_phase6,1674603,,,,,,,,object_09c.png,,,51,,,1,,object_12c.png,object_04b.png,object_07a.png,object_07a.png,,0.8214285714285714,1,,,,,,,,
7784.79999999702,,directmemory_phase6,1682396,,,,,,,,object_13a.png,,,51,,,1,,object_02c.png,object_03b.png,object_09b.png,object_09b.png,,0.8235294117647058,1,,,,,,,,
7357.5999999940395,,directmemory_phase6,1689762,,,,,,,,object_01a.png,,,49,,,1,,object_12b.png,object_02a.png,object_12c.png,object_12b.png,,0.8255813953488372,1,,,,,,,,
3885,,directmemory_phase6,1693655,,,,,,,,object_08c.png,,,49,,,1,,object_04b.png,object_12a.png,object_10c.png,object_04b.png,,0.8275862068965517,1,,,,,,,,
9313.09999999404,,directmemory_phase6,1702976,,,,,,,,object_05b.png,,,49,,,1,,object_12c.png,object_10c.png,object_12a.png,object_12c.png,,0.8295454545454546,1,,,,,,,,
6782,,directmemory_phase6,1709765,,,,,,,,object_03a.png,,,51,,,1,,object_15c.png,object_03b.png,object_09a.png,object_09a.png,,0.8314606741573034,1,,,,,,,,
7366.5,,directmemory_phase6,1717136,,,,,,,,object_03c.png,,,51,,,1,,object_07a.png,object_02b.png,object_10c.png,object_10c.png,,0.8333333333333334,1,,,,,,,,
null,,thebreak,1717249,,,,,,,,<p></p>,,,null,,,,,,,,,,,,,,,,,,,
20515.39999999106,,intro_0,1737767,,,,,,,,instruct,,,32,,,,,,,,,,,,,,,,,,,
null,,learn_phase(without_color)7,1741277,,,,,,,,black_plus_sign,,,null,object_02a.png,object_07b.png,,,,,,,,,,,,,,,,,
null,,black_cross(without_color)7,1742226,,,,,,,,green,,,null,object_02a.png,object_07b.png,,,,,,,,,,,,,,,,,
null,,rt_plussign_withcolor7,1742738,,,,,,,,green,,,null,object_02a.png,object_07b.png,,,,,,,,,,,,,,,,,
1455.7000000029802,,rt_thecrossant_black7,1743819,,,,,,,,black_plus_sign,,,50,,,1,,,,,,,1,,,,,,,,,
null,,color_black7,1743925,,,,,,,,black_plus_sign,,,null,,,,,,,,,,,,,,,,,,,
null,,learn_phase(without_color)7,1747446,,,,,,,,black_plus_sign,,,null,object_09b.png,object_13a.png,,,,,,,,,,,,,,,,,
null,,black_cross(without_color)7,1748015,,,,,,,,green,,,null,object_09b.png,object_13a.png,,,,,,,,,,,,,,,,,
null,,rt_plussign_withcolor7,1748536,,,,,,,,green,,,null,object_09b.png,object_13a.png,,,,,,,,,,,,,,,,,
1450.5999999940395,,rt_thecrossant_black7,1749996,,,,,,,,black_plus_sign,,,50,,,1,,,,,,,1,,,,,,,,,
null,,color_black7,1750115,,,,,,,,black_plus_sign,,,null,,,,,,,,,,,,,,,,,,,
null,,learn_phase(without_color)7,1753627,,,,,,,,black_plus_sign,,,null,object_09a.png,object_03a.png,,,,,,,,,,,,,,,,,
null,,black_cross(without_color)7,1754658,,,,,,,,green,,,null,object_09a.png,object_03a.png,,,,,,,,,,,,,,,,,
null,,rt_plussign_withcolor7,1755170,,,,,,,,green,,,null,object_09a.png,object_03a.png,,,,,,,,,,,,,,,,,
841.9000000059605,,rt_thecrossant_black7,1756169,,,,,,,,black_plus_sign,,,50,,,1,,,,,,,1,,,,,,,,,
null,,color_black7,1756280,,,,,,,,black_plus_sign,,,null,,,,,,,,,,,,,,,,,,,
null,,learn_phase(without_color)7,1759797,,,,,,,,black_plus_sign,,,null,object_14b.png,object_14a.png,,,,,,,,,,,,,,,,,
null,,black_cross(without_color)7,1760421,,,,,,,,green,,,null,object_14b.png,object_14a.png,,,,,,,,,,,,,,,,,
null,,rt_plussign_withcolor7,1760926,,,,,,,,green,,,null,object_14b.png,object_14a.png,,,,,,,,,,,,,,,,,
1435.800000011921,,rt_thecrossant_black7,1762331,,,,,,,,black_plus_sign,,,50,,,1,,,,,,,1,,,,,,,,,
null,,color_black7,1762437,,,,,,,,black_plus_sign,,,null,,,,,,,,,,,,,,,,,,,
null,,learn_phase(without_color)7,1765951,,,,,,,,black_plus_sign,,,null,object_02b.png,object_14c.png,,,,,,,,,,,,,,,,,
null,,black_cross(without_color)7,1766538,,,,,,,,blue,,,null,object_02b.png,object_14c.png,,,,,,,,,,,,,,,,,
null,,rt_plussign_withcolor7,1767050,,,,,,,,blue,,,null,object_02b.png,object_14c.png,,,,,,,,,,,,,,,,,
1016.2000000029802,,rt_thecrossant_black7,1768498,,,,,,,,black_plus_sign,,,49,,,1,,,,,,,1,,,,,,,,,
null,,color_black7,1768616,,,,,,,,black_plus_sign,,,null,,,,,,,,,,,,,,,,,,,
null,,learn_phase(without_color)7,1772129,,,,,,,,black_plus_sign,,,null,object_04c.png,object_04a.png,,,,,,,,,,,,,,,,,
null,,black_cross(without_color)7,1772649,,,,,,,,green,,,null,object_04c.png,object_04a.png,,,,,,,,,,,,,,,,,
null,,rt_plussign_withcolor7,1773159,,,,,,,,green,,,null,object_04c.png,object_04a.png,,,,,,,,,,,,,,,,,
1072.2000000029802,,rt_thecrossant_black7,1774680,,,,,,,,black_plus_sign,,,50,,,1,,,,,,,1,,,,,,,,,
null,,color_black7,1774796,,,,,,,,black_plus_sign,,,null,,,,,,,,,,,,,,,,,,,
null,,learn_phase(without_color)7,1778315,,,,,,,,black_plus_sign,,,null,object_02c.png,object_06a.png,,,,,,,,,,,,,,,,,
null,,black_cross(without_color)7,1779295,,,,,,,,blue,,,null,object_02c.png,object_06a.png,,,,,,,,,,,,,,,,,
null,,rt_plussign_withcolor7,1779811,,,,,,,,blue,,,null,object_02c.png,object_06a.png,,,,,,,,,,,,,,,,,
1127.7000000029802,,rt_thecrossant_black7,1780857,,,,,,,,black_plus_sign,,,49,,,1,,,,,,,1,,,,,,,,,
null,,color_black7,1780963,,,,,,,,black_plus_sign,,,null,,,,,,,,,,,,,,,,,,,
null,,learn_phase(without_color)7,1784474,,,,,,,,black_plus_sign,,,null,object_07a.png,object_09c.png,,,,,,,,,,,,,,,,,
null,,black_cross(without_color)7,1785578,,,,,,,,green,,,null,object_07a.png,object_09c.png,,,,,,,,,,,,,,,,,
null,,rt_plussign_withcolor7,1786095,,,,,,,,green,,,null,object_07a.png,object_09c.png,,,,,,,,,,,,,,,,,
1415.6000000089407,,rt_thecrossant_black7,1787012,,,,,,,,black_plus_sign,,,50,,,1,,,,,,,1,,,,,,,,,
null,,color_black7,1787130,,,,,,,,black_plus_sign,,,null,,,,,,,,,,,,,,,,,,,
null,,learn_phase(without_color)7,1790641,,,,,,,,black_plus_sign,,,null,object_15c.png,object_15a.png,,,,,,,,,,,,,,,,,
null,,black_cross(without_color)7,1791639,,,,,,,,blue,,,null,object_15c.png,object_15a.png,,,,,,,,,,,,,,,,,
null,,rt_plussign_withcolor7,1792157,,,,,,,,blue,,,null,object_15c.png,object_15a.png,,,,,,,,,,,,,,,,,
1478.9000000059605,,rt_thecrossant_black7,1793195,,,,,,,,black_plus_sign,,,49,,,1,,,,,,,1,,,,,,,,,
null,,color_black7,1793303,,,,,,,,black_plus_sign,,,null,,,,,,,,,,,,,,,,,,,
null,,learn_phase(without_color)7,1796817,,,,,,,,black_plus_sign,,,null,object_10c.png,object_03c.png,,,,,,,,,,,,,,,,,
null,,black_cross(without_color)7,1797670,,,,,,,,blue,,,null,object_10c.png,object_03c.png,,,,,,,,,,,,,,,,,
null,,rt_plussign_withcolor7,1798182,,,,,,,,blue,,,null,object_10c.png,object_03c.png,,,,,,,,,,,,,,,,,
1628.7000000029802,,rt_thecrossant_black7,1799356,,,,,,,,black_plus_sign,,,49,,,1,,,,,,,1,,,,,,,,,
null,,color_black7,1799471,,,,,,,,black_plus_sign,,,null,,,,,,,,,,,,,,,,,,,
null,,learn_phase(without_color)7,1802985,,,,,,,,black_plus_sign,,,null,object_04b.png,object_08c.png,,,,,,,,,,,,,,,,,
null,,black_cross(without_color)7,1803445,,,,,,,,blue,,,null,object_04b.png,object_08c.png,,,,,,,,,,,,,,,,,
null,,rt_plussign_withcolor7,1803957,,,,,,,,blue,,,null,object_04b.png,object_08c.png,,,,,,,,,,,,,,,,,
1381.8999999910593,,rt_thecrossant_black7,1805523,,,,,,,,black_plus_sign,,,49,,,1,,,,,,,1,,,,,,,,,
null,,color_black7,1805634,,,,,,,,black_plus_sign,,,null,,,,,,,,,,,,,,,,,,,
null,,learn_phase(without_color)7,1809150,,,,,,,,black_plus_sign,,,null,object_12a.png,object_15b.png,,,,,,,,,,,,,,,,,
null,,black_cross(without_color)7,1810189,,,,,,,,blue,,,null,object_12a.png,object_15b.png,,,,,,,,,,,,,,,,,
null,,rt_plussign_withcolor7,1810694,,,,,,,,blue,,,null,object_12a.png,object_15b.png,,,,,,,,,,,,,,,,,
1062.4000000059605,,rt_thecrossant_black7,1811684,,,,,,,,black_plus_sign,,,49,,,1,,,,,,,1,,,,,,,,,
null,,color_black7,1811791,,,,,,,,black_plus_sign,,,null,,,,,,,,,,,,,,,,,,,
null,,learn_phase(without_color)7,1815303,,,,,,,,black_plus_sign,,,null,object_03b.png,object_07c.png,,,,,,,,,,,,,,,,,
null,,black_cross(without_color)7,1816263,,,,,,,,green,,,null,object_03b.png,object_07c.png,,,,,,,,,,,,,,,,,
null,,rt_plussign_withcolor7,1816775,,,,,,,,green,,,null,object_03b.png,object_07c.png,,,,,,,,,,,,,,,,,
1245.7000000029802,,rt_thecrossant_black7,1817841,,,,,,,,black_plus_sign,,,50,,,1,,,,,,,1,,,,,,,,,
null,,color_black7,1817955,,,,,,,,black_plus_sign,,,null,,,,,,,,,,,,,,,,,,,
null,,learn_phase(without_color)7,1821472,,,,,,,,black_plus_sign,,,null,object_12b.png,object_01a.png,,,,,,,,,,,,,,,,,
null,,black_cross(without_color)7,1822388,,,,,,,,blue,,,null,object_12b.png,object_01a.png,,,,,,,,,,,,,,,,,
null,,rt_plussign_withcolor7,1822898,,,,,,,,blue,,,null,object_12b.png,object_01a.png,,,,,,,,,,,,,,,,,
1550.5,,rt_thecrossant_black7,1824009,,,,,,,,black_plus_sign,,,49,,,1,,,,,,,1,,,,,,,,,
null,,color_black7,1824118,,,,,,,,black_plus_sign,,,null,,,,,,,,,,,,,,,,,,,
null,,learn_phase(without_color)7,1827625,,,,,,,,black_plus_sign,,,null,object_12c.png,object_05b.png,,,,,,,,,,,,,,,,,
null,,black_cross(without_color)7,1828689,,,,,,,,blue,,,null,object_12c.png,object_05b.png,,,,,,,,,,,,,,,,,
null,,rt_plussign_withcolor7,1829196,,,,,,,,blue,,,null,object_12c.png,object_05b.png,,,,,,,,,,,,,,,,,
1076.3999999910593,,rt_thecrossant_black7,1830150,,,,,,,,black_plus_sign,,,49,,,1,,,,,,,1,,,,,,,,,
null,,color_black7,1830271,,,,,,,,black_plus_sign,,,null,,,,,,,,,,,,,,,,,,,
null,,thebreak,1830374,,,,,,,,<p></p>,,,null,,,,,,,,,,,,,,,,,,,
13189.59999999404,,intro_0,1843566,,,,,,,,instruct,,,32,,,,,,,,,,,,,,,,,,,
5128.5,,directmemory_phase7,1848696,,,,,,,,object_04a.png,,,51,,,1,,object_09a.png,object_02b.png,object_04c.png,object_04c.png,,0.8351648351648352,1,,,,,,,,
2410.2000000029802,,directmemory_phase7,1851108,,,,,,,,object_06a.png,,,50,,,1,,object_12a.png,object_02c.png,object_04c.png,object_02c.png,,0.8369565217391305,1,,,,,,,,
4248.5999999940395,,directmemory_phase7,1855360,,,,,,,,object_03a.png,,,50,,,1,,object_02c.png,object_09a.png,object_02b.png,object_09a.png,,0.8387096774193549,1,,,,,,,,
3811,,directmemory_phase7,1859177,,,,,,,,object_14c.png,,,50,,,1,,object_07a.png,object_02b.png,object_15c.png,object_02b.png,,0.8404255319148937,1,,,,,,,,
4889.9000000059605,,directmemory_phase7,1864075,,,,,,,,object_08c.png,,,49,,,1,,object_04b.png,object_07a.png,object_12b.png,object_04b.png,,0.8421052631578947,1,,,,,,,,
2455.4000000059605,,directmemory_phase7,1866539,,,,,,,,object_15a.png,,,49,,,1,,object_15c.png,object_02b.png,object_04b.png,object_15c.png,,0.84375,1,,,,,,,,
6255.399999991059,,directmemory_phase7,1872800,,,,,,,,object_14a.png,,,50,,,1,,object_09a.png,object_14b.png,object_03b.png,object_14b.png,,0.845360824742268,1,,,,,,,,
4415.5,,directmemory_phase7,1877221,,,,,,,,object_03c.png,,,49,,,1,,object_10c.png,object_02a.png,object_09a.png,object_10c.png,,0.8469387755102041,1,,,,,,,,
3084.7999999970198,,directmemory_phase7,1880314,,,,,,,,object_07c.png,,,50,,,1,,object_10c.png,object_03b.png,object_12a.png,object_03b.png,,0.8484848484848485,1,,,,,,,,
4595.4000000059605,,directmemory_phase7,1884919,,,,,,,,object_07b.png,,,50,,,1,,object_02b.png,object_02a.png,object_09b.png,object_02a.png,,0.85,1,,,,,,,,
6329.5,,directmemory_phase7,1891253,,,,,,,,object_01a.png,,,51,,,1,,object_02c.png,object_04b.png,object_12b.png,object_12b.png,,0.8514851485148515,1,,,,,,,,
3347.5999999940395,,directmemory_phase7,1894610,,,,,,,,object_15b.png,,,51,,,1,,object_12b.png,object_15c.png,object_12a.png,object_12a.png,,0.8529411764705882,1,,,,,,,,
5217.5,,directmemory_phase7,1899835,,,,,,,,object_13a.png,,,51,,,1,,object_02b.png,object_03b.png,object_09b.png,object_09b.png,,0.8543689320388349,1,,,,,,,,
8480.40000000596,,directmemory_phase7,1908324,,,,,,,,object_05b.png,,,51,,,1,,object_10c.png,object_07a.png,object_12c.png,object_12c.png,,0.8557692307692307,1,,,,,,,,
8721.5,,directmemory_phase7,1917053,,,,,,,,object_09c.png,,,51,,,1,,object_12c.png,object_09b.png,object_07a.png,object_07a.png,,0.8571428571428571,1,,,,,,,,
null,,thebreak,1917165,,,,,,,,<p></p>,,,null,,,,,,,,,,,,,,,,,,,
21883.90000000596,,intro_0,1939054,,,,,,,,instruct,,,32,,,,,,,,,,,,,,,,,,,
null,,learn_phase(without_color)8,1942564,,,,,,,,black_plus_sign,,,null,object_02a.png,object_07b.png,,,,,,,,,,,,,,,,,
null,,black_cross(without_color)8,1943508,,,,,,,,green,,,null,object_02a.png,object_07b.png,,,,,,,,,,,,,,,,,
null,,rt_plussign_withcolor8,1944017,,,,,,,,green,,,null,object_02a.png,object_07b.png,,,,,,,,,,,,,,,,,
1773.7000000029802,,rt_thecrossant_black8,1945093,,,,,,,,black_plus_sign,,,50,,,1,,,,,,,1,,,,,,,,,
null,,color_black8,1945201,,,,,,,,black_plus_sign,,,null,,,,,,,,,,,,,,,,,,,
null,,learn_phase(without_color)8,1948713,,,,,,,,black_plus_sign,,,null,object_14b.png,object_14a.png,,,,,,,,,,,,,,,,,
null,,black_cross(without_color)8,1949174,,,,,,,,blue,,,null,object_14b.png,object_14a.png,,,,,,,,,,,,,,,,,
null,,rt_plussign_withcolor8,1949686,,,,,,,,blue,,,null,object_14b.png,object_14a.png,,,,,,,,,,,,,,,,,
1255.6000000089407,,rt_thecrossant_black8,1951255,,,,,,,,black_plus_sign,,,49,,,1,,,,,,,1,,,,,,,,,
null,,color_black8,1951370,,,,,,,,black_plus_sign,,,null,,,,,,,,,,,,,,,,,,,
null,,learn_phase(without_color)8,1954892,,,,,,,,black_plus_sign,,,null,object_03b.png,object_07c.png,,,,,,,,,,,,,,,,,
null,,black_cross(without_color)8,1955470,,,,,,,,blue,,,null,object_03b.png,object_07c.png,,,,,,,,,,,,,,,,,
null,,rt_plussign_withcolor8,1955975,,,,,,,,blue,,,null,object_03b.png,object_07c.png,,,,,,,,,,,,,,,,,
991,,rt_thecrossant_black8,1957433,,,,,,,,black_plus_sign,,,49,,,1,,,,,,,1,,,,,,,,,
null,,color_black8,1957546,,,,,,,,black_plus_sign,,,null,,,,,,,,,,,,,,,,,,,
null,,learn_phase(without_color)8,1961051,,,,,,,,black_plus_sign,,,null,object_09b.png,object_13a.png,,,,,,,,,,,,,,,,,
null,,black_cross(without_color)8,1962125,,,,,,,,blue,,,null,object_09b.png,object_13a.png,,,,,,,,,,,,,,,,,
null,,rt_plussign_withcolor8,1962636,,,,,,,,blue,,,null,object_09b.png,object_13a.png,,,,,,,,,,,,,,,,,
802.2000000029802,,rt_thecrossant_black8,1963582,,,,,,,,black_plus_sign,,,49,,,1,,,,,,,1,,,,,,,,,
null,,color_black8,1963690,,,,,,,,black_plus_sign,,,null,,,,,,,,,,,,,,,,,,,
null,,learn_phase(without_color)8,1967208,,,,,,,,black_plus_sign,,,null,object_09a.png,object_03a.png,,,,,,,,,,,,,,,,,
null,,black_cross(without_color)8,1967982,,,,,,,,green,,,null,object_09a.png,object_03a.png,,,,,,,,,,,,,,,,,
null,,rt_plussign_withcolor8,1968494,,,,,,,,green,,,null,object_09a.png,object_03a.png,,,,,,,,,,,,,,,,,
1516.699999988079,,rt_thecrossant_black8,1969753,,,,,,,,black_plus_sign,,,50,,,1,,,,,,,1,,,,,,,,,
null,,color_black8,1969867,,,,,,,,black_plus_sign,,,null,,,,,,,,,,,,,,,,,,,
null,,learn_phase(without_color)8,1973378,,,,,,,,black_plus_sign,,,null,object_07a.png,object_09c.png,,,,,,,,,,,,,,,,,
null,,black_cross(without_color)8,1973902,,,,,,,,blue,,,null,object_07a.png,object_09c.png,,,,,,,,,,,,,,,,,
null,,rt_plussign_withcolor8,1974412,,,,,,,,blue,,,null,object_07a.png,object_09c.png,,,,,,,,,,,,,,,,,
1119.4000000059605,,rt_thecrossant_black8,1975917,,,,,,,,black_plus_sign,,,49,,,1,,,,,,,1,,,,,,,,,
null,,color_black8,1976033,,,,,,,,black_plus_sign,,,null,,,,,,,,,,,,,,,,,,,
null,,learn_phase(without_color)8,1979556,,,,,,,,black_plus_sign,,,null,object_02b.png,object_14c.png,,,,,,,,,,,,,,,,,
null,,black_cross(without_color)8,1980339,,,,,,,,blue,,,null,object_02b.png,object_14c.png,,,,,,,,,,,,,,,,,
null,,rt_plussign_withcolor8,1980847,,,,,,,,blue,,,null,object_02b.png,object_14c.png,,,,,,,,,,,,,,,,,
833.2000000029802,,rt_thecrossant_black8,1982085,,,,,,,,black_plus_sign,,,49,,,1,,,,,,,1,,,,,,,,,
null,,color_black8,1982194,,,,,,,,black_plus_sign,,,null,,,,,,,,,,,,,,,,,,,
null,,learn_phase(without_color)8,1985711,,,,,,,,black_plus_sign,,,null,object_04b.png,object_08c.png,,,,,,,,,,,,,,,,,
null,,black_cross(without_color)8,1986273,,,,,,,,green,,,null,object_04b.png,object_08c.png,,,,,,,,,,,,,,,,,
null,,rt_plussign_withcolor8,1986807,,,,,,,,green,,,null,object_04b.png,object_08c.png,,,,,,,,,,,,,,,,,
1211.5,,rt_thecrossant_black8,1988276,,,,,,,,black_plus_sign,,,50,,,1,,,,,,,1,,,,,,,,,
null,,color_black8,1988397,,,,,,,,black_plus_sign,,,null,,,,,,,,,,,,,,,,,,,
null,,learn_phase(without_color)8,1991918,,,,,,,,black_plus_sign,,,null,object_10c.png,object_03c.png,,,,,,,,,,,,,,,,,
null,,black_cross(without_color)8,1992856,,,,,,,,green,,,null,object_10c.png,object_03c.png,,,,,,,,,,,,,,,,,
null,,rt_plussign_withcolor8,1993373,,,,,,,,green,,,null,object_10c.png,object_03c.png,,,,,,,,,,,,,,,,,
1060.6000000089407,,rt_thecrossant_black8,1994451,,,,,,,,black_plus_sign,,,50,,,1,,,,,,,1,,,,,,,,,
null,,color_black8,1994570,,,,,,,,black_plus_sign,,,null,,,,,,,,,,,,,,,,,,,
null,,learn_phase(without_color)8,1998081,,,,,,,,black_plus_sign,,,null,object_12a.png,object_15b.png,,,,,,,,,,,,,,,,,
null,,black_cross(without_color)8,1999153,,,,,,,,blue,,,null,object_12a.png,object_15b.png,,,,,,,,,,,,,,,,,
null,,rt_plussign_withcolor8,1999659,,,,,,,,blue,,,null,object_12a.png,object_15b.png,,,,,,,,,,,,,,,,,
1100.4000000059605,,rt_thecrossant_black8,2000627,,,,,,,,black_plus_sign,,,49,,,1,,,,,,,1,,,,,,,,,
null,,color_black8,2000752,,,,,,,,black_plus_sign,,,null,,,,,,,,,,,,,,,,,,,
null,,learn_phase(without_color)8,2004270,,,,,,,,black_plus_sign,,,null,object_12b.png,object_01a.png,,,,,,,,,,,,,,,,,
null,,black_cross(without_color)8,2004943,,,,,,,,blue,,,null,object_12b.png,object_01a.png,,,,,,,,,,,,,,,,,
null,,rt_plussign_withcolor8,2005447,,,,,,,,blue,,,null,object_12b.png,object_01a.png,,,,,,,,,,,,,,,,,
1377.7999999970198,,rt_thecrossant_black8,2006803,,,,,,,,black_plus_sign,,,49,,,1,,,,,,,1,,,,,,,,,
null,,color_black8,2006914,,,,,,,,black_plus_sign,,,null,,,,,,,,,,,,,,,,,,,
null,,learn_phase(without_color)8,2010420,,,,,,,,black_plus_sign,,,null,object_04c.png,object_04a.png,,,,,,,,,,,,,,,,,
null,,black_cross(without_color)8,2011075,,,,,,,,green,,,null,object_04c.png,object_04a.png,,,,,,,,,,,,,,,,,
null,,rt_plussign_withcolor8,2011594,,,,,,,,green,,,null,object_04c.png,object_04a.png,,,,,,,,,,,,,,,,,
1104.2000000029802,,rt_thecrossant_black8,2012966,,,,,,,,black_plus_sign,,,50,,,1,,,,,,,1,,,,,,,,,
null,,color_black8,2013079,,,,,,,,black_plus_sign,,,null,,,,,,,,,,,,,,,,,,,
null,,learn_phase(without_color)8,2016595,,,,,,,,black_plus_sign,,,null,object_15c.png,object_15a.png,,,,,,,,,,,,,,,,,
null,,black_cross(without_color)8,2017074,,,,,,,,blue,,,null,object_15c.png,object_15a.png,,,,,,,,,,,,,,,,,
null,,rt_plussign_withcolor8,2017582,,,,,,,,blue,,,null,object_15c.png,object_15a.png,,,,,,,,,,,,,,,,,
1457.7999999970198,,rt_thecrossant_black8,2019130,,,,,,,,black_plus_sign,,,49,,,1,,,,,,,1,,,,,,,,,
null,,color_black8,2019241,,,,,,,,black_plus_sign,,,null,,,,,,,,,,,,,,,,,,,
null,,learn_phase(without_color)8,2022758,,,,,,,,black_plus_sign,,,null,object_12c.png,object_05b.png,,,,,,,,,,,,,,,,,
null,,black_cross(without_color)8,2023697,,,,,,,,blue,,,null,object_12c.png,object_05b.png,,,,,,,,,,,,,,,,,
null,,rt_plussign_withcolor8,2024215,,,,,,,,blue,,,null,object_12c.png,object_05b.png,,,,,,,,,,,,,,,,,
972.5999999940395,,rt_thecrossant_black8,2025304,,,,,,,,black_plus_sign,,,49,,,1,,,,,,,1,,,,,,,,,
null,,color_black8,2025419,,,,,,,,black_plus_sign,,,null,,,,,,,,,,,,,,,,,,,
null,,learn_phase(without_color)8,2028926,,,,,,,,black_plus_sign,,,null,object_02c.png,object_06a.png,,,,,,,,,,,,,,,,,
null,,black_cross(without_color)8,2029760,,,,,,,,blue,,,null,object_02c.png,object_06a.png,,,,,,,,,,,,,,,,,
null,,rt_plussign_withcolor8,2030275,,,,,,,,blue,,,null,object_02c.png,object_06a.png,,,,,,,,,,,,,,,,,
1735,,rt_thecrossant_black8,2031469,,,,,,,,black_plus_sign,,,49,,,1,,,,,,,1,,,,,,,,,
null,,color_black8,2031580,,,,,,,,black_plus_sign,,,null,,,,,,,,,,,,,,,,,,,
null,,thebreak,2031692,,,,,,,,<p></p>,,,null,,,,,,,,,,,,,,,,,,,
17559.79999999702,,intro_0,2049258,,,,,,,,instruct,,,32,,,,,,,,,,,,,,,,,,,
2389.9000000059605,,directmemory_phase8,2051653,,,,,,,,object_01a.png,,,50,,,1,,object_07a.png,object_12b.png,object_10c.png,object_12b.png,,0.8584905660377359,1,,,,,,,,
5446.0999999940395,,directmemory_phase8,2057108,,,,,,,,object_09c.png,,,50,,,1,,object_10c.png,object_07a.png,object_04b.png,object_07a.png,,0.8598130841121495,1,,,,,,,,
3036.0999999940395,,directmemory_phase8,2060152,,,,,,,,object_14c.png,,,50,,,1,,object_02c.png,object_02b.png,object_09a.png,object_02b.png,,0.8611111111111112,1,,,,,,,,
3384.7999999970198,,directmemory_phase8,2063545,,,,,,,,object_15a.png,,,49,,,1,,object_15c.png,object_03b.png,object_02b.png,object_15c.png,,0.8623853211009175,1,,,,,,,,
4801.399999991059,,directmemory_phase8,2068354,,,,,,,,object_13a.png,,,51,,,1,,object_02b.png,object_03b.png,object_09b.png,object_09b.png,,0.8636363636363636,1,,,,,,,,
5764.70000000298,,directmemory_phase8,2074127,,,,,,,,object_05b.png,,,50,,,1,,object_12a.png,object_12c.png,object_07a.png,object_12c.png,,0.8648648648648649,1,,,,,,,,
4286.100000008941,,directmemory_phase8,2078422,,,,,,,,object_08c.png,,,51,,,1,,object_09b.png,object_12b.png,object_04b.png,object_04b.png,,0.8660714285714286,1,,,,,,,,
5166.800000011921,,directmemory_phase8,2083598,,,,,,,,object_07c.png,,,51,,,1,,object_07a.png,object_02b.png,object_03b.png,object_03b.png,,0.8672566371681416,1,,,,,,,,
3972.7000000029802,,directmemory_phase8,2087580,,,,,,,,object_07b.png,,,51,,,1,,object_03b.png,object_09b.png,object_02a.png,object_02a.png,,0.868421052631579,1,,,,,,,,
4365.4000000059605,,directmemory_phase8,2091955,,,,,,,,object_06a.png,,,51,,,1,,object_09b.png,object_03b.png,object_02c.png,object_02c.png,,0.8695652173913043,1,,,,,,,,
2494.5999999940395,,directmemory_phase8,2094460,,,,,,,,object_04a.png,,,49,,,1,,object_04c.png,object_12a.png,object_09b.png,object_04c.png,,0.8706896551724138,1,,,,,,,,
3421,,directmemory_phase8,2097889,,,,,,,,object_03c.png,,,51,,,1,,object_12b.png,object_04b.png,object_10c.png,object_10c.png,,0.8717948717948718,1,,,,,,,,
6901,,directmemory_phase8,2104798,,,,,,,,object_14a.png,,,49,,,1,,object_14b.png,object_10c.png,object_02b.png,object_14b.png,,0.8728813559322034,1,,,,,,,,
4167.300000011921,,directmemory_phase8,2108977,,,,,,,,object_15b.png,,,50,,,1,,object_02b.png,object_12a.png,object_09b.png,object_12a.png,,0.8739495798319328,1,,,,,,,,
3932.9000000059605,,directmemory_phase8,2112918,,,,,,,,object_03a.png,,,51,,,1,,object_09b.png,object_02a.png,object_09a.png,object_09a.png,,0.875,1,,,,,,,,
null,,thebreak,2113031,,,,,,,,<p></p>,,,null,,,,,,,,,,,,,,,,,,,
8472.79999999702,,intro_0,2121509,,,,,,,,instruct,,,32,,,,,,,,,,,,,,,,,,,
16693.29999999702,,intro_1,2138207,,,,,,,,instruct,,,32,,,,,,,,,,,,,,,,,,,
9658,,intro_2,2147869,,,,,,,,instruct,,,32,,,,,,,,,,,,,,,,,,,
,,intro_3,2185402,,,,,,,,instruct,,,,,,,,,,,,,,,,,,,,,,
191897.79999999702,,intro_4,2377306,,,,,,,,instruct,,,32,,,,,,,,,,,,,,,,,,,
9126.5,,inference_phase,2386439,,,,,,,,object_03a.png,,,49,object_08a.png,object_06b.png,0,,,,,object_06b.png,,0,,object_11b.png,,,,,,,
5104.0999999940395,,inference_phase,2391552,,,,,,,,object_14c.png,,,49,object_01b.png,object_13b.png,0,,,,,object_11a.png,,0,,object_11a.png,,,,,,,
3662.4000000059605,,inference_phase,2395221,,,,,,,,object_14a.png,,,49,object_08b.png,object_05a.png,0,,,,,object_10b.png,,0,,object_10b.png,,,,,,,
7131.5999999940395,,inference_phase,2402360,,,,,,,,object_15a.png,,,49,object_01c.png,object_08b.png,0,,,,,object_08b.png,,0,,object_01b.png,,,,,,,
5432.5999999940395,,inference_phase,2407800,,,,,,,,object_08c.png,,,51,object_11b.png,object_08b.png,0,,,,,object_01c.png,,0,,object_01c.png,,,,,,,
4166.20000000298,,inference_phase,2411975,,,,,,,,object_07c.png,,,49,object_06b.png,object_08a.png,0,,,,,object_08a.png,,0,,object_01b.png,,,,,,,
5232.70000000298,,inference_phase,2417216,,,,,,,,object_03c.png,,,49,object_10a.png,object_06b.png,0,,,,,object_06c.png,,0,,object_06c.png,,,,,,,
7881.399999991059,,inference_phase,2425107,,,,,,,,object_09c.png,,,51,object_13b.png,object_06b.png,0,,,,,object_13b.png,,0,,object_01c.png,,,,,,,
5161.0999999940395,,inference_phase,2430278,,,,,,,,object_07b.png,,,51,object_13c.png,object_01b.png,0,,,,,object_13c.png,,0,,object_11c.png,,,,,,,
4956.899999991059,,inference_phase,2435243,,,,,,,,object_13a.png,,,50,object_06b.png,object_05a.png,1,,,,,object_05c.png,,0.1,,object_05c.png,,,,,,,
5296.5,,inference_phase,2440547,,,,,,,,object_05b.png,,,51,object_05c.png,object_11b.png,1,,,,,object_11b.png,,0.18181818181818182,,object_08a.png,,,,,,,
4660.5,,inference_phase,2445215,,,,,,,,object_01a.png,,,49,object_08b.png,object_05a.png,0,,,,,object_05a.png,,0.16666666666666666,,object_01c.png,,,,,,,
4269.29999999702,,inference_phase,2449492,,,,,,,,object_15b.png,,,51,object_13c.png,object_08a.png,0,,,,,object_10a.png,,0.15384615384615385,,object_10a.png,,,,,,,
4870.9000000059605,,inference_phase,2454370,,,,,,,,object_06a.png,,,50,object_05a.png,object_01b.png,0,,,,,object_01b.png,,0.14285714285714285,,object_11c.png,,,,,,,
4651.70000000298,,inference_phase,2459029,,,,,,,,object_04a.png,,,50,object_11c.png,object_10a.png,0,,,,,object_11c.png,,0.13333333333333333,,object_01b.png,,,,,,,
,,survey,2538586,,,,,,,,survey-questions,,,,,,,,,,,,,,,,none,high,No,I was trying color coordination,No,No,
