rt,responses,trial_type,time_elapsed,identifier_a,identifier_b,identifier_c,tasktype,browser_type,local_time,UTC_time,stimulus,button_pressed,response,key_press,stimulus_left,stimulus_right,practice_cumulative_accuracy,accuracy,stimulus_down_left,stimulus_down_mid,stimulus_down_right,stimulus_correct,prac_weighted_accuracy,cumulative_accuracy,failed_practice,weighted_accuracy,stimulus_middle,problems,smooth,distraction,strategies,easier,similar,comments,detectfocus,breakfocus,completion_code
18893.40000000596,{worker_id:6726c70622b97e6722fa53d8},id_enter,18895,object_08b.png; object_03b.png; object_11b.png; object_12c.png; object_06c.png; object_05b.png; object_10c.png; object_02a.png; object_01b.png; object_12b.png; object_02c.png; object_10b.png; object_08a.png; object_13a.png; object_15c.png,object_02b.png; object_14a.png; object_11c.png; object_03a.png; object_09a.png; object_05c.png; object_07a.png; object_01c.png; object_10a.png; object_08c.png; object_07b.png; object_01a.png; object_04c.png; object_11a.png; object_15a.png,object_04a.png; object_09c.png; object_14c.png; object_14b.png; object_06b.png; object_03c.png; object_06a.png; object_05a.png; object_04b.png; object_13b.png; object_07c.png; object_15b.png; object_09b.png; object_12a.png; object_13c.png,interleaved,Mozilla/5.0 (Windows NT 10.0; Win64; x64) AppleWebKit/537.36 (KHTML, like Gecko) Chrome/135.0.0.0 Safari/537.36,4/28/2025, 7:35:24 PM,2025-04-28 23:35:24.509,,,,,,,,,,,,,,,,,,,,,,,,,,,
20325,,make_fullscreen,39235,,,,,,,,fullscreen,0,,,,,,,,,,,,,,,,,,,,,,,,,
10990,,instruct_1,50227,,,,,,,,instruct,0,Next,,,,,,,,,,,,,,,,,,,,,,,,
17430.90000000596,,instruct_2,67661,,,,,,,,instruct,1,Next,,,,,,,,,,,,,,,,,,,,,,,,
8681.5,,instruct_3,76345,,,,,,,,instruct,1,Next,,,,,,,,,,,,,,,,,,,,,,,,
19042.19999998808,,instruct_4,95389,,,,,,,,instruct,1,Next,,,,,,,,,,,,,,,,,,,,,,,,
12942.300000011921,,instruct_5,108333,,,,,,,,instruct,1,Next,,,,,,,,,,,,,,,,,,,,,,,,
7953.700000017881,,instruct_6,116288,,,,,,,,instruct,1,Next,,,,,,,,,,,,,,,,,,,,,,,,
34818,,instruct_7,151109,,,,,,,,instruct,1,Next,,,,,,,,,,,,,,,,,,,,,,,,
null,,prac_atten_color_black,151831,,,,,,,,black_plus_sign,,,null,,,,,,,,,,,,,,,,,,,,,,,
null,,prac_atten_color,152529,,,,,,,,<p style='position:absolute;top: 50%;right: 50%;transform: translate(50%, -50%);font-size: 125px;color: blue;'>+</p>,,,null,,,,,,,,,,,,,,,,,,,,,,,
695.5999999940395,,prac_atten_color_black,154544,,,,,,,,black_plus_sign,,,50,,,,,,,,,,,,,,,,,,,,,,,
8104.399999976158,,attentioncheck_help,162652,,,,,,,,instruct,,,32,,,,,,,,,,,,,,,,,,,,,,,
null,,prac_atten_color_black,163381,,,,,,,,black_plus_sign,,,null,,,,,,,,,,,,,,,,,,,,,,,
null,,prac_atten_color,164296,,,,,,,,<p style='position:absolute;top: 50%;right: 50%;transform: translate(50%, -50%);font-size: 125px;color: green;'>+</p>,,,null,,,,,,,,,,,,,,,,,,,,,,,
563.4000000059605,,prac_atten_color_black,166305,,,,,,,,black_plus_sign,,,50,,,,,,,,,,,,,,,,,,,,,,,
null,,prac_atten_color_black,166806,,,,,,,,black_plus_sign,,,null,,,,,,,,,,,,,,,,,,,,,,,
680.0999999940395,,prac_atten_color,167878,,,,,,,,<p style='position:absolute;top: 50%;right: 50%;transform: translate(50%, -50%);font-size: 125px;color: green;'>+</p>,,,50,,,,,,,,,,,,,,,,,,,,,,,
null,,prac_atten_color_black,169883,,,,,,,,black_plus_sign,,,null,,,,,,,,,,,,,,,,,,,,,,,
null,,prac_atten_color_black,170251,,,,,,,,black_plus_sign,,,null,,,,,,,,,,,,,,,,,,,,,,,
604.1999999880791,,prac_atten_color,171054,,,,,,,,<p style='position:absolute;top: 50%;right: 50%;transform: translate(50%, -50%);font-size: 125px;color: blue;'>+</p>,,,49,,,,,,,,,,,,,,,,,,,,,,,
null,,prac_atten_color_black,173065,,,,,,,,black_plus_sign,,,null,,,,,,,,,,,,,,,,,,,,,,,
null,,prac_atten_color_black,173679,,,,,,,,black_plus_sign,,,null,,,,,,,,,,,,,,,,,,,,,,,
null,,prac_atten_color,174235,,,,,,,,<p style='position:absolute;top: 50%;right: 50%;transform: translate(50%, -50%);font-size: 125px;color: green;'>+</p>,,,null,,,,,,,,,,,,,,,,,,,,,,,
188.2999999821186,,prac_atten_color_black,176237,,,,,,,,black_plus_sign,,,50,,,,,,,,,,,,,,,,,,,,,,,
null,,prac_atten_color_black,177088,,,,,,,,black_plus_sign,,,null,,,,,,,,,,,,,,,,,,,,,,,
573.8000000119209,,prac_atten_color,177800,,,,,,,,<p style='position:absolute;top: 50%;right: 50%;transform: translate(50%, -50%);font-size: 125px;color: green;'>+</p>,,,50,,,,,,,,,,,,,,,,,,,,,,,
null,,prac_atten_color_black,179811,,,,,,,,black_plus_sign,,,null,,,,,,,,,,,,,,,,,,,,,,,
null,,prac_atten_color_black,180521,,,,,,,,black_plus_sign,,,null,,,,,,,,,,,,,,,,,,,,,,,
563.9000000059605,,prac_atten_color,181304,,,,,,,,<p style='position:absolute;top: 50%;right: 50%;transform: translate(50%, -50%);font-size: 125px;color: blue;'>+</p>,,,49,,,,,,,,,,,,,,,,,,,,,,,
null,,prac_atten_color_black,183318,,,,,,,,black_plus_sign,,,null,,,,,,,,,,,,,,,,,,,,,,,
null,,prac_atten_color_black,183953,,,,,,,,black_plus_sign,,,null,,,,,,,,,,,,,,,,,,,,,,,
null,,prac_atten_color,184524,,,,,,,,<p style='position:absolute;top: 50%;right: 50%;transform: translate(50%, -50%);font-size: 125px;color: green;'>+</p>,,,null,,,,,,,,,,,,,,,,,,,,,,,
38.5,,prac_atten_color_black,186532,,,,,,,,black_plus_sign,,,50,,,,,,,,,,,,,,,,,,,,,,,
null,,prac_atten_color_black,187386,,,,,,,,black_plus_sign,,,null,,,,,,,,,,,,,,,,,,,,,,,
519.5,,prac_atten_color,187939,,,,,,,,<p style='position:absolute;top: 50%;right: 50%;transform: translate(50%, -50%);font-size: 125px;color: blue;'>+</p>,,,50,,,,,,,,,,,,,,,,,,,,,,,
null,,prac_atten_color_black,189961,,,,,,,,black_plus_sign,,,null,,,,,,,,,,,,,,,,,,,,,,,
5801.899999976158,,attentioncheck_help,195764,,,,,,,,instruct,,,32,,,,,,,,,,,,,,,,,,,,,,,
null,,prac_atten_color_black,196620,,,,,,,,black_plus_sign,,,null,,,,,,,,,,,,,,,,,,,,,,,
null,,prac_atten_color,197091,,,,,,,,<p style='position:absolute;top: 50%;right: 50%;transform: translate(50%, -50%);font-size: 125px;color: blue;'>+</p>,,,null,,,,,,,,,,,,,,,,,,,,,,,
197.40000000596046,,prac_atten_color_black,199100,,,,,,,,black_plus_sign,,,49,,,,,,,,,,,,,,,,,,,,,,,
6441.699999988079,,attentioncheck_feedback,205544,,,,,,,,cross_check_feedback,0,,,,,,,,,,,,,,,,,,,,,,,,,
18935.40000000596,,last_instruct,224480,,,,,,,,instruct,,,32,,,,,,,,,,,,,,,,,,,,,,,
null,,prac_learn_phase(without_color),227986,,,,,,,,black_plus_sign,,,null,object_05c.png,object_03c.png,,,,,,,,,,,,,,,,,,,,,
null,,prac_black_cross(without_color),228758,,,,,,,,green,,,null,object_05c.png,object_03c.png,,,,,,,,,,,,,,,,,,,,,
null,,prac_rt_plussign_withcolor,229264,,,,,,,,green,,,null,object_05c.png,object_03c.png,,,,,,,,,,,,,,,,,,,,,
null,,prac_rt_thecrossant_black,230524,,,,,,,,black_plus_sign,,,null,,,NaN,,,,,,,,,,,,,,,,,,,,
null,,prac_color_black,230632,,,,,,,,black_plus_sign,,,null,,,,,,,,,,,,,,,,,,,,,,,
null,,prac_learn_phase(without_color),234146,,,,,,,,black_plus_sign,,,null,object_13a.png,object_11a.png,,,,,,,,,,,,,,,,,,,,,
null,,black_cross(without_color)1,234796,,,,,,,,blue,,,null,object_05c.png,object_03c.png,,,,,,,,,,,,,,,,,,,,,
null,,prac_rt_plussign_withcolor,235307,,,,,,,,green,,,null,object_13a.png,object_11a.png,,,,,,,,,,,,,,,,,,,,,
579.1999999880791,,prac_rt_thecrossant_black,236589,,,,,,,,black_plus_sign,,,50,,,1,1,,,,,,,,,,,,,,,,,,,
null,,prac_color_black,236697,,,,,,,,black_plus_sign,,,null,,,,,,,,,,,,,,,,,,,,,,,
null,,prac_learn_phase(without_color),240207,,,,,,,,black_plus_sign,,,null,object_02b.png,object_04a.png,,,,,,,,,,,,,,,,,,,,,
null,,black_cross(without_color)1,240859,,,,,,,,blue,,,null,object_05c.png,object_03c.png,,,,,,,,,,,,,,,,,,,,,
null,,prac_rt_plussign_withcolor,241370,,,,,,,,green,,,null,object_02b.png,object_04a.png,,,,,,,,,,,,,,,,,,,,,
1037.2999999821186,,prac_rt_thecrossant_black,242586,,,,,,,,black_plus_sign,,,50,,,1,1,,,,,,,,,,,,,,,,,,,
null,,prac_color_black,242688,,,,,,,,black_plus_sign,,,null,,,,,,,,,,,,,,,,,,,,,,,
null,,prac_learn_phase(without_color),246197,,,,,,,,black_plus_sign,,,null,object_02a.png,object_01c.png,,,,,,,,,,,,,,,,,,,,,
null,,black_cross(without_color)1,246857,,,,,,,,blue,,,null,object_05c.png,object_03c.png,,,,,,,,,,,,,,,,,,,,,
null,,prac_rt_plussign_withcolor,247369,,,,,,,,green,,,null,object_02a.png,object_01c.png,,,,,,,,,,,,,,,,,,,,,
945.1999999880791,,prac_rt_thecrossant_black,248847,,,,,,,,black_plus_sign,,,50,,,1,1,,,,,,,,,,,,,,,,,,,
null,,prac_color_black,248950,,,,,,,,black_plus_sign,,,null,,,,,,,,,,,,,,,,,,,,,,,
8558.199999988079,,instruct_dir_01,257511,,,,,,,,instruct,0,Next,,,,,,,,,,,,,,,,,,,,,,,,
13228.90000000596,,instruct_dir_2,270742,,,,,,,,instruct,1,Next,,,,,,,,,,,,,,,,,,,,,,,,
4616.199999988079,,instruct_dir_3,275360,,,,,,,,instruct,1,Next,,,,,,,,,,,,,,,,,,,,,,,,
8797.899999976158,,instruct_dir_4,284160,,,,,,,,instruct,1,Start,,,,,,,,,,,,,,,,,,,,,,,,
null,,thebreak,284266,,,,,,,,<p></p>,,,null,,,,,,,,,,,,,,,,,,,,,,,
2245,,intro_0,286513,,,,,,,,instruct,,,32,,,,,,,,,,,,,,,,,,,,,,,
4537.4000000059605,,prac_directmemory_phase,291052,,,,,,,,practice/object_02b.png,,,49,,,,0,practice/object_01a.png,practice/object_03a.png,practice/object_02a.png,practice/object_02a.png,0,0,,,,,,,,,,,,,
3563.899999976158,,prac_directmemory_phase,294619,,,,,,,,practice/object_03b.png,,,50,,,,0,practice/object_03a.png,practice/object_04a.png,practice/object_02a.png,practice/object_03a.png,0,0,,,,,,,,,,,,,
3075.5,,prac_directmemory_phase,297697,,,,,,,,practice/object_04b.png,,,51,,,,0,practice/object_04a.png,practice/object_02a.png,practice/object_03a.png,practice/object_04a.png,0,0,,,,,,,,,,,,,
5922.799999982119,,prac_directmemory_phase,303622,,,,,,,,practice/object_01b.png,,,51,,,,0,practice/object_02a.png,practice/object_01a.png,practice/object_03a.png,practice/object_01a.png,0,0,,,,,,,,,,,,,
5100.199999988079,,practice_feedback_force_restart,308724,,,,,,,,practice_feedback,0,,,,,,,,,,,,,1,,,,,,,,,,,,
2186.4000000059605,,last_instruct,310911,,,,,,,,instruct,,,32,,,,,,,,,,,,,,,,,,,,,,,
null,,prac_learn_phase(without_color),314423,,,,,,,,black_plus_sign,,,null,object_05c.png,object_03c.png,,,,,,,,,,,,,,,,,,,,,
null,,prac_black_cross(without_color),315042,,,,,,,,green,,,null,object_05c.png,object_03c.png,,,,,,,,,,,,,,,,,,,,,
null,,prac_rt_plussign_withcolor,315547,,,,,,,,green,,,null,object_05c.png,object_03c.png,,,,,,,,,,,,,,,,,,,,,
null,,prac_rt_thecrossant_black,316946,,,,,,,,black_plus_sign,,,null,,,1,,,,,,,,,,,,,,,,,,,,
null,,prac_color_black,317051,,,,,,,,black_plus_sign,,,null,,,,,,,,,,,,,,,,,,,,,,,
null,,prac_learn_phase(without_color),320566,,,,,,,,black_plus_sign,,,null,object_13a.png,object_11a.png,,,,,,,,,,,,,,,,,,,,,
null,,black_cross(without_color)1,321223,,,,,,,,blue,,,null,object_05c.png,object_03c.png,,,,,,,,,,,,,,,,,,,,,
null,,prac_rt_plussign_withcolor,321740,,,,,,,,green,,,null,object_13a.png,object_11a.png,,,,,,,,,,,,,,,,,,,,,
809,,prac_rt_thecrossant_black,322857,,,,,,,,black_plus_sign,,,50,,,1,1,,,,,,,,,,,,,,,,,,,
null,,prac_color_black,322967,,,,,,,,black_plus_sign,,,null,,,,,,,,,,,,,,,,,,,,,,,
null,,prac_learn_phase(without_color),326475,,,,,,,,black_plus_sign,,,null,object_02b.png,object_04a.png,,,,,,,,,,,,,,,,,,,,,
null,,black_cross(without_color)1,327126,,,,,,,,blue,,,null,object_05c.png,object_03c.png,,,,,,,,,,,,,,,,,,,,,
null,,prac_rt_plussign_withcolor,327638,,,,,,,,green,,,null,object_02b.png,object_04a.png,,,,,,,,,,,,,,,,,,,,,
988.2999999821186,,prac_rt_thecrossant_black,329082,,,,,,,,black_plus_sign,,,50,,,1,1,,,,,,,,,,,,,,,,,,,
null,,prac_color_black,329198,,,,,,,,black_plus_sign,,,null,,,,,,,,,,,,,,,,,,,,,,,
null,,prac_learn_phase(without_color),332705,,,,,,,,black_plus_sign,,,null,object_02a.png,object_01c.png,,,,,,,,,,,,,,,,,,,,,
null,,black_cross(without_color)1,333371,,,,,,,,blue,,,null,object_05c.png,object_03c.png,,,,,,,,,,,,,,,,,,,,,
446.19999998807907,,prac_rt_plussign_withcolor,333874,,,,,,,,green,,,50,object_02a.png,object_01c.png,,,,,,,,,,,,,,,,,,,,,
null,,prac_rt_thecrossant_black,335117,,,,,,,,black_plus_sign,,,null,,,1,1,,,,,,,,,,,,,,,,,,,
null,,prac_color_black,335221,,,,,,,,black_plus_sign,,,null,,,,,,,,,,,,,,,,,,,,,,,
5075.5999999940395,,instruct_dir_01,340299,,,,,,,,instruct,0,Next,,,,,,,,,,,,,,,,,,,,,,,,
2557.7999999821186,,instruct_dir_2,342859,,,,,,,,instruct,1,Next,,,,,,,,,,,,,,,,,,,,,,,,
4280,,instruct_dir_3,347141,,,,,,,,instruct,1,Next,,,,,,,,,,,,,,,,,,,,,,,,
10864.5,,instruct_dir_4,358007,,,,,,,,instruct,1,Start,,,,,,,,,,,,,,,,,,,,,,,,
null,,thebreak,358115,,,,,,,,<p></p>,,,null,,,,,,,,,,,,,,,,,,,,,,,
2077.199999988079,,intro_0,360194,,,,,,,,instruct,,,32,,,,,,,,,,,,,,,,,,,,,,,
4607.200000017881,,prac_directmemory_phase,364803,,,,,,,,practice/object_02b.png,,,49,,,,0,practice/object_01a.png,practice/object_03a.png,practice/object_02a.png,practice/object_02a.png,0,0,,,,,,,,,,,,,
4279.4000000059605,,prac_directmemory_phase,369085,,,,,,,,practice/object_03b.png,,,50,,,,0,practice/object_03a.png,practice/object_04a.png,practice/object_02a.png,practice/object_03a.png,0,0,,,,,,,,,,,,,
4123.4000000059605,,prac_directmemory_phase,373210,,,,,,,,practice/object_04b.png,,,50,,,,0,practice/object_04a.png,practice/object_02a.png,practice/object_03a.png,practice/object_04a.png,0,0,,,,,,,,,,,,,
3389,,prac_directmemory_phase,376602,,,,,,,,practice/object_01b.png,,,50,,,,1,practice/object_02a.png,practice/object_01a.png,practice/object_03a.png,practice/object_01a.png,1,0.25,,,,,,,,,,,,,
4683.4000000059605,,practice_feedback_force_restart,381287,,,,,,,,practice_feedback,0,,,,,,,,,,,,,2,,,,,,,,,,,,
1860.7999999821186,,last_instruct,383148,,,,,,,,instruct,,,32,,,,,,,,,,,,,,,,,,,,,,,
null,,prac_learn_phase(without_color),386656,,,,,,,,black_plus_sign,,,null,object_05c.png,object_03c.png,,,,,,,,,,,,,,,,,,,,,
null,,prac_black_cross(without_color),387287,,,,,,,,green,,,null,object_05c.png,object_03c.png,,,,,,,,,,,,,,,,,,,,,
null,,prac_rt_plussign_withcolor,387794,,,,,,,,green,,,null,object_05c.png,object_03c.png,,,,,,,,,,,,,,,,,,,,,
1227.5,,prac_rt_thecrossant_black,389189,,,,,,,,black_plus_sign,,,50,,,1,1,,,,,,,,,,,,,,,,,,,
null,,prac_color_black,389299,,,,,,,,black_plus_sign,,,null,,,,,,,,,,,,,,,,,,,,,,,
null,,prac_learn_phase(without_color),392806,,,,,,,,black_plus_sign,,,null,object_13a.png,object_11a.png,,,,,,,,,,,,,,,,,,,,,
null,,black_cross(without_color)1,393461,,,,,,,,blue,,,null,object_05c.png,object_03c.png,,,,,,,,,,,,,,,,,,,,,
null,,prac_rt_plussign_withcolor,393966,,,,,,,,green,,,null,object_13a.png,object_11a.png,,,,,,,,,,,,,,,,,,,,,
883.4000000059605,,prac_rt_thecrossant_black,395347,,,,,,,,black_plus_sign,,,50,,,1,1,,,,,,,,,,,,,,,,,,,
null,,prac_color_black,395457,,,,,,,,black_plus_sign,,,null,,,,,,,,,,,,,,,,,,,,,,,
null,,prac_learn_phase(without_color),398967,,,,,,,,black_plus_sign,,,null,object_02b.png,object_04a.png,,,,,,,,,,,,,,,,,,,,,
null,,black_cross(without_color)1,399625,,,,,,,,blue,,,null,object_05c.png,object_03c.png,,,,,,,,,,,,,,,,,,,,,
null,,prac_rt_plussign_withcolor,400128,,,,,,,,green,,,null,object_02b.png,object_04a.png,,,,,,,,,,,,,,,,,,,,,
938.6000000238419,,prac_rt_thecrossant_black,401701,,,,,,,,black_plus_sign,,,50,,,1,1,,,,,,,,,,,,,,,,,,,
null,,prac_color_black,401804,,,,,,,,black_plus_sign,,,null,,,,,,,,,,,,,,,,,,,,,,,
null,,prac_learn_phase(without_color),405310,,,,,,,,black_plus_sign,,,null,object_02a.png,object_01c.png,,,,,,,,,,,,,,,,,,,,,
null,,black_cross(without_color)1,405970,,,,,,,,blue,,,null,object_05c.png,object_03c.png,,,,,,,,,,,,,,,,,,,,,
null,,prac_rt_plussign_withcolor,406479,,,,,,,,green,,,null,object_02a.png,object_01c.png,,,,,,,,,,,,,,,,,,,,,
572.3000000119209,,prac_rt_thecrossant_black,407961,,,,,,,,black_plus_sign,,,50,,,1,1,,,,,,,,,,,,,,,,,,,
null,,prac_color_black,408071,,,,,,,,black_plus_sign,,,null,,,,,,,,,,,,,,,,,,,,,,,
2260,,instruct_dir_01,410334,,,,,,,,instruct,0,Next,,,,,,,,,,,,,,,,,,,,,,,,
2022.2999999821186,,instruct_dir_2,412358,,,,,,,,instruct,1,Next,,,,,,,,,,,,,,,,,,,,,,,,
1832.9000000059605,,instruct_dir_3,414193,,,,,,,,instruct,1,Next,,,,,,,,,,,,,,,,,,,,,,,,
2610.4000000059605,,instruct_dir_4,416805,,,,,,,,instruct,1,Start,,,,,,,,,,,,,,,,,,,,,,,,
null,,thebreak,416912,,,,,,,,<p></p>,,,null,,,,,,,,,,,,,,,,,,,,,,,
1940.5999999940395,,intro_0,418853,,,,,,,,instruct,,,32,,,,,,,,,,,,,,,,,,,,,,,
5726,,prac_directmemory_phase,424581,,,,,,,,practice/object_02b.png,,,51,,,,1,practice/object_01a.png,practice/object_03a.png,practice/object_02a.png,practice/object_02a.png,1,1,,,,,,,,,,,,,
3378.399999976158,,prac_directmemory_phase,427963,,,,,,,,practice/object_03b.png,,,49,,,,1,practice/object_03a.png,practice/object_04a.png,practice/object_02a.png,practice/object_03a.png,1,1,,,,,,,,,,,,,
6511.199999988079,,prac_directmemory_phase,434477,,,,,,,,practice/object_04b.png,,,49,,,,1,practice/object_04a.png,practice/object_02a.png,practice/object_03a.png,practice/object_04a.png,1,1,,,,,,,,,,,,,
3152.4000000059605,,prac_directmemory_phase,437631,,,,,,,,practice/object_01b.png,,,50,,,,1,practice/object_02a.png,practice/object_01a.png,practice/object_03a.png,practice/object_01a.png,1,1,,,,,,,,,,,,,
7490.299999982119,,practice_feedback,445124,,,,,,,,practice_feedback,1,,,,,,,,,,,,,,,,,,,,,,,,,
16872.69999998808,,proceed_actualTask,461998,,,,,,,,proceed_actualTask,1,Continue,,,,,,,,,,,,,,,,,,,,,,,,
10057.90000000596,,last_inst,472058,,,,,,,,last_inst,,,32,,,,,,,,,,,,,,,,,,,,,,,
null,,learn_phase(without_color)1,475564,,,,,,,,black_plus_sign,,,null,object_05c.png,object_03c.png,,,,,,,,,,,,,,,,,,,,,
null,,black_cross(without_color)1,476229,,,,,,,,blue,,,null,object_05c.png,object_03c.png,,,,,,,,,,,,,,,,,,,,,
null,,rt_plussign_withcolor1,476743,,,,,,,,blue,,,null,object_05c.png,object_03c.png,,,,,,,,,,,,,,,,,,,,,
868.5999999940395,,rt_thecrossant_black1,478116,,,,,,,,black_plus_sign,,,49,,,,1,,,,,,1,,,,,,,,,,,,,
null,,color_black1,478220,,,,,,,,black_plus_sign,,,null,,,,,,,,,,,,,,,,,,,,,,,
null,,learn_phase(without_color)1,481735,,,,,,,,black_plus_sign,,,null,object_13a.png,object_11a.png,,,,,,,,,,,,,,,,,,,,,
null,,black_cross(without_color)1,482743,,,,,,,,blue,,,null,object_13a.png,object_11a.png,,,,,,,,,,,,,,,,,,,,,
null,,rt_plussign_withcolor1,483259,,,,,,,,blue,,,null,object_13a.png,object_11a.png,,,,,,,,,,,,,,,,,,,,,
845.9000000059605,,rt_thecrossant_black1,484277,,,,,,,,black_plus_sign,,,49,,,,1,,,,,,1,,,,,,,,,,,,,
null,,color_black1,484387,,,,,,,,black_plus_sign,,,null,,,,,,,,,,,,,,,,,,,,,,,
null,,learn_phase(without_color)1,487896,,,,,,,,black_plus_sign,,,null,object_02b.png,object_04a.png,,,,,,,,,,,,,,,,,,,,,
null,,black_cross(without_color)1,488947,,,,,,,,green,,,null,object_02b.png,object_04a.png,,,,,,,,,,,,,,,,,,,,,
475.69999998807907,,rt_plussign_withcolor1,489450,,,,,,,,green,,,50,object_02b.png,object_04a.png,,,,,,,,,,,,,,,,,,,,,
null,,rt_thecrossant_black1,490416,,,,,,,,black_plus_sign,,,null,,,,1,,,,,,1,,,,,,,,,,,,,
null,,color_black1,490519,,,,,,,,black_plus_sign,,,null,,,,,,,,,,,,,,,,,,,,,,,
null,,learn_phase(without_color)1,494035,,,,,,,,black_plus_sign,,,null,object_02a.png,object_01c.png,,,,,,,,,,,,,,,,,,,,,
null,,black_cross(without_color)1,494947,,,,,,,,blue,,,null,object_02a.png,object_01c.png,,,,,,,,,,,,,,,,,,,,,
null,,rt_plussign_withcolor1,495463,,,,,,,,blue,,,null,object_02a.png,object_01c.png,,,,,,,,,,,,,,,,,,,,,
1481.2000000178814,,rt_thecrossant_black1,496569,,,,,,,,black_plus_sign,,,49,,,,1,,,,,,1,,,,,,,,,,,,,
null,,color_black1,496676,,,,,,,,black_plus_sign,,,null,,,,,,,,,,,,,,,,,,,,,,,
null,,learn_phase(without_color)1,500193,,,,,,,,black_plus_sign,,,null,object_04c.png,object_09b.png,,,,,,,,,,,,,,,,,,,,,
null,,black_cross(without_color)1,500907,,,,,,,,blue,,,null,object_04c.png,object_09b.png,,,,,,,,,,,,,,,,,,,,,
null,,rt_plussign_withcolor1,501418,,,,,,,,blue,,,null,object_04c.png,object_09b.png,,,,,,,,,,,,,,,,,,,,,
1049.8999999761581,,rt_thecrossant_black1,502722,,,,,,,,black_plus_sign,,,49,,,,1,,,,,,1,,,,,,,,,,,,,
null,,color_black1,502825,,,,,,,,black_plus_sign,,,null,,,,,,,,,,,,,,,,,,,,,,,
null,,learn_phase(without_color)1,506337,,,,,,,,black_plus_sign,,,null,object_08b.png,object_02b.png,,,,,,,,,,,,,,,,,,,,,
null,,black_cross(without_color)1,507048,,,,,,,,green,,,null,object_08b.png,object_02b.png,,,,,,,,,,,,,,,,,,,,,
null,,rt_plussign_withcolor1,507557,,,,,,,,green,,,null,object_08b.png,object_02b.png,,,,,,,,,,,,,,,,,,,,,
1016.4000000059605,,rt_thecrossant_black1,508861,,,,,,,,black_plus_sign,,,50,,,,1,,,,,,1,,,,,,,,,,,,,
null,,color_black1,508971,,,,,,,,black_plus_sign,,,null,,,,,,,,,,,,,,,,,,,,,,,
null,,learn_phase(without_color)1,512484,,,,,,,,black_plus_sign,,,null,object_12b.png,object_08c.png,,,,,,,,,,,,,,,,,,,,,
null,,black_cross(without_color)1,513296,,,,,,,,blue,,,null,object_12b.png,object_08c.png,,,,,,,,,,,,,,,,,,,,,
452.2999999821186,,rt_plussign_withcolor1,513799,,,,,,,,blue,,,49,object_12b.png,object_08c.png,,,,,,,,,,,,,,,,,,,,,
null,,rt_thecrossant_black1,515015,,,,,,,,black_plus_sign,,,null,,,,1,,,,,,1,,,,,,,,,,,,,
null,,color_black1,515117,,,,,,,,black_plus_sign,,,null,,,,,,,,,,,,,,,,,,,,,,,
null,,learn_phase(without_color)1,518627,,,,,,,,black_plus_sign,,,null,object_08a.png,object_04c.png,,,,,,,,,,,,,,,,,,,,,
null,,black_cross(without_color)1,519462,,,,,,,,blue,,,null,object_08a.png,object_04c.png,,,,,,,,,,,,,,,,,,,,,
null,,rt_plussign_withcolor1,519974,,,,,,,,blue,,,null,object_08a.png,object_04c.png,,,,,,,,,,,,,,,,,,,,,
1026.699999988079,,rt_thecrossant_black1,521158,,,,,,,,black_plus_sign,,,49,,,,1,,,,,,1,,,,,,,,,,,,,
null,,color_black1,521266,,,,,,,,black_plus_sign,,,null,,,,,,,,,,,,,,,,,,,,,,,
null,,learn_phase(without_color)1,524777,,,,,,,,black_plus_sign,,,null,object_06c.png,object_09a.png,,,,,,,,,,,,,,,,,,,,,
null,,black_cross(without_color)1,525439,,,,,,,,green,,,null,object_06c.png,object_09a.png,,,,,,,,,,,,,,,,,,,,,
null,,rt_plussign_withcolor1,525950,,,,,,,,green,,,null,object_06c.png,object_09a.png,,,,,,,,,,,,,,,,,,,,,
994.0999999940395,,rt_thecrossant_black1,527319,,,,,,,,black_plus_sign,,,50,,,,1,,,,,,1,,,,,,,,,,,,,
null,,color_black1,527422,,,,,,,,black_plus_sign,,,null,,,,,,,,,,,,,,,,,,,,,,,
null,,learn_phase(without_color)1,530926,,,,,,,,black_plus_sign,,,null,object_10b.png,object_01a.png,,,,,,,,,,,,,,,,,,,,,
null,,black_cross(without_color)1,531624,,,,,,,,blue,,,null,object_10b.png,object_01a.png,,,,,,,,,,,,,,,,,,,,,
null,,rt_plussign_withcolor1,532138,,,,,,,,blue,,,null,object_10b.png,object_01a.png,,,,,,,,,,,,,,,,,,,,,
1065.699999988079,,rt_thecrossant_black1,533453,,,,,,,,black_plus_sign,,,49,,,,1,,,,,,1,,,,,,,,,,,,,
null,,color_black1,533567,,,,,,,,black_plus_sign,,,null,,,,,,,,,,,,,,,,,,,,,,,
null,,learn_phase(without_color)1,537084,,,,,,,,black_plus_sign,,,null,object_01c.png,object_05a.png,,,,,,,,,,,,,,,,,,,,,
null,,black_cross(without_color)1,537852,,,,,,,,blue,,,null,object_01c.png,object_05a.png,,,,,,,,,,,,,,,,,,,,,
null,,rt_plussign_withcolor1,538362,,,,,,,,blue,,,null,object_01c.png,object_05a.png,,,,,,,,,,,,,,,,,,,,,
858.8999999761581,,rt_thecrossant_black1,539622,,,,,,,,black_plus_sign,,,49,,,,1,,,,,,1,,,,,,,,,,,,,
null,,color_black1,539730,,,,,,,,black_plus_sign,,,null,,,,,,,,,,,,,,,,,,,,,,,
null,,learn_phase(without_color)1,543244,,,,,,,,black_plus_sign,,,null,object_07b.png,object_07c.png,,,,,,,,,,,,,,,,,,,,,
null,,black_cross(without_color)1,543717,,,,,,,,blue,,,null,object_07b.png,object_07c.png,,,,,,,,,,,,,,,,,,,,,
null,,rt_plussign_withcolor1,544221,,,,,,,,blue,,,null,object_07b.png,object_07c.png,,,,,,,,,,,,,,,,,,,,,
1125.699999988079,,rt_thecrossant_black1,545764,,,,,,,,black_plus_sign,,,49,,,,1,,,,,,1,,,,,,,,,,,,,
null,,color_black1,545867,,,,,,,,black_plus_sign,,,null,,,,,,,,,,,,,,,,,,,,,,,
null,,learn_phase(without_color)1,549385,,,,,,,,black_plus_sign,,,null,object_02c.png,object_07b.png,,,,,,,,,,,,,,,,,,,,,
null,,black_cross(without_color)1,550357,,,,,,,,blue,,,null,object_02c.png,object_07b.png,,,,,,,,,,,,,,,,,,,,,
null,,rt_plussign_withcolor1,550880,,,,,,,,blue,,,null,object_02c.png,object_07b.png,,,,,,,,,,,,,,,,,,,,,
588.0999999940395,,rt_thecrossant_black1,551938,,,,,,,,black_plus_sign,,,49,,,,1,,,,,,1,,,,,,,,,,,,,
null,,color_black1,552047,,,,,,,,black_plus_sign,,,null,,,,,,,,,,,,,,,,,,,,,,,
null,,learn_phase(without_color)1,555557,,,,,,,,black_plus_sign,,,null,object_09a.png,object_06b.png,,,,,,,,,,,,,,,,,,,,,
null,,black_cross(without_color)1,556000,,,,,,,,blue,,,null,object_09a.png,object_06b.png,,,,,,,,,,,,,,,,,,,,,
null,,rt_plussign_withcolor1,556509,,,,,,,,blue,,,null,object_09a.png,object_06b.png,,,,,,,,,,,,,,,,,,,,,
1102.1000000238419,,rt_thecrossant_black1,558086,,,,,,,,black_plus_sign,,,49,,,,1,,,,,,1,,,,,,,,,,,,,
null,,color_black1,558194,,,,,,,,black_plus_sign,,,null,,,,,,,,,,,,,,,,,,,,,,,
null,,learn_phase(without_color)1,561708,,,,,,,,black_plus_sign,,,null,object_05b.png,object_05c.png,,,,,,,,,,,,,,,,,,,,,
null,,black_cross(without_color)1,562344,,,,,,,,green,,,null,object_05b.png,object_05c.png,,,,,,,,,,,,,,,,,,,,,
null,,rt_plussign_withcolor1,562857,,,,,,,,green,,,null,object_05b.png,object_05c.png,,,,,,,,,,,,,,,,,,,,,
635.0999999940395,,rt_thecrossant_black1,564240,,,,,,,,black_plus_sign,,,50,,,,1,,,,,,1,,,,,,,,,,,,,
null,,color_black1,564342,,,,,,,,black_plus_sign,,,null,,,,,,,,,,,,,,,,,,,,,,,
null,,learn_phase(without_color)1,567850,,,,,,,,black_plus_sign,,,null,object_12c.png,object_03a.png,,,,,,,,,,,,,,,,,,,,,
null,,black_cross(without_color)1,568341,,,,,,,,green,,,null,object_12c.png,object_03a.png,,,,,,,,,,,,,,,,,,,,,
null,,rt_plussign_withcolor1,568844,,,,,,,,green,,,null,object_12c.png,object_03a.png,,,,,,,,,,,,,,,,,,,,,
857.5999999940395,,rt_thecrossant_black1,570381,,,,,,,,black_plus_sign,,,50,,,,1,,,,,,1,,,,,,,,,,,,,
null,,color_black1,570487,,,,,,,,black_plus_sign,,,null,,,,,,,,,,,,,,,,,,,,,,,
null,,learn_phase(without_color)1,573991,,,,,,,,black_plus_sign,,,null,object_08c.png,object_13b.png,,,,,,,,,,,,,,,,,,,,,
null,,black_cross(without_color)1,574997,,,,,,,,green,,,null,object_08c.png,object_13b.png,,,,,,,,,,,,,,,,,,,,,
null,,rt_plussign_withcolor1,575506,,,,,,,,green,,,null,object_08c.png,object_13b.png,,,,,,,,,,,,,,,,,,,,,
625.1999999880791,,rt_thecrossant_black1,576514,,,,,,,,black_plus_sign,,,50,,,,1,,,,,,1,,,,,,,,,,,,,
null,,color_black1,576623,,,,,,,,black_plus_sign,,,null,,,,,,,,,,,,,,,,,,,,,,,
null,,learn_phase(without_color)1,580126,,,,,,,,black_plus_sign,,,null,object_11c.png,object_14c.png,,,,,,,,,,,,,,,,,,,,,
null,,black_cross(without_color)1,581151,,,,,,,,blue,,,null,object_11c.png,object_14c.png,,,,,,,,,,,,,,,,,,,,,
null,,rt_plussign_withcolor1,581660,,,,,,,,blue,,,null,object_11c.png,object_14c.png,,,,,,,,,,,,,,,,,,,,,
1171.5999999940395,,rt_thecrossant_black1,582658,,,,,,,,black_plus_sign,,,50,,,,0,,,,,,0.9444444444444444,,,,,,,,,,,,,
null,,color_black1,582766,,,,,,,,black_plus_sign,,,null,,,,,,,,,,,,,,,,,,,,,,,
null,,learn_phase(without_color)1,586277,,,,,,,,black_plus_sign,,,null,object_01a.png,object_15b.png,,,,,,,,,,,,,,,,,,,,,
null,,black_cross(without_color)1,587060,,,,,,,,blue,,,null,object_01a.png,object_15b.png,,,,,,,,,,,,,,,,,,,,,
null,,rt_plussign_withcolor1,587572,,,,,,,,blue,,,null,object_01a.png,object_15b.png,,,,,,,,,,,,,,,,,,,,,
1172.5,,rt_thecrossant_black1,588809,,,,,,,,black_plus_sign,,,49,,,,1,,,,,,0.9473684210526315,,,,,,,,,,,,,
null,,color_black1,588912,,,,,,,,black_plus_sign,,,null,,,,,,,,,,,,,,,,,,,,,,,
null,,learn_phase(without_color)1,592421,,,,,,,,black_plus_sign,,,null,object_15c.png,object_15a.png,,,,,,,,,,,,,,,,,,,,,
null,,black_cross(without_color)1,593073,,,,,,,,green,,,null,object_15c.png,object_15a.png,,,,,,,,,,,,,,,,,,,,,
null,,rt_plussign_withcolor1,593589,,,,,,,,green,,,null,object_15c.png,object_15a.png,,,,,,,,,,,,,,,,,,,,,
1242.2000000178814,,rt_thecrossant_black1,594948,,,,,,,,black_plus_sign,,,50,,,,1,,,,,,0.95,,,,,,,,,,,,,
null,,color_black1,595057,,,,,,,,black_plus_sign,,,null,,,,,,,,,,,,,,,,,,,,,,,
null,,learn_phase(without_color)1,598575,,,,,,,,black_plus_sign,,,null,object_03a.png,object_14b.png,,,,,,,,,,,,,,,,,,,,,
null,,black_cross(without_color)1,599154,,,,,,,,green,,,null,object_03a.png,object_14b.png,,,,,,,,,,,,,,,,,,,,,
null,,rt_plussign_withcolor1,599656,,,,,,,,green,,,null,object_03a.png,object_14b.png,,,,,,,,,,,,,,,,,,,,,
1086.0999999940395,,rt_thecrossant_black1,601109,,,,,,,,black_plus_sign,,,50,,,,1,,,,,,0.9523809523809523,,,,,,,,,,,,,
null,,color_black1,601214,,,,,,,,black_plus_sign,,,null,,,,,,,,,,,,,,,,,,,,,,,
null,,learn_phase(without_color)1,604727,,,,,,,,black_plus_sign,,,null,object_10c.png,object_07a.png,,,,,,,,,,,,,,,,,,,,,
null,,black_cross(without_color)1,605600,,,,,,,,green,,,null,object_10c.png,object_07a.png,,,,,,,,,,,,,,,,,,,,,
null,,rt_plussign_withcolor1,606107,,,,,,,,green,,,null,object_10c.png,object_07a.png,,,,,,,,,,,,,,,,,,,,,
794.3000000119209,,rt_thecrossant_black1,607259,,,,,,,,black_plus_sign,,,50,,,,1,,,,,,0.9545454545454546,,,,,,,,,,,,,
null,,color_black1,607367,,,,,,,,black_plus_sign,,,null,,,,,,,,,,,,,,,,,,,,,,,
null,,learn_phase(without_color)1,610875,,,,,,,,black_plus_sign,,,null,object_01b.png,object_10a.png,,,,,,,,,,,,,,,,,,,,,
null,,black_cross(without_color)1,611727,,,,,,,,green,,,null,object_01b.png,object_10a.png,,,,,,,,,,,,,,,,,,,,,
null,,rt_plussign_withcolor1,612239,,,,,,,,green,,,null,object_01b.png,object_10a.png,,,,,,,,,,,,,,,,,,,,,
1192.199999988079,,rt_thecrossant_black1,613412,,,,,,,,black_plus_sign,,,50,,,,1,,,,,,0.9565217391304348,,,,,,,,,,,,,
null,,color_black1,613514,,,,,,,,black_plus_sign,,,null,,,,,,,,,,,,,,,,,,,,,,,
null,,learn_phase(without_color)1,617020,,,,,,,,black_plus_sign,,,null,object_15a.png,object_13c.png,,,,,,,,,,,,,,,,,,,,,
null,,black_cross(without_color)1,617451,,,,,,,,green,,,null,object_15a.png,object_13c.png,,,,,,,,,,,,,,,,,,,,,
null,,rt_plussign_withcolor1,617963,,,,,,,,green,,,null,object_15a.png,object_13c.png,,,,,,,,,,,,,,,,,,,,,
1213.7000000178814,,rt_thecrossant_black1,619561,,,,,,,,black_plus_sign,,,50,,,,1,,,,,,0.9583333333333334,,,,,,,,,,,,,
null,,color_black1,619666,,,,,,,,black_plus_sign,,,null,,,,,,,,,,,,,,,,,,,,,,,
null,,learn_phase(without_color)1,623184,,,,,,,,black_plus_sign,,,null,object_14a.png,object_09c.png,,,,,,,,,,,,,,,,,,,,,
null,,black_cross(without_color)1,623733,,,,,,,,blue,,,null,object_14a.png,object_09c.png,,,,,,,,,,,,,,,,,,,,,
null,,rt_plussign_withcolor1,624236,,,,,,,,blue,,,null,object_14a.png,object_09c.png,,,,,,,,,,,,,,,,,,,,,
797.6000000238419,,rt_thecrossant_black1,625698,,,,,,,,black_plus_sign,,,49,,,,1,,,,,,0.96,,,,,,,,,,,,,
null,,color_black1,625808,,,,,,,,black_plus_sign,,,null,,,,,,,,,,,,,,,,,,,,,,,
null,,learn_phase(without_color)1,629323,,,,,,,,black_plus_sign,,,null,object_03b.png,object_14a.png,,,,,,,,,,,,,,,,,,,,,
null,,black_cross(without_color)1,629768,,,,,,,,blue,,,null,object_03b.png,object_14a.png,,,,,,,,,,,,,,,,,,,,,
null,,rt_plussign_withcolor1,630281,,,,,,,,blue,,,null,object_03b.png,object_14a.png,,,,,,,,,,,,,,,,,,,,,
852,,rt_thecrossant_black1,631848,,,,,,,,black_plus_sign,,,49,,,,1,,,,,,0.9615384615384616,,,,,,,,,,,,,
null,,color_black1,631956,,,,,,,,black_plus_sign,,,null,,,,,,,,,,,,,,,,,,,,,,,
null,,learn_phase(without_color)1,635465,,,,,,,,black_plus_sign,,,null,object_11b.png,object_11c.png,,,,,,,,,,,,,,,,,,,,,
null,,black_cross(without_color)1,636493,,,,,,,,blue,,,null,object_11b.png,object_11c.png,,,,,,,,,,,,,,,,,,,,,
485.90000000596046,,rt_plussign_withcolor1,636998,,,,,,,,blue,,,49,object_11b.png,object_11c.png,,,,,,,,,,,,,,,,,,,,,
null,,rt_thecrossant_black1,637992,,,,,,,,black_plus_sign,,,null,,,,1,,,,,,0.9629629629629629,,,,,,,,,,,,,
null,,color_black1,638099,,,,,,,,black_plus_sign,,,null,,,,,,,,,,,,,,,,,,,,,,,
null,,learn_phase(without_color)1,641618,,,,,,,,black_plus_sign,,,null,object_10a.png,object_04b.png,,,,,,,,,,,,,,,,,,,,,
null,,black_cross(without_color)1,642078,,,,,,,,blue,,,null,object_10a.png,object_04b.png,,,,,,,,,,,,,,,,,,,,,
null,,rt_plussign_withcolor1,642588,,,,,,,,blue,,,null,object_10a.png,object_04b.png,,,,,,,,,,,,,,,,,,,,,
1171.4000000059605,,rt_thecrossant_black1,644150,,,,,,,,black_plus_sign,,,49,,,,1,,,,,,0.9642857142857143,,,,,,,,,,,,,
null,,color_black1,644253,,,,,,,,black_plus_sign,,,null,,,,,,,,,,,,,,,,,,,,,,,
null,,learn_phase(without_color)1,647765,,,,,,,,black_plus_sign,,,null,object_07a.png,object_06a.png,,,,,,,,,,,,,,,,,,,,,
null,,black_cross(without_color)1,648679,,,,,,,,green,,,null,object_07a.png,object_06a.png,,,,,,,,,,,,,,,,,,,,,
null,,rt_plussign_withcolor1,649187,,,,,,,,green,,,null,object_07a.png,object_06a.png,,,,,,,,,,,,,,,,,,,,,
641,,rt_thecrossant_black1,650287,,,,,,,,black_plus_sign,,,50,,,,1,,,,,,0.9655172413793104,,,,,,,,,,,,,
null,,color_black1,650396,,,,,,,,black_plus_sign,,,null,,,,,,,,,,,,,,,,,,,,,,,
null,,learn_phase(without_color)1,653906,,,,,,,,black_plus_sign,,,null,object_11a.png,object_12a.png,,,,,,,,,,,,,,,,,,,,,
null,,black_cross(without_color)1,654420,,,,,,,,blue,,,null,object_11a.png,object_12a.png,,,,,,,,,,,,,,,,,,,,,
null,,rt_plussign_withcolor1,654932,,,,,,,,blue,,,null,object_11a.png,object_12a.png,,,,,,,,,,,,,,,,,,,,,
1773.199999988079,,rt_thecrossant_black1,656442,,,,,,,,black_plus_sign,,,49,,,,1,,,,,,0.9666666666666667,,,,,,,,,,,,,
null,,color_black1,656550,,,,,,,,black_plus_sign,,,null,,,,,,,,,,,,,,,,,,,,,,,
null,,thebreak,656661,,,,,,,,<p></p>,,,null,,,,,,,,,,,,,,,,,,,,,,,
1874.0999999940395,,intro_0,658537,,,,,,,,instruct,,,32,,,,,,,,,,,,,,,,,,,,,,,
7382.0999999940395,,directmemory_phase1,665921,,,,,,,,object_14b.png,,,49,,,,0,object_07b.png,object_03a.png,object_02b.png,object_03a.png,,0,,0,,,,,,,,,,,
4385.0999999940395,,directmemory_phase1,670309,,,,,,,,object_09b.png,,,51,,,,0,object_02b.png,object_04c.png,object_01c.png,object_04c.png,,0,,0,,,,,,,,,,,
3266.5,,directmemory_phase1,673579,,,,,,,,object_14c.png,,,49,,,,1,object_11c.png,object_09a.png,object_04c.png,object_11c.png,,0.3333333333333333,,1,,,,,,,,,,,
3030.4000000059605,,directmemory_phase1,676611,,,,,,,,object_10a.png,,,50,,,,0,object_01b.png,object_02c.png,object_02a.png,object_01b.png,,0.25,,0,,,,,,,,,,,
3861,,directmemory_phase1,680475,,,,,,,,object_12a.png,,,49,,,,1,object_11a.png,object_07a.png,object_04c.png,object_11a.png,,0.4,,1,,,,,,,,,,,
6381.5999999940395,,directmemory_phase1,686860,,,,,,,,object_08c.png,,,51,,,,0,object_11b.png,object_12b.png,object_10c.png,object_12b.png,,0.3333333333333333,,0,,,,,,,,,,,
5364.0999999940395,,directmemory_phase1,692227,,,,,,,,object_13b.png,,,49,,,,0,object_07b.png,object_01c.png,object_08c.png,object_08c.png,,0.2857142857142857,,0,,,,,,,,,,,
3745.5999999940395,,directmemory_phase1,695975,,,,,,,,object_01c.png,,,50,,,,0,object_02a.png,object_02c.png,object_08a.png,object_02a.png,,0.25,,0,,,,,,,,,,,
2595.0999999940395,,directmemory_phase1,698574,,,,,,,,object_07b.png,,,49,,,,1,object_02c.png,object_10b.png,object_11b.png,object_02c.png,,0.3333333333333333,,1,,,,,,,,,,,
3715.7000000178814,,directmemory_phase1,702292,,,,,,,,object_06a.png,,,50,,,,1,object_07b.png,object_07a.png,object_08c.png,object_07a.png,,0.4,,1,,,,,,,,,,,
4098.699999988079,,directmemory_phase1,706393,,,,,,,,object_09a.png,,,49,,,,1,object_06c.png,object_12b.png,object_02a.png,object_06c.png,,0.45454545454545453,,1,,,,,,,,,,,
3379.399999976158,,directmemory_phase1,709775,,,,,,,,object_07c.png,,,51,,,,0,object_08c.png,object_07b.png,object_10a.png,object_07b.png,,0.4166666666666667,,0,,,,,,,,,,,
4661.4000000059605,,directmemory_phase1,714438,,,,,,,,object_02b.png,,,51,,,,1,object_03b.png,object_02a.png,object_08b.png,object_08b.png,,0.46153846153846156,,1,,,,,,,,,,,
3211.699999988079,,directmemory_phase1,717653,,,,,,,,object_05c.png,,,49,,,,1,object_05b.png,object_03b.png,object_11b.png,object_05b.png,,0.5,,1,,,,,,,,,,,
4668.0999999940395,,directmemory_phase1,722323,,,,,,,,object_04c.png,,,49,,,,0,object_10c.png,object_02a.png,object_08a.png,object_08a.png,,0.4666666666666667,,0,,,,,,,,,,,
5062.0999999940395,,directmemory_phase1,727388,,,,,,,,object_13c.png,,,51,,,,0,object_15a.png,object_10a.png,object_14a.png,object_15a.png,,0.4375,,0,,,,,,,,,,,
4389.5,,directmemory_phase1,731779,,,,,,,,object_11c.png,,,49,,,,0,object_10c.png,object_11b.png,object_10b.png,object_11b.png,,0.4117647058823529,,0,,,,,,,,,,,
2636.5999999940395,,directmemory_phase1,734419,,,,,,,,object_01a.png,,,49,,,,0,object_08a.png,object_10b.png,object_03b.png,object_10b.png,,0.3888888888888889,,0,,,,,,,,,,,
4269.799999982119,,directmemory_phase1,738692,,,,,,,,object_11a.png,,,51,,,,1,object_12c.png,object_03b.png,object_13a.png,object_13a.png,,0.42105263157894735,,1,,,,,,,,,,,
4098.699999988079,,directmemory_phase1,742793,,,,,,,,object_06b.png,,,50,,,,1,object_07b.png,object_09a.png,object_11c.png,object_09a.png,,0.45,,1,,,,,,,,,,,
3847.0999999940395,,directmemory_phase1,746642,,,,,,,,object_07a.png,,,51,,,,0,object_05b.png,object_10c.png,object_08b.png,object_10c.png,,0.42857142857142855,,0,,,,,,,,,,,
5100.200000017881,,directmemory_phase1,751745,,,,,,,,object_05a.png,,,51,,,,0,object_11c.png,object_01c.png,object_08c.png,object_01c.png,,0.4090909090909091,,0,,,,,,,,,,,
6529.800000011921,,directmemory_phase1,758277,,,,,,,,object_14a.png,,,51,,,,0,object_13a.png,object_03b.png,object_06c.png,object_03b.png,,0.391304347826087,,0,,,,,,,,,,,
4690.4000000059605,,directmemory_phase1,762971,,,,,,,,object_03c.png,,,49,,,,1,object_05c.png,object_03a.png,object_11a.png,object_05c.png,,0.4166666666666667,,1,,,,,,,,,,,
3052.600000023842,,directmemory_phase1,766026,,,,,,,,object_04a.png,,,51,,,,0,object_11a.png,object_02b.png,object_10a.png,object_02b.png,,0.4,,0,,,,,,,,,,,
3201.5999999940395,,directmemory_phase1,769231,,,,,,,,object_04b.png,,,49,,,,0,object_01c.png,object_09a.png,object_10a.png,object_10a.png,,0.38461538461538464,,0,,,,,,,,,,,
3614.699999988079,,directmemory_phase1,772849,,,,,,,,object_03a.png,,,51,,,,1,object_01b.png,object_05b.png,object_12c.png,object_12c.png,,0.4074074074074074,,1,,,,,,,,,,,
3625.9000000059605,,directmemory_phase1,776477,,,,,,,,object_15a.png,,,51,,,,0,object_05b.png,object_15c.png,object_08b.png,object_15c.png,,0.39285714285714285,,0,,,,,,,,,,,
3855.5,,directmemory_phase1,780334,,,,,,,,object_15b.png,,,51,,,,1,object_09a.png,object_01c.png,object_01a.png,object_01a.png,,0.41379310344827586,,1,,,,,,,,,,,
5982.300000011921,,directmemory_phase1,786318,,,,,,,,object_09c.png,,,49,,,,0,object_04c.png,object_09a.png,object_14a.png,object_14a.png,,0.4,,0,,,,,,,,,,,
null,,thebreak,786427,,,,,,,,<p></p>,,,null,,,,,,,,,,,,,,,,,,,,,,,
2331,,intro_0,788759,,,,,,,,instruct,,,32,,,,,,,,,,,,,,,,,,,,,,,
null,,learn_phase(without_color)2,792269,,,,,,,,black_plus_sign,,,null,object_08a.png,object_04c.png,,,,,,,,,,,,,,,,,,,,,
null,,black_cross(without_color)2,792706,,,,,,,,green,,,null,object_08a.png,object_04c.png,,,,,,,,,,,,,,,,,,,,,
null,,rt_plussign_withcolor2,793218,,,,,,,,green,,,null,object_08a.png,object_04c.png,,,,,,,,,,,,,,,,,,,,,
713.2999999821186,,rt_thecrossant_black2,794801,,,,,,,,black_plus_sign,,,50,,,,1,,,,,,1,,,,,,,,,,,,,
null,,color_black2,794906,,,,,,,,black_plus_sign,,,null,,,,,,,,,,,,,,,,,,,,,,,
null,,learn_phase(without_color)2,798419,,,,,,,,black_plus_sign,,,null,object_06c.png,object_09a.png,,,,,,,,,,,,,,,,,,,,,
null,,black_cross(without_color)2,799341,,,,,,,,blue,,,null,object_06c.png,object_09a.png,,,,,,,,,,,,,,,,,,,,,
null,,rt_plussign_withcolor2,799857,,,,,,,,blue,,,null,object_06c.png,object_09a.png,,,,,,,,,,,,,,,,,,,,,
605.0999999940395,,rt_thecrossant_black2,800964,,,,,,,,black_plus_sign,,,50,,,,0,,,,,,0.5,,,,,,,,,,,,,
null,,color_black2,801072,,,,,,,,black_plus_sign,,,null,,,,,,,,,,,,,,,,,,,,,,,
null,,learn_phase(without_color)2,804580,,,,,,,,black_plus_sign,,,null,object_11a.png,object_12a.png,,,,,,,,,,,,,,,,,,,,,
null,,black_cross(without_color)2,805674,,,,,,,,green,,,null,object_11a.png,object_12a.png,,,,,,,,,,,,,,,,,,,,,
null,,rt_plussign_withcolor2,806185,,,,,,,,green,,,null,object_11a.png,object_12a.png,,,,,,,,,,,,,,,,,,,,,
1244.9000000059605,,rt_thecrossant_black2,807116,,,,,,,,black_plus_sign,,,50,,,,1,,,,,,0.6666666666666666,,,,,,,,,,,,,
null,,color_black2,807225,,,,,,,,black_plus_sign,,,null,,,,,,,,,,,,,,,,,,,,,,,
null,,learn_phase(without_color)2,810742,,,,,,,,black_plus_sign,,,null,object_01a.png,object_15b.png,,,,,,,,,,,,,,,,,,,,,
null,,black_cross(without_color)2,811309,,,,,,,,green,,,null,object_01a.png,object_15b.png,,,,,,,,,,,,,,,,,,,,,
null,,rt_plussign_withcolor2,811826,,,,,,,,green,,,null,object_01a.png,object_15b.png,,,,,,,,,,,,,,,,,,,,,
1766.5999999940395,,rt_thecrossant_black2,813272,,,,,,,,black_plus_sign,,,50,,,,1,,,,,,0.75,,,,,,,,,,,,,
null,,color_black2,813383,,,,,,,,black_plus_sign,,,null,,,,,,,,,,,,,,,,,,,,,,,
null,,learn_phase(without_color)2,816894,,,,,,,,black_plus_sign,,,null,object_12b.png,object_08c.png,,,,,,,,,,,,,,,,,,,,,
null,,black_cross(without_color)2,817715,,,,,,,,green,,,null,object_12b.png,object_08c.png,,,,,,,,,,,,,,,,,,,,,
null,,rt_plussign_withcolor2,818227,,,,,,,,green,,,null,object_12b.png,object_08c.png,,,,,,,,,,,,,,,,,,,,,
740.7000000178814,,rt_thecrossant_black2,819423,,,,,,,,black_plus_sign,,,50,,,,1,,,,,,0.8,,,,,,,,,,,,,
null,,color_black2,819527,,,,,,,,black_plus_sign,,,null,,,,,,,,,,,,,,,,,,,,,,,
null,,learn_phase(without_color)2,823037,,,,,,,,black_plus_sign,,,null,object_11b.png,object_11c.png,,,,,,,,,,,,,,,,,,,,,
null,,black_cross(without_color)2,823766,,,,,,,,blue,,,null,object_11b.png,object_11c.png,,,,,,,,,,,,,,,,,,,,,
473.19999998807907,,rt_plussign_withcolor2,824268,,,,,,,,blue,,,49,object_11b.png,object_11c.png,,,,,,,,,,,,,,,,,,,,,
null,,rt_thecrossant_black2,825558,,,,,,,,black_plus_sign,,,null,,,,1,,,,,,0.8333333333333334,,,,,,,,,,,,,
null,,color_black2,825664,,,,,,,,black_plus_sign,,,null,,,,,,,,,,,,,,,,,,,,,,,
null,,learn_phase(without_color)2,829177,,,,,,,,black_plus_sign,,,null,object_01b.png,object_10a.png,,,,,,,,,,,,,,,,,,,,,
null,,black_cross(without_color)2,830087,,,,,,,,blue,,,null,object_01b.png,object_10a.png,,,,,,,,,,,,,,,,,,,,,
null,,rt_plussign_withcolor2,830604,,,,,,,,blue,,,null,object_01b.png,object_10a.png,,,,,,,,,,,,,,,,,,,,,
999.5,,rt_thecrossant_black2,831716,,,,,,,,black_plus_sign,,,50,,,,0,,,,,,0.7142857142857143,,,,,,,,,,,,,
null,,color_black2,831827,,,,,,,,black_plus_sign,,,null,,,,,,,,,,,,,,,,,,,,,,,
null,,learn_phase(without_color)2,835340,,,,,,,,black_plus_sign,,,null,object_14a.png,object_09c.png,,,,,,,,,,,,,,,,,,,,,
null,,black_cross(without_color)2,835960,,,,,,,,blue,,,null,object_14a.png,object_09c.png,,,,,,,,,,,,,,,,,,,,,
480.09999999403954,,rt_plussign_withcolor2,836464,,,,,,,,blue,,,49,object_14a.png,object_09c.png,,,,,,,,,,,,,,,,,,,,,
null,,rt_thecrossant_black2,837872,,,,,,,,black_plus_sign,,,null,,,,1,,,,,,0.75,,,,,,,,,,,,,
null,,color_black2,837977,,,,,,,,black_plus_sign,,,null,,,,,,,,,,,,,,,,,,,,,,,
null,,learn_phase(without_color)2,841499,,,,,,,,black_plus_sign,,,null,object_08b.png,object_02b.png,,,,,,,,,,,,,,,,,,,,,
null,,black_cross(without_color)2,842395,,,,,,,,blue,,,null,object_08b.png,object_02b.png,,,,,,,,,,,,,,,,,,,,,
501.2000000178814,,rt_plussign_withcolor2,842900,,,,,,,,blue,,,49,object_08b.png,object_02b.png,,,,,,,,,,,,,,,,,,,,,
null,,rt_thecrossant_black2,844023,,,,,,,,black_plus_sign,,,null,,,,1,,,,,,0.7777777777777778,,,,,,,,,,,,,
null,,color_black2,844128,,,,,,,,black_plus_sign,,,null,,,,,,,,,,,,,,,,,,,,,,,
null,,learn_phase(without_color)2,847643,,,,,,,,black_plus_sign,,,null,object_07b.png,object_07c.png,,,,,,,,,,,,,,,,,,,,,
null,,black_cross(without_color)2,848728,,,,,,,,blue,,,null,object_07b.png,object_07c.png,,,,,,,,,,,,,,,,,,,,,
null,,rt_plussign_withcolor2,849245,,,,,,,,blue,,,null,object_07b.png,object_07c.png,,,,,,,,,,,,,,,,,,,,,
1135.3999999761581,,rt_thecrossant_black2,850193,,,,,,,,black_plus_sign,,,49,,,,1,,,,,,0.8,,,,,,,,,,,,,
null,,color_black2,850296,,,,,,,,black_plus_sign,,,null,,,,,,,,,,,,,,,,,,,,,,,
null,,learn_phase(without_color)2,853809,,,,,,,,black_plus_sign,,,null,object_08c.png,object_13b.png,,,,,,,,,,,,,,,,,,,,,
null,,black_cross(without_color)2,854714,,,,,,,,green,,,null,object_08c.png,object_13b.png,,,,,,,,,,,,,,,,,,,,,
null,,rt_plussign_withcolor2,855234,,,,,,,,green,,,null,object_08c.png,object_13b.png,,,,,,,,,,,,,,,,,,,,,
1775.0999999940395,,rt_thecrossant_black2,856350,,,,,,,,black_plus_sign,,,50,,,,1,,,,,,0.8181818181818182,,,,,,,,,,,,,
null,,color_black2,856458,,,,,,,,black_plus_sign,,,null,,,,,,,,,,,,,,,,,,,,,,,
null,,learn_phase(without_color)2,859968,,,,,,,,black_plus_sign,,,null,object_04c.png,object_09b.png,,,,,,,,,,,,,,,,,,,,,
null,,black_cross(without_color)2,860929,,,,,,,,green,,,null,object_04c.png,object_09b.png,,,,,,,,,,,,,,,,,,,,,
null,,rt_plussign_withcolor2,861441,,,,,,,,green,,,null,object_04c.png,object_09b.png,,,,,,,,,,,,,,,,,,,,,
1082.0999999940395,,rt_thecrossant_black2,862507,,,,,,,,black_plus_sign,,,49,,,,0,,,,,,0.75,,,,,,,,,,,,,
null,,color_black2,862618,,,,,,,,black_plus_sign,,,null,,,,,,,,,,,,,,,,,,,,,,,
null,,learn_phase(without_color)2,866135,,,,,,,,black_plus_sign,,,null,object_02b.png,object_04a.png,,,,,,,,,,,,,,,,,,,,,
null,,black_cross(without_color)2,866874,,,,,,,,blue,,,null,object_02b.png,object_04a.png,,,,,,,,,,,,,,,,,,,,,
null,,rt_plussign_withcolor2,867377,,,,,,,,blue,,,null,object_02b.png,object_04a.png,,,,,,,,,,,,,,,,,,,,,
1313.2000000178814,,rt_thecrossant_black2,868659,,,,,,,,black_plus_sign,,,49,,,,1,,,,,,0.7692307692307693,,,,,,,,,,,,,
null,,color_black2,868768,,,,,,,,black_plus_sign,,,null,,,,,,,,,,,,,,,,,,,,,,,
null,,learn_phase(without_color)2,872276,,,,,,,,black_plus_sign,,,null,object_10a.png,object_04b.png,,,,,,,,,,,,,,,,,,,,,
null,,black_cross(without_color)2,872931,,,,,,,,green,,,null,object_10a.png,object_04b.png,,,,,,,,,,,,,,,,,,,,,
null,,rt_plussign_withcolor2,873444,,,,,,,,green,,,null,object_10a.png,object_04b.png,,,,,,,,,,,,,,,,,,,,,
1076.0999999940395,,rt_thecrossant_black2,874806,,,,,,,,black_plus_sign,,,50,,,,1,,,,,,0.7857142857142857,,,,,,,,,,,,,
null,,color_black2,874918,,,,,,,,black_plus_sign,,,null,,,,,,,,,,,,,,,,,,,,,,,
null,,learn_phase(without_color)2,878431,,,,,,,,black_plus_sign,,,null,object_15a.png,object_13c.png,,,,,,,,,,,,,,,,,,,,,
null,,black_cross(without_color)2,878996,,,,,,,,blue,,,null,object_15a.png,object_13c.png,,,,,,,,,,,,,,,,,,,,,
null,,rt_plussign_withcolor2,879509,,,,,,,,blue,,,null,object_15a.png,object_13c.png,,,,,,,,,,,,,,,,,,,,,
825.5,,rt_thecrossant_black2,880951,,,,,,,,black_plus_sign,,,49,,,,1,,,,,,0.8,,,,,,,,,,,,,
null,,color_black2,881062,,,,,,,,black_plus_sign,,,null,,,,,,,,,,,,,,,,,,,,,,,
null,,learn_phase(without_color)2,884578,,,,,,,,black_plus_sign,,,null,object_03b.png,object_14a.png,,,,,,,,,,,,,,,,,,,,,
null,,black_cross(without_color)2,885163,,,,,,,,blue,,,null,object_03b.png,object_14a.png,,,,,,,,,,,,,,,,,,,,,
null,,rt_plussign_withcolor2,885680,,,,,,,,blue,,,null,object_03b.png,object_14a.png,,,,,,,,,,,,,,,,,,,,,
770.5999999940395,,rt_thecrossant_black2,887121,,,,,,,,black_plus_sign,,,49,,,,1,,,,,,0.8125,,,,,,,,,,,,,
null,,color_black2,887231,,,,,,,,black_plus_sign,,,null,,,,,,,,,,,,,,,,,,,,,,,
null,,learn_phase(without_color)2,890738,,,,,,,,black_plus_sign,,,null,object_01c.png,object_05a.png,,,,,,,,,,,,,,,,,,,,,
null,,black_cross(without_color)2,891288,,,,,,,,blue,,,null,object_01c.png,object_05a.png,,,,,,,,,,,,,,,,,,,,,
null,,rt_plussign_withcolor2,891799,,,,,,,,blue,,,null,object_01c.png,object_05a.png,,,,,,,,,,,,,,,,,,,,,
1017.5999999940395,,rt_thecrossant_black2,893268,,,,,,,,black_plus_sign,,,49,,,,1,,,,,,0.8235294117647058,,,,,,,,,,,,,
null,,color_black2,893378,,,,,,,,black_plus_sign,,,null,,,,,,,,,,,,,,,,,,,,,,,
null,,learn_phase(without_color)2,896888,,,,,,,,black_plus_sign,,,null,object_12c.png,object_03a.png,,,,,,,,,,,,,,,,,,,,,
null,,black_cross(without_color)2,897648,,,,,,,,blue,,,null,object_12c.png,object_03a.png,,,,,,,,,,,,,,,,,,,,,
null,,rt_plussign_withcolor2,898159,,,,,,,,blue,,,null,object_12c.png,object_03a.png,,,,,,,,,,,,,,,,,,,,,
864.4000000059605,,rt_thecrossant_black2,899443,,,,,,,,black_plus_sign,,,49,,,,1,,,,,,0.8333333333333334,,,,,,,,,,,,,
null,,color_black2,899547,,,,,,,,black_plus_sign,,,null,,,,,,,,,,,,,,,,,,,,,,,
null,,learn_phase(without_color)2,903069,,,,,,,,black_plus_sign,,,null,object_15c.png,object_15a.png,,,,,,,,,,,,,,,,,,,,,
null,,black_cross(without_color)2,904016,,,,,,,,blue,,,null,object_15c.png,object_15a.png,,,,,,,,,,,,,,,,,,,,,
null,,rt_plussign_withcolor2,904519,,,,,,,,blue,,,null,object_15c.png,object_15a.png,,,,,,,,,,,,,,,,,,,,,
957.8000000119209,,rt_thecrossant_black2,905591,,,,,,,,black_plus_sign,,,49,,,,1,,,,,,0.8421052631578947,,,,,,,,,,,,,
null,,color_black2,905696,,,,,,,,black_plus_sign,,,null,,,,,,,,,,,,,,,,,,,,,,,
null,,learn_phase(without_color)2,909207,,,,,,,,black_plus_sign,,,null,object_10b.png,object_01a.png,,,,,,,,,,,,,,,,,,,,,
null,,black_cross(without_color)2,910181,,,,,,,,green,,,null,object_10b.png,object_01a.png,,,,,,,,,,,,,,,,,,,,,
null,,rt_plussign_withcolor2,910687,,,,,,,,green,,,null,object_10b.png,object_01a.png,,,,,,,,,,,,,,,,,,,,,
1146.1000000238419,,rt_thecrossant_black2,911746,,,,,,,,black_plus_sign,,,50,,,,1,,,,,,0.85,,,,,,,,,,,,,
null,,color_black2,911851,,,,,,,,black_plus_sign,,,null,,,,,,,,,,,,,,,,,,,,,,,
null,,learn_phase(without_color)2,915370,,,,,,,,black_plus_sign,,,null,object_13a.png,object_11a.png,,,,,,,,,,,,,,,,,,,,,
null,,black_cross(without_color)2,915938,,,,,,,,blue,,,null,object_13a.png,object_11a.png,,,,,,,,,,,,,,,,,,,,,
null,,rt_plussign_withcolor2,916454,,,,,,,,blue,,,null,object_13a.png,object_11a.png,,,,,,,,,,,,,,,,,,,,,
1287.9000000059605,,rt_thecrossant_black2,917908,,,,,,,,black_plus_sign,,,49,,,,1,,,,,,0.8571428571428571,,,,,,,,,,,,,
null,,color_black2,918018,,,,,,,,black_plus_sign,,,null,,,,,,,,,,,,,,,,,,,,,,,
null,,learn_phase(without_color)2,921532,,,,,,,,black_plus_sign,,,null,object_07a.png,object_06a.png,,,,,,,,,,,,,,,,,,,,,
null,,black_cross(without_color)2,922194,,,,,,,,green,,,null,object_07a.png,object_06a.png,,,,,,,,,,,,,,,,,,,,,
null,,rt_plussign_withcolor2,922708,,,,,,,,green,,,null,object_07a.png,object_06a.png,,,,,,,,,,,,,,,,,,,,,
775.3000000119209,,rt_thecrossant_black2,924071,,,,,,,,black_plus_sign,,,50,,,,1,,,,,,0.8636363636363636,,,,,,,,,,,,,
null,,color_black2,924184,,,,,,,,black_plus_sign,,,null,,,,,,,,,,,,,,,,,,,,,,,
null,,learn_phase(without_color)2,927694,,,,,,,,black_plus_sign,,,null,object_09a.png,object_06b.png,,,,,,,,,,,,,,,,,,,,,
null,,black_cross(without_color)2,928310,,,,,,,,blue,,,null,object_09a.png,object_06b.png,,,,,,,,,,,,,,,,,,,,,
null,,rt_plussign_withcolor2,928826,,,,,,,,blue,,,null,object_09a.png,object_06b.png,,,,,,,,,,,,,,,,,,,,,
773.8000000119209,,rt_thecrossant_black2,930235,,,,,,,,black_plus_sign,,,49,,,,1,,,,,,0.8695652173913043,,,,,,,,,,,,,
null,,color_black2,930343,,,,,,,,black_plus_sign,,,null,,,,,,,,,,,,,,,,,,,,,,,
null,,learn_phase(without_color)2,933851,,,,,,,,black_plus_sign,,,null,object_05c.png,object_03c.png,,,,,,,,,,,,,,,,,,,,,
null,,black_cross(without_color)2,934834,,,,,,,,green,,,null,object_05c.png,object_03c.png,,,,,,,,,,,,,,,,,,,,,
null,,rt_plussign_withcolor2,935352,,,,,,,,green,,,null,object_05c.png,object_03c.png,,,,,,,,,,,,,,,,,,,,,
884.9000000059605,,rt_thecrossant_black2,936391,,,,,,,,black_plus_sign,,,50,,,,1,,,,,,0.875,,,,,,,,,,,,,
null,,color_black2,936508,,,,,,,,black_plus_sign,,,null,,,,,,,,,,,,,,,,,,,,,,,
null,,learn_phase(without_color)2,940019,,,,,,,,black_plus_sign,,,null,object_11c.png,object_14c.png,,,,,,,,,,,,,,,,,,,,,
null,,black_cross(without_color)2,940973,,,,,,,,blue,,,null,object_11c.png,object_14c.png,,,,,,,,,,,,,,,,,,,,,
null,,rt_plussign_withcolor2,941483,,,,,,,,blue,,,null,object_11c.png,object_14c.png,,,,,,,,,,,,,,,,,,,,,
1128.2999999821186,,rt_thecrossant_black2,942559,,,,,,,,black_plus_sign,,,49,,,,1,,,,,,0.88,,,,,,,,,,,,,
null,,color_black2,942661,,,,,,,,black_plus_sign,,,null,,,,,,,,,,,,,,,,,,,,,,,
null,,learn_phase(without_color)2,946179,,,,,,,,black_plus_sign,,,null,object_02c.png,object_07b.png,,,,,,,,,,,,,,,,,,,,,
null,,black_cross(without_color)2,946951,,,,,,,,green,,,null,object_02c.png,object_07b.png,,,,,,,,,,,,,,,,,,,,,
null,,rt_plussign_withcolor2,947457,,,,,,,,green,,,null,object_02c.png,object_07b.png,,,,,,,,,,,,,,,,,,,,,
1737.699999988079,,rt_thecrossant_black2,948715,,,,,,,,black_plus_sign,,,50,,,,1,,,,,,0.8846153846153846,,,,,,,,,,,,,
null,,color_black2,948820,,,,,,,,black_plus_sign,,,null,,,,,,,,,,,,,,,,,,,,,,,
null,,learn_phase(without_color)2,952328,,,,,,,,black_plus_sign,,,null,object_05b.png,object_05c.png,,,,,,,,,,,,,,,,,,,,,
null,,black_cross(without_color)2,953398,,,,,,,,blue,,,null,object_05b.png,object_05c.png,,,,,,,,,,,,,,,,,,,,,
468.90000000596046,,rt_plussign_withcolor2,953901,,,,,,,,blue,,,49,object_05b.png,object_05c.png,,,,,,,,,,,,,,,,,,,,,
null,,rt_thecrossant_black2,954858,,,,,,,,black_plus_sign,,,null,,,,1,,,,,,0.8888888888888888,,,,,,,,,,,,,
null,,color_black2,954972,,,,,,,,black_plus_sign,,,null,,,,,,,,,,,,,,,,,,,,,,,
null,,learn_phase(without_color)2,958480,,,,,,,,black_plus_sign,,,null,object_10c.png,object_07a.png,,,,,,,,,,,,,,,,,,,,,
null,,black_cross(without_color)2,959236,,,,,,,,blue,,,null,object_10c.png,object_07a.png,,,,,,,,,,,,,,,,,,,,,
null,,rt_plussign_withcolor2,959747,,,,,,,,blue,,,null,object_10c.png,object_07a.png,,,,,,,,,,,,,,,,,,,,,
1295.800000011921,,rt_thecrossant_black2,961021,,,,,,,,black_plus_sign,,,49,,,,1,,,,,,0.8928571428571429,,,,,,,,,,,,,
null,,color_black2,961125,,,,,,,,black_plus_sign,,,null,,,,,,,,,,,,,,,,,,,,,,,
null,,learn_phase(without_color)2,964633,,,,,,,,black_plus_sign,,,null,object_03a.png,object_14b.png,,,,,,,,,,,,,,,,,,,,,
null,,black_cross(without_color)2,965188,,,,,,,,blue,,,null,object_03a.png,object_14b.png,,,,,,,,,,,,,,,,,,,,,
null,,rt_plussign_withcolor2,965698,,,,,,,,blue,,,null,object_03a.png,object_14b.png,,,,,,,,,,,,,,,,,,,,,
992.0999999940395,,rt_thecrossant_black2,967164,,,,,,,,black_plus_sign,,,49,,,,1,,,,,,0.896551724137931,,,,,,,,,,,,,
null,,color_black2,967272,,,,,,,,black_plus_sign,,,null,,,,,,,,,,,,,,,,,,,,,,,
null,,learn_phase(without_color)2,970780,,,,,,,,black_plus_sign,,,null,object_02a.png,object_01c.png,,,,,,,,,,,,,,,,,,,,,
null,,black_cross(without_color)2,971578,,,,,,,,green,,,null,object_02a.png,object_01c.png,,,,,,,,,,,,,,,,,,,,,
null,,rt_plussign_withcolor2,972096,,,,,,,,green,,,null,object_02a.png,object_01c.png,,,,,,,,,,,,,,,,,,,,,
782.9000000059605,,rt_thecrossant_black2,973333,,,,,,,,black_plus_sign,,,50,,,,1,,,,,,0.9,,,,,,,,,,,,,
null,,color_black2,973436,,,,,,,,black_plus_sign,,,null,,,,,,,,,,,,,,,,,,,,,,,
null,,thebreak,973545,,,,,,,,<p></p>,,,null,,,,,,,,,,,,,,,,,,,,,,,
2721.800000011921,,intro_0,976268,,,,,,,,instruct,,,32,,,,,,,,,,,,,,,,,,,,,,,
8524.09999999404,,directmemory_phase2,984793,,,,,,,,object_09b.png,,,51,,,,0,object_04c.png,object_03a.png,object_02b.png,object_04c.png,,0.3870967741935484,,0,,,,,,,,,,,
5111.300000011921,,directmemory_phase2,989907,,,,,,,,object_03c.png,,,51,,,,0,object_05c.png,object_07b.png,object_10a.png,object_05c.png,,0.375,,0,,,,,,,,,,,
4160.199999988079,,directmemory_phase2,994070,,,,,,,,object_03a.png,,,49,,,,0,object_10c.png,object_12b.png,object_12c.png,object_12c.png,,0.36363636363636365,,0,,,,,,,,,,,
3835.4000000059605,,directmemory_phase2,997908,,,,,,,,object_15a.png,,,49,,,,0,object_08a.png,object_02a.png,object_15c.png,object_15c.png,,0.35294117647058826,,0,,,,,,,,,,,
3875.5999999940395,,directmemory_phase2,1001787,,,,,,,,object_11a.png,,,51,,,,0,object_13a.png,object_05b.png,object_12b.png,object_13a.png,,0.34285714285714286,,0,,,,,,,,,,,
9282.09999999404,,directmemory_phase2,1011071,,,,,,,,object_10a.png,,,50,,,,0,object_01b.png,object_10c.png,object_12c.png,object_01b.png,,0.3333333333333333,,0,,,,,,,,,,,
7856.199999988079,,directmemory_phase2,1018931,,,,,,,,object_04b.png,,,51,,,,0,object_10a.png,object_03a.png,object_07b.png,object_10a.png,,0.32432432432432434,,0,,,,,,,,,,,
4561.200000017881,,directmemory_phase2,1023495,,,,,,,,object_06b.png,,,50,,,,1,object_11a.png,object_09a.png,object_01c.png,object_09a.png,,0.34210526315789475,,1,,,,,,,,,,,
3808.300000011921,,directmemory_phase2,1027306,,,,,,,,object_14c.png,,,51,,,,1,object_07a.png,object_07b.png,object_11c.png,object_11c.png,,0.358974358974359,,1,,,,,,,,,,,
3734.699999988079,,directmemory_phase2,1031043,,,,,,,,object_05c.png,,,49,,,,0,object_12c.png,object_10c.png,object_05b.png,object_05b.png,,0.35,,0,,,,,,,,,,,
6528,,directmemory_phase2,1037573,,,,,,,,object_11c.png,,,49,,,,1,object_11b.png,object_08b.png,object_02a.png,object_11b.png,,0.36585365853658536,,1,,,,,,,,,,,
3549.5999999940395,,directmemory_phase2,1041125,,,,,,,,object_07b.png,,,49,,,,1,object_02c.png,object_12c.png,object_05b.png,object_02c.png,,0.38095238095238093,,1,,,,,,,,,,,
6568.0999999940395,,directmemory_phase2,1047697,,,,,,,,object_01c.png,,,51,,,,0,object_02a.png,object_10b.png,object_06c.png,object_02a.png,,0.37209302325581395,,0,,,,,,,,,,,
5813,,directmemory_phase2,1053514,,,,,,,,object_05a.png,,,49,,,,1,object_01c.png,object_08c.png,object_02b.png,object_01c.png,,0.38636363636363635,,1,,,,,,,,,,,
3832.7000000178814,,directmemory_phase2,1057350,,,,,,,,object_14a.png,,,49,,,,1,object_03b.png,object_02c.png,object_12c.png,object_03b.png,,0.4,,1,,,,,,,,,,,
2554.199999988079,,directmemory_phase2,1059908,,,,,,,,object_12a.png,,,50,,,,1,object_04c.png,object_11a.png,object_08c.png,object_11a.png,,0.41304347826086957,,1,,,,,,,,,,,
3790.300000011921,,directmemory_phase2,1063701,,,,,,,,object_07a.png,,,50,,,,1,object_10b.png,object_10c.png,object_05b.png,object_10c.png,,0.425531914893617,,1,,,,,,,,,,,
3125.100000023842,,directmemory_phase2,1066829,,,,,,,,object_02b.png,,,51,,,,1,object_08a.png,object_02a.png,object_08b.png,object_08b.png,,0.4375,,1,,,,,,,,,,,
3723.9000000059605,,directmemory_phase2,1070557,,,,,,,,object_07c.png,,,50,,,,0,object_07b.png,object_10a.png,object_08c.png,object_07b.png,,0.42857142857142855,,0,,,,,,,,,,,
4817.699999988079,,directmemory_phase2,1075378,,,,,,,,object_09a.png,,,50,,,,0,object_02c.png,object_12c.png,object_06c.png,object_06c.png,,0.42,,0,,,,,,,,,,,
3187.2999999821186,,directmemory_phase2,1078569,,,,,,,,object_13c.png,,,49,,,,1,object_15a.png,object_08c.png,object_14a.png,object_15a.png,,0.43137254901960786,,1,,,,,,,,,,,
3991.5999999940395,,directmemory_phase2,1082563,,,,,,,,object_04a.png,,,50,,,,0,object_02b.png,object_03a.png,object_11a.png,object_02b.png,,0.4230769230769231,,0,,,,,,,,,,,
3344.0999999940395,,directmemory_phase2,1085912,,,,,,,,object_04c.png,,,51,,,,1,object_12b.png,object_02a.png,object_08a.png,object_08a.png,,0.4339622641509434,,1,,,,,,,,,,,
3878.0999999940395,,directmemory_phase2,1089794,,,,,,,,object_08c.png,,,50,,,,1,object_08b.png,object_12b.png,object_05b.png,object_12b.png,,0.4444444444444444,,1,,,,,,,,,,,
2569.4000000059605,,directmemory_phase2,1092366,,,,,,,,object_06a.png,,,49,,,,1,object_07a.png,object_10a.png,object_04c.png,object_07a.png,,0.45454545454545453,,1,,,,,,,,,,,
3580.9000000059605,,directmemory_phase2,1095950,,,,,,,,object_09c.png,,,49,,,,1,object_14a.png,object_09a.png,object_07b.png,object_14a.png,,0.4642857142857143,,1,,,,,,,,,,,
4149.299999982119,,directmemory_phase2,1100102,,,,,,,,object_13b.png,,,49,,,,1,object_08c.png,object_10a.png,object_14a.png,object_08c.png,,0.47368421052631576,,1,,,,,,,,,,,
2909.5999999940395,,directmemory_phase2,1103014,,,,,,,,object_14b.png,,,49,,,,1,object_03a.png,object_05c.png,object_02b.png,object_03a.png,,0.4827586206896552,,1,,,,,,,,,,,
4161.300000011921,,directmemory_phase2,1107178,,,,,,,,object_15b.png,,,49,,,,1,object_01a.png,object_10a.png,object_04c.png,object_01a.png,,0.4915254237288136,,1,,,,,,,,,,,
6094.4000000059605,,directmemory_phase2,1113274,,,,,,,,object_01a.png,,,51,,,,1,object_12c.png,object_11b.png,object_10b.png,object_10b.png,,0.5,,1,,,,,,,,,,,
null,,thebreak,1113377,,,,,,,,<p></p>,,,null,,,,,,,,,,,,,,,,,,,,,,,
1726.6000000238419,,intro_0,1115106,,,,,,,,instruct,,,32,,,,,,,,,,,,,,,,,,,,,,,
null,,learn_phase(without_color)3,1118623,,,,,,,,black_plus_sign,,,null,object_05b.png,object_05c.png,,,,,,,,,,,,,,,,,,,,,
null,,black_cross(without_color)3,1119074,,,,,,,,blue,,,null,object_05b.png,object_05c.png,,,,,,,,,,,,,,,,,,,,,
null,,rt_plussign_withcolor3,1119580,,,,,,,,blue,,,null,object_05b.png,object_05c.png,,,,,,,,,,,,,,,,,,,,,
815.0999999940395,,rt_thecrossant_black3,1121151,,,,,,,,black_plus_sign,,,49,,,,1,,,,,,1,,,,,,,,,,,,,
null,,color_black3,1121259,,,,,,,,black_plus_sign,,,null,,,,,,,,,,,,,,,,,,,,,,,
null,,learn_phase(without_color)3,1124766,,,,,,,,black_plus_sign,,,null,object_01b.png,object_10a.png,,,,,,,,,,,,,,,,,,,,,
null,,black_cross(without_color)3,1125571,,,,,,,,green,,,null,object_01b.png,object_10a.png,,,,,,,,,,,,,,,,,,,,,
409.80000001192093,,rt_plussign_withcolor3,1126078,,,,,,,,green,,,50,object_01b.png,object_10a.png,,,,,,,,,,,,,,,,,,,,,
null,,rt_thecrossant_black3,1127292,,,,,,,,black_plus_sign,,,null,,,,1,,,,,,1,,,,,,,,,,,,,
null,,color_black3,1127399,,,,,,,,black_plus_sign,,,null,,,,,,,,,,,,,,,,,,,,,,,
null,,learn_phase(without_color)3,1130910,,,,,,,,black_plus_sign,,,null,object_12c.png,object_03a.png,,,,,,,,,,,,,,,,,,,,,
null,,black_cross(without_color)3,1131496,,,,,,,,blue,,,null,object_12c.png,object_03a.png,,,,,,,,,,,,,,,,,,,,,
423.59999999403954,,rt_plussign_withcolor3,1132006,,,,,,,,blue,,,49,object_12c.png,object_03a.png,,,,,,,,,,,,,,,,,,,,,
null,,rt_thecrossant_black3,1133437,,,,,,,,black_plus_sign,,,null,,,,1,,,,,,1,,,,,,,,,,,,,
null,,color_black3,1133546,,,,,,,,black_plus_sign,,,null,,,,,,,,,,,,,,,,,,,,,,,
null,,learn_phase(without_color)3,1137060,,,,,,,,black_plus_sign,,,null,object_08c.png,object_13b.png,,,,,,,,,,,,,,,,,,,,,
null,,black_cross(without_color)3,1137920,,,,,,,,green,,,null,object_08c.png,object_13b.png,,,,,,,,,,,,,,,,,,,,,
null,,rt_plussign_withcolor3,1138425,,,,,,,,green,,,null,object_08c.png,object_13b.png,,,,,,,,,,,,,,,,,,,,,
816.9000000059605,,rt_thecrossant_black3,1139581,,,,,,,,black_plus_sign,,,50,,,,1,,,,,,1,,,,,,,,,,,,,
null,,color_black3,1139700,,,,,,,,black_plus_sign,,,null,,,,,,,,,,,,,,,,,,,,,,,
null,,learn_phase(without_color)3,1143208,,,,,,,,black_plus_sign,,,null,object_08a.png,object_04c.png,,,,,,,,,,,,,,,,,,,,,
null,,black_cross(without_color)3,1144283,,,,,,,,blue,,,null,object_08a.png,object_04c.png,,,,,,,,,,,,,,,,,,,,,
null,,rt_plussign_withcolor3,1144793,,,,,,,,blue,,,null,object_08a.png,object_04c.png,,,,,,,,,,,,,,,,,,,,,
1112.699999988079,,rt_thecrossant_black3,1145740,,,,,,,,black_plus_sign,,,49,,,,1,,,,,,1,,,,,,,,,,,,,
null,,color_black3,1145847,,,,,,,,black_plus_sign,,,null,,,,,,,,,,,,,,,,,,,,,,,
null,,learn_phase(without_color)3,1149362,,,,,,,,black_plus_sign,,,null,object_06c.png,object_09a.png,,,,,,,,,,,,,,,,,,,,,
null,,black_cross(without_color)3,1150232,,,,,,,,blue,,,null,object_06c.png,object_09a.png,,,,,,,,,,,,,,,,,,,,,
null,,rt_plussign_withcolor3,1150737,,,,,,,,blue,,,null,object_06c.png,object_09a.png,,,,,,,,,,,,,,,,,,,,,
1210,,rt_thecrossant_black3,1151886,,,,,,,,black_plus_sign,,,49,,,,1,,,,,,1,,,,,,,,,,,,,
null,,color_black3,1151996,,,,,,,,black_plus_sign,,,null,,,,,,,,,,,,,,,,,,,,,,,
null,,learn_phase(without_color)3,1155503,,,,,,,,black_plus_sign,,,null,object_03b.png,object_14a.png,,,,,,,,,,,,,,,,,,,,,
null,,black_cross(without_color)3,1156404,,,,,,,,blue,,,null,object_03b.png,object_14a.png,,,,,,,,,,,,,,,,,,,,,
null,,rt_plussign_withcolor3,1156914,,,,,,,,blue,,,null,object_03b.png,object_14a.png,,,,,,,,,,,,,,,,,,,,,
1000.2999999821186,,rt_thecrossant_black3,1158026,,,,,,,,black_plus_sign,,,49,,,,1,,,,,,1,,,,,,,,,,,,,
null,,color_black3,1158134,,,,,,,,black_plus_sign,,,null,,,,,,,,,,,,,,,,,,,,,,,
null,,learn_phase(without_color)3,1161640,,,,,,,,black_plus_sign,,,null,object_09a.png,object_06b.png,,,,,,,,,,,,,,,,,,,,,
null,,black_cross(without_color)3,1162660,,,,,,,,green,,,null,object_09a.png,object_06b.png,,,,,,,,,,,,,,,,,,,,,
null,,rt_plussign_withcolor3,1163182,,,,,,,,green,,,null,object_09a.png,object_06b.png,,,,,,,,,,,,,,,,,,,,,
1269.199999988079,,rt_thecrossant_black3,1164177,,,,,,,,black_plus_sign,,,50,,,,1,,,,,,1,,,,,,,,,,,,,
null,,color_black3,1164295,,,,,,,,black_plus_sign,,,null,,,,,,,,,,,,,,,,,,,,,,,
null,,learn_phase(without_color)3,1167806,,,,,,,,black_plus_sign,,,null,object_11a.png,object_12a.png,,,,,,,,,,,,,,,,,,,,,
null,,black_cross(without_color)3,1168643,,,,,,,,blue,,,null,object_11a.png,object_12a.png,,,,,,,,,,,,,,,,,,,,,
null,,rt_plussign_withcolor3,1169147,,,,,,,,blue,,,null,object_11a.png,object_12a.png,,,,,,,,,,,,,,,,,,,,,
1177.699999988079,,rt_thecrossant_black3,1170326,,,,,,,,black_plus_sign,,,49,,,,1,,,,,,1,,,,,,,,,,,,,
null,,color_black3,1170435,,,,,,,,black_plus_sign,,,null,,,,,,,,,,,,,,,,,,,,,,,
null,,learn_phase(without_color)3,1173949,,,,,,,,black_plus_sign,,,null,object_10a.png,object_04b.png,,,,,,,,,,,,,,,,,,,,,
null,,black_cross(without_color)3,1174927,,,,,,,,blue,,,null,object_10a.png,object_04b.png,,,,,,,,,,,,,,,,,,,,,
null,,rt_plussign_withcolor3,1175440,,,,,,,,blue,,,null,object_10a.png,object_04b.png,,,,,,,,,,,,,,,,,,,,,
935.5999999940395,,rt_thecrossant_black3,1176480,,,,,,,,black_plus_sign,,,49,,,,1,,,,,,1,,,,,,,,,,,,,
null,,color_black3,1176586,,,,,,,,black_plus_sign,,,null,,,,,,,,,,,,,,,,,,,,,,,
null,,learn_phase(without_color)3,1180095,,,,,,,,black_plus_sign,,,null,object_11c.png,object_14c.png,,,,,,,,,,,,,,,,,,,,,
null,,black_cross(without_color)3,1180856,,,,,,,,green,,,null,object_11c.png,object_14c.png,,,,,,,,,,,,,,,,,,,,,
null,,rt_plussign_withcolor3,1181363,,,,,,,,green,,,null,object_11c.png,object_14c.png,,,,,,,,,,,,,,,,,,,,,
1219,,rt_thecrossant_black3,1182612,,,,,,,,black_plus_sign,,,50,,,,1,,,,,,1,,,,,,,,,,,,,
null,,color_black3,1182727,,,,,,,,black_plus_sign,,,null,,,,,,,,,,,,,,,,,,,,,,,
null,,learn_phase(without_color)3,1186236,,,,,,,,black_plus_sign,,,null,object_01c.png,object_05a.png,,,,,,,,,,,,,,,,,,,,,
null,,black_cross(without_color)3,1186930,,,,,,,,blue,,,null,object_01c.png,object_05a.png,,,,,,,,,,,,,,,,,,,,,
514.2999999821186,,rt_plussign_withcolor3,1187448,,,,,,,,blue,,,49,object_01c.png,object_05a.png,,,,,,,,,,,,,,,,,,,,,
null,,rt_thecrossant_black3,1188770,,,,,,,,black_plus_sign,,,null,,,,1,,,,,,1,,,,,,,,,,,,,
null,,color_black3,1188880,,,,,,,,black_plus_sign,,,null,,,,,,,,,,,,,,,,,,,,,,,
null,,learn_phase(without_color)3,1192395,,,,,,,,black_plus_sign,,,null,object_12b.png,object_08c.png,,,,,,,,,,,,,,,,,,,,,
null,,black_cross(without_color)3,1193115,,,,,,,,blue,,,null,object_12b.png,object_08c.png,,,,,,,,,,,,,,,,,,,,,
null,,rt_plussign_withcolor3,1193624,,,,,,,,blue,,,null,object_12b.png,object_08c.png,,,,,,,,,,,,,,,,,,,,,
1003.5,,rt_thecrossant_black3,1194925,,,,,,,,black_plus_sign,,,49,,,,1,,,,,,1,,,,,,,,,,,,,
null,,color_black3,1195033,,,,,,,,black_plus_sign,,,null,,,,,,,,,,,,,,,,,,,,,,,
null,,learn_phase(without_color)3,1198546,,,,,,,,black_plus_sign,,,null,object_02b.png,object_04a.png,,,,,,,,,,,,,,,,,,,,,
null,,black_cross(without_color)3,1199298,,,,,,,,green,,,null,object_02b.png,object_04a.png,,,,,,,,,,,,,,,,,,,,,
null,,rt_plussign_withcolor3,1199814,,,,,,,,green,,,null,object_02b.png,object_04a.png,,,,,,,,,,,,,,,,,,,,,
894.7999999821186,,rt_thecrossant_black3,1201081,,,,,,,,black_plus_sign,,,49,,,,0,,,,,,0.9285714285714286,,,,,,,,,,,,,
null,,color_black3,1201188,,,,,,,,black_plus_sign,,,null,,,,,,,,,,,,,,,,,,,,,,,
null,,learn_phase(without_color)3,1204696,,,,,,,,black_plus_sign,,,null,object_07b.png,object_07c.png,,,,,,,,,,,,,,,,,,,,,
null,,black_cross(without_color)3,1205557,,,,,,,,green,,,null,object_07b.png,object_07c.png,,,,,,,,,,,,,,,,,,,,,
null,,rt_plussign_withcolor3,1206072,,,,,,,,green,,,null,object_07b.png,object_07c.png,,,,,,,,,,,,,,,,,,,,,
926,,rt_thecrossant_black3,1207229,,,,,,,,black_plus_sign,,,50,,,,1,,,,,,0.9333333333333333,,,,,,,,,,,,,
null,,color_black3,1207336,,,,,,,,black_plus_sign,,,null,,,,,,,,,,,,,,,,,,,,,,,
null,,learn_phase(without_color)3,1210844,,,,,,,,black_plus_sign,,,null,object_15c.png,object_15a.png,,,,,,,,,,,,,,,,,,,,,
null,,black_cross(without_color)3,1211761,,,,,,,,green,,,null,object_15c.png,object_15a.png,,,,,,,,,,,,,,,,,,,,,
null,,rt_plussign_withcolor3,1212263,,,,,,,,green,,,null,object_15c.png,object_15a.png,,,,,,,,,,,,,,,,,,,,,
1062.7000000178814,,rt_thecrossant_black3,1213368,,,,,,,,black_plus_sign,,,50,,,,1,,,,,,0.9375,,,,,,,,,,,,,
null,,color_black3,1213477,,,,,,,,black_plus_sign,,,null,,,,,,,,,,,,,,,,,,,,,,,
null,,learn_phase(without_color)3,1216980,,,,,,,,black_plus_sign,,,null,object_10c.png,object_07a.png,,,,,,,,,,,,,,,,,,,,,
null,,black_cross(without_color)3,1217942,,,,,,,,blue,,,null,object_10c.png,object_07a.png,,,,,,,,,,,,,,,,,,,,,
null,,rt_plussign_withcolor3,1218449,,,,,,,,blue,,,null,object_10c.png,object_07a.png,,,,,,,,,,,,,,,,,,,,,
1138.2000000178814,,rt_thecrossant_black3,1219501,,,,,,,,black_plus_sign,,,49,,,,1,,,,,,0.9411764705882353,,,,,,,,,,,,,
null,,color_black3,1219609,,,,,,,,black_plus_sign,,,null,,,,,,,,,,,,,,,,,,,,,,,
null,,learn_phase(without_color)3,1223121,,,,,,,,black_plus_sign,,,null,object_01a.png,object_15b.png,,,,,,,,,,,,,,,,,,,,,
null,,black_cross(without_color)3,1223904,,,,,,,,blue,,,null,object_01a.png,object_15b.png,,,,,,,,,,,,,,,,,,,,,
null,,rt_plussign_withcolor3,1224410,,,,,,,,blue,,,null,object_01a.png,object_15b.png,,,,,,,,,,,,,,,,,,,,,
1184.5,,rt_thecrossant_black3,1225653,,,,,,,,black_plus_sign,,,49,,,,1,,,,,,0.9444444444444444,,,,,,,,,,,,,
null,,color_black3,1225760,,,,,,,,black_plus_sign,,,null,,,,,,,,,,,,,,,,,,,,,,,
null,,learn_phase(without_color)3,1229272,,,,,,,,black_plus_sign,,,null,object_14a.png,object_09c.png,,,,,,,,,,,,,,,,,,,,,
null,,black_cross(without_color)3,1230316,,,,,,,,green,,,null,object_14a.png,object_09c.png,,,,,,,,,,,,,,,,,,,,,
null,,rt_plussign_withcolor3,1230822,,,,,,,,green,,,null,object_14a.png,object_09c.png,,,,,,,,,,,,,,,,,,,,,
1440.5,,rt_thecrossant_black3,1231803,,,,,,,,black_plus_sign,,,50,,,,1,,,,,,0.9473684210526315,,,,,,,,,,,,,
null,,color_black3,1231914,,,,,,,,black_plus_sign,,,null,,,,,,,,,,,,,,,,,,,,,,,
null,,learn_phase(without_color)3,1235419,,,,,,,,black_plus_sign,,,null,object_04c.png,object_09b.png,,,,,,,,,,,,,,,,,,,,,
null,,black_cross(without_color)3,1236211,,,,,,,,blue,,,null,object_04c.png,object_09b.png,,,,,,,,,,,,,,,,,,,,,
null,,rt_plussign_withcolor3,1236721,,,,,,,,blue,,,null,object_04c.png,object_09b.png,,,,,,,,,,,,,,,,,,,,,
1150.6000000238419,,rt_thecrossant_black3,1237950,,,,,,,,black_plus_sign,,,49,,,,1,,,,,,0.95,,,,,,,,,,,,,
null,,color_black3,1238059,,,,,,,,black_plus_sign,,,null,,,,,,,,,,,,,,,,,,,,,,,
null,,learn_phase(without_color)3,1241566,,,,,,,,black_plus_sign,,,null,object_02a.png,object_01c.png,,,,,,,,,,,,,,,,,,,,,
null,,black_cross(without_color)3,1242340,,,,,,,,blue,,,null,object_02a.png,object_01c.png,,,,,,,,,,,,,,,,,,,,,
495.5,,rt_plussign_withcolor3,1242850,,,,,,,,blue,,,49,object_02a.png,object_01c.png,,,,,,,,,,,,,,,,,,,,,
null,,rt_thecrossant_black3,1244103,,,,,,,,black_plus_sign,,,null,,,,1,,,,,,0.9523809523809523,,,,,,,,,,,,,
null,,color_black3,1244219,,,,,,,,black_plus_sign,,,null,,,,,,,,,,,,,,,,,,,,,,,
null,,learn_phase(without_color)3,1247729,,,,,,,,black_plus_sign,,,null,object_13a.png,object_11a.png,,,,,,,,,,,,,,,,,,,,,
null,,black_cross(without_color)3,1248432,,,,,,,,green,,,null,object_13a.png,object_11a.png,,,,,,,,,,,,,,,,,,,,,
null,,rt_plussign_withcolor3,1248939,,,,,,,,green,,,null,object_13a.png,object_11a.png,,,,,,,,,,,,,,,,,,,,,
1830.5,,rt_thecrossant_black3,1250249,,,,,,,,black_plus_sign,,,50,,,,1,,,,,,0.9545454545454546,,,,,,,,,,,,,
null,,color_black3,1250357,,,,,,,,black_plus_sign,,,null,,,,,,,,,,,,,,,,,,,,,,,
null,,learn_phase(without_color)3,1253873,,,,,,,,black_plus_sign,,,null,object_10b.png,object_01a.png,,,,,,,,,,,,,,,,,,,,,
null,,black_cross(without_color)3,1254952,,,,,,,,blue,,,null,object_10b.png,object_01a.png,,,,,,,,,,,,,,,,,,,,,
null,,rt_plussign_withcolor3,1255461,,,,,,,,blue,,,null,object_10b.png,object_01a.png,,,,,,,,,,,,,,,,,,,,,
995.3000000119209,,rt_thecrossant_black3,1256409,,,,,,,,black_plus_sign,,,49,,,,1,,,,,,0.9565217391304348,,,,,,,,,,,,,
null,,color_black3,1256518,,,,,,,,black_plus_sign,,,null,,,,,,,,,,,,,,,,,,,,,,,
null,,learn_phase(without_color)3,1260026,,,,,,,,black_plus_sign,,,null,object_03a.png,object_14b.png,,,,,,,,,,,,,,,,,,,,,
null,,black_cross(without_color)3,1260621,,,,,,,,blue,,,null,object_03a.png,object_14b.png,,,,,,,,,,,,,,,,,,,,,
null,,rt_plussign_withcolor3,1261128,,,,,,,,blue,,,null,object_03a.png,object_14b.png,,,,,,,,,,,,,,,,,,,,,
1373,,rt_thecrossant_black3,1262556,,,,,,,,black_plus_sign,,,49,,,,1,,,,,,0.9583333333333334,,,,,,,,,,,,,
null,,color_black3,1262662,,,,,,,,black_plus_sign,,,null,,,,,,,,,,,,,,,,,,,,,,,
null,,learn_phase(without_color)3,1266169,,,,,,,,black_plus_sign,,,null,object_08b.png,object_02b.png,,,,,,,,,,,,,,,,,,,,,
null,,black_cross(without_color)3,1267263,,,,,,,,green,,,null,object_08b.png,object_02b.png,,,,,,,,,,,,,,,,,,,,,
null,,rt_plussign_withcolor3,1267768,,,,,,,,green,,,null,object_08b.png,object_02b.png,,,,,,,,,,,,,,,,,,,,,
806.4000000059605,,rt_thecrossant_black3,1268687,,,,,,,,black_plus_sign,,,50,,,,1,,,,,,0.96,,,,,,,,,,,,,
null,,color_black3,1268797,,,,,,,,black_plus_sign,,,null,,,,,,,,,,,,,,,,,,,,,,,
null,,learn_phase(without_color)3,1272316,,,,,,,,black_plus_sign,,,null,object_15a.png,object_13c.png,,,,,,,,,,,,,,,,,,,,,
null,,black_cross(without_color)3,1273407,,,,,,,,blue,,,null,object_15a.png,object_13c.png,,,,,,,,,,,,,,,,,,,,,
null,,rt_plussign_withcolor3,1273922,,,,,,,,blue,,,null,object_15a.png,object_13c.png,,,,,,,,,,,,,,,,,,,,,
1221.9000000059605,,rt_thecrossant_black3,1274853,,,,,,,,black_plus_sign,,,49,,,,1,,,,,,0.9615384615384616,,,,,,,,,,,,,
null,,color_black3,1274960,,,,,,,,black_plus_sign,,,null,,,,,,,,,,,,,,,,,,,,,,,
null,,learn_phase(without_color)3,1278466,,,,,,,,black_plus_sign,,,null,object_05c.png,object_03c.png,,,,,,,,,,,,,,,,,,,,,
null,,black_cross(without_color)3,1279190,,,,,,,,green,,,null,object_05c.png,object_03c.png,,,,,,,,,,,,,,,,,,,,,
null,,rt_plussign_withcolor3,1279700,,,,,,,,green,,,null,object_05c.png,object_03c.png,,,,,,,,,,,,,,,,,,,,,
1613.7999999821186,,rt_thecrossant_black3,1280996,,,,,,,,black_plus_sign,,,49,,,,0,,,,,,0.9259259259259259,,,,,,,,,,,,,
null,,color_black3,1281104,,,,,,,,black_plus_sign,,,null,,,,,,,,,,,,,,,,,,,,,,,
null,,learn_phase(without_color)3,1284610,,,,,,,,black_plus_sign,,,null,object_02c.png,object_07b.png,,,,,,,,,,,,,,,,,,,,,
null,,black_cross(without_color)3,1285649,,,,,,,,green,,,null,object_02c.png,object_07b.png,,,,,,,,,,,,,,,,,,,,,
null,,rt_plussign_withcolor3,1286158,,,,,,,,green,,,null,object_02c.png,object_07b.png,,,,,,,,,,,,,,,,,,,,,
1051,,rt_thecrossant_black3,1287135,,,,,,,,black_plus_sign,,,50,,,,1,,,,,,0.9285714285714286,,,,,,,,,,,,,
null,,color_black3,1287253,,,,,,,,black_plus_sign,,,null,,,,,,,,,,,,,,,,,,,,,,,
null,,learn_phase(without_color)3,1290760,,,,,,,,black_plus_sign,,,null,object_07a.png,object_06a.png,,,,,,,,,,,,,,,,,,,,,
null,,black_cross(without_color)3,1291381,,,,,,,,green,,,null,object_07a.png,object_06a.png,,,,,,,,,,,,,,,,,,,,,
null,,rt_plussign_withcolor3,1291890,,,,,,,,green,,,null,object_07a.png,object_06a.png,,,,,,,,,,,,,,,,,,,,,
1476.300000011921,,rt_thecrossant_black3,1293307,,,,,,,,black_plus_sign,,,50,,,,1,,,,,,0.9310344827586207,,,,,,,,,,,,,
null,,color_black3,1293414,,,,,,,,black_plus_sign,,,null,,,,,,,,,,,,,,,,,,,,,,,
null,,learn_phase(without_color)3,1296931,,,,,,,,black_plus_sign,,,null,object_11b.png,object_11c.png,,,,,,,,,,,,,,,,,,,,,
null,,black_cross(without_color)3,1297780,,,,,,,,blue,,,null,object_11b.png,object_11c.png,,,,,,,,,,,,,,,,,,,,,
null,,rt_plussign_withcolor3,1298299,,,,,,,,blue,,,null,object_11b.png,object_11c.png,,,,,,,,,,,,,,,,,,,,,
890.3000000119209,,rt_thecrossant_black3,1299473,,,,,,,,black_plus_sign,,,49,,,,1,,,,,,0.9333333333333333,,,,,,,,,,,,,
null,,color_black3,1299586,,,,,,,,black_plus_sign,,,null,,,,,,,,,,,,,,,,,,,,,,,
null,,thebreak,1299694,,,,,,,,<p></p>,,,null,,,,,,,,,,,,,,,,,,,,,,,
2508,,intro_0,1302203,,,,,,,,instruct,,,32,,,,,,,,,,,,,,,,,,,,,,,
4143.9000000059605,,directmemory_phase3,1306349,,,,,,,,object_14a.png,,,51,,,,1,object_01b.png,object_08b.png,object_03b.png,object_03b.png,,0.5081967213114754,,1,,,,,,,,,,,
2847,,directmemory_phase3,1309198,,,,,,,,object_03a.png,,,49,,,,1,object_12c.png,object_12b.png,object_08b.png,object_12c.png,,0.5161290322580645,,1,,,,,,,,,,,
2778.2999999821186,,directmemory_phase3,1311980,,,,,,,,object_13b.png,,,49,,,,1,object_08c.png,object_07a.png,object_07b.png,object_08c.png,,0.5238095238095238,,1,,,,,,,,,,,
7255,,directmemory_phase3,1319238,,,,,,,,object_09b.png,,,51,,,,0,object_07a.png,object_04c.png,object_09a.png,object_04c.png,,0.515625,,0,,,,,,,,,,,
3116.300000011921,,directmemory_phase3,1322357,,,,,,,,object_12a.png,,,50,,,,1,object_05c.png,object_11a.png,object_03a.png,object_11a.png,,0.5230769230769231,,1,,,,,,,,,,,
7575.200000017881,,directmemory_phase3,1329936,,,,,,,,object_10a.png,,,49,,,,0,object_12c.png,object_01b.png,object_12b.png,object_01b.png,,0.5151515151515151,,0,,,,,,,,,,,
1865.9000000059605,,directmemory_phase3,1331806,,,,,,,,object_06a.png,,,50,,,,1,object_10a.png,object_07a.png,object_11c.png,object_07a.png,,0.5223880597014925,,1,,,,,,,,,,,
7515.4000000059605,,directmemory_phase3,1339325,,,,,,,,object_04b.png,,,50,,,,1,object_04c.png,object_10a.png,object_08c.png,object_10a.png,,0.5294117647058824,,1,,,,,,,,,,,
5865.700000017881,,directmemory_phase3,1345193,,,,,,,,object_14c.png,,,50,,,,0,object_02b.png,object_01a.png,object_11c.png,object_11c.png,,0.5217391304347826,,0,,,,,,,,,,,
4572.5,,directmemory_phase3,1349769,,,,,,,,object_04a.png,,,49,,,,0,object_01a.png,object_02b.png,object_03a.png,object_02b.png,,0.5142857142857142,,0,,,,,,,,,,,
4966.4000000059605,,directmemory_phase3,1354740,,,,,,,,object_02b.png,,,51,,,,0,object_05b.png,object_08b.png,object_10b.png,object_08b.png,,0.5070422535211268,,0,,,,,,,,,,,
3228.2000000178814,,directmemory_phase3,1357972,,,,,,,,object_13c.png,,,50,,,,0,object_01c.png,object_11a.png,object_15a.png,object_15a.png,,0.5,,0,,,,,,,,,,,
2814,,directmemory_phase3,1360789,,,,,,,,object_09a.png,,,51,,,,0,object_06c.png,object_08a.png,object_12c.png,object_06c.png,,0.4931506849315068,,0,,,,,,,,,,,
6739.699999988079,,directmemory_phase3,1367532,,,,,,,,object_08c.png,,,51,,,,1,object_12c.png,object_08b.png,object_12b.png,object_12b.png,,0.5,,1,,,,,,,,,,,
2822.9000000059605,,directmemory_phase3,1370359,,,,,,,,object_09c.png,,,49,,,,1,object_14a.png,object_04c.png,object_02b.png,object_14a.png,,0.5066666666666667,,1,,,,,,,,,,,
8464.5,,directmemory_phase3,1378827,,,,,,,,object_15b.png,,,51,,,,0,object_01a.png,object_11c.png,object_07b.png,object_01a.png,,0.5,,0,,,,,,,,,,,
4893.5999999940395,,directmemory_phase3,1383724,,,,,,,,object_15a.png,,,49,,,,0,object_02a.png,object_11b.png,object_15c.png,object_15c.png,,0.4935064935064935,,0,,,,,,,,,,,
3097.5,,directmemory_phase3,1386824,,,,,,,,object_05c.png,,,49,,,,1,object_05b.png,object_12b.png,object_08a.png,object_05b.png,,0.5,,1,,,,,,,,,,,
4540.699999988079,,directmemory_phase3,1391368,,,,,,,,object_03c.png,,,51,,,,0,object_05c.png,object_03a.png,object_04c.png,object_05c.png,,0.4936708860759494,,0,,,,,,,,,,,
3857.399999976158,,directmemory_phase3,1395228,,,,,,,,object_04c.png,,,49,,,,1,object_08a.png,object_10c.png,object_02a.png,object_08a.png,,0.5,,1,,,,,,,,,,,
3473.9000000059605,,directmemory_phase3,1398706,,,,,,,,object_07a.png,,,49,,,,1,object_10c.png,object_11b.png,object_03b.png,object_10c.png,,0.5061728395061729,,1,,,,,,,,,,,
3633.199999988079,,directmemory_phase3,1402341,,,,,,,,object_11c.png,,,50,,,,1,object_10c.png,object_11b.png,object_03b.png,object_11b.png,,0.5121951219512195,,1,,,,,,,,,,,
5072.0999999940395,,directmemory_phase3,1407416,,,,,,,,object_01c.png,,,49,,,,0,object_11b.png,object_02a.png,object_08b.png,object_02a.png,,0.5060240963855421,,0,,,,,,,,,,,
5121.5,,directmemory_phase3,1412540,,,,,,,,object_06b.png,,,51,,,,1,object_03a.png,object_04c.png,object_09a.png,object_09a.png,,0.5119047619047619,,1,,,,,,,,,,,
2787.7999999821186,,directmemory_phase3,1415332,,,,,,,,object_07b.png,,,51,,,,1,object_05b.png,object_06c.png,object_02c.png,object_02c.png,,0.5176470588235295,,1,,,,,,,,,,,
2396.7000000178814,,directmemory_phase3,1417731,,,,,,,,object_14b.png,,,50,,,,1,object_05c.png,object_03a.png,object_11c.png,object_03a.png,,0.5232558139534884,,1,,,,,,,,,,,
2697.600000023842,,directmemory_phase3,1420432,,,,,,,,object_01a.png,,,50,,,,1,object_03b.png,object_10b.png,object_13a.png,object_10b.png,,0.5287356321839081,,1,,,,,,,,,,,
4553.200000017881,,directmemory_phase3,1424987,,,,,,,,object_11a.png,,,51,,,,1,object_12c.png,object_08a.png,object_13a.png,object_13a.png,,0.5340909090909091,,1,,,,,,,,,,,
4754.200000017881,,directmemory_phase3,1429743,,,,,,,,object_07c.png,,,51,,,,0,object_07b.png,object_07a.png,object_02b.png,object_07b.png,,0.5280898876404494,,0,,,,,,,,,,,
5439.4000000059605,,directmemory_phase3,1435186,,,,,,,,object_05a.png,,,51,,,,1,object_05c.png,object_10a.png,object_01c.png,object_01c.png,,0.5333333333333333,,1,,,,,,,,,,,
null,,thebreak,1435292,,,,,,,,<p></p>,,,null,,,,,,,,,,,,,,,,,,,,,,,
2360.0999999940395,,intro_0,1437655,,,,,,,,instruct,,,32,,,,,,,,,,,,,,,,,,,,,,,
null,,learn_phase(without_color)4,1441164,,,,,,,,black_plus_sign,,,null,object_06c.png,object_09a.png,,,,,,,,,,,,,,,,,,,,,
null,,black_cross(without_color)4,1442234,,,,,,,,green,,,null,object_06c.png,object_09a.png,,,,,,,,,,,,,,,,,,,,,
null,,rt_plussign_withcolor4,1442748,,,,,,,,green,,,null,object_06c.png,object_09a.png,,,,,,,,,,,,,,,,,,,,,
1193.4000000059605,,rt_thecrossant_black4,1443698,,,,,,,,black_plus_sign,,,50,,,,1,,,,,,1,,,,,,,,,,,,,
null,,color_black4,1443807,,,,,,,,black_plus_sign,,,null,,,,,,,,,,,,,,,,,,,,,,,
null,,learn_phase(without_color)4,1447319,,,,,,,,black_plus_sign,,,null,object_04c.png,object_09b.png,,,,,,,,,,,,,,,,,,,,,
null,,black_cross(without_color)4,1448129,,,,,,,,blue,,,null,object_04c.png,object_09b.png,,,,,,,,,,,,,,,,,,,,,
null,,rt_plussign_withcolor4,1448632,,,,,,,,blue,,,null,object_04c.png,object_09b.png,,,,,,,,,,,,,,,,,,,,,
1313.4000000059605,,rt_thecrossant_black4,1449835,,,,,,,,black_plus_sign,,,49,,,,1,,,,,,1,,,,,,,,,,,,,
null,,color_black4,1449951,,,,,,,,black_plus_sign,,,null,,,,,,,,,,,,,,,,,,,,,,,
null,,learn_phase(without_color)4,1453462,,,,,,,,black_plus_sign,,,null,object_10c.png,object_07a.png,,,,,,,,,,,,,,,,,,,,,
null,,black_cross(without_color)4,1454354,,,,,,,,blue,,,null,object_10c.png,object_07a.png,,,,,,,,,,,,,,,,,,,,,
null,,rt_plussign_withcolor4,1454870,,,,,,,,blue,,,null,object_10c.png,object_07a.png,,,,,,,,,,,,,,,,,,,,,
1043.800000011921,,rt_thecrossant_black4,1455996,,,,,,,,black_plus_sign,,,49,,,,1,,,,,,1,,,,,,,,,,,,,
null,,color_black4,1456104,,,,,,,,black_plus_sign,,,null,,,,,,,,,,,,,,,,,,,,,,,
null,,learn_phase(without_color)4,1459614,,,,,,,,black_plus_sign,,,null,object_08c.png,object_13b.png,,,,,,,,,,,,,,,,,,,,,
null,,black_cross(without_color)4,1460186,,,,,,,,green,,,null,object_08c.png,object_13b.png,,,,,,,,,,,,,,,,,,,,,
null,,rt_plussign_withcolor4,1460702,,,,,,,,green,,,null,object_08c.png,object_13b.png,,,,,,,,,,,,,,,,,,,,,
1234.300000011921,,rt_thecrossant_black4,1462157,,,,,,,,black_plus_sign,,,50,,,,1,,,,,,1,,,,,,,,,,,,,
null,,color_black4,1462263,,,,,,,,black_plus_sign,,,null,,,,,,,,,,,,,,,,,,,,,,,
null,,learn_phase(without_color)4,1465769,,,,,,,,black_plus_sign,,,null,object_03b.png,object_14a.png,,,,,,,,,,,,,,,,,,,,,
null,,black_cross(without_color)4,1466469,,,,,,,,blue,,,null,object_03b.png,object_14a.png,,,,,,,,,,,,,,,,,,,,,
null,,rt_plussign_withcolor4,1466976,,,,,,,,blue,,,null,object_03b.png,object_14a.png,,,,,,,,,,,,,,,,,,,,,
837.9000000059605,,rt_thecrossant_black4,1468303,,,,,,,,black_plus_sign,,,49,,,,1,,,,,,1,,,,,,,,,,,,,
null,,color_black4,1468419,,,,,,,,black_plus_sign,,,null,,,,,,,,,,,,,,,,,,,,,,,
null,,learn_phase(without_color)4,1471924,,,,,,,,black_plus_sign,,,null,object_01b.png,object_10a.png,,,,,,,,,,,,,,,,,,,,,
null,,black_cross(without_color)4,1472341,,,,,,,,green,,,null,object_01b.png,object_10a.png,,,,,,,,,,,,,,,,,,,,,
null,,rt_plussign_withcolor4,1472845,,,,,,,,green,,,null,object_01b.png,object_10a.png,,,,,,,,,,,,,,,,,,,,,
1048.199999988079,,rt_thecrossant_black4,1474449,,,,,,,,black_plus_sign,,,50,,,,1,,,,,,1,,,,,,,,,,,,,
null,,color_black4,1474562,,,,,,,,black_plus_sign,,,null,,,,,,,,,,,,,,,,,,,,,,,
null,,learn_phase(without_color)4,1478072,,,,,,,,black_plus_sign,,,null,object_07a.png,object_06a.png,,,,,,,,,,,,,,,,,,,,,
null,,black_cross(without_color)4,1478807,,,,,,,,blue,,,null,object_07a.png,object_06a.png,,,,,,,,,,,,,,,,,,,,,
null,,rt_plussign_withcolor4,1479319,,,,,,,,blue,,,null,object_07a.png,object_06a.png,,,,,,,,,,,,,,,,,,,,,
592.3000000119209,,rt_thecrossant_black4,1480599,,,,,,,,black_plus_sign,,,49,,,,1,,,,,,1,,,,,,,,,,,,,
null,,color_black4,1480707,,,,,,,,black_plus_sign,,,null,,,,,,,,,,,,,,,,,,,,,,,
null,,learn_phase(without_color)4,1484219,,,,,,,,black_plus_sign,,,null,object_08a.png,object_04c.png,,,,,,,,,,,,,,,,,,,,,
null,,black_cross(without_color)4,1485062,,,,,,,,green,,,null,object_08a.png,object_04c.png,,,,,,,,,,,,,,,,,,,,,
null,,rt_plussign_withcolor4,1485574,,,,,,,,green,,,null,object_08a.png,object_04c.png,,,,,,,,,,,,,,,,,,,,,
1220.800000011921,,rt_thecrossant_black4,1486749,,,,,,,,black_plus_sign,,,50,,,,1,,,,,,1,,,,,,,,,,,,,
null,,color_black4,1486857,,,,,,,,black_plus_sign,,,null,,,,,,,,,,,,,,,,,,,,,,,
null,,learn_phase(without_color)4,1490368,,,,,,,,black_plus_sign,,,null,object_02b.png,object_04a.png,,,,,,,,,,,,,,,,,,,,,
null,,black_cross(without_color)4,1491092,,,,,,,,green,,,null,object_02b.png,object_04a.png,,,,,,,,,,,,,,,,,,,,,
null,,rt_plussign_withcolor4,1491595,,,,,,,,green,,,null,object_02b.png,object_04a.png,,,,,,,,,,,,,,,,,,,,,
1108.4000000059605,,rt_thecrossant_black4,1492895,,,,,,,,black_plus_sign,,,50,,,,1,,,,,,1,,,,,,,,,,,,,
null,,color_black4,1493013,,,,,,,,black_plus_sign,,,null,,,,,,,,,,,,,,,,,,,,,,,
null,,learn_phase(without_color)4,1496519,,,,,,,,black_plus_sign,,,null,object_15c.png,object_15a.png,,,,,,,,,,,,,,,,,,,,,
null,,black_cross(without_color)4,1497343,,,,,,,,green,,,null,object_15c.png,object_15a.png,,,,,,,,,,,,,,,,,,,,,
null,,rt_plussign_withcolor4,1497852,,,,,,,,green,,,null,object_15c.png,object_15a.png,,,,,,,,,,,,,,,,,,,,,
1249.199999988079,,rt_thecrossant_black4,1499043,,,,,,,,black_plus_sign,,,50,,,,1,,,,,,1,,,,,,,,,,,,,
null,,color_black4,1499146,,,,,,,,black_plus_sign,,,null,,,,,,,,,,,,,,,,,,,,,,,
null,,learn_phase(without_color)4,1502658,,,,,,,,black_plus_sign,,,null,object_07b.png,object_07c.png,,,,,,,,,,,,,,,,,,,,,
null,,black_cross(without_color)4,1503201,,,,,,,,blue,,,null,object_07b.png,object_07c.png,,,,,,,,,,,,,,,,,,,,,
null,,rt_plussign_withcolor4,1503713,,,,,,,,blue,,,null,object_07b.png,object_07c.png,,,,,,,,,,,,,,,,,,,,,
1052.7000000178814,,rt_thecrossant_black4,1505187,,,,,,,,black_plus_sign,,,49,,,,1,,,,,,1,,,,,,,,,,,,,
null,,color_black4,1505295,,,,,,,,black_plus_sign,,,null,,,,,,,,,,,,,,,,,,,,,,,
null,,learn_phase(without_color)4,1508807,,,,,,,,black_plus_sign,,,null,object_08b.png,object_02b.png,,,,,,,,,,,,,,,,,,,,,
null,,black_cross(without_color)4,1509273,,,,,,,,blue,,,null,object_08b.png,object_02b.png,,,,,,,,,,,,,,,,,,,,,
null,,rt_plussign_withcolor4,1509782,,,,,,,,blue,,,null,object_08b.png,object_02b.png,,,,,,,,,,,,,,,,,,,,,
1047.4000000059605,,rt_thecrossant_black4,1511342,,,,,,,,black_plus_sign,,,49,,,,1,,,,,,1,,,,,,,,,,,,,
null,,color_black4,1511447,,,,,,,,black_plus_sign,,,null,,,,,,,,,,,,,,,,,,,,,,,
null,,learn_phase(without_color)4,1514958,,,,,,,,black_plus_sign,,,null,object_11c.png,object_14c.png,,,,,,,,,,,,,,,,,,,,,
null,,black_cross(without_color)4,1515945,,,,,,,,blue,,,null,object_11c.png,object_14c.png,,,,,,,,,,,,,,,,,,,,,
null,,rt_plussign_withcolor4,1516454,,,,,,,,blue,,,null,object_11c.png,object_14c.png,,,,,,,,,,,,,,,,,,,,,
666.3999999761581,,rt_thecrossant_black4,1517482,,,,,,,,black_plus_sign,,,49,,,,1,,,,,,1,,,,,,,,,,,,,
null,,color_black4,1517589,,,,,,,,black_plus_sign,,,null,,,,,,,,,,,,,,,,,,,,,,,
null,,learn_phase(without_color)4,1521105,,,,,,,,black_plus_sign,,,null,object_11b.png,object_11c.png,,,,,,,,,,,,,,,,,,,,,
null,,black_cross(without_color)4,1522048,,,,,,,,blue,,,null,object_11b.png,object_11c.png,,,,,,,,,,,,,,,,,,,,,
null,,rt_plussign_withcolor4,1522565,,,,,,,,blue,,,null,object_11b.png,object_11c.png,,,,,,,,,,,,,,,,,,,,,
1947.5,,rt_thecrossant_black4,1523645,,,,,,,,black_plus_sign,,,49,,,,1,,,,,,1,,,,,,,,,,,,,
null,,color_black4,1523754,,,,,,,,black_plus_sign,,,null,,,,,,,,,,,,,,,,,,,,,,,
null,,learn_phase(without_color)4,1527265,,,,,,,,black_plus_sign,,,null,object_05b.png,object_05c.png,,,,,,,,,,,,,,,,,,,,,
null,,black_cross(without_color)4,1527776,,,,,,,,blue,,,null,object_05b.png,object_05c.png,,,,,,,,,,,,,,,,,,,,,
null,,rt_plussign_withcolor4,1528283,,,,,,,,blue,,,null,object_05b.png,object_05c.png,,,,,,,,,,,,,,,,,,,,,
1179.4000000059605,,rt_thecrossant_black4,1529792,,,,,,,,black_plus_sign,,,49,,,,1,,,,,,1,,,,,,,,,,,,,
null,,color_black4,1529901,,,,,,,,black_plus_sign,,,null,,,,,,,,,,,,,,,,,,,,,,,
null,,learn_phase(without_color)4,1533407,,,,,,,,black_plus_sign,,,null,object_15a.png,object_13c.png,,,,,,,,,,,,,,,,,,,,,
null,,black_cross(without_color)4,1534010,,,,,,,,blue,,,null,object_15a.png,object_13c.png,,,,,,,,,,,,,,,,,,,,,
null,,rt_plussign_withcolor4,1534524,,,,,,,,blue,,,null,object_15a.png,object_13c.png,,,,,,,,,,,,,,,,,,,,,
752.4000000059605,,rt_thecrossant_black4,1535939,,,,,,,,black_plus_sign,,,49,,,,1,,,,,,1,,,,,,,,,,,,,
null,,color_black4,1536047,,,,,,,,black_plus_sign,,,null,,,,,,,,,,,,,,,,,,,,,,,
null,,learn_phase(without_color)4,1539564,,,,,,,,black_plus_sign,,,null,object_02a.png,object_01c.png,,,,,,,,,,,,,,,,,,,,,
null,,black_cross(without_color)4,1540196,,,,,,,,blue,,,null,object_02a.png,object_01c.png,,,,,,,,,,,,,,,,,,,,,
null,,rt_plussign_withcolor4,1540710,,,,,,,,blue,,,null,object_02a.png,object_01c.png,,,,,,,,,,,,,,,,,,,,,
835.4000000059605,,rt_thecrossant_black4,1542100,,,,,,,,black_plus_sign,,,49,,,,1,,,,,,1,,,,,,,,,,,,,
null,,color_black4,1542216,,,,,,,,black_plus_sign,,,null,,,,,,,,,,,,,,,,,,,,,,,
null,,learn_phase(without_color)4,1545725,,,,,,,,black_plus_sign,,,null,object_05c.png,object_03c.png,,,,,,,,,,,,,,,,,,,,,
null,,black_cross(without_color)4,1546674,,,,,,,,green,,,null,object_05c.png,object_03c.png,,,,,,,,,,,,,,,,,,,,,
null,,rt_plussign_withcolor4,1547184,,,,,,,,green,,,null,object_05c.png,object_03c.png,,,,,,,,,,,,,,,,,,,,,
867,,rt_thecrossant_black4,1548249,,,,,,,,black_plus_sign,,,50,,,,1,,,,,,1,,,,,,,,,,,,,
null,,color_black4,1548357,,,,,,,,black_plus_sign,,,null,,,,,,,,,,,,,,,,,,,,,,,
null,,learn_phase(without_color)4,1551864,,,,,,,,black_plus_sign,,,null,object_13a.png,object_11a.png,,,,,,,,,,,,,,,,,,,,,
null,,black_cross(without_color)4,1552627,,,,,,,,green,,,null,object_13a.png,object_11a.png,,,,,,,,,,,,,,,,,,,,,
null,,rt_plussign_withcolor4,1553133,,,,,,,,green,,,null,object_13a.png,object_11a.png,,,,,,,,,,,,,,,,,,,,,
1939,,rt_thecrossant_black4,1554389,,,,,,,,black_plus_sign,,,50,,,,1,,,,,,1,,,,,,,,,,,,,
null,,color_black4,1554496,,,,,,,,black_plus_sign,,,null,,,,,,,,,,,,,,,,,,,,,,,
null,,learn_phase(without_color)4,1558003,,,,,,,,black_plus_sign,,,null,object_12c.png,object_03a.png,,,,,,,,,,,,,,,,,,,,,
null,,black_cross(without_color)4,1558502,,,,,,,,green,,,null,object_12c.png,object_03a.png,,,,,,,,,,,,,,,,,,,,,
null,,rt_plussign_withcolor4,1559007,,,,,,,,green,,,null,object_12c.png,object_03a.png,,,,,,,,,,,,,,,,,,,,,
1240.199999988079,,rt_thecrossant_black4,1560519,,,,,,,,black_plus_sign,,,50,,,,1,,,,,,1,,,,,,,,,,,,,
null,,color_black4,1560626,,,,,,,,black_plus_sign,,,null,,,,,,,,,,,,,,,,,,,,,,,
null,,learn_phase(without_color)4,1564133,,,,,,,,black_plus_sign,,,null,object_11a.png,object_12a.png,,,,,,,,,,,,,,,,,,,,,
null,,black_cross(without_color)4,1564927,,,,,,,,blue,,,null,object_11a.png,object_12a.png,,,,,,,,,,,,,,,,,,,,,
null,,rt_plussign_withcolor4,1565432,,,,,,,,blue,,,null,object_11a.png,object_12a.png,,,,,,,,,,,,,,,,,,,,,
704.0999999940395,,rt_thecrossant_black4,1566661,,,,,,,,black_plus_sign,,,49,,,,1,,,,,,1,,,,,,,,,,,,,
null,,color_black4,1566766,,,,,,,,black_plus_sign,,,null,,,,,,,,,,,,,,,,,,,,,,,
null,,learn_phase(without_color)4,1570279,,,,,,,,black_plus_sign,,,null,object_01c.png,object_05a.png,,,,,,,,,,,,,,,,,,,,,
null,,black_cross(without_color)4,1571153,,,,,,,,green,,,null,object_01c.png,object_05a.png,,,,,,,,,,,,,,,,,,,,,
null,,rt_plussign_withcolor4,1571665,,,,,,,,green,,,null,object_01c.png,object_05a.png,,,,,,,,,,,,,,,,,,,,,
1167.5999999940395,,rt_thecrossant_black4,1572803,,,,,,,,black_plus_sign,,,50,,,,1,,,,,,1,,,,,,,,,,,,,
null,,color_black4,1572911,,,,,,,,black_plus_sign,,,null,,,,,,,,,,,,,,,,,,,,,,,
null,,learn_phase(without_color)4,1576421,,,,,,,,black_plus_sign,,,null,object_09a.png,object_06b.png,,,,,,,,,,,,,,,,,,,,,
null,,black_cross(without_color)4,1577317,,,,,,,,green,,,null,object_09a.png,object_06b.png,,,,,,,,,,,,,,,,,,,,,
null,,rt_plussign_withcolor4,1577821,,,,,,,,green,,,null,object_09a.png,object_06b.png,,,,,,,,,,,,,,,,,,,,,
1120.2999999821186,,rt_thecrossant_black4,1578953,,,,,,,,black_plus_sign,,,50,,,,1,,,,,,1,,,,,,,,,,,,,
null,,color_black4,1579062,,,,,,,,black_plus_sign,,,null,,,,,,,,,,,,,,,,,,,,,,,
null,,learn_phase(without_color)4,1582583,,,,,,,,black_plus_sign,,,null,object_14a.png,object_09c.png,,,,,,,,,,,,,,,,,,,,,
null,,black_cross(without_color)4,1583603,,,,,,,,blue,,,null,object_14a.png,object_09c.png,,,,,,,,,,,,,,,,,,,,,
null,,rt_plussign_withcolor4,1584110,,,,,,,,blue,,,null,object_14a.png,object_09c.png,,,,,,,,,,,,,,,,,,,,,
1375.199999988079,,rt_thecrossant_black4,1585104,,,,,,,,black_plus_sign,,,49,,,,1,,,,,,1,,,,,,,,,,,,,
null,,color_black4,1585211,,,,,,,,black_plus_sign,,,null,,,,,,,,,,,,,,,,,,,,,,,
null,,learn_phase(without_color)4,1588732,,,,,,,,black_plus_sign,,,null,object_12b.png,object_08c.png,,,,,,,,,,,,,,,,,,,,,
null,,black_cross(without_color)4,1589370,,,,,,,,blue,,,null,object_12b.png,object_08c.png,,,,,,,,,,,,,,,,,,,,,
null,,rt_plussign_withcolor4,1589884,,,,,,,,blue,,,null,object_12b.png,object_08c.png,,,,,,,,,,,,,,,,,,,,,
1649.7999999821186,,rt_thecrossant_black4,1591267,,,,,,,,black_plus_sign,,,49,,,,1,,,,,,1,,,,,,,,,,,,,
null,,color_black4,1591377,,,,,,,,black_plus_sign,,,null,,,,,,,,,,,,,,,,,,,,,,,
null,,learn_phase(without_color)4,1594885,,,,,,,,black_plus_sign,,,null,object_03a.png,object_14b.png,,,,,,,,,,,,,,,,,,,,,
null,,black_cross(without_color)4,1595850,,,,,,,,green,,,null,object_03a.png,object_14b.png,,,,,,,,,,,,,,,,,,,,,
null,,rt_plussign_withcolor4,1596357,,,,,,,,green,,,null,object_03a.png,object_14b.png,,,,,,,,,,,,,,,,,,,,,
765.6999999880791,,rt_thecrossant_black4,1597410,,,,,,,,black_plus_sign,,,50,,,,1,,,,,,1,,,,,,,,,,,,,
null,,color_black4,1597518,,,,,,,,black_plus_sign,,,null,,,,,,,,,,,,,,,,,,,,,,,
null,,learn_phase(without_color)4,1601022,,,,,,,,black_plus_sign,,,null,object_01a.png,object_15b.png,,,,,,,,,,,,,,,,,,,,,
null,,black_cross(without_color)4,1601961,,,,,,,,green,,,null,object_01a.png,object_15b.png,,,,,,,,,,,,,,,,,,,,,
null,,rt_plussign_withcolor4,1602469,,,,,,,,green,,,null,object_01a.png,object_15b.png,,,,,,,,,,,,,,,,,,,,,
1365.4000000059605,,rt_thecrossant_black4,1603551,,,,,,,,black_plus_sign,,,50,,,,1,,,,,,1,,,,,,,,,,,,,
null,,color_black4,1603660,,,,,,,,black_plus_sign,,,null,,,,,,,,,,,,,,,,,,,,,,,
null,,learn_phase(without_color)4,1607176,,,,,,,,black_plus_sign,,,null,object_10a.png,object_04b.png,,,,,,,,,,,,,,,,,,,,,
null,,black_cross(without_color)4,1608197,,,,,,,,green,,,null,object_10a.png,object_04b.png,,,,,,,,,,,,,,,,,,,,,
null,,rt_plussign_withcolor4,1608710,,,,,,,,green,,,null,object_10a.png,object_04b.png,,,,,,,,,,,,,,,,,,,,,
1173.7999999821186,,rt_thecrossant_black4,1609711,,,,,,,,black_plus_sign,,,50,,,,1,,,,,,1,,,,,,,,,,,,,
null,,color_black4,1609820,,,,,,,,black_plus_sign,,,null,,,,,,,,,,,,,,,,,,,,,,,
null,,learn_phase(without_color)4,1613331,,,,,,,,black_plus_sign,,,null,object_10b.png,object_01a.png,,,,,,,,,,,,,,,,,,,,,
null,,black_cross(without_color)4,1614186,,,,,,,,green,,,null,object_10b.png,object_01a.png,,,,,,,,,,,,,,,,,,,,,
null,,rt_plussign_withcolor4,1614694,,,,,,,,green,,,null,object_10b.png,object_01a.png,,,,,,,,,,,,,,,,,,,,,
1238.5,,rt_thecrossant_black4,1615856,,,,,,,,black_plus_sign,,,50,,,,1,,,,,,1,,,,,,,,,,,,,
null,,color_black4,1615964,,,,,,,,black_plus_sign,,,null,,,,,,,,,,,,,,,,,,,,,,,
null,,learn_phase(without_color)4,1619468,,,,,,,,black_plus_sign,,,null,object_02c.png,object_07b.png,,,,,,,,,,,,,,,,,,,,,
null,,black_cross(without_color)4,1620183,,,,,,,,green,,,null,object_02c.png,object_07b.png,,,,,,,,,,,,,,,,,,,,,
null,,rt_plussign_withcolor4,1620687,,,,,,,,green,,,null,object_02c.png,object_07b.png,,,,,,,,,,,,,,,,,,,,,
1093.2999999821186,,rt_thecrossant_black4,1621993,,,,,,,,black_plus_sign,,,50,,,,1,,,,,,1,,,,,,,,,,,,,
null,,color_black4,1622101,,,,,,,,black_plus_sign,,,null,,,,,,,,,,,,,,,,,,,,,,,
null,,thebreak,1622209,,,,,,,,<p></p>,,,null,,,,,,,,,,,,,,,,,,,,,,,
3335.5,,intro_0,1625546,,,,,,,,instruct,,,32,,,,,,,,,,,,,,,,,,,,,,,
6514.5999999940395,,directmemory_phase4,1632063,,,,,,,,object_08c.png,,,51,,,,0,object_12b.png,object_02c.png,object_05b.png,object_12b.png,,0.5274725274725275,,0,,,,,,,,,,,
4906.0999999940395,,directmemory_phase4,1636972,,,,,,,,object_09c.png,,,50,,,,1,object_07b.png,object_14a.png,object_11a.png,object_14a.png,,0.532608695652174,,1,,,,,,,,,,,
5377.5,,directmemory_phase4,1642353,,,,,,,,object_10a.png,,,49,,,,1,object_01b.png,object_12c.png,object_12b.png,object_01b.png,,0.5376344086021505,,1,,,,,,,,,,,
5772.600000023842,,directmemory_phase4,1648128,,,,,,,,object_14a.png,,,51,,,,1,object_08b.png,object_02c.png,object_03b.png,object_03b.png,,0.5425531914893617,,1,,,,,,,,,,,
5297.199999988079,,directmemory_phase4,1653429,,,,,,,,object_05a.png,,,49,,,,0,object_11a.png,object_02b.png,object_01c.png,object_01c.png,,0.5368421052631579,,0,,,,,,,,,,,
3201.5,,directmemory_phase4,1656634,,,,,,,,object_12a.png,,,49,,,,1,object_11a.png,object_08c.png,object_09a.png,object_11a.png,,0.5416666666666666,,1,,,,,,,,,,,
5295.799999982119,,directmemory_phase4,1661933,,,,,,,,object_04a.png,,,51,,,,1,object_08c.png,object_07b.png,object_02b.png,object_02b.png,,0.5463917525773195,,1,,,,,,,,,,,
5797.800000011921,,directmemory_phase4,1667734,,,,,,,,object_13b.png,,,51,,,,1,object_07b.png,object_05c.png,object_08c.png,object_08c.png,,0.5510204081632653,,1,,,,,,,,,,,
4936.199999988079,,directmemory_phase4,1672673,,,,,,,,object_01c.png,,,51,,,,0,object_12c.png,object_02a.png,object_08a.png,object_02a.png,,0.5454545454545454,,0,,,,,,,,,,,
8603.5,,directmemory_phase4,1681280,,,,,,,,object_11a.png,,,51,,,,0,object_02c.png,object_13a.png,object_06c.png,object_13a.png,,0.54,,0,,,,,,,,,,,
2309.0999999940395,,directmemory_phase4,1683593,,,,,,,,object_11c.png,,,49,,,,1,object_11b.png,object_02a.png,object_08a.png,object_11b.png,,0.5445544554455446,,1,,,,,,,,,,,
5298,,directmemory_phase4,1688894,,,,,,,,object_07b.png,,,51,,,,1,object_12b.png,object_03b.png,object_02c.png,object_02c.png,,0.5490196078431373,,1,,,,,,,,,,,
2329.4000000059605,,directmemory_phase4,1691226,,,,,,,,object_04c.png,,,49,,,,1,object_08a.png,object_03b.png,object_05b.png,object_08a.png,,0.5533980582524272,,1,,,,,,,,,,,
3549.2000000178814,,directmemory_phase4,1694779,,,,,,,,object_03a.png,,,49,,,,1,object_12c.png,object_08b.png,object_08a.png,object_12c.png,,0.5576923076923077,,1,,,,,,,,,,,
3960.899999976158,,directmemory_phase4,1698743,,,,,,,,object_14b.png,,,49,,,,1,object_03a.png,object_11a.png,object_08c.png,object_03a.png,,0.5619047619047619,,1,,,,,,,,,,,
3877.5999999940395,,directmemory_phase4,1702624,,,,,,,,object_02b.png,,,51,,,,1,object_11b.png,object_12b.png,object_08b.png,object_08b.png,,0.5660377358490566,,1,,,,,,,,,,,
1991.6000000238419,,directmemory_phase4,1704620,,,,,,,,object_06b.png,,,51,,,,1,object_07a.png,object_03a.png,object_09a.png,object_09a.png,,0.5700934579439252,,1,,,,,,,,,,,
1951.9000000059605,,directmemory_phase4,1706575,,,,,,,,object_03c.png,,,49,,,,0,object_09a.png,object_07a.png,object_05c.png,object_05c.png,,0.5648148148148148,,0,,,,,,,,,,,
6194.9000000059605,,directmemory_phase4,1712773,,,,,,,,object_14c.png,,,49,,,,0,object_02b.png,object_14a.png,object_11c.png,object_11c.png,,0.5596330275229358,,0,,,,,,,,,,,
2328.7999999821186,,directmemory_phase4,1715105,,,,,,,,object_01a.png,,,49,,,,1,object_10b.png,object_11b.png,object_13a.png,object_10b.png,,0.5636363636363636,,1,,,,,,,,,,,
