rt,responses,trial_type,time_elapsed,identifier_a,identifier_b,identifier_c,tasktype,browser_type,local_time,UTC_time,stimulus,button_pressed,response,key_press,stimulus_left,stimulus_right,accuracy,practice_cumulative_accuracy,stimulus_down_left,stimulus_down_mid,stimulus_down_right,stimulus_correct,prac_weighted_accuracy,cumulative_accuracy,weighted_accuracy,stimulus_middle,problems,smooth,distraction,strategies,easier,similar,comments
11975,{worker_id:614f6bad672ef7cf5ecfd965},id_enter,11977,object_02c.png; object_01a.png; object_13c.png; object_14c.png; object_03b.png; object_15a.png; object_12c.png; object_13a.png; object_05a.png; object_04c.png; object_06b.png; object_09b.png; object_07a.png; object_08b.png; object_11b.png,object_02b.png; object_14b.png; object_02a.png; object_11c.png; object_01c.png; object_15b.png; object_13b.png; object_14a.png; object_05c.png; object_04a.png; object_06c.png; object_10b.png; object_10c.png; object_09c.png; object_10a.png,object_15c.png; object_12a.png; object_01b.png; object_03a.png; object_04b.png; object_12b.png; object_05b.png; object_03c.png; object_06a.png; object_07c.png; object_11a.png; object_09a.png; object_08a.png; object_07b.png; object_08c.png,blocked,Mozilla/5.0 (Windows NT 10.0; Win64; x64; rv:137.0) Gecko/20100101 Firefox/137.0,5/2/2025, 3:18:00 PM,2025-05-02 19:18:00.016,,,,,,,,,,,,,,,,,,,,,,,
8195,,make_fullscreen,20187,,,,,,,,fullscreen,0,,,,,,,,,,,,,,,,,,,,,
4302,,instruct_1,24491,,,,,,,,instruct,0,Next,,,,,,,,,,,,,,,,,,,,
36522,,instruct_2,61016,,,,,,,,instruct,1,Next,,,,,,,,,,,,,,,,,,,,
10913,,instruct_3,71929,,,,,,,,instruct,1,Next,,,,,,,,,,,,,,,,,,,,
23105,,instruct_4,95036,,,,,,,,instruct,1,Next,,,,,,,,,,,,,,,,,,,,
24617,,instruct_5,119653,,,,,,,,instruct,1,Next,,,,,,,,,,,,,,,,,,,,
4187,,instruct_6,123841,,,,,,,,instruct,1,Next,,,,,,,,,,,,,,,,,,,,
21969,,instruct_7,145812,,,,,,,,instruct,1,Next,,,,,,,,,,,,,,,,,,,,
null,,prac_atten_color_black,146434,,,,,,,,black_plus_sign,,,null,,,,,,,,,,,,,,,,,,,
719,,prac_atten_color,147230,,,,,,,,<p style='position:absolute;top: 50%;right: 50%;transform: translate(50%, -50%);font-size: 125px;color: blue;'>+</p>,,,49,,,,,,,,,,,,,,,,,,,
null,,prac_atten_color_black,149294,,,,,,,,black_plus_sign,,,null,,,,,,,,,,,,,,,,,,,
null,,prac_atten_color_black,149924,,,,,,,,black_plus_sign,,,null,,,,,,,,,,,,,,,,,,,
675,,prac_atten_color,150670,,,,,,,,<p style='position:absolute;top: 50%;right: 50%;transform: translate(50%, -50%);font-size: 125px;color: green;'>+</p>,,,50,,,,,,,,,,,,,,,,,,,
null,,prac_atten_color_black,152675,,,,,,,,black_plus_sign,,,null,,,,,,,,,,,,,,,,,,,
null,,prac_atten_color_black,153352,,,,,,,,black_plus_sign,,,null,,,,,,,,,,,,,,,,,,,
568,,prac_atten_color,154302,,,,,,,,<p style='position:absolute;top: 50%;right: 50%;transform: translate(50%, -50%);font-size: 125px;color: green;'>+</p>,,,50,,,,,,,,,,,,,,,,,,,
null,,prac_atten_color_black,156303,,,,,,,,black_plus_sign,,,null,,,,,,,,,,,,,,,,,,,
null,,prac_atten_color_black,156776,,,,,,,,black_plus_sign,,,null,,,,,,,,,,,,,,,,,,,
null,,prac_atten_color,157255,,,,,,,,<p style='position:absolute;top: 50%;right: 50%;transform: translate(50%, -50%);font-size: 125px;color: blue;'>+</p>,,,null,,,,,,,,,,,,,,,,,,,
153,,prac_atten_color_black,159264,,,,,,,,black_plus_sign,,,50,,,,,,,,,,,,,,,,,,,
5311,,attentioncheck_help,164577,,,,,,,,instruct,,,32,,,,,,,,,,,,,,,,,,,
null,,prac_atten_color_black,165516,,,,,,,,black_plus_sign,,,null,,,,,,,,,,,,,,,,,,,
635,,prac_atten_color,166181,,,,,,,,<p style='position:absolute;top: 50%;right: 50%;transform: translate(50%, -50%);font-size: 125px;color: green;'>+</p>,,,50,,,,,,,,,,,,,,,,,,,
null,,prac_atten_color_black,168184,,,,,,,,black_plus_sign,,,null,,,,,,,,,,,,,,,,,,,
null,,prac_atten_color_black,168938,,,,,,,,black_plus_sign,,,null,,,,,,,,,,,,,,,,,,,
null,,prac_atten_color,169365,,,,,,,,<p style='position:absolute;top: 50%;right: 50%;transform: translate(50%, -50%);font-size: 125px;color: green;'>+</p>,,,null,,,,,,,,,,,,,,,,,,,
194,,prac_atten_color_black,171372,,,,,,,,black_plus_sign,,,50,,,,,,,,,,,,,,,,,,,
null,,prac_atten_color_black,172367,,,,,,,,black_plus_sign,,,null,,,,,,,,,,,,,,,,,,,
521,,prac_atten_color,172892,,,,,,,,<p style='position:absolute;top: 50%;right: 50%;transform: translate(50%, -50%);font-size: 125px;color: blue;'>+</p>,,,49,,,,,,,,,,,,,,,,,,,
null,,prac_atten_color_black,174901,,,,,,,,black_plus_sign,,,null,,,,,,,,,,,,,,,,,,,
null,,prac_atten_color_black,175806,,,,,,,,black_plus_sign,,,null,,,,,,,,,,,,,,,,,,,
null,,prac_atten_color,176297,,,,,,,,<p style='position:absolute;top: 50%;right: 50%;transform: translate(50%, -50%);font-size: 125px;color: green;'>+</p>,,,null,,,,,,,,,,,,,,,,,,,
111,,prac_atten_color_black,178307,,,,,,,,black_plus_sign,,,50,,,,,,,,,,,,,,,,,,,
null,,prac_atten_color_black,179236,,,,,,,,black_plus_sign,,,null,,,,,,,,,,,,,,,,,,,
null,,prac_atten_color,179935,,,,,,,,<p style='position:absolute;top: 50%;right: 50%;transform: translate(50%, -50%);font-size: 125px;color: blue;'>+</p>,,,null,,,,,,,,,,,,,,,,,,,
153,,prac_atten_color_black,181941,,,,,,,,black_plus_sign,,,49,,,,,,,,,,,,,,,,,,,
null,,prac_atten_color_black,182654,,,,,,,,black_plus_sign,,,null,,,,,,,,,,,,,,,,,,,
651,,prac_atten_color,183726,,,,,,,,<p style='position:absolute;top: 50%;right: 50%;transform: translate(50%, -50%);font-size: 125px;color: blue;'>+</p>,,,49,,,,,,,,,,,,,,,,,,,
null,,prac_atten_color_black,185746,,,,,,,,black_plus_sign,,,null,,,,,,,,,,,,,,,,,,,
12913,,attentioncheck_feedback,198661,,,,,,,,cross_check_feedback,0,,,,,,,,,,,,,,,,,,,,,
8627,,last_instruct,207288,,,,,,,,instruct,,,32,,,,,,,,,,,,,,,,,,,
null,,prac_learn_phase(without_color),210799,,,,,,,,black_plus_sign,,,null,object_06b.png,object_06c.png,,,,,,,,,,,,,,,,,
null,,prac_black_cross(without_color),211905,,,,,,,,green,,,null,object_06b.png,object_06c.png,,,,,,,,,,,,,,,,,
null,,prac_rt_plussign_withcolor,212435,,,,,,,,green,,,null,object_06b.png,object_06c.png,,,,,,,,,,,,,,,,,
1155,,prac_rt_thecrossant_black,213350,,,,,,,,black_plus_sign,,,50,,,1,1,,,,,,,,,,,,,,,
null,,prac_color_black,213462,,,,,,,,black_plus_sign,,,null,,,,,,,,,,,,,,,,,,,
null,,prac_learn_phase(without_color),216978,,,,,,,,black_plus_sign,,,null,object_02b.png,object_02c.png,,,,,,,,,,,,,,,,,
null,,black_cross(without_color)1,217573,,,,,,,,blue,,,null,object_06b.png,object_06c.png,,,,,,,,,,,,,,,,,
null,,prac_rt_plussign_withcolor,218088,,,,,,,,blue,,,null,object_02b.png,object_02c.png,,,,,,,,,,,,,,,,,
878,,prac_rt_thecrossant_black,219680,,,,,,,,black_plus_sign,,,49,,,1,1,,,,,,,,,,,,,,,
null,,prac_color_black,219792,,,,,,,,black_plus_sign,,,null,,,,,,,,,,,,,,,,,,,
null,,prac_learn_phase(without_color),223294,,,,,,,,black_plus_sign,,,null,object_05a.png,object_05c.png,,,,,,,,,,,,,,,,,
null,,black_cross(without_color)1,223888,,,,,,,,blue,,,null,object_06b.png,object_06c.png,,,,,,,,,,,,,,,,,
null,,prac_rt_plussign_withcolor,224402,,,,,,,,blue,,,null,object_05a.png,object_05c.png,,,,,,,,,,,,,,,,,
734,,prac_rt_thecrossant_black,225453,,,,,,,,black_plus_sign,,,49,,,1,1,,,,,,,,,,,,,,,
null,,prac_color_black,225563,,,,,,,,black_plus_sign,,,null,,,,,,,,,,,,,,,,,,,
null,,prac_learn_phase(without_color),229073,,,,,,,,black_plus_sign,,,null,object_01a.png,object_14b.png,,,,,,,,,,,,,,,,,
null,,black_cross(without_color)1,229674,,,,,,,,blue,,,null,object_06b.png,object_06c.png,,,,,,,,,,,,,,,,,
null,,prac_rt_plussign_withcolor,230184,,,,,,,,blue,,,null,object_01a.png,object_14b.png,,,,,,,,,,,,,,,,,
1223,,prac_rt_thecrossant_black,231616,,,,,,,,black_plus_sign,,,49,,,1,1,,,,,,,,,,,,,,,
null,,prac_color_black,231726,,,,,,,,black_plus_sign,,,null,,,,,,,,,,,,,,,,,,,
7884,,instruct_dir_01,239611,,,,,,,,instruct,0,Next,,,,,,,,,,,,,,,,,,,,
12613,,instruct_dir_2,252225,,,,,,,,instruct,1,Next,,,,,,,,,,,,,,,,,,,,
9761,,instruct_dir_3,261987,,,,,,,,instruct,1,Next,,,,,,,,,,,,,,,,,,,,
15944,,instruct_dir_4,277931,,,,,,,,instruct,1,Start,,,,,,,,,,,,,,,,,,,,
null,,thebreak,278037,,,,,,,,<p></p>,,,null,,,,,,,,,,,,,,,,,,,
2325,,intro_0,280361,,,,,,,,instruct,,,32,,,,,,,,,,,,,,,,,,,
6063,,prac_directmemory_phase,286426,,,,,,,,practice/object_04a.png,,,51,,,1,,practice/object_03b.png,practice/object_02a.png,practice/object_04b.png,practice/object_04b.png,1,1,,,,,,,,,
2478,,prac_directmemory_phase,288905,,,,,,,,practice/object_03a.png,,,50,,,1,,practice/object_02a.png,practice/object_03b.png,practice/object_01b.png,practice/object_03b.png,1,1,,,,,,,,,
2245,,prac_directmemory_phase,291153,,,,,,,,practice/object_01a.png,,,49,,,1,,practice/object_01b.png,practice/object_04b.png,practice/object_02a.png,practice/object_01b.png,1,1,,,,,,,,,
4319,,prac_directmemory_phase,295473,,,,,,,,practice/object_02a.png,,,49,,,1,,practice/object_02b.png,practice/object_03b.png,practice/object_01a.png,practice/object_02b.png,1,1,,,,,,,,,
6183,,practice_feedback,301658,,,,,,,,practice_feedback,1,,,,,,,,,,,,,,,,,,,,,
24609,,proceed_actualTask,326268,,,,,,,,proceed_actualTask,1,Continue,,,,,,,,,,,,,,,,,,,,
7477,,last_inst,333745,,,,,,,,last_inst,,,32,,,,,,,,,,,,,,,,,,,
null,,learn_phase(without_color)1,337246,,,,,,,,black_plus_sign,,,null,object_06b.png,object_06c.png,,,,,,,,,,,,,,,,,
null,,black_cross(without_color)1,337835,,,,,,,,blue,,,null,object_06b.png,object_06c.png,,,,,,,,,,,,,,,,,
null,,rt_plussign_withcolor1,338352,,,,,,,,blue,,,null,object_06b.png,object_06c.png,,,,,,,,,,,,,,,,,
1107,,rt_thecrossant_black1,339780,,,,,,,,black_plus_sign,,,50,,,0,,,,,,,0,,,,,,,,,
null,,color_black1,339892,,,,,,,,black_plus_sign,,,null,,,,,,,,,,,,,,,,,,,
null,,learn_phase(without_color)1,343406,,,,,,,,black_plus_sign,,,null,object_02b.png,object_02c.png,,,,,,,,,,,,,,,,,
null,,black_cross(without_color)1,343966,,,,,,,,blue,,,null,object_02b.png,object_02c.png,,,,,,,,,,,,,,,,,
null,,rt_plussign_withcolor1,344477,,,,,,,,blue,,,null,object_02b.png,object_02c.png,,,,,,,,,,,,,,,,,
1417,,rt_thecrossant_black1,345941,,,,,,,,black_plus_sign,,,49,,,1,,,,,,,0.5,,,,,,,,,
null,,color_black1,346052,,,,,,,,black_plus_sign,,,null,,,,,,,,,,,,,,,,,,,
null,,learn_phase(without_color)1,349556,,,,,,,,black_plus_sign,,,null,object_05a.png,object_05c.png,,,,,,,,,,,,,,,,,
null,,black_cross(without_color)1,350147,,,,,,,,blue,,,null,object_05a.png,object_05c.png,,,,,,,,,,,,,,,,,
null,,rt_plussign_withcolor1,350660,,,,,,,,blue,,,null,object_05a.png,object_05c.png,,,,,,,,,,,,,,,,,
835,,rt_thecrossant_black1,352097,,,,,,,,black_plus_sign,,,49,,,1,,,,,,,0.6666666666666666,,,,,,,,,
null,,color_black1,352207,,,,,,,,black_plus_sign,,,null,,,,,,,,,,,,,,,,,,,
null,,learn_phase(without_color)1,355710,,,,,,,,black_plus_sign,,,null,object_01a.png,object_14b.png,,,,,,,,,,,,,,,,,
null,,black_cross(without_color)1,356687,,,,,,,,green,,,null,object_01a.png,object_14b.png,,,,,,,,,,,,,,,,,
null,,rt_plussign_withcolor1,357190,,,,,,,,green,,,null,object_01a.png,object_14b.png,,,,,,,,,,,,,,,,,
806,,rt_thecrossant_black1,358250,,,,,,,,black_plus_sign,,,50,,,1,,,,,,,0.75,,,,,,,,,
null,,color_black1,358357,,,,,,,,black_plus_sign,,,null,,,,,,,,,,,,,,,,,,,
null,,learn_phase(without_color)1,361867,,,,,,,,black_plus_sign,,,null,object_07a.png,object_10c.png,,,,,,,,,,,,,,,,,
null,,black_cross(without_color)1,362565,,,,,,,,blue,,,null,object_07a.png,object_10c.png,,,,,,,,,,,,,,,,,
null,,rt_plussign_withcolor1,363070,,,,,,,,blue,,,null,object_07a.png,object_10c.png,,,,,,,,,,,,,,,,,
1234,,rt_thecrossant_black1,364420,,,,,,,,black_plus_sign,,,49,,,1,,,,,,,0.8,,,,,,,,,
null,,color_black1,364530,,,,,,,,black_plus_sign,,,null,,,,,,,,,,,,,,,,,,,
null,,learn_phase(without_color)1,368038,,,,,,,,black_plus_sign,,,null,object_11c.png,object_14c.png,,,,,,,,,,,,,,,,,
null,,black_cross(without_color)1,368796,,,,,,,,green,,,null,object_11c.png,object_14c.png,,,,,,,,,,,,,,,,,
null,,rt_plussign_withcolor1,369306,,,,,,,,green,,,null,object_11c.png,object_14c.png,,,,,,,,,,,,,,,,,
946,,rt_thecrossant_black1,370570,,,,,,,,black_plus_sign,,,50,,,1,,,,,,,0.8333333333333334,,,,,,,,,
null,,color_black1,370680,,,,,,,,black_plus_sign,,,null,,,,,,,,,,,,,,,,,,,
null,,learn_phase(without_color)1,374196,,,,,,,,black_plus_sign,,,null,object_12c.png,object_13b.png,,,,,,,,,,,,,,,,,
null,,black_cross(without_color)1,375106,,,,,,,,green,,,null,object_12c.png,object_13b.png,,,,,,,,,,,,,,,,,
null,,rt_plussign_withcolor1,375614,,,,,,,,green,,,null,object_12c.png,object_13b.png,,,,,,,,,,,,,,,,,
1047,,rt_thecrossant_black1,376723,,,,,,,,black_plus_sign,,,50,,,1,,,,,,,0.8571428571428571,,,,,,,,,
null,,color_black1,376840,,,,,,,,black_plus_sign,,,null,,,,,,,,,,,,,,,,,,,
null,,learn_phase(without_color)1,380363,,,,,,,,black_plus_sign,,,null,object_04a.png,object_04c.png,,,,,,,,,,,,,,,,,
null,,black_cross(without_color)1,380876,,,,,,,,blue,,,null,object_04a.png,object_04c.png,,,,,,,,,,,,,,,,,
null,,rt_plussign_withcolor1,381397,,,,,,,,blue,,,null,object_04a.png,object_04c.png,,,,,,,,,,,,,,,,,
1199,,rt_thecrossant_black1,382958,,,,,,,,black_plus_sign,,,49,,,1,,,,,,,0.875,,,,,,,,,
null,,color_black1,383076,,,,,,,,black_plus_sign,,,null,,,,,,,,,,,,,,,,,,,
null,,learn_phase(without_color)1,386597,,,,,,,,black_plus_sign,,,null,object_15b.png,object_15a.png,,,,,,,,,,,,,,,,,
null,,black_cross(without_color)1,387487,,,,,,,,green,,,null,object_15b.png,object_15a.png,,,,,,,,,,,,,,,,,
null,,rt_plussign_withcolor1,388010,,,,,,,,green,,,null,object_15b.png,object_15a.png,,,,,,,,,,,,,,,,,
873,,rt_thecrossant_black1,389143,,,,,,,,black_plus_sign,,,50,,,1,,,,,,,0.8888888888888888,,,,,,,,,
null,,color_black1,389260,,,,,,,,black_plus_sign,,,null,,,,,,,,,,,,,,,,,,,
null,,learn_phase(without_color)1,392774,,,,,,,,black_plus_sign,,,null,object_11b.png,object_10a.png,,,,,,,,,,,,,,,,,
null,,black_cross(without_color)1,393796,,,,,,,,blue,,,null,object_11b.png,object_10a.png,,,,,,,,,,,,,,,,,
null,,rt_plussign_withcolor1,394307,,,,,,,,blue,,,null,object_11b.png,object_10a.png,,,,,,,,,,,,,,,,,
1103,,rt_thecrossant_black1,395314,,,,,,,,black_plus_sign,,,49,,,1,,,,,,,0.9,,,,,,,,,
null,,color_black1,395424,,,,,,,,black_plus_sign,,,null,,,,,,,,,,,,,,,,,,,
null,,learn_phase(without_color)1,398927,,,,,,,,black_plus_sign,,,null,object_14a.png,object_13a.png,,,,,,,,,,,,,,,,,
null,,black_cross(without_color)1,399937,,,,,,,,green,,,null,object_14a.png,object_13a.png,,,,,,,,,,,,,,,,,
null,,rt_plussign_withcolor1,400447,,,,,,,,green,,,null,object_14a.png,object_13a.png,,,,,,,,,,,,,,,,,
1108,,rt_thecrossant_black1,401463,,,,,,,,black_plus_sign,,,50,,,1,,,,,,,0.9090909090909091,,,,,,,,,
null,,color_black1,401575,,,,,,,,black_plus_sign,,,null,,,,,,,,,,,,,,,,,,,
null,,learn_phase(without_color)1,405087,,,,,,,,black_plus_sign,,,null,object_10b.png,object_09b.png,,,,,,,,,,,,,,,,,
null,,black_cross(without_color)1,405681,,,,,,,,green,,,null,object_10b.png,object_09b.png,,,,,,,,,,,,,,,,,
null,,rt_plussign_withcolor1,406233,,,,,,,,green,,,null,object_10b.png,object_09b.png,,,,,,,,,,,,,,,,,
1292,,rt_thecrossant_black1,407662,,,,,,,,black_plus_sign,,,50,,,1,,,,,,,0.9166666666666666,,,,,,,,,
null,,color_black1,407771,,,,,,,,black_plus_sign,,,null,,,,,,,,,,,,,,,,,,,
null,,learn_phase(without_color)1,411281,,,,,,,,black_plus_sign,,,null,object_09c.png,object_08b.png,,,,,,,,,,,,,,,,,
null,,black_cross(without_color)1,412387,,,,,,,,blue,,,null,object_09c.png,object_08b.png,,,,,,,,,,,,,,,,,
null,,rt_plussign_withcolor1,412893,,,,,,,,blue,,,null,object_09c.png,object_08b.png,,,,,,,,,,,,,,,,,
1171,,rt_thecrossant_black1,413811,,,,,,,,black_plus_sign,,,49,,,1,,,,,,,0.9230769230769231,,,,,,,,,
null,,color_black1,413920,,,,,,,,black_plus_sign,,,null,,,,,,,,,,,,,,,,,,,
null,,learn_phase(without_color)1,417474,,,,,,,,black_plus_sign,,,null,object_01c.png,object_03b.png,,,,,,,,,,,,,,,,,
null,,black_cross(without_color)1,417980,,,,,,,,blue,,,null,object_01c.png,object_03b.png,,,,,,,,,,,,,,,,,
null,,rt_plussign_withcolor1,418488,,,,,,,,blue,,,null,object_01c.png,object_03b.png,,,,,,,,,,,,,,,,,
1322,,rt_thecrossant_black1,420007,,,,,,,,black_plus_sign,,,49,,,1,,,,,,,0.9285714285714286,,,,,,,,,
null,,color_black1,420117,,,,,,,,black_plus_sign,,,null,,,,,,,,,,,,,,,,,,,
null,,learn_phase(without_color)1,423632,,,,,,,,black_plus_sign,,,null,object_02a.png,object_13c.png,,,,,,,,,,,,,,,,,
null,,black_cross(without_color)1,424696,,,,,,,,green,,,null,object_02a.png,object_13c.png,,,,,,,,,,,,,,,,,
null,,rt_plussign_withcolor1,425206,,,,,,,,green,,,null,object_02a.png,object_13c.png,,,,,,,,,,,,,,,,,
686,,rt_thecrossant_black1,426164,,,,,,,,black_plus_sign,,,50,,,1,,,,,,,0.9333333333333333,,,,,,,,,
null,,color_black1,426277,,,,,,,,black_plus_sign,,,null,,,,,,,,,,,,,,,,,,,
null,,thebreak,426381,,,,,,,,<p></p>,,,null,,,,,,,,,,,,,,,,,,,
2300,,intro_0,428682,,,,,,,,instruct,,,32,,,,,,,,,,,,,,,,,,,
7503,,directmemory_phase1,436185,,,,,,,,object_06b.png,,,50,,,0,,object_06c.png,object_01c.png,object_08b.png,object_06c.png,,0,0,,,,,,,,
5661,,directmemory_phase1,441849,,,,,,,,object_08b.png,,,51,,,1,,object_13b.png,object_12c.png,object_09c.png,object_09c.png,,0.5,1,,,,,,,,
4838,,directmemory_phase1,446689,,,,,,,,object_07a.png,,,49,,,0,,object_15a.png,object_10c.png,object_15b.png,object_10c.png,,0.3333333333333333,0,,,,,,,,
4271,,directmemory_phase1,450962,,,,,,,,object_15a.png,,,50,,,1,,object_12c.png,object_15b.png,object_10b.png,object_15b.png,,0.5,1,,,,,,,,
3694,,directmemory_phase1,454658,,,,,,,,object_11b.png,,,49,,,0,,object_04a.png,object_12c.png,object_10a.png,object_10a.png,,0.4,0,,,,,,,,
2310,,directmemory_phase1,456969,,,,,,,,object_13a.png,,,51,,,1,,object_09c.png,object_06b.png,object_14a.png,object_14a.png,,0.5,1,,,,,,,,
2830,,directmemory_phase1,459802,,,,,,,,object_04c.png,,,51,,,0,,object_04a.png,object_02a.png,object_07a.png,object_04a.png,,0.42857142857142855,0,,,,,,,,
3998,,directmemory_phase1,463801,,,,,,,,object_13c.png,,,49,,,0,,object_03b.png,object_02a.png,object_01c.png,object_02a.png,,0.375,0,,,,,,,,
4318,,directmemory_phase1,468122,,,,,,,,object_14c.png,,,49,,,0,,object_07a.png,object_11c.png,object_04a.png,object_11c.png,,0.3333333333333333,0,,,,,,,,
3845,,directmemory_phase1,471969,,,,,,,,object_05a.png,,,51,,,0,,object_12c.png,object_05c.png,object_04a.png,object_05c.png,,0.3,0,,,,,,,,
2918,,directmemory_phase1,474889,,,,,,,,object_02c.png,,,50,,,0,,object_04a.png,object_06b.png,object_02b.png,object_02b.png,,0.2727272727272727,0,,,,,,,,
3678,,directmemory_phase1,478569,,,,,,,,object_12c.png,,,49,,,0,,object_03b.png,object_13b.png,object_04a.png,object_13b.png,,0.25,0,,,,,,,,
4351,,directmemory_phase1,482921,,,,,,,,object_01a.png,,,51,,,1,,object_13b.png,object_13c.png,object_14b.png,object_14b.png,,0.3076923076923077,1,,,,,,,,
4302,,directmemory_phase1,487225,,,,,,,,object_09b.png,,,50,,,0,,object_10b.png,object_04a.png,object_02c.png,object_10b.png,,0.2857142857142857,0,,,,,,,,
3582,,directmemory_phase1,490809,,,,,,,,object_03b.png,,,50,,,0,,object_14a.png,object_14c.png,object_01c.png,object_01c.png,,0.26666666666666666,0,,,,,,,,
null,,thebreak,490922,,,,,,,,<p></p>,,,null,,,,,,,,,,,,,,,,,,,
3240,,intro_0,494162,,,,,,,,instruct,,,32,,,,,,,,,,,,,,,,,,,
null,,learn_phase(without_color)2,497670,,,,,,,,black_plus_sign,,,null,object_10c.png,object_07a.png,,,,,,,,,,,,,,,,,
null,,black_cross(without_color)2,498683,,,,,,,,blue,,,null,object_10c.png,object_07a.png,,,,,,,,,,,,,,,,,
null,,rt_plussign_withcolor2,499195,,,,,,,,blue,,,null,object_10c.png,object_07a.png,,,,,,,,,,,,,,,,,
1492,,rt_thecrossant_black2,500208,,,,,,,,black_plus_sign,,,49,,,1,,,,,,,1,,,,,,,,,
null,,color_black2,500321,,,,,,,,black_plus_sign,,,null,,,,,,,,,,,,,,,,,,,
null,,learn_phase(without_color)2,503831,,,,,,,,black_plus_sign,,,null,object_05c.png,object_05a.png,,,,,,,,,,,,,,,,,
null,,black_cross(without_color)2,504489,,,,,,,,green,,,null,object_05c.png,object_05a.png,,,,,,,,,,,,,,,,,
null,,rt_plussign_withcolor2,505001,,,,,,,,green,,,null,object_05c.png,object_05a.png,,,,,,,,,,,,,,,,,
1303,,rt_thecrossant_black2,506364,,,,,,,,black_plus_sign,,,50,,,1,,,,,,,1,,,,,,,,,
null,,color_black2,506476,,,,,,,,black_plus_sign,,,null,,,,,,,,,,,,,,,,,,,
null,,learn_phase(without_color)2,510032,,,,,,,,black_plus_sign,,,null,object_02c.png,object_02b.png,,,,,,,,,,,,,,,,,
null,,black_cross(without_color)2,510805,,,,,,,,blue,,,null,object_02c.png,object_02b.png,,,,,,,,,,,,,,,,,
null,,rt_plussign_withcolor2,511319,,,,,,,,blue,,,null,object_02c.png,object_02b.png,,,,,,,,,,,,,,,,,
1095,,rt_thecrossant_black2,512593,,,,,,,,black_plus_sign,,,49,,,1,,,,,,,1,,,,,,,,,
null,,color_black2,512705,,,,,,,,black_plus_sign,,,null,,,,,,,,,,,,,,,,,,,
null,,learn_phase(without_color)2,516212,,,,,,,,black_plus_sign,,,null,object_10a.png,object_11b.png,,,,,,,,,,,,,,,,,
null,,black_cross(without_color)2,516916,,,,,,,,green,,,null,object_10a.png,object_11b.png,,,,,,,,,,,,,,,,,
null,,rt_plussign_withcolor2,517429,,,,,,,,green,,,null,object_10a.png,object_11b.png,,,,,,,,,,,,,,,,,
1132,,rt_thecrossant_black2,518746,,,,,,,,black_plus_sign,,,50,,,1,,,,,,,1,,,,,,,,,
null,,color_black2,518859,,,,,,,,black_plus_sign,,,null,,,,,,,,,,,,,,,,,,,
null,,learn_phase(without_color)2,522363,,,,,,,,black_plus_sign,,,null,object_14c.png,object_11c.png,,,,,,,,,,,,,,,,,
null,,black_cross(without_color)2,523104,,,,,,,,green,,,null,object_14c.png,object_11c.png,,,,,,,,,,,,,,,,,
null,,rt_plussign_withcolor2,523616,,,,,,,,green,,,null,object_14c.png,object_11c.png,,,,,,,,,,,,,,,,,
1207,,rt_thecrossant_black2,524902,,,,,,,,black_plus_sign,,,50,,,1,,,,,,,1,,,,,,,,,
null,,color_black2,525014,,,,,,,,black_plus_sign,,,null,,,,,,,,,,,,,,,,,,,
null,,learn_phase(without_color)2,528516,,,,,,,,black_plus_sign,,,null,object_15a.png,object_15b.png,,,,,,,,,,,,,,,,,
null,,black_cross(without_color)2,529047,,,,,,,,blue,,,null,object_15a.png,object_15b.png,,,,,,,,,,,,,,,,,
null,,rt_plussign_withcolor2,529562,,,,,,,,blue,,,null,object_15a.png,object_15b.png,,,,,,,,,,,,,,,,,
1103,,rt_thecrossant_black2,531043,,,,,,,,black_plus_sign,,,49,,,1,,,,,,,1,,,,,,,,,
null,,color_black2,531155,,,,,,,,black_plus_sign,,,null,,,,,,,,,,,,,,,,,,,
null,,learn_phase(without_color)2,534657,,,,,,,,black_plus_sign,,,null,object_08b.png,object_09c.png,,,,,,,,,,,,,,,,,
null,,black_cross(without_color)2,535666,,,,,,,,green,,,null,object_08b.png,object_09c.png,,,,,,,,,,,,,,,,,
null,,rt_plussign_withcolor2,536179,,,,,,,,green,,,null,object_08b.png,object_09c.png,,,,,,,,,,,,,,,,,
776,,rt_thecrossant_black2,537189,,,,,,,,black_plus_sign,,,50,,,1,,,,,,,1,,,,,,,,,
null,,color_black2,537301,,,,,,,,black_plus_sign,,,null,,,,,,,,,,,,,,,,,,,
null,,learn_phase(without_color)2,540804,,,,,,,,black_plus_sign,,,null,object_12c.png,object_13b.png,,,,,,,,,,,,,,,,,
null,,black_cross(without_color)2,541454,,,,,,,,green,,,null,object_12c.png,object_13b.png,,,,,,,,,,,,,,,,,
null,,rt_plussign_withcolor2,541961,,,,,,,,green,,,null,object_12c.png,object_13b.png,,,,,,,,,,,,,,,,,
1348,,rt_thecrossant_black2,543327,,,,,,,,black_plus_sign,,,50,,,1,,,,,,,1,,,,,,,,,
null,,color_black2,543433,,,,,,,,black_plus_sign,,,null,,,,,,,,,,,,,,,,,,,
null,,learn_phase(without_color)2,546936,,,,,,,,black_plus_sign,,,null,object_09b.png,object_10b.png,,,,,,,,,,,,,,,,,
null,,black_cross(without_color)2,547761,,,,,,,,blue,,,null,object_09b.png,object_10b.png,,,,,,,,,,,,,,,,,
null,,rt_plussign_withcolor2,548275,,,,,,,,blue,,,null,object_09b.png,object_10b.png,,,,,,,,,,,,,,,,,
1104,,rt_thecrossant_black2,549471,,,,,,,,black_plus_sign,,,49,,,1,,,,,,,1,,,,,,,,,
null,,color_black2,549583,,,,,,,,black_plus_sign,,,null,,,,,,,,,,,,,,,,,,,
null,,learn_phase(without_color)2,553094,,,,,,,,black_plus_sign,,,null,object_14a.png,object_13a.png,,,,,,,,,,,,,,,,,
null,,black_cross(without_color)2,553562,,,,,,,,blue,,,null,object_14a.png,object_13a.png,,,,,,,,,,,,,,,,,
null,,rt_plussign_withcolor2,554074,,,,,,,,blue,,,null,object_14a.png,object_13a.png,,,,,,,,,,,,,,,,,
1029,,rt_thecrossant_black2,555611,,,,,,,,black_plus_sign,,,49,,,1,,,,,,,1,,,,,,,,,
null,,color_black2,555721,,,,,,,,black_plus_sign,,,null,,,,,,,,,,,,,,,,,,,
null,,learn_phase(without_color)2,559232,,,,,,,,black_plus_sign,,,null,object_04c.png,object_04a.png,,,,,,,,,,,,,,,,,
null,,black_cross(without_color)2,560002,,,,,,,,green,,,null,object_04c.png,object_04a.png,,,,,,,,,,,,,,,,,
null,,rt_plussign_withcolor2,560507,,,,,,,,green,,,null,object_04c.png,object_04a.png,,,,,,,,,,,,,,,,,
785,,rt_thecrossant_black2,561760,,,,,,,,black_plus_sign,,,50,,,1,,,,,,,1,,,,,,,,,
null,,color_black2,561868,,,,,,,,black_plus_sign,,,null,,,,,,,,,,,,,,,,,,,
null,,learn_phase(without_color)2,565378,,,,,,,,black_plus_sign,,,null,object_06c.png,object_06b.png,,,,,,,,,,,,,,,,,
null,,black_cross(without_color)2,566446,,,,,,,,green,,,null,object_06c.png,object_06b.png,,,,,,,,,,,,,,,,,
null,,rt_plussign_withcolor2,566962,,,,,,,,green,,,null,object_06c.png,object_06b.png,,,,,,,,,,,,,,,,,
1228,,rt_thecrossant_black2,567902,,,,,,,,black_plus_sign,,,50,,,1,,,,,,,1,,,,,,,,,
null,,color_black2,568012,,,,,,,,black_plus_sign,,,null,,,,,,,,,,,,,,,,,,,
null,,learn_phase(without_color)2,571518,,,,,,,,black_plus_sign,,,null,object_01c.png,object_03b.png,,,,,,,,,,,,,,,,,
null,,black_cross(without_color)2,572116,,,,,,,,blue,,,null,object_01c.png,object_03b.png,,,,,,,,,,,,,,,,,
null,,rt_plussign_withcolor2,572621,,,,,,,,blue,,,null,object_01c.png,object_03b.png,,,,,,,,,,,,,,,,,
1460,,rt_thecrossant_black2,574052,,,,,,,,black_plus_sign,,,49,,,1,,,,,,,1,,,,,,,,,
null,,color_black2,574164,,,,,,,,black_plus_sign,,,null,,,,,,,,,,,,,,,,,,,
null,,learn_phase(without_color)2,577680,,,,,,,,black_plus_sign,,,null,object_01a.png,object_14b.png,,,,,,,,,,,,,,,,,
null,,black_cross(without_color)2,578306,,,,,,,,green,,,null,object_01a.png,object_14b.png,,,,,,,,,,,,,,,,,
null,,rt_plussign_withcolor2,578816,,,,,,,,green,,,null,object_01a.png,object_14b.png,,,,,,,,,,,,,,,,,
790,,rt_thecrossant_black2,580209,,,,,,,,black_plus_sign,,,50,,,1,,,,,,,1,,,,,,,,,
null,,color_black2,580322,,,,,,,,black_plus_sign,,,null,,,,,,,,,,,,,,,,,,,
null,,learn_phase(without_color)2,583834,,,,,,,,black_plus_sign,,,null,object_13c.png,object_02a.png,,,,,,,,,,,,,,,,,
null,,black_cross(without_color)2,584670,,,,,,,,green,,,null,object_13c.png,object_02a.png,,,,,,,,,,,,,,,,,
null,,rt_plussign_withcolor2,585174,,,,,,,,green,,,null,object_13c.png,object_02a.png,,,,,,,,,,,,,,,,,
903,,rt_thecrossant_black2,586354,,,,,,,,black_plus_sign,,,50,,,1,,,,,,,1,,,,,,,,,
null,,color_black2,586464,,,,,,,,black_plus_sign,,,null,,,,,,,,,,,,,,,,,,,
null,,thebreak,586573,,,,,,,,<p></p>,,,null,,,,,,,,,,,,,,,,,,,
3548,,intro_0,590122,,,,,,,,instruct,,,32,,,,,,,,,,,,,,,,,,,
4327,,directmemory_phase2,594449,,,,,,,,object_09b.png,,,51,,,1,,object_14b.png,object_12c.png,object_10b.png,object_10b.png,,0.3125,1,,,,,,,,
3878,,directmemory_phase2,598329,,,,,,,,object_01a.png,,,51,,,0,,object_14b.png,object_11c.png,object_14c.png,object_14b.png,,0.29411764705882354,0,,,,,,,,
4294,,directmemory_phase2,602625,,,,,,,,object_07a.png,,,49,,,1,,object_10c.png,object_11c.png,object_01a.png,object_10c.png,,0.3333333333333333,1,,,,,,,,
3421,,directmemory_phase2,606049,,,,,,,,object_15a.png,,,51,,,0,,object_15b.png,object_09c.png,object_05a.png,object_15b.png,,0.3157894736842105,0,,,,,,,,
3038,,directmemory_phase2,609089,,,,,,,,object_02c.png,,,49,,,0,,object_05c.png,object_04c.png,object_02b.png,object_02b.png,,0.3,0,,,,,,,,
3895,,directmemory_phase2,612985,,,,,,,,object_13c.png,,,51,,,1,,object_11c.png,object_09b.png,object_02a.png,object_02a.png,,0.3333333333333333,1,,,,,,,,
4126,,directmemory_phase2,617113,,,,,,,,object_04c.png,,,51,,,1,,object_01c.png,object_15a.png,object_04a.png,object_04a.png,,0.36363636363636365,1,,,,,,,,
4111,,directmemory_phase2,621225,,,,,,,,object_05a.png,,,49,,,0,,object_02c.png,object_05c.png,object_09c.png,object_05c.png,,0.34782608695652173,0,,,,,,,,
6261,,directmemory_phase2,627489,,,,,,,,object_14c.png,,,50,,,1,,object_03b.png,object_11c.png,object_05c.png,object_11c.png,,0.375,1,,,,,,,,
5182,,directmemory_phase2,632673,,,,,,,,object_08b.png,,,50,,,1,,object_02c.png,object_09c.png,object_05c.png,object_09c.png,,0.4,1,,,,,,,,
4647,,directmemory_phase2,637322,,,,,,,,object_12c.png,,,51,,,0,,object_13b.png,object_04a.png,object_03b.png,object_13b.png,,0.38461538461538464,0,,,,,,,,
2662,,directmemory_phase2,639986,,,,,,,,object_11b.png,,,49,,,1,,object_10a.png,object_14b.png,object_01a.png,object_10a.png,,0.4074074074074074,1,,,,,,,,
4037,,directmemory_phase2,644025,,,,,,,,object_06b.png,,,50,,,1,,object_01a.png,object_06c.png,object_13b.png,object_06c.png,,0.42857142857142855,1,,,,,,,,
3998,,directmemory_phase2,648026,,,,,,,,object_03b.png,,,50,,,1,,object_02c.png,object_01c.png,object_02b.png,object_01c.png,,0.4482758620689655,1,,,,,,,,
1958,,directmemory_phase2,649986,,,,,,,,object_13a.png,,,50,,,1,,object_04c.png,object_14a.png,object_06c.png,object_14a.png,,0.4666666666666667,1,,,,,,,,
null,,thebreak,650103,,,,,,,,<p></p>,,,null,,,,,,,,,,,,,,,,,,,
2458,,intro_0,652562,,,,,,,,instruct,,,32,,,,,,,,,,,,,,,,,,,
null,,learn_phase(without_color)3,656073,,,,,,,,black_plus_sign,,,null,object_10c.png,object_07a.png,,,,,,,,,,,,,,,,,
null,,black_cross(without_color)3,657035,,,,,,,,green,,,null,object_10c.png,object_07a.png,,,,,,,,,,,,,,,,,
null,,rt_plussign_withcolor3,657549,,,,,,,,green,,,null,object_10c.png,object_07a.png,,,,,,,,,,,,,,,,,
1247,,rt_thecrossant_black3,658607,,,,,,,,black_plus_sign,,,50,,,1,,,,,,,1,,,,,,,,,
null,,color_black3,658719,,,,,,,,black_plus_sign,,,null,,,,,,,,,,,,,,,,,,,
null,,learn_phase(without_color)3,662230,,,,,,,,black_plus_sign,,,null,object_02a.png,object_13c.png,,,,,,,,,,,,,,,,,
null,,black_cross(without_color)3,662967,,,,,,,,green,,,null,object_02a.png,object_13c.png,,,,,,,,,,,,,,,,,
null,,rt_plussign_withcolor3,663480,,,,,,,,green,,,null,object_02a.png,object_13c.png,,,,,,,,,,,,,,,,,
1260,,rt_thecrossant_black3,664778,,,,,,,,black_plus_sign,,,50,,,1,,,,,,,1,,,,,,,,,
null,,color_black3,664887,,,,,,,,black_plus_sign,,,null,,,,,,,,,,,,,,,,,,,
null,,learn_phase(without_color)3,668393,,,,,,,,black_plus_sign,,,null,object_06b.png,object_06c.png,,,,,,,,,,,,,,,,,
null,,black_cross(without_color)3,669121,,,,,,,,blue,,,null,object_06b.png,object_06c.png,,,,,,,,,,,,,,,,,
null,,rt_plussign_withcolor3,669630,,,,,,,,blue,,,null,object_06b.png,object_06c.png,,,,,,,,,,,,,,,,,
1022,,rt_thecrossant_black3,670912,,,,,,,,black_plus_sign,,,49,,,1,,,,,,,1,,,,,,,,,
null,,color_black3,671024,,,,,,,,black_plus_sign,,,null,,,,,,,,,,,,,,,,,,,
null,,learn_phase(without_color)3,674537,,,,,,,,black_plus_sign,,,null,object_11b.png,object_10a.png,,,,,,,,,,,,,,,,,
null,,black_cross(without_color)3,675262,,,,,,,,green,,,null,object_11b.png,object_10a.png,,,,,,,,,,,,,,,,,
null,,rt_plussign_withcolor3,675763,,,,,,,,green,,,null,object_11b.png,object_10a.png,,,,,,,,,,,,,,,,,
1033,,rt_thecrossant_black3,677043,,,,,,,,black_plus_sign,,,50,,,1,,,,,,,1,,,,,,,,,
null,,color_black3,677153,,,,,,,,black_plus_sign,,,null,,,,,,,,,,,,,,,,,,,
null,,learn_phase(without_color)3,680664,,,,,,,,black_plus_sign,,,null,object_01a.png,object_14b.png,,,,,,,,,,,,,,,,,
null,,black_cross(without_color)3,681653,,,,,,,,green,,,null,object_01a.png,object_14b.png,,,,,,,,,,,,,,,,,
null,,rt_plussign_withcolor3,682167,,,,,,,,green,,,null,object_01a.png,object_14b.png,,,,,,,,,,,,,,,,,
992,,rt_thecrossant_black3,683200,,,,,,,,black_plus_sign,,,50,,,1,,,,,,,1,,,,,,,,,
null,,color_black3,683316,,,,,,,,black_plus_sign,,,null,,,,,,,,,,,,,,,,,,,
null,,learn_phase(without_color)3,686822,,,,,,,,black_plus_sign,,,null,object_14c.png,object_11c.png,,,,,,,,,,,,,,,,,
null,,black_cross(without_color)3,687387,,,,,,,,green,,,null,object_14c.png,object_11c.png,,,,,,,,,,,,,,,,,
null,,rt_plussign_withcolor3,687893,,,,,,,,green,,,null,object_14c.png,object_11c.png,,,,,,,,,,,,,,,,,
1297,,rt_thecrossant_black3,689352,,,,,,,,black_plus_sign,,,50,,,1,,,,,,,1,,,,,,,,,
null,,color_black3,689460,,,,,,,,black_plus_sign,,,null,,,,,,,,,,,,,,,,,,,
null,,learn_phase(without_color)3,692974,,,,,,,,black_plus_sign,,,null,object_03b.png,object_01c.png,,,,,,,,,,,,,,,,,
null,,black_cross(without_color)3,693542,,,,,,,,blue,,,null,object_03b.png,object_01c.png,,,,,,,,,,,,,,,,,
null,,rt_plussign_withcolor3,694052,,,,,,,,blue,,,null,object_03b.png,object_01c.png,,,,,,,,,,,,,,,,,
1140,,rt_thecrossant_black3,695501,,,,,,,,black_plus_sign,,,49,,,1,,,,,,,1,,,,,,,,,
null,,color_black3,695606,,,,,,,,black_plus_sign,,,null,,,,,,,,,,,,,,,,,,,
null,,learn_phase(without_color)3,699123,,,,,,,,black_plus_sign,,,null,object_05c.png,object_05a.png,,,,,,,,,,,,,,,,,
null,,black_cross(without_color)3,700081,,,,,,,,blue,,,null,object_05c.png,object_05a.png,,,,,,,,,,,,,,,,,
null,,rt_plussign_withcolor3,700588,,,,,,,,blue,,,null,object_05c.png,object_05a.png,,,,,,,,,,,,,,,,,
1322,,rt_thecrossant_black3,701645,,,,,,,,black_plus_sign,,,49,,,1,,,,,,,1,,,,,,,,,
null,,color_black3,701752,,,,,,,,black_plus_sign,,,null,,,,,,,,,,,,,,,,,,,
null,,learn_phase(without_color)3,705266,,,,,,,,black_plus_sign,,,null,object_08b.png,object_09c.png,,,,,,,,,,,,,,,,,
null,,black_cross(without_color)3,705802,,,,,,,,green,,,null,object_08b.png,object_09c.png,,,,,,,,,,,,,,,,,
null,,rt_plussign_withcolor3,706303,,,,,,,,green,,,null,object_08b.png,object_09c.png,,,,,,,,,,,,,,,,,
1311,,rt_thecrossant_black3,707799,,,,,,,,black_plus_sign,,,50,,,1,,,,,,,1,,,,,,,,,
null,,color_black3,707910,,,,,,,,black_plus_sign,,,null,,,,,,,,,,,,,,,,,,,
null,,learn_phase(without_color)3,711419,,,,,,,,black_plus_sign,,,null,object_02c.png,object_02b.png,,,,,,,,,,,,,,,,,
null,,black_cross(without_color)3,712367,,,,,,,,blue,,,null,object_02c.png,object_02b.png,,,,,,,,,,,,,,,,,
null,,rt_plussign_withcolor3,712883,,,,,,,,blue,,,null,object_02c.png,object_02b.png,,,,,,,,,,,,,,,,,
1238,,rt_thecrossant_black3,714009,,,,,,,,black_plus_sign,,,49,,,1,,,,,,,1,,,,,,,,,
null,,color_black3,714121,,,,,,,,black_plus_sign,,,null,,,,,,,,,,,,,,,,,,,
null,,learn_phase(without_color)3,717637,,,,,,,,black_plus_sign,,,null,object_13a.png,object_14a.png,,,,,,,,,,,,,,,,,
null,,black_cross(without_color)3,718171,,,,,,,,blue,,,null,object_13a.png,object_14a.png,,,,,,,,,,,,,,,,,
null,,rt_plussign_withcolor3,718686,,,,,,,,blue,,,null,object_13a.png,object_14a.png,,,,,,,,,,,,,,,,,
1204,,rt_thecrossant_black3,720197,,,,,,,,black_plus_sign,,,49,,,1,,,,,,,1,,,,,,,,,
null,,color_black3,720310,,,,,,,,black_plus_sign,,,null,,,,,,,,,,,,,,,,,,,
null,,learn_phase(without_color)3,723823,,,,,,,,black_plus_sign,,,null,object_09b.png,object_10b.png,,,,,,,,,,,,,,,,,
null,,black_cross(without_color)3,724878,,,,,,,,green,,,null,object_09b.png,object_10b.png,,,,,,,,,,,,,,,,,
null,,rt_plussign_withcolor3,725383,,,,,,,,green,,,null,object_09b.png,object_10b.png,,,,,,,,,,,,,,,,,
699,,rt_thecrossant_black3,726354,,,,,,,,black_plus_sign,,,50,,,1,,,,,,,1,,,,,,,,,
null,,color_black3,726465,,,,,,,,black_plus_sign,,,null,,,,,,,,,,,,,,,,,,,
null,,learn_phase(without_color)3,729978,,,,,,,,black_plus_sign,,,null,object_04a.png,object_04c.png,,,,,,,,,,,,,,,,,
null,,black_cross(without_color)3,731058,,,,,,,,blue,,,null,object_04a.png,object_04c.png,,,,,,,,,,,,,,,,,
null,,rt_plussign_withcolor3,731573,,,,,,,,blue,,,null,object_04a.png,object_04c.png,,,,,,,,,,,,,,,,,
1679,,rt_thecrossant_black3,732509,,,,,,,,black_plus_sign,,,49,,,1,,,,,,,1,,,,,,,,,
null,,color_black3,732612,,,,,,,,black_plus_sign,,,null,,,,,,,,,,,,,,,,,,,
null,,learn_phase(without_color)3,736123,,,,,,,,black_plus_sign,,,null,object_13b.png,object_12c.png,,,,,,,,,,,,,,,,,
null,,black_cross(without_color)3,736993,,,,,,,,green,,,null,object_13b.png,object_12c.png,,,,,,,,,,,,,,,,,
null,,rt_plussign_withcolor3,737498,,,,,,,,green,,,null,object_13b.png,object_12c.png,,,,,,,,,,,,,,,,,
1316,,rt_thecrossant_black3,738648,,,,,,,,black_plus_sign,,,50,,,1,,,,,,,1,,,,,,,,,
null,,color_black3,738759,,,,,,,,black_plus_sign,,,null,,,,,,,,,,,,,,,,,,,
null,,learn_phase(without_color)3,742263,,,,,,,,black_plus_sign,,,null,object_15a.png,object_15b.png,,,,,,,,,,,,,,,,,
null,,black_cross(without_color)3,743226,,,,,,,,green,,,null,object_15a.png,object_15b.png,,,,,,,,,,,,,,,,,
null,,rt_plussign_withcolor3,743738,,,,,,,,green,,,null,object_15a.png,object_15b.png,,,,,,,,,,,,,,,,,
1342,,rt_thecrossant_black3,744788,,,,,,,,black_plus_sign,,,50,,,1,,,,,,,1,,,,,,,,,
null,,color_black3,744902,,,,,,,,black_plus_sign,,,null,,,,,,,,,,,,,,,,,,,
null,,thebreak,745008,,,,,,,,<p></p>,,,null,,,,,,,,,,,,,,,,,,,
2426,,intro_0,747434,,,,,,,,instruct,,,32,,,,,,,,,,,,,,,,,,,
4048,,directmemory_phase3,751482,,,,,,,,object_07a.png,,,50,,,0,,object_10c.png,object_13b.png,object_09b.png,object_10c.png,,0.45161290322580644,0,,,,,,,,
2477,,directmemory_phase3,753962,,,,,,,,object_02c.png,,,49,,,1,,object_02b.png,object_10b.png,object_14c.png,object_02b.png,,0.46875,1,,,,,,,,
4981,,directmemory_phase3,758946,,,,,,,,object_14c.png,,,49,,,0,,object_02b.png,object_08b.png,object_11c.png,object_11c.png,,0.45454545454545453,0,,,,,,,,
4430,,directmemory_phase3,763378,,,,,,,,object_12c.png,,,50,,,0,,object_01c.png,object_13a.png,object_13b.png,object_13b.png,,0.4411764705882353,0,,,,,,,,
4423,,directmemory_phase3,767802,,,,,,,,object_06b.png,,,51,,,1,,object_05c.png,object_05a.png,object_06c.png,object_06c.png,,0.45714285714285713,1,,,,,,,,
3918,,directmemory_phase3,771721,,,,,,,,object_03b.png,,,50,,,1,,object_09b.png,object_01c.png,object_10c.png,object_01c.png,,0.4722222222222222,1,,,,,,,,
2693,,directmemory_phase3,774417,,,,,,,,object_13c.png,,,50,,,0,,object_02a.png,object_10b.png,object_02c.png,object_02a.png,,0.4594594594594595,0,,,,,,,,
4381,,directmemory_phase3,778801,,,,,,,,object_11b.png,,,51,,,1,,object_11c.png,object_06b.png,object_10a.png,object_10a.png,,0.47368421052631576,1,,,,,,,,
3677,,directmemory_phase3,782481,,,,,,,,object_01a.png,,,51,,,1,,object_10c.png,object_13c.png,object_14b.png,object_14b.png,,0.48717948717948717,1,,,,,,,,
1663,,directmemory_phase3,784146,,,,,,,,object_13a.png,,,50,,,1,,object_05a.png,object_14a.png,object_05c.png,object_14a.png,,0.5,1,,,,,,,,
2446,,directmemory_phase3,786593,,,,,,,,object_05a.png,,,49,,,1,,object_05c.png,object_10c.png,object_06b.png,object_05c.png,,0.5121951219512195,1,,,,,,,,
1926,,directmemory_phase3,788522,,,,,,,,object_08b.png,,,50,,,1,,object_03b.png,object_09c.png,object_13b.png,object_09c.png,,0.5238095238095238,1,,,,,,,,
2654,,directmemory_phase3,791178,,,,,,,,object_09b.png,,,50,,,1,,object_15a.png,object_10b.png,object_10c.png,object_10b.png,,0.5348837209302325,1,,,,,,,,
3534,,directmemory_phase3,794713,,,,,,,,object_04c.png,,,51,,,1,,object_02b.png,object_01a.png,object_04a.png,object_04a.png,,0.5454545454545454,1,,,,,,,,
5399,,directmemory_phase3,800113,,,,,,,,object_15a.png,,,49,,,1,,object_15b.png,object_04a.png,object_05a.png,object_15b.png,,0.5555555555555556,1,,,,,,,,
null,,thebreak,800227,,,,,,,,<p></p>,,,null,,,,,,,,,,,,,,,,,,,
3446,,intro_0,803673,,,,,,,,instruct,,,32,,,,,,,,,,,,,,,,,,,
null,,learn_phase(without_color)4,807182,,,,,,,,black_plus_sign,,,null,object_06c.png,object_06b.png,,,,,,,,,,,,,,,,,
null,,black_cross(without_color)4,807780,,,,,,,,blue,,,null,object_06c.png,object_06b.png,,,,,,,,,,,,,,,,,
null,,rt_plussign_withcolor4,808295,,,,,,,,blue,,,null,object_06c.png,object_06b.png,,,,,,,,,,,,,,,,,
832,,rt_thecrossant_black4,809711,,,,,,,,black_plus_sign,,,49,,,1,,,,,,,1,,,,,,,,,
null,,color_black4,809816,,,,,,,,black_plus_sign,,,null,,,,,,,,,,,,,,,,,,,
null,,learn_phase(without_color)4,813328,,,,,,,,black_plus_sign,,,null,object_09b.png,object_10b.png,,,,,,,,,,,,,,,,,
null,,black_cross(without_color)4,814424,,,,,,,,green,,,null,object_09b.png,object_10b.png,,,,,,,,,,,,,,,,,
null,,rt_plussign_withcolor4,814939,,,,,,,,green,,,null,object_09b.png,object_10b.png,,,,,,,,,,,,,,,,,
907,,rt_thecrossant_black4,815870,,,,,,,,black_plus_sign,,,50,,,1,,,,,,,1,,,,,,,,,
null,,color_black4,815983,,,,,,,,black_plus_sign,,,null,,,,,,,,,,,,,,,,,,,
null,,learn_phase(without_color)4,819496,,,,,,,,black_plus_sign,,,null,object_15a.png,object_15b.png,,,,,,,,,,,,,,,,,
null,,black_cross(without_color)4,820509,,,,,,,,green,,,null,object_15a.png,object_15b.png,,,,,,,,,,,,,,,,,
null,,rt_plussign_withcolor4,821023,,,,,,,,green,,,null,object_15a.png,object_15b.png,,,,,,,,,,,,,,,,,
1475,,rt_thecrossant_black4,822038,,,,,,,,black_plus_sign,,,50,,,1,,,,,,,1,,,,,,,,,
null,,color_black4,822149,,,,,,,,black_plus_sign,,,null,,,,,,,,,,,,,,,,,,,
null,,learn_phase(without_color)4,825664,,,,,,,,black_plus_sign,,,null,object_07a.png,object_10c.png,,,,,,,,,,,,,,,,,
null,,black_cross(without_color)4,826544,,,,,,,,green,,,null,object_07a.png,object_10c.png,,,,,,,,,,,,,,,,,
null,,rt_plussign_withcolor4,827056,,,,,,,,green,,,null,object_07a.png,object_10c.png,,,,,,,,,,,,,,,,,
1326,,rt_thecrossant_black4,828199,,,,,,,,black_plus_sign,,,50,,,1,,,,,,,1,,,,,,,,,
null,,color_black4,828311,,,,,,,,black_plus_sign,,,null,,,,,,,,,,,,,,,,,,,
null,,learn_phase(without_color)4,831815,,,,,,,,black_plus_sign,,,null,object_01c.png,object_03b.png,,,,,,,,,,,,,,,,,
null,,black_cross(without_color)4,832361,,,,,,,,blue,,,null,object_01c.png,object_03b.png,,,,,,,,,,,,,,,,,
null,,rt_plussign_withcolor4,832874,,,,,,,,blue,,,null,object_01c.png,object_03b.png,,,,,,,,,,,,,,,,,
1131,,rt_thecrossant_black4,834338,,,,,,,,black_plus_sign,,,49,,,1,,,,,,,1,,,,,,,,,
null,,color_black4,834451,,,,,,,,black_plus_sign,,,null,,,,,,,,,,,,,,,,,,,
null,,learn_phase(without_color)4,837966,,,,,,,,black_plus_sign,,,null,object_11c.png,object_14c.png,,,,,,,,,,,,,,,,,
null,,black_cross(without_color)4,838832,,,,,,,,green,,,null,object_11c.png,object_14c.png,,,,,,,,,,,,,,,,,
null,,rt_plussign_withcolor4,839344,,,,,,,,green,,,null,object_11c.png,object_14c.png,,,,,,,,,,,,,,,,,
924,,rt_thecrossant_black4,840499,,,,,,,,black_plus_sign,,,50,,,1,,,,,,,1,,,,,,,,,
null,,color_black4,840609,,,,,,,,black_plus_sign,,,null,,,,,,,,,,,,,,,,,,,
null,,learn_phase(without_color)4,844125,,,,,,,,black_plus_sign,,,null,object_14b.png,object_01a.png,,,,,,,,,,,,,,,,,
null,,black_cross(without_color)4,845139,,,,,,,,blue,,,null,object_14b.png,object_01a.png,,,,,,,,,,,,,,,,,
null,,rt_plussign_withcolor4,845653,,,,,,,,blue,,,null,object_14b.png,object_01a.png,,,,,,,,,,,,,,,,,
1105,,rt_thecrossant_black4,846665,,,,,,,,black_plus_sign,,,49,,,1,,,,,,,1,,,,,,,,,
null,,color_black4,846776,,,,,,,,black_plus_sign,,,null,,,,,,,,,,,,,,,,,,,
null,,learn_phase(without_color)4,850288,,,,,,,,black_plus_sign,,,null,object_02a.png,object_13c.png,,,,,,,,,,,,,,,,,
null,,black_cross(without_color)4,850836,,,,,,,,green,,,null,object_02a.png,object_13c.png,,,,,,,,,,,,,,,,,
null,,rt_plussign_withcolor4,851349,,,,,,,,green,,,null,object_02a.png,object_13c.png,,,,,,,,,,,,,,,,,
1288,,rt_thecrossant_black4,852810,,,,,,,,black_plus_sign,,,50,,,1,,,,,,,1,,,,,,,,,
null,,color_black4,852923,,,,,,,,black_plus_sign,,,null,,,,,,,,,,,,,,,,,,,
null,,learn_phase(without_color)4,856425,,,,,,,,black_plus_sign,,,null,object_09c.png,object_08b.png,,,,,,,,,,,,,,,,,
null,,black_cross(without_color)4,857388,,,,,,,,green,,,null,object_09c.png,object_08b.png,,,,,,,,,,,,,,,,,
null,,rt_plussign_withcolor4,857891,,,,,,,,green,,,null,object_09c.png,object_08b.png,,,,,,,,,,,,,,,,,
815,,rt_thecrossant_black4,858942,,,,,,,,black_plus_sign,,,50,,,1,,,,,,,1,,,,,,,,,
null,,color_black4,859053,,,,,,,,black_plus_sign,,,null,,,,,,,,,,,,,,,,,,,
null,,learn_phase(without_color)4,862557,,,,,,,,black_plus_sign,,,null,object_11b.png,object_10a.png,,,,,,,,,,,,,,,,,
null,,black_cross(without_color)4,863631,,,,,,,,blue,,,null,object_11b.png,object_10a.png,,,,,,,,,,,,,,,,,
null,,rt_plussign_withcolor4,864144,,,,,,,,blue,,,null,object_11b.png,object_10a.png,,,,,,,,,,,,,,,,,
1140,,rt_thecrossant_black4,865089,,,,,,,,black_plus_sign,,,49,,,1,,,,,,,1,,,,,,,,,
null,,color_black4,865202,,,,,,,,black_plus_sign,,,null,,,,,,,,,,,,,,,,,,,
null,,learn_phase(without_color)4,868710,,,,,,,,black_plus_sign,,,null,object_02b.png,object_02c.png,,,,,,,,,,,,,,,,,
null,,black_cross(without_color)4,869686,,,,,,,,blue,,,null,object_02b.png,object_02c.png,,,,,,,,,,,,,,,,,
null,,rt_plussign_withcolor4,870197,,,,,,,,blue,,,null,object_02b.png,object_02c.png,,,,,,,,,,,,,,,,,
1785,,rt_thecrossant_black4,871234,,,,,,,,black_plus_sign,,,49,,,1,,,,,,,1,,,,,,,,,
null,,color_black4,871347,,,,,,,,black_plus_sign,,,null,,,,,,,,,,,,,,,,,,,
null,,learn_phase(without_color)4,874863,,,,,,,,black_plus_sign,,,null,object_05a.png,object_05c.png,,,,,,,,,,,,,,,,,
null,,black_cross(without_color)4,875363,,,,,,,,blue,,,null,object_05a.png,object_05c.png,,,,,,,,,,,,,,,,,
null,,rt_plussign_withcolor4,875866,,,,,,,,blue,,,null,object_05a.png,object_05c.png,,,,,,,,,,,,,,,,,
1659,,rt_thecrossant_black4,877379,,,,,,,,black_plus_sign,,,49,,,1,,,,,,,1,,,,,,,,,
null,,color_black4,877487,,,,,,,,black_plus_sign,,,null,,,,,,,,,,,,,,,,,,,
null,,learn_phase(without_color)4,880997,,,,,,,,black_plus_sign,,,null,object_14a.png,object_13a.png,,,,,,,,,,,,,,,,,
null,,black_cross(without_color)4,881567,,,,,,,,green,,,null,object_14a.png,object_13a.png,,,,,,,,,,,,,,,,,
null,,rt_plussign_withcolor4,882072,,,,,,,,green,,,null,object_14a.png,object_13a.png,,,,,,,,,,,,,,,,,
722,,rt_thecrossant_black4,883566,,,,,,,,black_plus_sign,,,50,,,1,,,,,,,1,,,,,,,,,
null,,color_black4,883676,,,,,,,,black_plus_sign,,,null,,,,,,,,,,,,,,,,,,,
null,,learn_phase(without_color)4,887180,,,,,,,,black_plus_sign,,,null,object_12c.png,object_13b.png,,,,,,,,,,,,,,,,,
null,,black_cross(without_color)4,887898,,,,,,,,blue,,,null,object_12c.png,object_13b.png,,,,,,,,,,,,,,,,,
null,,rt_plussign_withcolor4,888405,,,,,,,,blue,,,null,object_12c.png,object_13b.png,,,,,,,,,,,,,,,,,
706,,rt_thecrossant_black4,889708,,,,,,,,black_plus_sign,,,49,,,1,,,,,,,1,,,,,,,,,
null,,color_black4,889819,,,,,,,,black_plus_sign,,,null,,,,,,,,,,,,,,,,,,,
null,,learn_phase(without_color)4,893323,,,,,,,,black_plus_sign,,,null,object_04c.png,object_04a.png,,,,,,,,,,,,,,,,,
null,,black_cross(without_color)4,893880,,,,,,,,blue,,,null,object_04c.png,object_04a.png,,,,,,,,,,,,,,,,,
null,,rt_plussign_withcolor4,894393,,,,,,,,blue,,,null,object_04c.png,object_04a.png,,,,,,,,,,,,,,,,,
2098,,rt_thecrossant_black4,895845,,,,,,,,black_plus_sign,,,49,,,1,,,,,,,1,,,,,,,,,
null,,color_black4,895957,,,,,,,,black_plus_sign,,,null,,,,,,,,,,,,,,,,,,,
null,,thebreak,896070,,,,,,,,<p></p>,,,null,,,,,,,,,,,,,,,,,,,
2058,,intro_0,898129,,,,,,,,instruct,,,32,,,,,,,,,,,,,,,,,,,
2449,,directmemory_phase4,900577,,,,,,,,object_13a.png,,,50,,,1,,object_01a.png,object_14a.png,object_10c.png,object_14a.png,,0.5652173913043478,1,,,,,,,,
3782,,directmemory_phase4,904361,,,,,,,,object_12c.png,,,49,,,1,,object_13b.png,object_14a.png,object_04c.png,object_13b.png,,0.574468085106383,1,,,,,,,,
3877,,directmemory_phase4,908241,,,,,,,,object_08b.png,,,49,,,1,,object_09c.png,object_02a.png,object_06b.png,object_09c.png,,0.5833333333333334,1,,,,,,,,
2037,,directmemory_phase4,910281,,,,,,,,object_05a.png,,,50,,,1,,object_06b.png,object_05c.png,object_09c.png,object_05c.png,,0.5918367346938775,1,,,,,,,,
5662,,directmemory_phase4,915946,,,,,,,,object_15a.png,,,49,,,1,,object_15b.png,object_02a.png,object_05a.png,object_15b.png,,0.6,1,,,,,,,,
1924,,directmemory_phase4,917874,,,,,,,,object_11b.png,,,49,,,1,,object_10a.png,object_02a.png,object_01a.png,object_10a.png,,0.6078431372549019,1,,,,,,,,
2141,,directmemory_phase4,920018,,,,,,,,object_13c.png,,,50,,,0,,object_10b.png,object_02c.png,object_02a.png,object_02a.png,,0.5961538461538461,0,,,,,,,,
4958,,directmemory_phase4,924977,,,,,,,,object_14c.png,,,50,,,1,,object_15a.png,object_11c.png,object_02b.png,object_11c.png,,0.6037735849056604,1,,,,,,,,
2156,,directmemory_phase4,927136,,,,,,,,object_02c.png,,,51,,,1,,object_13b.png,object_03b.png,object_02b.png,object_02b.png,,0.6111111111111112,1,,,,,,,,
2205,,directmemory_phase4,929346,,,,,,,,object_07a.png,,,49,,,1,,object_10c.png,object_01c.png,object_03b.png,object_10c.png,,0.6181818181818182,1,,,,,,,,
3893,,directmemory_phase4,933242,,,,,,,,object_06b.png,,,51,,,1,,object_14a.png,object_01a.png,object_06c.png,object_06c.png,,0.625,1,,,,,,,,
2589,,directmemory_phase4,935834,,,,,,,,object_09b.png,,,51,,,1,,object_14b.png,object_04c.png,object_10b.png,object_10b.png,,0.631578947368421,1,,,,,,,,
2950,,directmemory_phase4,938785,,,,,,,,object_04c.png,,,50,,,1,,object_09b.png,object_04a.png,object_05c.png,object_04a.png,,0.6379310344827587,1,,,,,,,,
3118,,directmemory_phase4,941906,,,,,,,,object_03b.png,,,49,,,1,,object_01c.png,object_04a.png,object_13a.png,object_01c.png,,0.6440677966101694,1,,,,,,,,
4293,,directmemory_phase4,946201,,,,,,,,object_01a.png,,,49,,,1,,object_14b.png,object_11c.png,object_14c.png,object_14b.png,,0.65,1,,,,,,,,
null,,thebreak,946305,,,,,,,,<p></p>,,,null,,,,,,,,,,,,,,,,,,,
2376,,intro_0,948682,,,,,,,,instruct,,,32,,,,,,,,,,,,,,,,,,,
null,,learn_phase(without_color)5,952192,,,,,,,,black_plus_sign,,,null,object_06a.png,object_05c.png,,,,,,,,,,,,,,,,,
null,,black_cross(without_color)5,952625,,,,,,,,green,,,null,object_06a.png,object_05c.png,,,,,,,,,,,,,,,,,
null,,rt_plussign_withcolor5,953141,,,,,,,,green,,,null,object_06a.png,object_05c.png,,,,,,,,,,,,,,,,,
885,,rt_thecrossant_black5,954736,,,,,,,,black_plus_sign,,,50,,,1,,,,,,,1,,,,,,,,,
null,,color_black5,954849,,,,,,,,black_plus_sign,,,null,,,,,,,,,,,,,,,,,,,
null,,learn_phase(without_color)5,958367,,,,,,,,black_plus_sign,,,null,object_01c.png,object_04b.png,,,,,,,,,,,,,,,,,
null,,black_cross(without_color)5,959074,,,,,,,,blue,,,null,object_01c.png,object_04b.png,,,,,,,,,,,,,,,,,
null,,rt_plussign_withcolor5,959587,,,,,,,,blue,,,null,object_01c.png,object_04b.png,,,,,,,,,,,,,,,,,
822,,rt_thecrossant_black5,960904,,,,,,,,black_plus_sign,,,49,,,1,,,,,,,1,,,,,,,,,
null,,color_black5,961017,,,,,,,,black_plus_sign,,,null,,,,,,,,,,,,,,,,,,,
null,,learn_phase(without_color)5,964523,,,,,,,,black_plus_sign,,,null,object_02b.png,object_15c.png,,,,,,,,,,,,,,,,,
null,,black_cross(without_color)5,964938,,,,,,,,blue,,,null,object_02b.png,object_15c.png,,,,,,,,,,,,,,,,,
null,,rt_plussign_withcolor5,965451,,,,,,,,blue,,,null,object_02b.png,object_15c.png,,,,,,,,,,,,,,,,,
1030,,rt_thecrossant_black5,967059,,,,,,,,black_plus_sign,,,49,,,1,,,,,,,1,,,,,,,,,
null,,color_black5,967171,,,,,,,,black_plus_sign,,,null,,,,,,,,,,,,,,,,,,,
null,,learn_phase(without_color)5,970678,,,,,,,,black_plus_sign,,,null,object_01b.png,object_02a.png,,,,,,,,,,,,,,,,,
null,,black_cross(without_color)5,971657,,,,,,,,blue,,,null,object_01b.png,object_02a.png,,,,,,,,,,,,,,,,,
null,,rt_plussign_withcolor5,972171,,,,,,,,blue,,,null,object_01b.png,object_02a.png,,,,,,,,,,,,,,,,,
690,,rt_thecrossant_black5,973212,,,,,,,,black_plus_sign,,,49,,,1,,,,,,,1,,,,,,,,,
null,,color_black5,973324,,,,,,,,black_plus_sign,,,null,,,,,,,,,,,,,,,,,,,
null,,learn_phase(without_color)5,976836,,,,,,,,black_plus_sign,,,null,object_08a.png,object_10c.png,,,,,,,,,,,,,,,,,
null,,black_cross(without_color)5,977726,,,,,,,,blue,,,null,object_08a.png,object_10c.png,,,,,,,,,,,,,,,,,
null,,rt_plussign_withcolor5,978264,,,,,,,,blue,,,null,object_08a.png,object_10c.png,,,,,,,,,,,,,,,,,
1289,,rt_thecrossant_black5,979400,,,,,,,,black_plus_sign,,,49,,,1,,,,,,,1,,,,,,,,,
null,,color_black5,979508,,,,,,,,black_plus_sign,,,null,,,,,,,,,,,,,,,,,,,
null,,learn_phase(without_color)5,983018,,,,,,,,black_plus_sign,,,null,object_03a.png,object_11c.png,,,,,,,,,,,,,,,,,
null,,black_cross(without_color)5,983873,,,,,,,,green,,,null,object_03a.png,object_11c.png,,,,,,,,,,,,,,,,,
null,,rt_plussign_withcolor5,984382,,,,,,,,green,,,null,object_03a.png,object_11c.png,,,,,,,,,,,,,,,,,
1117,,rt_thecrossant_black5,985545,,,,,,,,black_plus_sign,,,50,,,1,,,,,,,1,,,,,,,,,
null,,color_black5,985655,,,,,,,,black_plus_sign,,,null,,,,,,,,,,,,,,,,,,,
null,,learn_phase(without_color)5,989167,,,,,,,,black_plus_sign,,,null,object_07c.png,object_04a.png,,,,,,,,,,,,,,,,,
null,,black_cross(without_color)5,989686,,,,,,,,green,,,null,object_07c.png,object_04a.png,,,,,,,,,,,,,,,,,
null,,rt_plussign_withcolor5,990199,,,,,,,,green,,,null,object_07c.png,object_04a.png,,,,,,,,,,,,,,,,,
1332,,rt_thecrossant_black5,991697,,,,,,,,black_plus_sign,,,50,,,1,,,,,,,1,,,,,,,,,
null,,color_black5,991808,,,,,,,,black_plus_sign,,,null,,,,,,,,,,,,,,,,,,,
null,,learn_phase(without_color)5,995311,,,,,,,,black_plus_sign,,,null,object_15b.png,object_12b.png,,,,,,,,,,,,,,,,,
null,,black_cross(without_color)5,996226,,,,,,,,blue,,,null,object_15b.png,object_12b.png,,,,,,,,,,,,,,,,,
null,,rt_plussign_withcolor5,996728,,,,,,,,blue,,,null,object_15b.png,object_12b.png,,,,,,,,,,,,,,,,,
838,,rt_thecrossant_black5,997840,,,,,,,,black_plus_sign,,,49,,,1,,,,,,,1,,,,,,,,,
null,,color_black5,997953,,,,,,,,black_plus_sign,,,null,,,,,,,,,,,,,,,,,,,
null,,learn_phase(without_color)5,1001471,,,,,,,,black_plus_sign,,,null,object_09c.png,object_07b.png,,,,,,,,,,,,,,,,,
null,,black_cross(without_color)5,1002450,,,,,,,,green,,,null,object_09c.png,object_07b.png,,,,,,,,,,,,,,,,,
null,,rt_plussign_withcolor5,1002965,,,,,,,,green,,,null,object_09c.png,object_07b.png,,,,,,,,,,,,,,,,,
1217,,rt_thecrossant_black5,1004009,,,,,,,,black_plus_sign,,,50,,,1,,,,,,,1,,,,,,,,,
null,,color_black5,1004121,,,,,,,,black_plus_sign,,,null,,,,,,,,,,,,,,,,,,,
null,,learn_phase(without_color)5,1007629,,,,,,,,black_plus_sign,,,null,object_05b.png,object_13b.png,,,,,,,,,,,,,,,,,
null,,black_cross(without_color)5,1008128,,,,,,,,green,,,null,object_05b.png,object_13b.png,,,,,,,,,,,,,,,,,
null,,rt_plussign_withcolor5,1008644,,,,,,,,green,,,null,object_05b.png,object_13b.png,,,,,,,,,,,,,,,,,
1468,,rt_thecrossant_black5,1010169,,,,,,,,black_plus_sign,,,50,,,1,,,,,,,1,,,,,,,,,
null,,color_black5,1010282,,,,,,,,black_plus_sign,,,null,,,,,,,,,,,,,,,,,,,
null,,learn_phase(without_color)5,1013798,,,,,,,,black_plus_sign,,,null,object_08c.png,object_10a.png,,,,,,,,,,,,,,,,,
null,,black_cross(without_color)5,1014599,,,,,,,,blue,,,null,object_08c.png,object_10a.png,,,,,,,,,,,,,,,,,
null,,rt_plussign_withcolor5,1015111,,,,,,,,blue,,,null,object_08c.png,object_10a.png,,,,,,,,,,,,,,,,,
1018,,rt_thecrossant_black5,1016331,,,,,,,,black_plus_sign,,,49,,,1,,,,,,,1,,,,,,,,,
null,,color_black5,1016443,,,,,,,,black_plus_sign,,,null,,,,,,,,,,,,,,,,,,,
null,,learn_phase(without_color)5,1019947,,,,,,,,black_plus_sign,,,null,object_11a.png,object_06c.png,,,,,,,,,,,,,,,,,
null,,black_cross(without_color)5,1020762,,,,,,,,blue,,,null,object_11a.png,object_06c.png,,,,,,,,,,,,,,,,,
null,,rt_plussign_withcolor5,1021275,,,,,,,,blue,,,null,object_11a.png,object_06c.png,,,,,,,,,,,,,,,,,
1320,,rt_thecrossant_black5,1022479,,,,,,,,black_plus_sign,,,49,,,1,,,,,,,1,,,,,,,,,
null,,color_black5,1022591,,,,,,,,black_plus_sign,,,null,,,,,,,,,,,,,,,,,,,
null,,learn_phase(without_color)5,1026109,,,,,,,,black_plus_sign,,,null,object_14a.png,object_03c.png,,,,,,,,,,,,,,,,,
null,,black_cross(without_color)5,1027027,,,,,,,,blue,,,null,object_14a.png,object_03c.png,,,,,,,,,,,,,,,,,
null,,rt_plussign_withcolor5,1027539,,,,,,,,blue,,,null,object_14a.png,object_03c.png,,,,,,,,,,,,,,,,,
1318,,rt_thecrossant_black5,1028647,,,,,,,,black_plus_sign,,,49,,,1,,,,,,,1,,,,,,,,,
null,,color_black5,1028759,,,,,,,,black_plus_sign,,,null,,,,,,,,,,,,,,,,,,,
null,,learn_phase(without_color)5,1032262,,,,,,,,black_plus_sign,,,null,object_09a.png,object_10b.png,,,,,,,,,,,,,,,,,
null,,black_cross(without_color)5,1033190,,,,,,,,green,,,null,object_09a.png,object_10b.png,,,,,,,,,,,,,,,,,
467,,rt_plussign_withcolor5,1033707,,,,,,,,green,,,50,object_09a.png,object_10b.png,,,,,,,,,,,,,,,,,
null,,rt_thecrossant_black5,1034800,,,,,,,,black_plus_sign,,,null,,,1,,,,,,,1,,,,,,,,,
null,,color_black5,1034914,,,,,,,,black_plus_sign,,,null,,,,,,,,,,,,,,,,,,,
null,,learn_phase(without_color)5,1038431,,,,,,,,black_plus_sign,,,null,object_12a.png,object_14b.png,,,,,,,,,,,,,,,,,
null,,black_cross(without_color)5,1039460,,,,,,,,green,,,null,object_12a.png,object_14b.png,,,,,,,,,,,,,,,,,
null,,rt_plussign_withcolor5,1039973,,,,,,,,green,,,null,object_12a.png,object_14b.png,,,,,,,,,,,,,,,,,
1147,,rt_thecrossant_black5,1040969,,,,,,,,black_plus_sign,,,50,,,1,,,,,,,1,,,,,,,,,
null,,color_black5,1041082,,,,,,,,black_plus_sign,,,null,,,,,,,,,,,,,,,,,,,
null,,thebreak,1041194,,,,,,,,<p></p>,,,null,,,,,,,,,,,,,,,,,,,
3334,,intro_0,1044530,,,,,,,,instruct,,,32,,,,,,,,,,,,,,,,,,,
3903,,directmemory_phase5,1048433,,,,,,,,object_04a.png,,,51,,,0,,object_14a.png,object_07c.png,object_03c.png,object_07c.png,,0.639344262295082,0,,,,,,,,
3973,,directmemory_phase5,1052410,,,,,,,,object_09c.png,,,49,,,1,,object_07b.png,object_01b.png,object_10b.png,object_07b.png,,0.6451612903225806,1,,,,,,,,
5422,,directmemory_phase5,1057834,,,,,,,,object_10a.png,,,51,,,1,,object_01b.png,object_06c.png,object_08c.png,object_08c.png,,0.6507936507936508,1,,,,,,,,
2742,,directmemory_phase5,1060577,,,,,,,,object_10b.png,,,51,,,1,,object_07b.png,object_14a.png,object_09a.png,object_09a.png,,0.65625,1,,,,,,,,
5333,,directmemory_phase5,1065914,,,,,,,,object_06a.png,,,51,,,1,,object_04a.png,object_01b.png,object_05c.png,object_05c.png,,0.6615384615384615,1,,,,,,,,
3998,,directmemory_phase5,1069914,,,,,,,,object_02a.png,,,51,,,1,,object_07c.png,object_14b.png,object_01b.png,object_01b.png,,0.6666666666666666,1,,,,,,,,
2894,,directmemory_phase5,1072810,,,,,,,,object_04b.png,,,51,,,0,,object_08a.png,object_01c.png,object_02b.png,object_01c.png,,0.6567164179104478,0,,,,,,,,
4133,,directmemory_phase5,1076946,,,,,,,,object_12b.png,,,49,,,1,,object_15b.png,object_14b.png,object_08a.png,object_15b.png,,0.6617647058823529,1,,,,,,,,
3413,,directmemory_phase5,1080362,,,,,,,,object_11a.png,,,50,,,0,,object_01c.png,object_09a.png,object_06c.png,object_06c.png,,0.6521739130434783,0,,,,,,,,
5271,,directmemory_phase5,1085633,,,,,,,,object_15c.png,,,49,,,0,,object_09c.png,object_03c.png,object_02b.png,object_02b.png,,0.6428571428571429,0,,,,,,,,
3213,,directmemory_phase5,1088850,,,,,,,,object_03a.png,,,50,,,1,,object_11a.png,object_11c.png,object_09c.png,object_11c.png,,0.647887323943662,1,,,,,,,,
4214,,directmemory_phase5,1093067,,,,,,,,object_08a.png,,,49,,,0,,object_13b.png,object_03c.png,object_10c.png,object_10c.png,,0.6388888888888888,0,,,,,,,,
4550,,directmemory_phase5,1097617,,,,,,,,object_03c.png,,,49,,,1,,object_14a.png,object_13b.png,object_01b.png,object_14a.png,,0.6438356164383562,1,,,,,,,,
2566,,directmemory_phase5,1100185,,,,,,,,object_05b.png,,,49,,,0,,object_03a.png,object_13b.png,object_10c.png,object_13b.png,,0.6351351351351351,0,,,,,,,,
3724,,directmemory_phase5,1103913,,,,,,,,object_12a.png,,,51,,,1,,object_11c.png,object_04b.png,object_14b.png,object_14b.png,,0.64,1,,,,,,,,
null,,thebreak,1104017,,,,,,,,<p></p>,,,null,,,,,,,,,,,,,,,,,,,
4798,,intro_0,1108818,,,,,,,,instruct,,,32,,,,,,,,,,,,,,,,,,,
null,,learn_phase(without_color)6,1112322,,,,,,,,black_plus_sign,,,null,object_07c.png,object_04a.png,,,,,,,,,,,,,,,,,
null,,black_cross(without_color)6,1112935,,,,,,,,blue,,,null,object_07c.png,object_04a.png,,,,,,,,,,,,,,,,,
null,,rt_plussign_withcolor6,1113438,,,,,,,,blue,,,null,object_07c.png,object_04a.png,,,,,,,,,,,,,,,,,
985,,rt_thecrossant_black6,1114850,,,,,,,,black_plus_sign,,,49,,,1,,,,,,,1,,,,,,,,,
null,,color_black6,1114959,,,,,,,,black_plus_sign,,,null,,,,,,,,,,,,,,,,,,,
null,,learn_phase(without_color)6,1118474,,,,,,,,black_plus_sign,,,null,object_14a.png,object_03c.png,,,,,,,,,,,,,,,,,
null,,black_cross(without_color)6,1119448,,,,,,,,green,,,null,object_14a.png,object_03c.png,,,,,,,,,,,,,,,,,
null,,rt_plussign_withcolor6,1119953,,,,,,,,green,,,null,object_14a.png,object_03c.png,,,,,,,,,,,,,,,,,
871,,rt_thecrossant_black6,1120991,,,,,,,,black_plus_sign,,,50,,,1,,,,,,,1,,,,,,,,,
null,,color_black6,1121100,,,,,,,,black_plus_sign,,,null,,,,,,,,,,,,,,,,,,,
null,,learn_phase(without_color)6,1124610,,,,,,,,black_plus_sign,,,null,object_13b.png,object_05b.png,,,,,,,,,,,,,,,,,
null,,black_cross(without_color)6,1125270,,,,,,,,green,,,null,object_13b.png,object_05b.png,,,,,,,,,,,,,,,,,
null,,rt_plussign_withcolor6,1125775,,,,,,,,green,,,null,object_13b.png,object_05b.png,,,,,,,,,,,,,,,,,
1325,,rt_thecrossant_black6,1127131,,,,,,,,black_plus_sign,,,50,,,1,,,,,,,1,,,,,,,,,
null,,color_black6,1127242,,,,,,,,black_plus_sign,,,null,,,,,,,,,,,,,,,,,,,
null,,learn_phase(without_color)6,1130745,,,,,,,,black_plus_sign,,,null,object_02b.png,object_15c.png,,,,,,,,,,,,,,,,,
null,,black_cross(without_color)6,1131757,,,,,,,,green,,,null,object_02b.png,object_15c.png,,,,,,,,,,,,,,,,,
null,,rt_plussign_withcolor6,1132269,,,,,,,,green,,,null,object_02b.png,object_15c.png,,,,,,,,,,,,,,,,,
886,,rt_thecrossant_black6,1133280,,,,,,,,black_plus_sign,,,50,,,1,,,,,,,1,,,,,,,,,
null,,color_black6,1133393,,,,,,,,black_plus_sign,,,null,,,,,,,,,,,,,,,,,,,
null,,learn_phase(without_color)6,1136899,,,,,,,,black_plus_sign,,,null,object_12a.png,object_14b.png,,,,,,,,,,,,,,,,,
null,,black_cross(without_color)6,1137862,,,,,,,,green,,,null,object_12a.png,object_14b.png,,,,,,,,,,,,,,,,,
null,,rt_plussign_withcolor6,1138375,,,,,,,,green,,,null,object_12a.png,object_14b.png,,,,,,,,,,,,,,,,,
1306,,rt_thecrossant_black6,1139437,,,,,,,,black_plus_sign,,,50,,,1,,,,,,,1,,,,,,,,,
null,,color_black6,1139550,,,,,,,,black_plus_sign,,,null,,,,,,,,,,,,,,,,,,,
null,,learn_phase(without_color)6,1143065,,,,,,,,black_plus_sign,,,null,object_11c.png,object_03a.png,,,,,,,,,,,,,,,,,
null,,black_cross(without_color)6,1144109,,,,,,,,blue,,,null,object_11c.png,object_03a.png,,,,,,,,,,,,,,,,,
null,,rt_plussign_withcolor6,1144626,,,,,,,,blue,,,null,object_11c.png,object_03a.png,,,,,,,,,,,,,,,,,
1068,,rt_thecrossant_black6,1145605,,,,,,,,black_plus_sign,,,49,,,1,,,,,,,1,,,,,,,,,
null,,color_black6,1145717,,,,,,,,black_plus_sign,,,null,,,,,,,,,,,,,,,,,,,
null,,learn_phase(without_color)6,1149227,,,,,,,,black_plus_sign,,,null,object_01b.png,object_02a.png,,,,,,,,,,,,,,,,,
null,,black_cross(without_color)6,1149709,,,,,,,,blue,,,null,object_01b.png,object_02a.png,,,,,,,,,,,,,,,,,
null,,rt_plussign_withcolor6,1150223,,,,,,,,blue,,,null,object_01b.png,object_02a.png,,,,,,,,,,,,,,,,,
1450,,rt_thecrossant_black6,1151761,,,,,,,,black_plus_sign,,,49,,,1,,,,,,,1,,,,,,,,,
null,,color_black6,1151874,,,,,,,,black_plus_sign,,,null,,,,,,,,,,,,,,,,,,,
null,,learn_phase(without_color)6,1155380,,,,,,,,black_plus_sign,,,null,object_09a.png,object_10b.png,,,,,,,,,,,,,,,,,
null,,black_cross(without_color)6,1156360,,,,,,,,green,,,null,object_09a.png,object_10b.png,,,,,,,,,,,,,,,,,
null,,rt_plussign_withcolor6,1156872,,,,,,,,green,,,null,object_09a.png,object_10b.png,,,,,,,,,,,,,,,,,
689,,rt_thecrossant_black6,1157949,,,,,,,,black_plus_sign,,,50,,,1,,,,,,,1,,,,,,,,,
null,,color_black6,1158062,,,,,,,,black_plus_sign,,,null,,,,,,,,,,,,,,,,,,,
null,,learn_phase(without_color)6,1161565,,,,,,,,black_plus_sign,,,null,object_12b.png,object_15b.png,,,,,,,,,,,,,,,,,
null,,black_cross(without_color)6,1162198,,,,,,,,blue,,,null,object_12b.png,object_15b.png,,,,,,,,,,,,,,,,,
null,,rt_plussign_withcolor6,1162710,,,,,,,,blue,,,null,object_12b.png,object_15b.png,,,,,,,,,,,,,,,,,
1262,,rt_thecrossant_black6,1164150,,,,,,,,black_plus_sign,,,49,,,1,,,,,,,1,,,,,,,,,
null,,color_black6,1164264,,,,,,,,black_plus_sign,,,null,,,,,,,,,,,,,,,,,,,
null,,learn_phase(without_color)6,1167780,,,,,,,,black_plus_sign,,,null,object_04b.png,object_01c.png,,,,,,,,,,,,,,,,,
null,,black_cross(without_color)6,1168629,,,,,,,,blue,,,null,object_04b.png,object_01c.png,,,,,,,,,,,,,,,,,
null,,rt_plussign_withcolor6,1169142,,,,,,,,blue,,,null,object_04b.png,object_01c.png,,,,,,,,,,,,,,,,,
793,,rt_thecrossant_black6,1170298,,,,,,,,black_plus_sign,,,49,,,1,,,,,,,1,,,,,,,,,
null,,color_black6,1170408,,,,,,,,black_plus_sign,,,null,,,,,,,,,,,,,,,,,,,
null,,learn_phase(without_color)6,1173913,,,,,,,,black_plus_sign,,,null,object_08c.png,object_10a.png,,,,,,,,,,,,,,,,,
null,,black_cross(without_color)6,1175022,,,,,,,,blue,,,null,object_08c.png,object_10a.png,,,,,,,,,,,,,,,,,
null,,rt_plussign_withcolor6,1175537,,,,,,,,blue,,,null,object_08c.png,object_10a.png,,,,,,,,,,,,,,,,,
1016,,rt_thecrossant_black6,1176453,,,,,,,,black_plus_sign,,,49,,,1,,,,,,,1,,,,,,,,,
null,,color_black6,1176567,,,,,,,,black_plus_sign,,,null,,,,,,,,,,,,,,,,,,,
null,,learn_phase(without_color)6,1180081,,,,,,,,black_plus_sign,,,null,object_08a.png,object_10c.png,,,,,,,,,,,,,,,,,
null,,black_cross(without_color)6,1181109,,,,,,,,blue,,,null,object_08a.png,object_10c.png,,,,,,,,,,,,,,,,,
null,,rt_plussign_withcolor6,1181611,,,,,,,,blue,,,null,object_08a.png,object_10c.png,,,,,,,,,,,,,,,,,
1363,,rt_thecrossant_black6,1182609,,,,,,,,black_plus_sign,,,49,,,1,,,,,,,1,,,,,,,,,
null,,color_black6,1182722,,,,,,,,black_plus_sign,,,null,,,,,,,,,,,,,,,,,,,
null,,learn_phase(without_color)6,1186237,,,,,,,,black_plus_sign,,,null,object_06c.png,object_11a.png,,,,,,,,,,,,,,,,,
null,,black_cross(without_color)6,1187140,,,,,,,,blue,,,null,object_06c.png,object_11a.png,,,,,,,,,,,,,,,,,
null,,rt_plussign_withcolor6,1187645,,,,,,,,blue,,,null,object_06c.png,object_11a.png,,,,,,,,,,,,,,,,,
1318,,rt_thecrossant_black6,1188787,,,,,,,,black_plus_sign,,,49,,,1,,,,,,,1,,,,,,,,,
null,,color_black6,1188900,,,,,,,,black_plus_sign,,,null,,,,,,,,,,,,,,,,,,,
null,,learn_phase(without_color)6,1192403,,,,,,,,black_plus_sign,,,null,object_07b.png,object_09c.png,,,,,,,,,,,,,,,,,
null,,black_cross(without_color)6,1193317,,,,,,,,blue,,,null,object_07b.png,object_09c.png,,,,,,,,,,,,,,,,,
null,,rt_plussign_withcolor6,1193829,,,,,,,,blue,,,null,object_07b.png,object_09c.png,,,,,,,,,,,,,,,,,
1118,,rt_thecrossant_black6,1194969,,,,,,,,black_plus_sign,,,49,,,1,,,,,,,1,,,,,,,,,
null,,color_black6,1195080,,,,,,,,black_plus_sign,,,null,,,,,,,,,,,,,,,,,,,
null,,learn_phase(without_color)6,1198597,,,,,,,,black_plus_sign,,,null,object_05c.png,object_06a.png,,,,,,,,,,,,,,,,,
null,,black_cross(without_color)6,1199591,,,,,,,,blue,,,null,object_05c.png,object_06a.png,,,,,,,,,,,,,,,,,
null,,rt_plussign_withcolor6,1200103,,,,,,,,blue,,,null,object_05c.png,object_06a.png,,,,,,,,,,,,,,,,,
1262,,rt_thecrossant_black6,1201129,,,,,,,,black_plus_sign,,,49,,,1,,,,,,,1,,,,,,,,,
null,,color_black6,1201242,,,,,,,,black_plus_sign,,,null,,,,,,,,,,,,,,,,,,,
null,,thebreak,1201353,,,,,,,,<p></p>,,,null,,,,,,,,,,,,,,,,,,,
2736,,intro_0,1204090,,,,,,,,instruct,,,32,,,,,,,,,,,,,,,,,,,
3679,,directmemory_phase6,1207770,,,,,,,,object_10a.png,,,49,,,0,,object_09c.png,object_08c.png,object_05b.png,object_08c.png,,0.631578947368421,0,,,,,,,,
5358,,directmemory_phase6,1213130,,,,,,,,object_05b.png,,,51,,,0,,object_12a.png,object_13b.png,object_10c.png,object_13b.png,,0.6233766233766234,0,,,,,,,,
1974,,directmemory_phase6,1215106,,,,,,,,object_07c.png,,,51,,,1,,object_06c.png,object_03c.png,object_04a.png,object_04a.png,,0.6282051282051282,1,,,,,,,,
1638,,directmemory_phase6,1216745,,,,,,,,object_10b.png,,,49,,,1,,object_09a.png,object_07b.png,object_04a.png,object_09a.png,,0.6329113924050633,1,,,,,,,,
1749,,directmemory_phase6,1218497,,,,,,,,object_14b.png,,,50,,,1,,object_09c.png,object_12a.png,object_06a.png,object_12a.png,,0.6375,1,,,,,,,,
1654,,directmemory_phase6,1220155,,,,,,,,object_01b.png,,,49,,,1,,object_02a.png,object_15b.png,object_05b.png,object_02a.png,,0.6419753086419753,1,,,,,,,,
2685,,directmemory_phase6,1222843,,,,,,,,object_05c.png,,,49,,,1,,object_06a.png,object_08a.png,object_13b.png,object_06a.png,,0.6463414634146342,1,,,,,,,,
5398,,directmemory_phase6,1228242,,,,,,,,object_15b.png,,,51,,,0,,object_12b.png,object_11a.png,object_11c.png,object_12b.png,,0.6385542168674698,0,,,,,,,,
3662,,directmemory_phase6,1231906,,,,,,,,object_06c.png,,,51,,,1,,object_01b.png,object_13b.png,object_11a.png,object_11a.png,,0.6428571428571429,1,,,,,,,,
3908,,directmemory_phase6,1235818,,,,,,,,object_01c.png,,,49,,,0,,object_15b.png,object_04b.png,object_07b.png,object_04b.png,,0.6352941176470588,0,,,,,,,,
3150,,directmemory_phase6,1238970,,,,,,,,object_03c.png,,,50,,,1,,object_07c.png,object_14a.png,object_02b.png,object_14a.png,,0.6395348837209303,1,,,,,,,,
2453,,directmemory_phase6,1241426,,,,,,,,object_10c.png,,,49,,,1,,object_08a.png,object_05b.png,object_14b.png,object_08a.png,,0.6436781609195402,1,,,,,,,,
4909,,directmemory_phase6,1246337,,,,,,,,object_02b.png,,,49,,,1,,object_15c.png,object_05b.png,object_14b.png,object_15c.png,,0.6477272727272727,1,,,,,,,,
3854,,directmemory_phase6,1250194,,,,,,,,object_09c.png,,,49,,,1,,object_07b.png,object_09a.png,object_15b.png,object_07b.png,,0.651685393258427,1,,,,,,,,
3517,,directmemory_phase6,1253714,,,,,,,,object_11c.png,,,50,,,1,,object_06c.png,object_03a.png,object_03c.png,object_03a.png,,0.6555555555555556,1,,,,,,,,
null,,thebreak,1253823,,,,,,,,<p></p>,,,null,,,,,,,,,,,,,,,,,,,
4018,,intro_0,1257842,,,,,,,,instruct,,,32,,,,,,,,,,,,,,,,,,,
null,,learn_phase(without_color)7,1261350,,,,,,,,black_plus_sign,,,null,object_14b.png,object_12a.png,,,,,,,,,,,,,,,,,
null,,black_cross(without_color)7,1262313,,,,,,,,blue,,,null,object_14b.png,object_12a.png,,,,,,,,,,,,,,,,,
null,,rt_plussign_withcolor7,1262814,,,,,,,,blue,,,null,object_14b.png,object_12a.png,,,,,,,,,,,,,,,,,
1279,,rt_thecrossant_black7,1263857,,,,,,,,black_plus_sign,,,49,,,1,,,,,,,1,,,,,,,,,
null,,color_black7,1263968,,,,,,,,black_plus_sign,,,null,,,,,,,,,,,,,,,,,,,
null,,learn_phase(without_color)7,1267485,,,,,,,,black_plus_sign,,,null,object_06a.png,object_05c.png,,,,,,,,,,,,,,,,,
null,,black_cross(without_color)7,1268239,,,,,,,,blue,,,null,object_06a.png,object_05c.png,,,,,,,,,,,,,,,,,
null,,rt_plussign_withcolor7,1268753,,,,,,,,blue,,,null,object_06a.png,object_05c.png,,,,,,,,,,,,,,,,,
1179,,rt_thecrossant_black7,1270015,,,,,,,,black_plus_sign,,,49,,,1,,,,,,,1,,,,,,,,,
null,,color_black7,1270127,,,,,,,,black_plus_sign,,,null,,,,,,,,,,,,,,,,,,,
null,,learn_phase(without_color)7,1273637,,,,,,,,black_plus_sign,,,null,object_07b.png,object_09c.png,,,,,,,,,,,,,,,,,
null,,black_cross(without_color)7,1274614,,,,,,,,green,,,null,object_07b.png,object_09c.png,,,,,,,,,,,,,,,,,
null,,rt_plussign_withcolor7,1275127,,,,,,,,green,,,null,object_07b.png,object_09c.png,,,,,,,,,,,,,,,,,
934,,rt_thecrossant_black7,1276171,,,,,,,,black_plus_sign,,,50,,,1,,,,,,,1,,,,,,,,,
null,,color_black7,1276283,,,,,,,,black_plus_sign,,,null,,,,,,,,,,,,,,,,,,,
null,,learn_phase(without_color)7,1279801,,,,,,,,black_plus_sign,,,null,object_11c.png,object_03a.png,,,,,,,,,,,,,,,,,
null,,black_cross(without_color)7,1280779,,,,,,,,green,,,null,object_11c.png,object_03a.png,,,,,,,,,,,,,,,,,
null,,rt_plussign_withcolor7,1281292,,,,,,,,green,,,null,object_11c.png,object_03a.png,,,,,,,,,,,,,,,,,
1219,,rt_thecrossant_black7,1282333,,,,,,,,black_plus_sign,,,50,,,1,,,,,,,1,,,,,,,,,
null,,color_black7,1282444,,,,,,,,black_plus_sign,,,null,,,,,,,,,,,,,,,,,,,
null,,learn_phase(without_color)7,1285956,,,,,,,,black_plus_sign,,,null,object_02b.png,object_15c.png,,,,,,,,,,,,,,,,,
null,,black_cross(without_color)7,1286727,,,,,,,,blue,,,null,object_02b.png,object_15c.png,,,,,,,,,,,,,,,,,
null,,rt_plussign_withcolor7,1287242,,,,,,,,blue,,,null,object_02b.png,object_15c.png,,,,,,,,,,,,,,,,,
1389,,rt_thecrossant_black7,1288480,,,,,,,,black_plus_sign,,,49,,,1,,,,,,,1,,,,,,,,,
null,,color_black7,1288592,,,,,,,,black_plus_sign,,,null,,,,,,,,,,,,,,,,,,,
null,,learn_phase(without_color)7,1292107,,,,,,,,black_plus_sign,,,null,object_05b.png,object_13b.png,,,,,,,,,,,,,,,,,
null,,black_cross(without_color)7,1293151,,,,,,,,green,,,null,object_05b.png,object_13b.png,,,,,,,,,,,,,,,,,
null,,rt_plussign_withcolor7,1293667,,,,,,,,green,,,null,object_05b.png,object_13b.png,,,,,,,,,,,,,,,,,
1167,,rt_thecrossant_black7,1294643,,,,,,,,black_plus_sign,,,50,,,1,,,,,,,1,,,,,,,,,
null,,color_black7,1294755,,,,,,,,black_plus_sign,,,null,,,,,,,,,,,,,,,,,,,
null,,learn_phase(without_color)7,1298290,,,,,,,,black_plus_sign,,,null,object_10c.png,object_08a.png,,,,,,,,,,,,,,,,,
null,,black_cross(without_color)7,1299383,,,,,,,,green,,,null,object_10c.png,object_08a.png,,,,,,,,,,,,,,,,,
null,,rt_plussign_withcolor7,1299897,,,,,,,,green,,,null,object_10c.png,object_08a.png,,,,,,,,,,,,,,,,,
1302,,rt_thecrossant_black7,1300826,,,,,,,,black_plus_sign,,,50,,,1,,,,,,,1,,,,,,,,,
null,,color_black7,1300939,,,,,,,,black_plus_sign,,,null,,,,,,,,,,,,,,,,,,,
null,,learn_phase(without_color)7,1304442,,,,,,,,black_plus_sign,,,null,object_07c.png,object_04a.png,,,,,,,,,,,,,,,,,
null,,black_cross(without_color)7,1305280,,,,,,,,green,,,null,object_07c.png,object_04a.png,,,,,,,,,,,,,,,,,
null,,rt_plussign_withcolor7,1305781,,,,,,,,green,,,null,object_07c.png,object_04a.png,,,,,,,,,,,,,,,,,
1420,,rt_thecrossant_black7,1306950,,,,,,,,black_plus_sign,,,50,,,1,,,,,,,1,,,,,,,,,
null,,color_black7,1307063,,,,,,,,black_plus_sign,,,null,,,,,,,,,,,,,,,,,,,
null,,learn_phase(without_color)7,1310571,,,,,,,,black_plus_sign,,,null,object_08c.png,object_10a.png,,,,,,,,,,,,,,,,,
null,,black_cross(without_color)7,1311195,,,,,,,,green,,,null,object_08c.png,object_10a.png,,,,,,,,,,,,,,,,,
null,,rt_plussign_withcolor7,1311709,,,,,,,,green,,,null,object_08c.png,object_10a.png,,,,,,,,,,,,,,,,,
1054,,rt_thecrossant_black7,1313106,,,,,,,,black_plus_sign,,,50,,,1,,,,,,,1,,,,,,,,,
null,,color_black7,1313221,,,,,,,,black_plus_sign,,,null,,,,,,,,,,,,,,,,,,,
null,,learn_phase(without_color)7,1316738,,,,,,,,black_plus_sign,,,null,object_06c.png,object_11a.png,,,,,,,,,,,,,,,,,
null,,black_cross(without_color)7,1317591,,,,,,,,blue,,,null,object_06c.png,object_11a.png,,,,,,,,,,,,,,,,,
null,,rt_plussign_withcolor7,1318103,,,,,,,,blue,,,null,object_06c.png,object_11a.png,,,,,,,,,,,,,,,,,
1072,,rt_thecrossant_black7,1319258,,,,,,,,black_plus_sign,,,49,,,1,,,,,,,1,,,,,,,,,
null,,color_black7,1319371,,,,,,,,black_plus_sign,,,null,,,,,,,,,,,,,,,,,,,
null,,learn_phase(without_color)7,1322874,,,,,,,,black_plus_sign,,,null,object_04b.png,object_01c.png,,,,,,,,,,,,,,,,,
null,,black_cross(without_color)7,1323482,,,,,,,,blue,,,null,object_04b.png,object_01c.png,,,,,,,,,,,,,,,,,
null,,rt_plussign_withcolor7,1323995,,,,,,,,blue,,,null,object_04b.png,object_01c.png,,,,,,,,,,,,,,,,,
1187,,rt_thecrossant_black7,1325425,,,,,,,,black_plus_sign,,,49,,,1,,,,,,,1,,,,,,,,,
null,,color_black7,1325537,,,,,,,,black_plus_sign,,,null,,,,,,,,,,,,,,,,,,,
null,,learn_phase(without_color)7,1329053,,,,,,,,black_plus_sign,,,null,object_15b.png,object_12b.png,,,,,,,,,,,,,,,,,
null,,black_cross(without_color)7,1329586,,,,,,,,green,,,null,object_15b.png,object_12b.png,,,,,,,,,,,,,,,,,
null,,rt_plussign_withcolor7,1330098,,,,,,,,green,,,null,object_15b.png,object_12b.png,,,,,,,,,,,,,,,,,
1118,,rt_thecrossant_black7,1331577,,,,,,,,black_plus_sign,,,50,,,1,,,,,,,1,,,,,,,,,
null,,color_black7,1331691,,,,,,,,black_plus_sign,,,null,,,,,,,,,,,,,,,,,,,
null,,learn_phase(without_color)7,1335198,,,,,,,,black_plus_sign,,,null,object_01b.png,object_02a.png,,,,,,,,,,,,,,,,,
null,,black_cross(without_color)7,1335908,,,,,,,,blue,,,null,object_01b.png,object_02a.png,,,,,,,,,,,,,,,,,
null,,rt_plussign_withcolor7,1336421,,,,,,,,blue,,,null,object_01b.png,object_02a.png,,,,,,,,,,,,,,,,,
866,,rt_thecrossant_black7,1337723,,,,,,,,black_plus_sign,,,49,,,1,,,,,,,1,,,,,,,,,
null,,color_black7,1337836,,,,,,,,black_plus_sign,,,null,,,,,,,,,,,,,,,,,,,
null,,learn_phase(without_color)7,1341354,,,,,,,,black_plus_sign,,,null,object_14a.png,object_03c.png,,,,,,,,,,,,,,,,,
null,,black_cross(without_color)7,1342444,,,,,,,,green,,,null,object_14a.png,object_03c.png,,,,,,,,,,,,,,,,,
476,,rt_plussign_withcolor7,1342988,,,,,,,,green,,,50,object_14a.png,object_03c.png,,,,,,,,,,,,,,,,,
null,,rt_thecrossant_black7,1343921,,,,,,,,black_plus_sign,,,null,,,1,,,,,,,1,,,,,,,,,
null,,color_black7,1344033,,,,,,,,black_plus_sign,,,null,,,,,,,,,,,,,,,,,,,
null,,learn_phase(without_color)7,1347587,,,,,,,,black_plus_sign,,,null,object_10b.png,object_09a.png,,,,,,,,,,,,,,,,,
null,,black_cross(without_color)7,1348312,,,,,,,,blue,,,null,object_10b.png,object_09a.png,,,,,,,,,,,,,,,,,
null,,rt_plussign_withcolor7,1348827,,,,,,,,blue,,,null,object_10b.png,object_09a.png,,,,,,,,,,,,,,,,,
1216,,rt_thecrossant_black7,1350142,,,,,,,,black_plus_sign,,,49,,,1,,,,,,,1,,,,,,,,,
null,,color_black7,1350255,,,,,,,,black_plus_sign,,,null,,,,,,,,,,,,,,,,,,,
null,,thebreak,1350366,,,,,,,,<p></p>,,,null,,,,,,,,,,,,,,,,,,,
2945,,intro_0,1353314,,,,,,,,instruct,,,32,,,,,,,,,,,,,,,,,,,
2639,,directmemory_phase7,1355954,,,,,,,,object_07c.png,,,51,,,1,,object_14a.png,object_09a.png,object_04a.png,object_04a.png,,0.6593406593406593,1,,,,,,,,
4061,,directmemory_phase7,1360018,,,,,,,,object_04b.png,,,49,,,1,,object_01c.png,object_09c.png,object_03c.png,object_01c.png,,0.6630434782608695,1,,,,,,,,
3334,,directmemory_phase7,1363354,,,,,,,,object_15c.png,,,51,,,0,,object_06a.png,object_02b.png,object_02a.png,object_02b.png,,0.6559139784946236,0,,,,,,,,
5238,,directmemory_phase7,1368594,,,,,,,,object_05b.png,,,51,,,1,,object_06c.png,object_07c.png,object_13b.png,object_13b.png,,0.6595744680851063,1,,,,,,,,
3030,,directmemory_phase7,1371626,,,,,,,,object_07b.png,,,49,,,1,,object_09c.png,object_06c.png,object_03a.png,object_09c.png,,0.6631578947368421,1,,,,,,,,
2333,,directmemory_phase7,1373962,,,,,,,,object_05c.png,,,49,,,1,,object_06a.png,object_05b.png,object_09c.png,object_06a.png,,0.6666666666666666,1,,,,,,,,
3645,,directmemory_phase7,1377610,,,,,,,,object_10a.png,,,49,,,1,,object_08c.png,object_12b.png,object_14a.png,object_08c.png,,0.6701030927835051,1,,,,,,,,
2445,,directmemory_phase7,1380058,,,,,,,,object_14b.png,,,49,,,1,,object_12a.png,object_06a.png,object_05c.png,object_12a.png,,0.673469387755102,1,,,,,,,,
4918,,directmemory_phase7,1384977,,,,,,,,object_12b.png,,,51,,,1,,object_11c.png,object_12a.png,object_15b.png,object_15b.png,,0.6767676767676768,1,,,,,,,,
2005,,directmemory_phase7,1386986,,,,,,,,object_10b.png,,,49,,,1,,object_09a.png,object_07c.png,object_14b.png,object_09a.png,,0.68,1,,,,,,,,
3221,,directmemory_phase7,1390210,,,,,,,,object_03c.png,,,49,,,0,,object_07b.png,object_14a.png,object_15b.png,object_14a.png,,0.6732673267326733,0,,,,,,,,
2990,,directmemory_phase7,1393202,,,,,,,,object_01b.png,,,50,,,1,,object_06a.png,object_02a.png,object_14a.png,object_02a.png,,0.6764705882352942,1,,,,,,,,
5054,,directmemory_phase7,1398257,,,,,,,,object_11a.png,,,51,,,1,,object_09c.png,object_03c.png,object_06c.png,object_06c.png,,0.6796116504854369,1,,,,,,,,
2446,,directmemory_phase7,1400706,,,,,,,,object_03a.png,,,49,,,1,,object_11c.png,object_14b.png,object_08a.png,object_11c.png,,0.6826923076923077,1,,,,,,,,
3828,,directmemory_phase7,1404538,,,,,,,,object_08a.png,,,49,,,1,,object_10c.png,object_05c.png,object_12a.png,object_10c.png,,0.6857142857142857,1,,,,,,,,
null,,thebreak,1404651,,,,,,,,<p></p>,,,null,,,,,,,,,,,,,,,,,,,
4149,,intro_0,1408801,,,,,,,,instruct,,,32,,,,,,,,,,,,,,,,,,,
null,,learn_phase(without_color)8,1412312,,,,,,,,black_plus_sign,,,null,object_14a.png,object_03c.png,,,,,,,,,,,,,,,,,
null,,black_cross(without_color)8,1412757,,,,,,,,blue,,,null,object_14a.png,object_03c.png,,,,,,,,,,,,,,,,,
null,,rt_plussign_withcolor8,1413261,,,,,,,,blue,,,null,object_14a.png,object_03c.png,,,,,,,,,,,,,,,,,
717,,rt_thecrossant_black8,1414839,,,,,,,,black_plus_sign,,,49,,,1,,,,,,,1,,,,,,,,,
null,,color_black8,1414947,,,,,,,,black_plus_sign,,,null,,,,,,,,,,,,,,,,,,,
null,,learn_phase(without_color)8,1418452,,,,,,,,black_plus_sign,,,null,object_12a.png,object_14b.png,,,,,,,,,,,,,,,,,
null,,black_cross(without_color)8,1419327,,,,,,,,green,,,null,object_12a.png,object_14b.png,,,,,,,,,,,,,,,,,
null,,rt_plussign_withcolor8,1419838,,,,,,,,green,,,null,object_12a.png,object_14b.png,,,,,,,,,,,,,,,,,
580,,rt_thecrossant_black8,1420982,,,,,,,,black_plus_sign,,,50,,,1,,,,,,,1,,,,,,,,,
null,,color_black8,1421087,,,,,,,,black_plus_sign,,,null,,,,,,,,,,,,,,,,,,,
null,,learn_phase(without_color)8,1424602,,,,,,,,black_plus_sign,,,null,object_13b.png,object_05b.png,,,,,,,,,,,,,,,,,
null,,black_cross(without_color)8,1425356,,,,,,,,blue,,,null,object_13b.png,object_05b.png,,,,,,,,,,,,,,,,,
null,,rt_plussign_withcolor8,1425869,,,,,,,,blue,,,null,object_13b.png,object_05b.png,,,,,,,,,,,,,,,,,
1211,,rt_thecrossant_black8,1427126,,,,,,,,black_plus_sign,,,49,,,1,,,,,,,1,,,,,,,,,
null,,color_black8,1427237,,,,,,,,black_plus_sign,,,null,,,,,,,,,,,,,,,,,,,
null,,learn_phase(without_color)8,1430754,,,,,,,,black_plus_sign,,,null,object_04a.png,object_07c.png,,,,,,,,,,,,,,,,,
null,,black_cross(without_color)8,1431652,,,,,,,,blue,,,null,object_04a.png,object_07c.png,,,,,,,,,,,,,,,,,
null,,rt_plussign_withcolor8,1432164,,,,,,,,blue,,,null,object_04a.png,object_07c.png,,,,,,,,,,,,,,,,,
948,,rt_thecrossant_black8,1433286,,,,,,,,black_plus_sign,,,49,,,1,,,,,,,1,,,,,,,,,
null,,color_black8,1433398,,,,,,,,black_plus_sign,,,null,,,,,,,,,,,,,,,,,,,
null,,learn_phase(without_color)8,1436902,,,,,,,,black_plus_sign,,,null,object_02b.png,object_15c.png,,,,,,,,,,,,,,,,,
null,,black_cross(without_color)8,1437480,,,,,,,,green,,,null,object_02b.png,object_15c.png,,,,,,,,,,,,,,,,,
null,,rt_plussign_withcolor8,1437992,,,,,,,,green,,,null,object_02b.png,object_15c.png,,,,,,,,,,,,,,,,,
1271,,rt_thecrossant_black8,1439419,,,,,,,,black_plus_sign,,,50,,,1,,,,,,,1,,,,,,,,,
null,,color_black8,1439531,,,,,,,,black_plus_sign,,,null,,,,,,,,,,,,,,,,,,,
null,,learn_phase(without_color)8,1443037,,,,,,,,black_plus_sign,,,null,object_07b.png,object_09c.png,,,,,,,,,,,,,,,,,
null,,black_cross(without_color)8,1444132,,,,,,,,blue,,,null,object_07b.png,object_09c.png,,,,,,,,,,,,,,,,,
null,,rt_plussign_withcolor8,1444637,,,,,,,,blue,,,null,object_07b.png,object_09c.png,,,,,,,,,,,,,,,,,
871,,rt_thecrossant_black8,1445554,,,,,,,,black_plus_sign,,,49,,,1,,,,,,,1,,,,,,,,,
null,,color_black8,1445664,,,,,,,,black_plus_sign,,,null,,,,,,,,,,,,,,,,,,,
null,,learn_phase(without_color)8,1449168,,,,,,,,black_plus_sign,,,null,object_03a.png,object_11c.png,,,,,,,,,,,,,,,,,
null,,black_cross(without_color)8,1450041,,,,,,,,green,,,null,object_03a.png,object_11c.png,,,,,,,,,,,,,,,,,
null,,rt_plussign_withcolor8,1450551,,,,,,,,green,,,null,object_03a.png,object_11c.png,,,,,,,,,,,,,,,,,
1579,,rt_thecrossant_black8,1451691,,,,,,,,black_plus_sign,,,50,,,1,,,,,,,1,,,,,,,,,
null,,color_black8,1451801,,,,,,,,black_plus_sign,,,null,,,,,,,,,,,,,,,,,,,
null,,learn_phase(without_color)8,1455315,,,,,,,,black_plus_sign,,,null,object_06c.png,object_11a.png,,,,,,,,,,,,,,,,,
null,,black_cross(without_color)8,1456097,,,,,,,,blue,,,null,object_06c.png,object_11a.png,,,,,,,,,,,,,,,,,
null,,rt_plussign_withcolor8,1456612,,,,,,,,blue,,,null,object_06c.png,object_11a.png,,,,,,,,,,,,,,,,,
1246,,rt_thecrossant_black8,1457852,,,,,,,,black_plus_sign,,,49,,,1,,,,,,,1,,,,,,,,,
null,,color_black8,1457962,,,,,,,,black_plus_sign,,,null,,,,,,,,,,,,,,,,,,,
null,,learn_phase(without_color)8,1461473,,,,,,,,black_plus_sign,,,null,object_12b.png,object_15b.png,,,,,,,,,,,,,,,,,
null,,black_cross(without_color)8,1462346,,,,,,,,blue,,,null,object_12b.png,object_15b.png,,,,,,,,,,,,,,,,,
null,,rt_plussign_withcolor8,1462852,,,,,,,,blue,,,null,object_12b.png,object_15b.png,,,,,,,,,,,,,,,,,
1128,,rt_thecrossant_black8,1464003,,,,,,,,black_plus_sign,,,49,,,1,,,,,,,1,,,,,,,,,
null,,color_black8,1464112,,,,,,,,black_plus_sign,,,null,,,,,,,,,,,,,,,,,,,
null,,learn_phase(without_color)8,1467627,,,,,,,,black_plus_sign,,,null,object_05c.png,object_06a.png,,,,,,,,,,,,,,,,,
null,,black_cross(without_color)8,1468542,,,,,,,,green,,,null,object_05c.png,object_06a.png,,,,,,,,,,,,,,,,,
null,,rt_plussign_withcolor8,1469044,,,,,,,,green,,,null,object_05c.png,object_06a.png,,,,,,,,,,,,,,,,,
1019,,rt_thecrossant_black8,1470153,,,,,,,,black_plus_sign,,,50,,,1,,,,,,,1,,,,,,,,,
null,,color_black8,1470264,,,,,,,,black_plus_sign,,,null,,,,,,,,,,,,,,,,,,,
null,,learn_phase(without_color)8,1473779,,,,,,,,black_plus_sign,,,null,object_10b.png,object_09a.png,,,,,,,,,,,,,,,,,
null,,black_cross(without_color)8,1474452,,,,,,,,green,,,null,object_10b.png,object_09a.png,,,,,,,,,,,,,,,,,
null,,rt_plussign_withcolor8,1474967,,,,,,,,green,,,null,object_10b.png,object_09a.png,,,,,,,,,,,,,,,,,
1131,,rt_thecrossant_black8,1476327,,,,,,,,black_plus_sign,,,50,,,1,,,,,,,1,,,,,,,,,
null,,color_black8,1476439,,,,,,,,black_plus_sign,,,null,,,,,,,,,,,,,,,,,,,
null,,learn_phase(without_color)8,1479949,,,,,,,,black_plus_sign,,,null,object_08c.png,object_10a.png,,,,,,,,,,,,,,,,,
null,,black_cross(without_color)8,1481028,,,,,,,,blue,,,null,object_08c.png,object_10a.png,,,,,,,,,,,,,,,,,
null,,rt_plussign_withcolor8,1481542,,,,,,,,blue,,,null,object_08c.png,object_10a.png,,,,,,,,,,,,,,,,,
1022,,rt_thecrossant_black8,1482471,,,,,,,,black_plus_sign,,,49,,,1,,,,,,,1,,,,,,,,,
null,,color_black8,1482583,,,,,,,,black_plus_sign,,,null,,,,,,,,,,,,,,,,,,,
null,,learn_phase(without_color)8,1486086,,,,,,,,black_plus_sign,,,null,object_01c.png,object_04b.png,,,,,,,,,,,,,,,,,
null,,black_cross(without_color)8,1486657,,,,,,,,blue,,,null,object_01c.png,object_04b.png,,,,,,,,,,,,,,,,,
null,,rt_plussign_withcolor8,1487173,,,,,,,,blue,,,null,object_01c.png,object_04b.png,,,,,,,,,,,,,,,,,
1483,,rt_thecrossant_black8,1488614,,,,,,,,black_plus_sign,,,49,,,1,,,,,,,1,,,,,,,,,
null,,color_black8,1488722,,,,,,,,black_plus_sign,,,null,,,,,,,,,,,,,,,,,,,
null,,learn_phase(without_color)8,1492234,,,,,,,,black_plus_sign,,,null,object_08a.png,object_10c.png,,,,,,,,,,,,,,,,,
null,,black_cross(without_color)8,1492924,,,,,,,,green,,,null,object_08a.png,object_10c.png,,,,,,,,,,,,,,,,,
null,,rt_plussign_withcolor8,1493439,,,,,,,,green,,,null,object_08a.png,object_10c.png,,,,,,,,,,,,,,,,,
817,,rt_thecrossant_black8,1494768,,,,,,,,black_plus_sign,,,50,,,1,,,,,,,1,,,,,,,,,
null,,color_black8,1494875,,,,,,,,black_plus_sign,,,null,,,,,,,,,,,,,,,,,,,
null,,learn_phase(without_color)8,1498388,,,,,,,,black_plus_sign,,,null,object_01b.png,object_02a.png,,,,,,,,,,,,,,,,,
null,,black_cross(without_color)8,1499044,,,,,,,,green,,,null,object_01b.png,object_02a.png,,,,,,,,,,,,,,,,,
null,,rt_plussign_withcolor8,1499547,,,,,,,,green,,,null,object_01b.png,object_02a.png,,,,,,,,,,,,,,,,,
1015,,rt_thecrossant_black8,1500912,,,,,,,,black_plus_sign,,,50,,,1,,,,,,,1,,,,,,,,,
null,,color_black8,1501022,,,,,,,,black_plus_sign,,,null,,,,,,,,,,,,,,,,,,,
null,,thebreak,1501131,,,,,,,,<p></p>,,,null,,,,,,,,,,,,,,,,,,,
3117,,intro_0,1504250,,,,,,,,instruct,,,32,,,,,,,,,,,,,,,,,,,
3960,,directmemory_phase8,1508209,,,,,,,,object_01c.png,,,50,,,1,,object_06c.png,object_04b.png,object_08a.png,object_04b.png,,0.6886792452830188,1,,,,,,,,
2773,,directmemory_phase8,1510986,,,,,,,,object_12b.png,,,49,,,1,,object_15b.png,object_02a.png,object_11a.png,object_15b.png,,0.6915887850467289,1,,,,,,,,
1766,,directmemory_phase8,1512754,,,,,,,,object_12a.png,,,49,,,1,,object_14b.png,object_02a.png,object_11a.png,object_14b.png,,0.6944444444444444,1,,,,,,,,
2988,,directmemory_phase8,1515746,,,,,,,,object_05c.png,,,50,,,1,,object_10c.png,object_06a.png,object_07c.png,object_06a.png,,0.6972477064220184,1,,,,,,,,
4709,,directmemory_phase8,1520458,,,,,,,,object_11a.png,,,51,,,1,,object_14a.png,object_05b.png,object_06c.png,object_06c.png,,0.7,1,,,,,,,,
4197,,directmemory_phase8,1524658,,,,,,,,object_08c.png,,,50,,,1,,object_03c.png,object_10a.png,object_01c.png,object_10a.png,,0.7027027027027027,1,,,,,,,,
1828,,directmemory_phase8,1526489,,,,,,,,object_10b.png,,,49,,,0,,object_01b.png,object_15b.png,object_09a.png,object_09a.png,,0.6964285714285714,0,,,,,,,,
2998,,directmemory_phase8,1529490,,,,,,,,object_01b.png,,,51,,,1,,object_10b.png,object_08a.png,object_02a.png,object_02a.png,,0.6991150442477876,1,,,,,,,,
2181,,directmemory_phase8,1531674,,,,,,,,object_08a.png,,,51,,,1,,object_05c.png,object_11a.png,object_10c.png,object_10c.png,,0.7017543859649122,1,,,,,,,,
6910,,directmemory_phase8,1538586,,,,,,,,object_03c.png,,,51,,,1,,object_02a.png,object_05b.png,object_14a.png,object_14a.png,,0.7043478260869566,1,,,,,,,,
2157,,directmemory_phase8,1540745,,,,,,,,object_11c.png,,,49,,,1,,object_03a.png,object_12a.png,object_10b.png,object_03a.png,,0.7068965517241379,1,,,,,,,,
2918,,directmemory_phase8,1543666,,,,,,,,object_09c.png,,,50,,,1,,object_10c.png,object_07b.png,object_12a.png,object_07b.png,,0.7094017094017094,1,,,,,,,,
3036,,directmemory_phase8,1546705,,,,,,,,object_05b.png,,,50,,,1,,object_04b.png,object_13b.png,object_11c.png,object_13b.png,,0.711864406779661,1,,,,,,,,
1373,,directmemory_phase8,1548082,,,,,,,,object_04a.png,,,49,,,1,,object_07c.png,object_12a.png,object_01c.png,object_07c.png,,0.7142857142857143,1,,,,,,,,
4374,,directmemory_phase8,1552458,,,,,,,,object_02b.png,,,49,,,1,,object_15c.png,object_12b.png,object_14b.png,object_15c.png,,0.7166666666666667,1,,,,,,,,
null,,thebreak,1552573,,,,,,,,<p></p>,,,null,,,,,,,,,,,,,,,,,,,
4340,,intro_0,1556914,,,,,,,,instruct,,,32,,,,,,,,,,,,,,,,,,,
17960,,intro_1,1574874,,,,,,,,instruct,,,32,,,,,,,,,,,,,,,,,,,
11479,,intro_2,1586354,,,,,,,,instruct,,,32,,,,,,,,,,,,,,,,,,,
,,intro_3,1609536,,,,,,,,instruct,,,,,,,,,,,,,,,,,,,,,,
7185,,intro_4,1616722,,,,,,,,instruct,,,32,,,,,,,,,,,,,,,,,,,
5326,,inference_phase,1622049,,,,,,,,object_04c.png,,,49,object_10c.png,object_12a.png,0,,,,,object_07c.png,,0,,object_07c.png,,,,,,,
3742,,inference_phase,1625794,,,,,,,,object_08c.png,,,49,object_06b.png,object_10b.png,0,,,,,object_11b.png,,0,,object_11b.png,,,,,,,
2998,,inference_phase,1628794,,,,,,,,object_02c.png,,,49,object_09c.png,object_15c.png,0,,,,,object_15c.png,,0,,object_01b.png,,,,,,,
4142,,inference_phase,1632938,,,,,,,,object_08a.png,,,49,object_07a.png,object_02c.png,1,,,,,object_07a.png,,0.25,,object_02b.png,,,,,,,
2974,,inference_phase,1635914,,,,,,,,object_04b.png,,,51,object_13a.png,object_03b.png,1,,,,,object_03b.png,,0.4,,object_04a.png,,,,,,,
3596,,inference_phase,1639513,,,,,,,,object_06a.png,,,51,object_05a.png,object_13a.png,0,,,,,object_05a.png,,0.3333333333333333,,object_06c.png,,,,,,,
3406,,inference_phase,1642922,,,,,,,,object_12a.png,,,50,object_15a.png,object_01a.png,0,,,,,object_01a.png,,0.2857142857142857,,object_10c.png,,,,,,,
7462,,inference_phase,1650386,,,,,,,,object_15a.png,,,49,object_11c.png,object_03a.png,0,,,,,object_12b.png,,0.25,,object_12b.png,,,,,,,
5485,,inference_phase,1655874,,,,,,,,object_06b.png,,,51,object_05c.png,object_11a.png,1,,,,,object_11a.png,,0.3333333333333333,,object_15c.png,,,,,,,
2869,,inference_phase,1658746,,,,,,,,object_05b.png,,,49,object_07a.png,object_12c.png,0,,,,,object_12c.png,,0.3,,object_14a.png,,,,,,,
3261,,inference_phase,1662011,,,,,,,,object_09b.png,,,49,object_04a.png,object_09a.png,0,,,,,object_09a.png,,0.2727272727272727,,object_12b.png,,,,,,,
3430,,inference_phase,1665442,,,,,,,,object_07b.png,,,50,object_06b.png,object_08b.png,0,,,,,object_08b.png,,0.25,,object_15b.png,,,,,,,
4382,,inference_phase,1669826,,,,,,,,object_14c.png,,,50,object_14a.png,object_07c.png,1,,,,,object_03a.png,,0.3076923076923077,,object_03a.png,,,,,,,
3957,,inference_phase,1673786,,,,,,,,object_03c.png,,,50,object_06b.png,object_13a.png,0,,,,,object_13a.png,,0.2857142857142857,,object_10b.png,,,,,,,
4485,,inference_phase,1678274,,,,,,,,object_01b.png,,,49,object_13c.png,object_02c.png,1,,,,,object_13c.png,,0.3333333333333333,,object_01c.png,,,,,,,
,,survey,1786044,,,,,,,,survey-questions,,,,,,,,,,,,,,,,none,high,no,physical similarities,similar color schemes,no,pretty sure that I did not do well. Difficult time remembering
