rt,responses,trial_type,time_elapsed,identifier_a,identifier_b,identifier_c,tasktype,browser_type,local_time,UTC_time,stimulus,button_pressed,response,key_press,stimulus_left,stimulus_right,accuracy,practice_cumulative_accuracy,stimulus_down_left,stimulus_down_mid,stimulus_down_right,stimulus_correct,prac_weighted_accuracy,cumulative_accuracy,failed_practice,weighted_accuracy,tooquick,stimulus_middle,problems,smooth,distraction,strategies,easier,similar,comments
15855.5,{worker_id:67db5618164a0fc0678e84d6},id_enter,15859,object_01c.png; object_07c.png; object_07a.png; object_13a.png; object_06b.png; object_07b.png; object_01b.png; object_02b.png; object_04b.png; object_06a.png; object_14c.png; object_05c.png; object_15c.png; object_04a.png; object_02c.png,object_05b.png; object_08c.png; object_13b.png; object_01a.png; object_09b.png; object_03c.png; object_10b.png; object_08a.png; object_05a.png; object_13c.png; object_06c.png; object_11a.png; object_14a.png; object_12b.png; object_12a.png,object_09c.png; object_11b.png; object_15b.png; object_08b.png; object_10a.png; object_09a.png; object_11c.png; object_12c.png; object_04c.png; object_02a.png; object_10c.png; object_03a.png; object_03b.png; object_14b.png; object_15a.png,blocked,Mozilla/5.0 (Windows NT 10.0; Win64; x64) AppleWebKit/537.36 (KHTML, like Gecko) Chrome/136.0.0.0 Safari/537.36,5/2/2025, 4:44:00 PM,2025-05-02 21:44:00.125,,,,,,,,,,,,,,,,,,,,,,,,,
242708.5,,make_fullscreen,258603,,,,,,,,fullscreen,0,,,,,,,,,,,,,,,,,,,,,,,
3730.300000000745,,instruct_1,262337,,,,,,,,instruct,0,Next,,,,,,,,,,,,,,,,,,,,,,
15526.89999999851,,instruct_2,277866,,,,,,,,instruct,1,Next,,,,,,,,,,,,,,,,,,,,,,
7784.900000002235,,instruct_3,285653,,,,,,,,instruct,1,Next,,,,,,,,,,,,,,,,,,,,,,
17392.60000000149,,instruct_4,303047,,,,,,,,instruct,1,Next,,,,,,,,,,,,,,,,,,,,,,
12315.699999999255,,instruct_5,315366,,,,,,,,instruct,1,Next,,,,,,,,,,,,,,,,,,,,,,
5205.800000000745,,instruct_6,320573,,,,,,,,instruct,1,Next,,,,,,,,,,,,,,,,,,,,,,
49247.300000000745,,instruct_7,369822,,,,,,,,instruct,1,Next,,,,,,,,,,,,,,,,,,,,,,
null,,prac_atten_color_black,370480,,,,,,,,black_plus_sign,,,null,,,,,,,,,,,,,,,,,,,,,
null,,prac_atten_color,371242,,,,,,,,<p style='position:absolute;top: 50%;right: 50%;transform: translate(50%, -50%);font-size: 125px;color: blue;'>+</p>,,,null,,,,,,,,,,,,,,,,,,,,,
null,,prac_atten_color_black,373244,,,,,,,,black_plus_sign,,,null,,,,,,,,,,,,,,,,,,,,,
12965.400000002235,,attentioncheck_help,386211,,,,,,,,instruct,,,32,,,,,,,,,,,,,,,,,,,,,
null,,prac_atten_color_black,386867,,,,,,,,black_plus_sign,,,null,,,,,,,,,,,,,,,,,,,,,
694.3000000007451,,prac_atten_color,387693,,,,,,,,<p style='position:absolute;top: 50%;right: 50%;transform: translate(50%, -50%);font-size: 125px;color: green;'>+</p>,,,50,,,,,,,,,,,,,,,,,,,,,
null,,prac_atten_color_black,389704,,,,,,,,black_plus_sign,,,null,,,,,,,,,,,,,,,,,,,,,
null,,prac_atten_color_black,390282,,,,,,,,black_plus_sign,,,null,,,,,,,,,,,,,,,,,,,,,
null,,prac_atten_color,390810,,,,,,,,<p style='position:absolute;top: 50%;right: 50%;transform: translate(50%, -50%);font-size: 125px;color: green;'>+</p>,,,null,,,,,,,,,,,,,,,,,,,,,
89.60000000149012,,prac_atten_color_black,392812,,,,,,,,black_plus_sign,,,50,,,,,,,,,,,,,,,,,,,,,
null,,prac_atten_color_black,393692,,,,,,,,black_plus_sign,,,null,,,,,,,,,,,,,,,,,,,,,
435.0999999977648,,prac_atten_color,394621,,,,,,,,<p style='position:absolute;top: 50%;right: 50%;transform: translate(50%, -50%);font-size: 125px;color: blue;'>+</p>,,,49,,,,,,,,,,,,,,,,,,,,,
null,,prac_atten_color_black,396623,,,,,,,,black_plus_sign,,,null,,,,,,,,,,,,,,,,,,,,,
null,,prac_atten_color_black,397099,,,,,,,,black_plus_sign,,,null,,,,,,,,,,,,,,,,,,,,,
505.20000000298023,,prac_atten_color,398135,,,,,,,,<p style='position:absolute;top: 50%;right: 50%;transform: translate(50%, -50%);font-size: 125px;color: green;'>+</p>,,,50,,,,,,,,,,,,,,,,,,,,,
null,,prac_atten_color_black,400136,,,,,,,,black_plus_sign,,,null,,,,,,,,,,,,,,,,,,,,,
null,,prac_atten_color_black,400512,,,,,,,,black_plus_sign,,,null,,,,,,,,,,,,,,,,,,,,,
null,,prac_atten_color,401287,,,,,,,,<p style='position:absolute;top: 50%;right: 50%;transform: translate(50%, -50%);font-size: 125px;color: green;'>+</p>,,,null,,,,,,,,,,,,,,,,,,,,,
72.69999999925494,,prac_atten_color_black,403289,,,,,,,,black_plus_sign,,,50,,,,,,,,,,,,,,,,,,,,,
null,,prac_atten_color_black,403919,,,,,,,,black_plus_sign,,,null,,,,,,,,,,,,,,,,,,,,,
523.5,,prac_atten_color,404768,,,,,,,,<p style='position:absolute;top: 50%;right: 50%;transform: translate(50%, -50%);font-size: 125px;color: blue;'>+</p>,,,49,,,,,,,,,,,,,,,,,,,,,
null,,prac_atten_color_black,406772,,,,,,,,black_plus_sign,,,null,,,,,,,,,,,,,,,,,,,,,
null,,prac_atten_color_black,407333,,,,,,,,black_plus_sign,,,null,,,,,,,,,,,,,,,,,,,,,
506.6000000014901,,prac_atten_color,408306,,,,,,,,<p style='position:absolute;top: 50%;right: 50%;transform: translate(50%, -50%);font-size: 125px;color: green;'>+</p>,,,50,,,,,,,,,,,,,,,,,,,,,
null,,prac_atten_color_black,410307,,,,,,,,black_plus_sign,,,null,,,,,,,,,,,,,,,,,,,,,
null,,prac_atten_color_black,410740,,,,,,,,black_plus_sign,,,null,,,,,,,,,,,,,,,,,,,,,
522.6999999992549,,prac_atten_color,411438,,,,,,,,<p style='position:absolute;top: 50%;right: 50%;transform: translate(50%, -50%);font-size: 125px;color: blue;'>+</p>,,,49,,,,,,,,,,,,,,,,,,,,,
null,,prac_atten_color_black,413441,,,,,,,,black_plus_sign,,,null,,,,,,,,,,,,,,,,,,,,,
null,,prac_atten_color_black,414146,,,,,,,,black_plus_sign,,,null,,,,,,,,,,,,,,,,,,,,,
443.30000000074506,,prac_atten_color,415014,,,,,,,,<p style='position:absolute;top: 50%;right: 50%;transform: translate(50%, -50%);font-size: 125px;color: blue;'>+</p>,,,49,,,,,,,,,,,,,,,,,,,,,
null,,prac_atten_color_black,417016,,,,,,,,black_plus_sign,,,null,,,,,,,,,,,,,,,,,,,,,
8809.800000000745,,attentioncheck_feedback,425828,,,,,,,,cross_check_feedback,0,,,,,,,,,,,,,,,,,,,,,,,
7741.099999997765,,last_instruct,433570,,,,,,,,instruct,,,32,,,,,,,,,,,,,,,,,,,,,
null,,prac_learn_phase(without_color),437072,,,,,,,,black_plus_sign,,,null,object_04a.png,object_12b.png,,,,,,,,,,,,,,,,,,,
null,,prac_black_cross(without_color),437841,,,,,,,,green,,,null,object_04a.png,object_12b.png,,,,,,,,,,,,,,,,,,,
null,,prac_rt_plussign_withcolor,438343,,,,,,,,green,,,null,object_04a.png,object_12b.png,,,,,,,,,,,,,,,,,,,
1290.5,,prac_rt_thecrossant_black,439580,,,,,,,,black_plus_sign,,,50,,,1,1,,,,,,,,,,,,,,,,,
null,,prac_color_black,439684,,,,,,,,black_plus_sign,,,null,,,,,,,,,,,,,,,,,,,,,
null,,prac_learn_phase(without_color),443187,,,,,,,,black_plus_sign,,,null,object_02b.png,object_08a.png,,,,,,,,,,,,,,,,,,,
null,,black_cross(without_color)1,444134,,,,,,,,blue,,,null,object_04a.png,object_12b.png,,,,,,,,,,,,,,,,,,,
379.4000000022352,,prac_rt_plussign_withcolor,444636,,,,,,,,blue,,,49,object_02b.png,object_08a.png,,,,,,,,,,,,,,,,,,,
null,,prac_rt_thecrossant_black,445765,,,,,,,,black_plus_sign,,,null,,,1,1,,,,,,,,,,,,,,,,,
null,,prac_color_black,445867,,,,,,,,black_plus_sign,,,null,,,,,,,,,,,,,,,,,,,,,
null,,prac_learn_phase(without_color),449370,,,,,,,,black_plus_sign,,,null,object_08c.png,object_07c.png,,,,,,,,,,,,,,,,,,,
null,,black_cross(without_color)1,450318,,,,,,,,blue,,,null,object_04a.png,object_12b.png,,,,,,,,,,,,,,,,,,,
377.80000000074506,,prac_rt_plussign_withcolor,450820,,,,,,,,blue,,,50,object_08c.png,object_07c.png,,,,,,,,,,,,,,,,,,,
null,,prac_rt_thecrossant_black,451817,,,,,,,,black_plus_sign,,,null,,,0,0.6666666666666666,,,,,,,,,,,,,,,,,
null,,prac_color_black,451920,,,,,,,,black_plus_sign,,,null,,,,,,,,,,,,,,,,,,,,,
null,,prac_learn_phase(without_color),455422,,,,,,,,black_plus_sign,,,null,object_07b.png,object_03c.png,,,,,,,,,,,,,,,,,,,
null,,black_cross(without_color)1,456369,,,,,,,,blue,,,null,object_04a.png,object_12b.png,,,,,,,,,,,,,,,,,,,
null,,prac_rt_plussign_withcolor,456871,,,,,,,,green,,,null,object_07b.png,object_03c.png,,,,,,,,,,,,,,,,,,,
1193.699999999255,,prac_rt_thecrossant_black,458007,,,,,,,,black_plus_sign,,,50,,,1,0.75,,,,,,,,,,,,,,,,,
null,,prac_color_black,458109,,,,,,,,black_plus_sign,,,null,,,,,,,,,,,,,,,,,,,,,
5706.10000000149,,instruct_dir_01,463817,,,,,,,,instruct,0,Next,,,,,,,,,,,,,,,,,,,,,,
5886.800000000745,,instruct_dir_2,469706,,,,,,,,instruct,1,Next,,,,,,,,,,,,,,,,,,,,,,
7599.099999997765,,instruct_dir_3,477307,,,,,,,,instruct,1,Next,,,,,,,,,,,,,,,,,,,,,,
16651.300000000745,,instruct_dir_4,493960,,,,,,,,instruct,1,Start,,,,,,,,,,,,,,,,,,,,,,
null,,thebreak,494061,,,,,,,,<p></p>,,,null,,,,,,,,,,,,,,,,,,,,,
1470.3999999985099,,intro_0,495533,,,,,,,,instruct,,,32,,,,,,,,,,,,,,,,,,,,,
3351.199999999255,,prac_directmemory_phase,498886,,,,,,,,practice/object_03a.png,,,49,,,0,,practice/object_02b.png,practice/object_01a.png,practice/object_03b.png,practice/object_03b.png,0,0,,,,,,,,,,,
3095.5,,prac_directmemory_phase,501984,,,,,,,,practice/object_02a.png,,,50,,,0,,practice/object_03b.png,practice/object_04a.png,practice/object_02b.png,practice/object_02b.png,0,0,,,,,,,,,,,
2584,,prac_directmemory_phase,504571,,,,,,,,practice/object_04a.png,,,51,,,1,,practice/object_01b.png,practice/object_01a.png,practice/object_04b.png,practice/object_04b.png,1,0.3333333333333333,,,,,,,,,,,
1892.5,,prac_directmemory_phase,506465,,,,,,,,practice/object_01a.png,,,50,,,0,,practice/object_01b.png,practice/object_02b.png,practice/object_04a.png,practice/object_01b.png,0,0.25,,,,,,,,,,,
6342.300000000745,,practice_feedback_force_restart,512809,,,,,,,,practice_feedback,0,,,,,,,,,,,,,1,,,,,,,,,,
2081.2000000029802,,last_instruct,514891,,,,,,,,instruct,,,32,,,,,,,,,,,,,,,,,,,,,
null,,prac_learn_phase(without_color),518393,,,,,,,,black_plus_sign,,,null,object_04a.png,object_12b.png,,,,,,,,,,,,,,,,,,,
null,,prac_black_cross(without_color),519436,,,,,,,,green,,,null,object_04a.png,object_12b.png,,,,,,,,,,,,,,,,,,,
null,,prac_rt_plussign_withcolor,519937,,,,,,,,green,,,null,object_04a.png,object_12b.png,,,,,,,,,,,,,,,,,,,
1673.9000000022352,,prac_rt_thecrossant_black,520898,,,,,,,,black_plus_sign,,,50,,,1,0.8,,,,,,,,,,,,,,,,,
null,,prac_color_black,521004,,,,,,,,black_plus_sign,,,null,,,,,,,,,,,,,,,,,,,,,
null,,prac_learn_phase(without_color),524507,,,,,,,,black_plus_sign,,,null,object_02b.png,object_08a.png,,,,,,,,,,,,,,,,,,,
null,,black_cross(without_color)1,525454,,,,,,,,blue,,,null,object_04a.png,object_12b.png,,,,,,,,,,,,,,,,,,,
null,,prac_rt_plussign_withcolor,525956,,,,,,,,blue,,,null,object_02b.png,object_08a.png,,,,,,,,,,,,,,,,,,,
1751.6000000014901,,prac_rt_thecrossant_black,527170,,,,,,,,black_plus_sign,,,49,,,1,0.8333333333333334,,,,,,,,,,,,,,,,,
null,,prac_color_black,527273,,,,,,,,black_plus_sign,,,null,,,,,,,,,,,,,,,,,,,,,
null,,prac_learn_phase(without_color),530776,,,,,,,,black_plus_sign,,,null,object_08c.png,object_07c.png,,,,,,,,,,,,,,,,,,,
null,,black_cross(without_color)1,531723,,,,,,,,blue,,,null,object_04a.png,object_12b.png,,,,,,,,,,,,,,,,,,,
null,,prac_rt_plussign_withcolor,532225,,,,,,,,blue,,,null,object_08c.png,object_07c.png,,,,,,,,,,,,,,,,,,,
1016.3999999985099,,prac_rt_thecrossant_black,533174,,,,,,,,black_plus_sign,,,49,,,1,0.8571428571428571,,,,,,,,,,,,,,,,,
null,,prac_color_black,533277,,,,,,,,black_plus_sign,,,null,,,,,,,,,,,,,,,,,,,,,
null,,prac_learn_phase(without_color),536779,,,,,,,,black_plus_sign,,,null,object_07b.png,object_03c.png,,,,,,,,,,,,,,,,,,,
null,,black_cross(without_color)1,537726,,,,,,,,blue,,,null,object_04a.png,object_12b.png,,,,,,,,,,,,,,,,,,,
493.1000000014901,,prac_rt_plussign_withcolor,538228,,,,,,,,green,,,50,object_07b.png,object_03c.png,,,,,,,,,,,,,,,,,,,
null,,prac_rt_thecrossant_black,539795,,,,,,,,black_plus_sign,,,null,,,1,0.875,,,,,,,,,,,,,,,,,
null,,prac_color_black,539912,,,,,,,,black_plus_sign,,,null,,,,,,,,,,,,,,,,,,,,,
3238.099999997765,,instruct_dir_01,543152,,,,,,,,instruct,0,Next,,,,,,,,,,,,,,,,,,,,,,
1551.8999999985099,,instruct_dir_2,544706,,,,,,,,instruct,1,Next,,,,,,,,,,,,,,,,,,,,,,
1675.4000000022352,,instruct_dir_3,546383,,,,,,,,instruct,1,Next,,,,,,,,,,,,,,,,,,,,,,
2120.300000000745,,instruct_dir_4,548505,,,,,,,,instruct,1,Start,,,,,,,,,,,,,,,,,,,,,,
null,,thebreak,548607,,,,,,,,<p></p>,,,null,,,,,,,,,,,,,,,,,,,,,
1091.5999999977648,,intro_0,549700,,,,,,,,instruct,,,32,,,,,,,,,,,,,,,,,,,,,
1775.4000000022352,,prac_directmemory_phase,551477,,,,,,,,practice/object_03a.png,,,49,,,0,,practice/object_02b.png,practice/object_01a.png,practice/object_03b.png,practice/object_03b.png,0,0,,,,,,,,,,,
1410.0999999977648,,prac_directmemory_phase,552889,,,,,,,,practice/object_02a.png,,,49,,,0,,practice/object_03b.png,practice/object_04a.png,practice/object_02b.png,practice/object_02b.png,0,0,,,,,,,,,,,
1625.199999999255,,prac_directmemory_phase,554516,,,,,,,,practice/object_04a.png,,,50,,,0,,practice/object_01b.png,practice/object_01a.png,practice/object_04b.png,practice/object_04b.png,0,0,,,,,,,,,,,
1210.699999999255,,prac_directmemory_phase,555729,,,,,,,,practice/object_01a.png,,,49,,,1,,practice/object_01b.png,practice/object_02b.png,practice/object_04a.png,practice/object_01b.png,1,0.25,,,,,,,,,,,
27482.5,,practice_feedback_force_restart,583213,,,,,,,,practice_feedback,0,,,,,,,,,,,,,2,,,,,,,,,,
1644,,last_instruct,584858,,,,,,,,instruct,,,32,,,,,,,,,,,,,,,,,,,,,
null,,prac_learn_phase(without_color),588361,,,,,,,,black_plus_sign,,,null,object_04a.png,object_12b.png,,,,,,,,,,,,,,,,,,,
null,,prac_black_cross(without_color),589354,,,,,,,,green,,,null,object_04a.png,object_12b.png,,,,,,,,,,,,,,,,,,,
null,,prac_rt_plussign_withcolor,589855,,,,,,,,green,,,null,object_04a.png,object_12b.png,,,,,,,,,,,,,,,,,,,
898.6999999992549,,prac_rt_thecrossant_black,590872,,,,,,,,black_plus_sign,,,50,,,1,0.8888888888888888,,,,,,,,,,,,,,,,,
null,,prac_color_black,590974,,,,,,,,black_plus_sign,,,null,,,,,,,,,,,,,,,,,,,,,
null,,prac_learn_phase(without_color),594477,,,,,,,,black_plus_sign,,,null,object_02b.png,object_08a.png,,,,,,,,,,,,,,,,,,,
null,,black_cross(without_color)1,595425,,,,,,,,blue,,,null,object_04a.png,object_12b.png,,,,,,,,,,,,,,,,,,,
null,,prac_rt_plussign_withcolor,595926,,,,,,,,blue,,,null,object_02b.png,object_08a.png,,,,,,,,,,,,,,,,,,,
1302.0999999977648,,prac_rt_thecrossant_black,596870,,,,,,,,black_plus_sign,,,50,,,0,0.8,,,,,,,,,,,,,,,,,
null,,prac_color_black,596973,,,,,,,,black_plus_sign,,,null,,,,,,,,,,,,,,,,,,,,,
null,,prac_learn_phase(without_color),600475,,,,,,,,black_plus_sign,,,null,object_08c.png,object_07c.png,,,,,,,,,,,,,,,,,,,
null,,black_cross(without_color)1,601422,,,,,,,,blue,,,null,object_04a.png,object_12b.png,,,,,,,,,,,,,,,,,,,
null,,prac_rt_plussign_withcolor,601924,,,,,,,,blue,,,null,object_08c.png,object_07c.png,,,,,,,,,,,,,,,,,,,
1337.6000000014901,,prac_rt_thecrossant_black,603349,,,,,,,,black_plus_sign,,,49,,,1,0.8181818181818182,,,,,,,,,,,,,,,,,
null,,prac_color_black,603451,,,,,,,,black_plus_sign,,,null,,,,,,,,,,,,,,,,,,,,,
null,,prac_learn_phase(without_color),606953,,,,,,,,black_plus_sign,,,null,object_07b.png,object_03c.png,,,,,,,,,,,,,,,,,,,
null,,black_cross(without_color)1,607901,,,,,,,,blue,,,null,object_04a.png,object_12b.png,,,,,,,,,,,,,,,,,,,
311.8999999985099,,prac_rt_plussign_withcolor,608403,,,,,,,,green,,,50,object_07b.png,object_03c.png,,,,,,,,,,,,,,,,,,,
null,,prac_rt_thecrossant_black,609719,,,,,,,,black_plus_sign,,,null,,,1,0.8333333333333334,,,,,,,,,,,,,,,,,
null,,prac_color_black,609820,,,,,,,,black_plus_sign,,,null,,,,,,,,,,,,,,,,,,,,,
7209.5,,instruct_dir_01,617032,,,,,,,,instruct,0,Next,,,,,,,,,,,,,,,,,,,,,,
1752.6000000014901,,instruct_dir_2,618786,,,,,,,,instruct,1,Next,,,,,,,,,,,,,,,,,,,,,,
2382.89999999851,,instruct_dir_3,621171,,,,,,,,instruct,1,Next,,,,,,,,,,,,,,,,,,,,,,
22901.29999999702,,instruct_dir_4,644074,,,,,,,,instruct,1,Start,,,,,,,,,,,,,,,,,,,,,,
null,,thebreak,644176,,,,,,,,<p></p>,,,null,,,,,,,,,,,,,,,,,,,,,
1159.1000000014901,,intro_0,645337,,,,,,,,instruct,,,32,,,,,,,,,,,,,,,,,,,,,
5848.400000002235,,prac_directmemory_phase,651187,,,,,,,,practice/object_03a.png,,,51,,,1,,practice/object_02b.png,practice/object_01a.png,practice/object_03b.png,practice/object_03b.png,1,1,,,,,,,,,,,
4345.29999999702,,prac_directmemory_phase,655534,,,,,,,,practice/object_02a.png,,,51,,,1,,practice/object_03b.png,practice/object_04a.png,practice/object_02b.png,practice/object_02b.png,1,1,,,,,,,,,,,
7330.300000000745,,prac_directmemory_phase,662867,,,,,,,,practice/object_04a.png,,,51,,,1,,practice/object_01b.png,practice/object_01a.png,practice/object_04b.png,practice/object_04b.png,1,1,,,,,,,,,,,
4836.800000000745,,prac_directmemory_phase,667706,,,,,,,,practice/object_01a.png,,,49,,,1,,practice/object_01b.png,practice/object_02b.png,practice/object_04a.png,practice/object_01b.png,1,1,,,,,,,,,,,
2553.5,,practice_feedback,670261,,,,,,,,practice_feedback,1,,,,,,,,,,,,,,,,,,,,,,,
11149.400000002235,,proceed_actualTask,681412,,,,,,,,proceed_actualTask,1,Continue,,,,,,,,,,,,,,,,,,,,,,
8887758.200000003,,last_inst,9569173,,,,,,,,last_inst,,,32,,,,,,,,,,,,,,,,,,,,,
null,,learn_phase(without_color)1,9572682,,,,,,,,black_plus_sign,,,null,object_04a.png,object_12b.png,,,,,,,,,,,,,,,,,,,
null,,black_cross(without_color)1,9573630,,,,,,,,blue,,,null,object_04a.png,object_12b.png,,,,,,,,,,,,,,,,,,,
null,,rt_plussign_withcolor1,9574133,,,,,,,,blue,,,null,object_04a.png,object_12b.png,,,,,,,,,,,,,,,,,,,
null,,rt_thecrossant_black1,9575195,,,,,,,,black_plus_sign,,,null,,,,,,,,,,NaN,,,,,,,,,,,
null,,color_black1,9575298,,,,,,,,black_plus_sign,,,null,,,,,,,,,,,,,,,,,,,,,
null,,learn_phase(without_color)1,9578801,,,,,,,,black_plus_sign,,,null,object_02b.png,object_08a.png,,,,,,,,,,,,,,,,,,,
null,,black_cross(without_color)1,9579736,,,,,,,,blue,,,null,object_02b.png,object_08a.png,,,,,,,,,,,,,,,,,,,
null,,rt_plussign_withcolor1,9580239,,,,,,,,blue,,,null,object_02b.png,object_08a.png,,,,,,,,,,,,,,,,,,,
1700.7000000029802,,rt_thecrossant_black1,9581309,,,,,,,,black_plus_sign,,,49,,,1,,,,,,,1,,,,,,,,,,,
null,,color_black1,9581411,,,,,,,,black_plus_sign,,,null,,,,,,,,,,,,,,,,,,,,,
null,,learn_phase(without_color)1,9584913,,,,,,,,black_plus_sign,,,null,object_08c.png,object_07c.png,,,,,,,,,,,,,,,,,,,
null,,black_cross(without_color)1,9585718,,,,,,,,green,,,null,object_08c.png,object_07c.png,,,,,,,,,,,,,,,,,,,
null,,rt_plussign_withcolor1,9586221,,,,,,,,green,,,null,object_08c.png,object_07c.png,,,,,,,,,,,,,,,,,,,
1207.199999999255,,rt_thecrossant_black1,9587422,,,,,,,,black_plus_sign,,,50,,,1,,,,,,,1,,,,,,,,,,,
null,,color_black1,9587540,,,,,,,,black_plus_sign,,,null,,,,,,,,,,,,,,,,,,,,,
null,,learn_phase(without_color)1,9591043,,,,,,,,black_plus_sign,,,null,object_07b.png,object_03c.png,,,,,,,,,,,,,,,,,,,
null,,black_cross(without_color)1,9591899,,,,,,,,blue,,,null,object_07b.png,object_03c.png,,,,,,,,,,,,,,,,,,,
null,,rt_plussign_withcolor1,9592400,,,,,,,,blue,,,null,object_07b.png,object_03c.png,,,,,,,,,,,,,,,,,,,
1331,,rt_thecrossant_black1,9593550,,,,,,,,black_plus_sign,,,50,,,0,,,,,,,0.6666666666666666,,,,,,,,,,,
null,,color_black1,9593652,,,,,,,,black_plus_sign,,,null,,,,,,,,,,,,,,,,,,,,,
null,,learn_phase(without_color)1,9597156,,,,,,,,black_plus_sign,,,null,object_13a.png,object_01a.png,,,,,,,,,,,,,,,,,,,
null,,black_cross(without_color)1,9598179,,,,,,,,blue,,,null,object_13a.png,object_01a.png,,,,,,,,,,,,,,,,,,,
null,,rt_plussign_withcolor1,9598680,,,,,,,,blue,,,null,object_13a.png,object_01a.png,,,,,,,,,,,,,,,,,,,
1039.300000000745,,rt_thecrossant_black1,9599662,,,,,,,,black_plus_sign,,,49,,,1,,,,,,,0.75,,,,,,,,,,,
null,,color_black1,9599765,,,,,,,,black_plus_sign,,,null,,,,,,,,,,,,,,,,,,,,,
null,,learn_phase(without_color)1,9603268,,,,,,,,black_plus_sign,,,null,object_02c.png,object_12a.png,,,,,,,,,,,,,,,,,,,
null,,black_cross(without_color)1,9604248,,,,,,,,green,,,null,object_02c.png,object_12a.png,,,,,,,,,,,,,,,,,,,
null,,rt_plussign_withcolor1,9604751,,,,,,,,green,,,null,object_02c.png,object_12a.png,,,,,,,,,,,,,,,,,,,
1269.3999999985099,,rt_thecrossant_black1,9605779,,,,,,,,black_plus_sign,,,50,,,1,,,,,,,0.8,,,,,,,,,,,
null,,color_black1,9605880,,,,,,,,black_plus_sign,,,null,,,,,,,,,,,,,,,,,,,,,
null,,learn_phase(without_color)1,9609383,,,,,,,,black_plus_sign,,,null,object_04b.png,object_05a.png,,,,,,,,,,,,,,,,,,,
null,,black_cross(without_color)1,9609882,,,,,,,,blue,,,null,object_04b.png,object_05a.png,,,,,,,,,,,,,,,,,,,
null,,rt_plussign_withcolor1,9610385,,,,,,,,blue,,,null,object_04b.png,object_05a.png,,,,,,,,,,,,,,,,,,,
1121.800000000745,,rt_thecrossant_black1,9611917,,,,,,,,black_plus_sign,,,49,,,1,,,,,,,0.8333333333333334,,,,,,,,,,,
null,,color_black1,9612027,,,,,,,,black_plus_sign,,,null,,,,,,,,,,,,,,,,,,,,,
null,,learn_phase(without_color)1,9615530,,,,,,,,black_plus_sign,,,null,object_13c.png,object_06a.png,,,,,,,,,,,,,,,,,,,
null,,black_cross(without_color)1,9616509,,,,,,,,green,,,null,object_13c.png,object_06a.png,,,,,,,,,,,,,,,,,,,
null,,rt_plussign_withcolor1,9617010,,,,,,,,green,,,null,object_13c.png,object_06a.png,,,,,,,,,,,,,,,,,,,
603.6000000014901,,rt_thecrossant_black1,9618036,,,,,,,,black_plus_sign,,,50,,,1,,,,,,,0.8571428571428571,,,,,,,,,,,
null,,color_black1,9618139,,,,,,,,black_plus_sign,,,null,,,,,,,,,,,,,,,,,,,,,
null,,learn_phase(without_color)1,9621642,,,,,,,,black_plus_sign,,,null,object_11a.png,object_05c.png,,,,,,,,,,,,,,,,,,,
null,,black_cross(without_color)1,9622475,,,,,,,,blue,,,null,object_11a.png,object_05c.png,,,,,,,,,,,,,,,,,,,
null,,rt_plussign_withcolor1,9622977,,,,,,,,blue,,,null,object_11a.png,object_05c.png,,,,,,,,,,,,,,,,,,,
1202.2000000029802,,rt_thecrossant_black1,9624158,,,,,,,,black_plus_sign,,,49,,,1,,,,,,,0.875,,,,,,,,,,,
null,,color_black1,9624262,,,,,,,,black_plus_sign,,,null,,,,,,,,,,,,,,,,,,,,,
null,,learn_phase(without_color)1,9627764,,,,,,,,black_plus_sign,,,null,object_01b.png,object_10b.png,,,,,,,,,,,,,,,,,,,
null,,black_cross(without_color)1,9628295,,,,,,,,green,,,null,object_01b.png,object_10b.png,,,,,,,,,,,,,,,,,,,
null,,rt_plussign_withcolor1,9628811,,,,,,,,green,,,null,object_01b.png,object_10b.png,,,,,,,,,,,,,,,,,,,
1118.7999999970198,,rt_thecrossant_black1,9630285,,,,,,,,black_plus_sign,,,50,,,1,,,,,,,0.8888888888888888,,,,,,,,,,,
null,,color_black1,9630388,,,,,,,,black_plus_sign,,,null,,,,,,,,,,,,,,,,,,,,,
null,,learn_phase(without_color)1,9633892,,,,,,,,black_plus_sign,,,null,object_15c.png,object_14a.png,,,,,,,,,,,,,,,,,,,
null,,black_cross(without_color)1,9634465,,,,,,,,green,,,null,object_15c.png,object_14a.png,,,,,,,,,,,,,,,,,,,
483.6000000014901,,rt_plussign_withcolor1,9634967,,,,,,,,green,,,50,object_15c.png,object_14a.png,,,,,,,,,,,,,,,,,,,
null,,rt_thecrossant_black1,9636399,,,,,,,,black_plus_sign,,,null,,,1,,,,,,,0.9,,,,,,,,,,,
null,,color_black1,9636501,,,,,,,,black_plus_sign,,,null,,,,,,,,,,,,,,,,,,,,,
null,,learn_phase(without_color)1,9640004,,,,,,,,black_plus_sign,,,null,object_13b.png,object_07a.png,,,,,,,,,,,,,,,,,,,
null,,black_cross(without_color)1,9640656,,,,,,,,green,,,null,object_13b.png,object_07a.png,,,,,,,,,,,,,,,,,,,
352.19999999925494,,rt_plussign_withcolor1,9641159,,,,,,,,green,,,49,object_13b.png,object_07a.png,,,,,,,,,,,,,,,,,,,
null,,rt_thecrossant_black1,9642512,,,,,,,,black_plus_sign,,,null,,,0,,,,,,,0.8181818181818182,,,,,,,,,,,
null,,color_black1,9642614,,,,,,,,black_plus_sign,,,null,,,,,,,,,,,,,,,,,,,,,
null,,learn_phase(without_color)1,9646117,,,,,,,,black_plus_sign,,,null,object_01c.png,object_05b.png,,,,,,,,,,,,,,,,,,,
null,,black_cross(without_color)1,9646534,,,,,,,,blue,,,null,object_01c.png,object_05b.png,,,,,,,,,,,,,,,,,,,
475.5999999977648,,rt_plussign_withcolor1,9647036,,,,,,,,blue,,,50,object_01c.png,object_05b.png,,,,,,,,,,,,,,,,,,,
null,,rt_thecrossant_black1,9648623,,,,,,,,black_plus_sign,,,null,,,0,,,,,,,0.75,,,,,,,,,,,
null,,warning_page,9653626,,,,,,,,warning,,,null,,,,,,,,,,,,,,,,,,,,,
null,,color_black1,9653732,,,,,,,,black_plus_sign,,,null,,,,,,,,,,,,,,,,,,,,,
null,,learn_phase(without_color)1,9657234,,,,,,,,black_plus_sign,,,null,object_14c.png,object_06c.png,,,,,,,,,,,,,,,,,,,
null,,black_cross(without_color)1,9658228,,,,,,,,green,,,null,object_14c.png,object_06c.png,,,,,,,,,,,,,,,,,,,
null,,rt_plussign_withcolor1,9658730,,,,,,,,green,,,null,object_14c.png,object_06c.png,,,,,,,,,,,,,,,,,,,
643.3000000007451,,rt_thecrossant_black1,9659741,,,,,,,,black_plus_sign,,,50,,,1,,,,,,,0.7692307692307693,,,,,,,,,,,
null,,color_black1,9659843,,,,,,,,black_plus_sign,,,null,,,,,,,,,,,,,,,,,,,,,
null,,learn_phase(without_color)1,9663345,,,,,,,,black_plus_sign,,,null,object_09b.png,object_06b.png,,,,,,,,,,,,,,,,,,,
null,,black_cross(without_color)1,9663793,,,,,,,,green,,,null,object_09b.png,object_06b.png,,,,,,,,,,,,,,,,,,,
null,,rt_plussign_withcolor1,9664295,,,,,,,,green,,,null,object_09b.png,object_06b.png,,,,,,,,,,,,,,,,,,,
1092.3999999985099,,rt_thecrossant_black1,9665852,,,,,,,,black_plus_sign,,,50,,,1,,,,,,,0.7857142857142857,,,,,,,,,,,
null,,color_black1,9665955,,,,,,,,black_plus_sign,,,null,,,,,,,,,,,,,,,,,,,,,
null,,thebreak,9666060,,,,,,,,<p></p>,,,null,,,,,,,,,,,,,,,,,,,,,
2520.800000000745,,intro_0,9668583,,,,,,,,instruct,,,32,,,,,,,,,,,,,,,,,,,,,
null,,directmemory_phase1,9683585,,,,,,,,object_02c.png,,,null,,,0,,object_05b.png,object_06a.png,object_12a.png,object_12a.png,,0,,0,,,,,,,,,
null,,warning_page,9688594,,,,,,,,warning,,,null,,,,,,,,,,,,,,,,,,,,,
2117.800000000745,,directmemory_phase1,9690713,,,,,,,,object_06b.png,,,49,,,0,,object_07c.png,object_09b.png,object_13b.png,object_09b.png,,0,,0,,,,,,,,,
3427.699999999255,,directmemory_phase1,9694144,,,,,,,,object_15c.png,,,49,,,1,,object_14a.png,object_08a.png,object_02b.png,object_14a.png,,0.3333333333333333,,1,,,,,,,,,
2810.5,,directmemory_phase1,9696956,,,,,,,,object_01c.png,,,50,,,0,,object_09b.png,object_07a.png,object_05b.png,object_05b.png,,0.25,,0,,,,,,,,,
2483.800000000745,,directmemory_phase1,9699443,,,,,,,,object_06a.png,,,51,,,0,,object_07a.png,object_13c.png,object_01a.png,object_13c.png,,0.2,,0,,,,,,,,,
1997.8999999985099,,directmemory_phase1,9701443,,,,,,,,object_04b.png,,,50,,,0,,object_05a.png,object_01a.png,object_14c.png,object_05a.png,,0.16666666666666666,,0,,,,,,,,,
2100.800000000745,,directmemory_phase1,9703546,,,,,,,,object_13a.png,,,50,,,1,,object_07a.png,object_01a.png,object_13c.png,object_01a.png,,0.2857142857142857,,1,,,,,,,,,
1749.5999999977648,,directmemory_phase1,9705298,,,,,,,,object_01b.png,,,49,,,1,,object_10b.png,object_09b.png,object_14c.png,object_10b.png,,0.375,,1,,,,,,,,,
2410.5,,directmemory_phase1,9707710,,,,,,,,object_07c.png,,,49,,,0,,object_15c.png,object_08c.png,object_09b.png,object_08c.png,,0.3333333333333333,,0,,,,,,,,,
1847.1000000014901,,directmemory_phase1,9709560,,,,,,,,object_04a.png,,,50,,,0,,object_12b.png,object_13c.png,object_13a.png,object_12b.png,,0.3,,0,,,,,,,,,
2301.699999999255,,directmemory_phase1,9711863,,,,,,,,object_07a.png,,,51,,,1,,object_08c.png,object_06a.png,object_13b.png,object_13b.png,,0.36363636363636365,,1,,,,,,,,,
2102.5,,directmemory_phase1,9713968,,,,,,,,object_14c.png,,,50,,,1,,object_07c.png,object_06c.png,object_11a.png,object_06c.png,,0.4166666666666667,,1,,,,,,,,,
2085.89999999851,,directmemory_phase1,9716057,,,,,,,,object_05c.png,,,51,,,1,,object_14a.png,object_07c.png,object_11a.png,object_11a.png,,0.46153846153846156,,1,,,,,,,,,
1937.5,,directmemory_phase1,9717997,,,,,,,,object_07b.png,,,51,,,0,,object_14c.png,object_03c.png,object_14a.png,object_03c.png,,0.42857142857142855,,0,,,,,,,,,
1963,,directmemory_phase1,9719962,,,,,,,,object_02b.png,,,50,,,0,,object_08a.png,object_03c.png,object_04a.png,object_08a.png,,0.4,,0,,,,,,,,,
null,,thebreak,9720066,,,,,,,,<p></p>,,,null,,,,,,,,,,,,,,,,,,,,,
1744.5,,intro_0,9721812,,,,,,,,instruct,,,32,,,,,,,,,,,,,,,,,,,,,
null,,learn_phase(without_color)2,9725313,,,,,,,,black_plus_sign,,,null,object_06b.png,object_09b.png,,,,,,,,,,,,,,,,,,,
null,,black_cross(without_color)2,9726401,,,,,,,,green,,,null,object_06b.png,object_09b.png,,,,,,,,,,,,,,,,,,,
null,,rt_plussign_withcolor2,9726903,,,,,,,,green,,,null,object_06b.png,object_09b.png,,,,,,,,,,,,,,,,,,,
1430,,rt_thecrossant_black2,9727821,,,,,,,,black_plus_sign,,,50,,,1,,,,,,,1,,,,,,,,,,,
null,,color_black2,9727925,,,,,,,,black_plus_sign,,,null,,,,,,,,,,,,,,,,,,,,,
null,,learn_phase(without_color)2,9731427,,,,,,,,black_plus_sign,,,null,object_07a.png,object_13b.png,,,,,,,,,,,,,,,,,,,
null,,black_cross(without_color)2,9731916,,,,,,,,green,,,null,object_07a.png,object_13b.png,,,,,,,,,,,,,,,,,,,
450.30000000074506,,rt_plussign_withcolor2,9732418,,,,,,,,green,,,50,object_07a.png,object_13b.png,,,,,,,,,,,,,,,,,,,
null,,rt_thecrossant_black2,9733937,,,,,,,,black_plus_sign,,,null,,,1,,,,,,,1,,,,,,,,,,,
null,,color_black2,9734039,,,,,,,,black_plus_sign,,,null,,,,,,,,,,,,,,,,,,,,,
null,,learn_phase(without_color)2,9737543,,,,,,,,black_plus_sign,,,null,object_15c.png,object_14a.png,,,,,,,,,,,,,,,,,,,
null,,black_cross(without_color)2,9737974,,,,,,,,blue,,,null,object_15c.png,object_14a.png,,,,,,,,,,,,,,,,,,,
415.5,,rt_plussign_withcolor2,9738476,,,,,,,,blue,,,49,object_15c.png,object_14a.png,,,,,,,,,,,,,,,,,,,
null,,rt_thecrossant_black2,9740062,,,,,,,,black_plus_sign,,,null,,,1,,,,,,,1,,,,,,,,,,,
null,,color_black2,9740164,,,,,,,,black_plus_sign,,,null,,,,,,,,,,,,,,,,,,,,,
null,,learn_phase(without_color)2,9743667,,,,,,,,black_plus_sign,,,null,object_13a.png,object_01a.png,,,,,,,,,,,,,,,,,,,
null,,black_cross(without_color)2,9744558,,,,,,,,blue,,,null,object_13a.png,object_01a.png,,,,,,,,,,,,,,,,,,,
446.70000000298023,,rt_plussign_withcolor2,9745060,,,,,,,,blue,,,49,object_13a.png,object_01a.png,,,,,,,,,,,,,,,,,,,
null,,rt_thecrossant_black2,9746187,,,,,,,,black_plus_sign,,,null,,,1,,,,,,,1,,,,,,,,,,,
null,,color_black2,9746290,,,,,,,,black_plus_sign,,,null,,,,,,,,,,,,,,,,,,,,,
null,,learn_phase(without_color)2,9749793,,,,,,,,black_plus_sign,,,null,object_13c.png,object_06a.png,,,,,,,,,,,,,,,,,,,
null,,black_cross(without_color)2,9750506,,,,,,,,blue,,,null,object_13c.png,object_06a.png,,,,,,,,,,,,,,,,,,,
null,,rt_plussign_withcolor2,9751007,,,,,,,,blue,,,null,object_13c.png,object_06a.png,,,,,,,,,,,,,,,,,,,
994.5999999977648,,rt_thecrossant_black2,9752299,,,,,,,,black_plus_sign,,,49,,,1,,,,,,,1,,,,,,,,,,,
null,,color_black2,9752401,,,,,,,,black_plus_sign,,,null,,,,,,,,,,,,,,,,,,,,,
null,,learn_phase(without_color)2,9755905,,,,,,,,black_plus_sign,,,null,object_04a.png,object_12b.png,,,,,,,,,,,,,,,,,,,
null,,black_cross(without_color)2,9756711,,,,,,,,blue,,,null,object_04a.png,object_12b.png,,,,,,,,,,,,,,,,,,,
null,,rt_plussign_withcolor2,9757213,,,,,,,,blue,,,null,object_04a.png,object_12b.png,,,,,,,,,,,,,,,,,,,
1003.4000000022352,,rt_thecrossant_black2,9758424,,,,,,,,black_plus_sign,,,49,,,1,,,,,,,1,,,,,,,,,,,
null,,color_black2,9758526,,,,,,,,black_plus_sign,,,null,,,,,,,,,,,,,,,,,,,,,
null,,learn_phase(without_color)2,9762030,,,,,,,,black_plus_sign,,,null,object_11a.png,object_05c.png,,,,,,,,,,,,,,,,,,,
null,,black_cross(without_color)2,9762679,,,,,,,,green,,,null,object_11a.png,object_05c.png,,,,,,,,,,,,,,,,,,,
null,,rt_plussign_withcolor2,9763181,,,,,,,,green,,,null,object_11a.png,object_05c.png,,,,,,,,,,,,,,,,,,,
966.8000000007451,,rt_thecrossant_black2,9764540,,,,,,,,black_plus_sign,,,50,,,1,,,,,,,1,,,,,,,,,,,
null,,color_black2,9764643,,,,,,,,black_plus_sign,,,null,,,,,,,,,,,,,,,,,,,,,
null,,learn_phase(without_color)2,9768157,,,,,,,,black_plus_sign,,,null,object_03c.png,object_07b.png,,,,,,,,,,,,,,,,,,,
null,,black_cross(without_color)2,9768838,,,,,,,,blue,,,null,object_03c.png,object_07b.png,,,,,,,,,,,,,,,,,,,
490.8999999985099,,rt_plussign_withcolor2,9769340,,,,,,,,blue,,,49,object_03c.png,object_07b.png,,,,,,,,,,,,,,,,,,,
null,,rt_thecrossant_black2,9770666,,,,,,,,black_plus_sign,,,null,,,1,,,,,,,1,,,,,,,,,,,
null,,color_black2,9770768,,,,,,,,black_plus_sign,,,null,,,,,,,,,,,,,,,,,,,,,
null,,learn_phase(without_color)2,9774272,,,,,,,,black_plus_sign,,,null,object_08a.png,object_02b.png,,,,,,,,,,,,,,,,,,,
null,,black_cross(without_color)2,9774976,,,,,,,,green,,,null,object_08a.png,object_02b.png,,,,,,,,,,,,,,,,,,,
455.3999999985099,,rt_plussign_withcolor2,9775478,,,,,,,,green,,,50,object_08a.png,object_02b.png,,,,,,,,,,,,,,,,,,,
null,,rt_thecrossant_black2,9776793,,,,,,,,black_plus_sign,,,null,,,1,,,,,,,1,,,,,,,,,,,
null,,color_black2,9776897,,,,,,,,black_plus_sign,,,null,,,,,,,,,,,,,,,,,,,,,
null,,learn_phase(without_color)2,9780401,,,,,,,,black_plus_sign,,,null,object_01b.png,object_10b.png,,,,,,,,,,,,,,,,,,,
null,,black_cross(without_color)2,9781178,,,,,,,,blue,,,null,object_01b.png,object_10b.png,,,,,,,,,,,,,,,,,,,
432.9000000022352,,rt_plussign_withcolor2,9781679,,,,,,,,blue,,,49,object_01b.png,object_10b.png,,,,,,,,,,,,,,,,,,,
null,,rt_thecrossant_black2,9782918,,,,,,,,black_plus_sign,,,null,,,1,,,,,,,1,,,,,,,,,,,
null,,color_black2,9783020,,,,,,,,black_plus_sign,,,null,,,,,,,,,,,,,,,,,,,,,
null,,learn_phase(without_color)2,9786522,,,,,,,,black_plus_sign,,,null,object_05a.png,object_04b.png,,,,,,,,,,,,,,,,,,,
null,,black_cross(without_color)2,9786946,,,,,,,,green,,,null,object_05a.png,object_04b.png,,,,,,,,,,,,,,,,,,,
442.5,,rt_plussign_withcolor2,9787450,,,,,,,,green,,,50,object_05a.png,object_04b.png,,,,,,,,,,,,,,,,,,,
null,,rt_thecrossant_black2,9789029,,,,,,,,black_plus_sign,,,null,,,1,,,,,,,1,,,,,,,,,,,
null,,color_black2,9789132,,,,,,,,black_plus_sign,,,null,,,,,,,,,,,,,,,,,,,,,
null,,learn_phase(without_color)2,9792636,,,,,,,,black_plus_sign,,,null,object_05b.png,object_01c.png,,,,,,,,,,,,,,,,,,,
null,,black_cross(without_color)2,9793458,,,,,,,,green,,,null,object_05b.png,object_01c.png,,,,,,,,,,,,,,,,,,,
null,,rt_plussign_withcolor2,9793960,,,,,,,,green,,,null,object_05b.png,object_01c.png,,,,,,,,,,,,,,,,,,,
542,,rt_thecrossant_black2,9795143,,,,,,,,black_plus_sign,,,50,,,1,,,,,,,1,,,,,,,,,,,
null,,color_black2,9795245,,,,,,,,black_plus_sign,,,null,,,,,,,,,,,,,,,,,,,,,
null,,learn_phase(without_color)2,9798747,,,,,,,,black_plus_sign,,,null,object_07c.png,object_08c.png,,,,,,,,,,,,,,,,,,,
null,,black_cross(without_color)2,9799285,,,,,,,,green,,,null,object_07c.png,object_08c.png,,,,,,,,,,,,,,,,,,,
485.29999999701977,,rt_plussign_withcolor2,9799786,,,,,,,,green,,,50,object_07c.png,object_08c.png,,,,,,,,,,,,,,,,,,,
null,,rt_thecrossant_black2,9801253,,,,,,,,black_plus_sign,,,null,,,1,,,,,,,1,,,,,,,,,,,
null,,color_black2,9801356,,,,,,,,black_plus_sign,,,null,,,,,,,,,,,,,,,,,,,,,
null,,learn_phase(without_color)2,9804860,,,,,,,,black_plus_sign,,,null,object_12a.png,object_02c.png,,,,,,,,,,,,,,,,,,,
null,,black_cross(without_color)2,9805578,,,,,,,,green,,,null,object_12a.png,object_02c.png,,,,,,,,,,,,,,,,,,,
450,,rt_plussign_withcolor2,9806079,,,,,,,,green,,,50,object_12a.png,object_02c.png,,,,,,,,,,,,,,,,,,,
null,,rt_thecrossant_black2,9807366,,,,,,,,black_plus_sign,,,null,,,1,,,,,,,1,,,,,,,,,,,
null,,color_black2,9807469,,,,,,,,black_plus_sign,,,null,,,,,,,,,,,,,,,,,,,,,
null,,learn_phase(without_color)2,9810971,,,,,,,,black_plus_sign,,,null,object_06c.png,object_14c.png,,,,,,,,,,,,,,,,,,,
null,,black_cross(without_color)2,9812003,,,,,,,,green,,,null,object_06c.png,object_14c.png,,,,,,,,,,,,,,,,,,,
491.3999999985099,,rt_plussign_withcolor2,9812504,,,,,,,,green,,,50,object_06c.png,object_14c.png,,,,,,,,,,,,,,,,,,,
null,,rt_thecrossant_black2,9813477,,,,,,,,black_plus_sign,,,null,,,1,,,,,,,1,,,,,,,,,,,
null,,color_black2,9813580,,,,,,,,black_plus_sign,,,null,,,,,,,,,,,,,,,,,,,,,
null,,thebreak,9813683,,,,,,,,<p></p>,,,null,,,,,,,,,,,,,,,,,,,,,
2336.699999999255,,intro_0,9816021,,,,,,,,instruct,,,32,,,,,,,,,,,,,,,,,,,,,
4944.199999999255,,directmemory_phase2,9820966,,,,,,,,object_15c.png,,,50,,,1,,object_01b.png,object_14a.png,object_05b.png,object_14a.png,,0.4375,,1,,,,,,,,,
1543.4000000022352,,directmemory_phase2,9822513,,,,,,,,object_06a.png,,,49,,,0,,object_04b.png,object_13c.png,object_14a.png,object_13c.png,,0.4117647058823529,,0,,,,,,,,,
1190.800000000745,,directmemory_phase2,9823706,,,,,,,,object_04b.png,,,50,,,0,,object_05a.png,object_10b.png,object_07b.png,object_05a.png,,0.3888888888888889,,0,,,,,,,,,
1096.4000000022352,,directmemory_phase2,9824805,,,,,,,,object_07b.png,,,49,,,1,,object_03c.png,object_08a.png,object_01c.png,object_03c.png,,0.42105263157894735,,1,,,,,,,,,
1470.7999999970198,,directmemory_phase2,9826278,,,,,,,,object_07c.png,,,50,,,0,,object_10b.png,object_01c.png,object_08c.png,object_08c.png,,0.4,,0,1,,,,,,,,
null,,slowdown_page,9836282,,,,,,,,too_quick,,,null,,,,,,,,,,,,,,,,,,,,,
2255.39999999851,,directmemory_phase2,9838539,,,,,,,,object_01b.png,,,49,,,0,,object_05a.png,object_07a.png,object_10b.png,object_10b.png,,0.38095238095238093,,0,,,,,,,,,
2445,,directmemory_phase2,9840987,,,,,,,,object_07a.png,,,50,,,0,,object_13b.png,object_12b.png,object_15c.png,object_13b.png,,0.36363636363636365,,0,,,,,,,,,
2882.099999997765,,directmemory_phase2,9843871,,,,,,,,object_01c.png,,,49,,,0,,object_14a.png,object_06a.png,object_05b.png,object_05b.png,,0.34782608695652173,,0,,,,,,,,,
2644.199999999255,,directmemory_phase2,9846518,,,,,,,,object_02b.png,,,51,,,0,,object_08a.png,object_05b.png,object_15c.png,object_08a.png,,0.3333333333333333,,0,,,,,,,,,
3575.5,,directmemory_phase2,9850096,,,,,,,,object_04a.png,,,51,,,0,,object_07a.png,object_12b.png,object_08a.png,object_12b.png,,0.32,,0,,,,,,,,,
3364.10000000149,,directmemory_phase2,9853462,,,,,,,,object_14c.png,,,51,,,0,,object_06c.png,object_11a.png,object_04a.png,object_06c.png,,0.3076923076923077,,0,,,,,,,,,
2603.2000000029802,,directmemory_phase2,9856068,,,,,,,,object_06b.png,,,50,,,0,,object_09b.png,object_06c.png,object_14c.png,object_09b.png,,0.2962962962962963,,0,,,,,,,,,
2937.89999999851,,directmemory_phase2,9859008,,,,,,,,object_05c.png,,,50,,,1,,object_13a.png,object_11a.png,object_10b.png,object_11a.png,,0.32142857142857145,,1,,,,,,,,,
2892.699999999255,,directmemory_phase2,9861903,,,,,,,,object_02c.png,,,49,,,0,,object_01a.png,object_14c.png,object_12a.png,object_12a.png,,0.3103448275862069,,0,,,,,,,,,
2842.800000000745,,directmemory_phase2,9864749,,,,,,,,object_13a.png,,,50,,,1,,object_05c.png,object_01a.png,object_08a.png,object_01a.png,,0.3333333333333333,,1,,,,,,,,,
null,,thebreak,9864851,,,,,,,,<p></p>,,,null,,,,,,,,,,,,,,,,,,,,,
2502.699999999255,,intro_0,9867356,,,,,,,,instruct,,,32,,,,,,,,,,,,,,,,,,,,,
null,,learn_phase(without_color)3,9870858,,,,,,,,black_plus_sign,,,null,object_11a.png,object_05c.png,,,,,,,,,,,,,,,,,,,
null,,black_cross(without_color)3,9871827,,,,,,,,green,,,null,object_11a.png,object_05c.png,,,,,,,,,,,,,,,,,,,
null,,rt_plussign_withcolor3,9872329,,,,,,,,green,,,null,object_11a.png,object_05c.png,,,,,,,,,,,,,,,,,,,
1079.0999999977648,,rt_thecrossant_black3,9873366,,,,,,,,black_plus_sign,,,49,,,0,,,,,,,0,,,,,,,,,,,
null,,color_black3,9873468,,,,,,,,black_plus_sign,,,null,,,,,,,,,,,,,,,,,,,,,
null,,learn_phase(without_color)3,9876971,,,,,,,,black_plus_sign,,,null,object_10b.png,object_01b.png,,,,,,,,,,,,,,,,,,,
null,,black_cross(without_color)3,9878033,,,,,,,,green,,,null,object_10b.png,object_01b.png,,,,,,,,,,,,,,,,,,,
448.20000000298023,,rt_plussign_withcolor3,9878534,,,,,,,,green,,,50,object_10b.png,object_01b.png,,,,,,,,,,,,,,,,,,,
null,,rt_thecrossant_black3,9879477,,,,,,,,black_plus_sign,,,null,,,1,,,,,,,0.5,,,,,,,,,,,
null,,color_black3,9879586,,,,,,,,black_plus_sign,,,null,,,,,,,,,,,,,,,,,,,,,
null,,learn_phase(without_color)3,9883090,,,,,,,,black_plus_sign,,,null,object_03c.png,object_07b.png,,,,,,,,,,,,,,,,,,,
null,,black_cross(without_color)3,9883902,,,,,,,,blue,,,null,object_03c.png,object_07b.png,,,,,,,,,,,,,,,,,,,
null,,rt_plussign_withcolor3,9884405,,,,,,,,blue,,,null,object_03c.png,object_07b.png,,,,,,,,,,,,,,,,,,,
1282.300000000745,,rt_thecrossant_black3,9885597,,,,,,,,black_plus_sign,,,49,,,1,,,,,,,0.6666666666666666,,,,,,,,,,,
null,,color_black3,9885699,,,,,,,,black_plus_sign,,,null,,,,,,,,,,,,,,,,,,,,,
null,,learn_phase(without_color)3,9889203,,,,,,,,black_plus_sign,,,null,object_12a.png,object_02c.png,,,,,,,,,,,,,,,,,,,
null,,black_cross(without_color)3,9889670,,,,,,,,blue,,,null,object_12a.png,object_02c.png,,,,,,,,,,,,,,,,,,,
null,,rt_plussign_withcolor3,9890172,,,,,,,,blue,,,null,object_12a.png,object_02c.png,,,,,,,,,,,,,,,,,,,
917.6000000014901,,rt_thecrossant_black3,9891715,,,,,,,,black_plus_sign,,,50,,,0,,,,,,,0.5,,,,,,,,,,,
null,,color_black3,9891817,,,,,,,,black_plus_sign,,,null,,,,,,,,,,,,,,,,,,,,,
null,,learn_phase(without_color)3,9895321,,,,,,,,black_plus_sign,,,null,object_09b.png,object_06b.png,,,,,,,,,,,,,,,,,,,
null,,black_cross(without_color)3,9896001,,,,,,,,green,,,null,object_09b.png,object_06b.png,,,,,,,,,,,,,,,,,,,
null,,rt_plussign_withcolor3,9896504,,,,,,,,green,,,null,object_09b.png,object_06b.png,,,,,,,,,,,,,,,,,,,
632.1999999992549,,rt_thecrossant_black3,9897830,,,,,,,,black_plus_sign,,,50,,,1,,,,,,,0.6,,,,,,,,,,,
null,,color_black3,9897933,,,,,,,,black_plus_sign,,,null,,,,,,,,,,,,,,,,,,,,,
null,,learn_phase(without_color)3,9901436,,,,,,,,black_plus_sign,,,null,object_12b.png,object_04a.png,,,,,,,,,,,,,,,,,,,
null,,black_cross(without_color)3,9902121,,,,,,,,blue,,,null,object_12b.png,object_04a.png,,,,,,,,,,,,,,,,,,,
null,,rt_plussign_withcolor3,9902623,,,,,,,,blue,,,null,object_12b.png,object_04a.png,,,,,,,,,,,,,,,,,,,
897.1999999992549,,rt_thecrossant_black3,9903943,,,,,,,,black_plus_sign,,,49,,,1,,,,,,,0.6666666666666666,,,,,,,,,,,
null,,color_black3,9904045,,,,,,,,black_plus_sign,,,null,,,,,,,,,,,,,,,,,,,,,
null,,learn_phase(without_color)3,9907551,,,,,,,,black_plus_sign,,,null,object_13a.png,object_01a.png,,,,,,,,,,,,,,,,,,,
null,,black_cross(without_color)3,9907975,,,,,,,,green,,,null,object_13a.png,object_01a.png,,,,,,,,,,,,,,,,,,,
null,,rt_plussign_withcolor3,9908477,,,,,,,,green,,,null,object_13a.png,object_01a.png,,,,,,,,,,,,,,,,,,,
854.1000000014901,,rt_thecrossant_black3,9910059,,,,,,,,black_plus_sign,,,50,,,1,,,,,,,0.7142857142857143,,,,,,,,,,,
null,,color_black3,9910161,,,,,,,,black_plus_sign,,,null,,,,,,,,,,,,,,,,,,,,,
null,,learn_phase(without_color)3,9913664,,,,,,,,black_plus_sign,,,null,object_13c.png,object_06a.png,,,,,,,,,,,,,,,,,,,
null,,black_cross(without_color)3,9914358,,,,,,,,green,,,null,object_13c.png,object_06a.png,,,,,,,,,,,,,,,,,,,
null,,rt_plussign_withcolor3,9914860,,,,,,,,green,,,null,object_13c.png,object_06a.png,,,,,,,,,,,,,,,,,,,
532.5,,rt_thecrossant_black3,9916173,,,,,,,,black_plus_sign,,,50,,,1,,,,,,,0.75,,,,,,,,,,,
null,,color_black3,9916275,,,,,,,,black_plus_sign,,,null,,,,,,,,,,,,,,,,,,,,,
null,,learn_phase(without_color)3,9919779,,,,,,,,black_plus_sign,,,null,object_13b.png,object_07a.png,,,,,,,,,,,,,,,,,,,
null,,black_cross(without_color)3,9920246,,,,,,,,green,,,null,object_13b.png,object_07a.png,,,,,,,,,,,,,,,,,,,
null,,rt_plussign_withcolor3,9920748,,,,,,,,green,,,null,object_13b.png,object_07a.png,,,,,,,,,,,,,,,,,,,
875.2000000029802,,rt_thecrossant_black3,9922285,,,,,,,,black_plus_sign,,,50,,,1,,,,,,,0.7777777777777778,,,,,,,,,,,
null,,color_black3,9922387,,,,,,,,black_plus_sign,,,null,,,,,,,,,,,,,,,,,,,,,
null,,learn_phase(without_color)3,9925891,,,,,,,,black_plus_sign,,,null,object_01c.png,object_05b.png,,,,,,,,,,,,,,,,,,,
null,,black_cross(without_color)3,9926901,,,,,,,,green,,,null,object_01c.png,object_05b.png,,,,,,,,,,,,,,,,,,,
null,,rt_plussign_withcolor3,9927402,,,,,,,,green,,,null,object_01c.png,object_05b.png,,,,,,,,,,,,,,,,,,,
569.5,,rt_thecrossant_black3,9928399,,,,,,,,black_plus_sign,,,50,,,1,,,,,,,0.8,,,,,,,,,,,
null,,color_black3,9928502,,,,,,,,black_plus_sign,,,null,,,,,,,,,,,,,,,,,,,,,
null,,learn_phase(without_color)3,9932007,,,,,,,,black_plus_sign,,,null,object_02b.png,object_08a.png,,,,,,,,,,,,,,,,,,,
null,,black_cross(without_color)3,9933053,,,,,,,,blue,,,null,object_02b.png,object_08a.png,,,,,,,,,,,,,,,,,,,
482.19999999925494,,rt_plussign_withcolor3,9933555,,,,,,,,blue,,,49,object_02b.png,object_08a.png,,,,,,,,,,,,,,,,,,,
null,,rt_thecrossant_black3,9934518,,,,,,,,black_plus_sign,,,null,,,1,,,,,,,0.8181818181818182,,,,,,,,,,,
null,,color_black3,9934621,,,,,,,,black_plus_sign,,,null,,,,,,,,,,,,,,,,,,,,,
null,,learn_phase(without_color)3,9938124,,,,,,,,black_plus_sign,,,null,object_08c.png,object_07c.png,,,,,,,,,,,,,,,,,,,
null,,black_cross(without_color)3,9938718,,,,,,,,green,,,null,object_08c.png,object_07c.png,,,,,,,,,,,,,,,,,,,
null,,rt_plussign_withcolor3,9939219,,,,,,,,green,,,null,object_08c.png,object_07c.png,,,,,,,,,,,,,,,,,,,
1349.199999999255,,rt_thecrossant_black3,9940632,,,,,,,,black_plus_sign,,,50,,,1,,,,,,,0.8333333333333334,,,,,,,,,,,
null,,color_black3,9940734,,,,,,,,black_plus_sign,,,null,,,,,,,,,,,,,,,,,,,,,
null,,learn_phase(without_color)3,9944237,,,,,,,,black_plus_sign,,,null,object_06c.png,object_14c.png,,,,,,,,,,,,,,,,,,,
null,,black_cross(without_color)3,9944952,,,,,,,,blue,,,null,object_06c.png,object_14c.png,,,,,,,,,,,,,,,,,,,
null,,rt_plussign_withcolor3,9945454,,,,,,,,blue,,,null,object_06c.png,object_14c.png,,,,,,,,,,,,,,,,,,,
753,,rt_thecrossant_black3,9946745,,,,,,,,black_plus_sign,,,49,,,1,,,,,,,0.8461538461538461,,,,,,,,,,,
null,,color_black3,9946848,,,,,,,,black_plus_sign,,,null,,,,,,,,,,,,,,,,,,,,,
null,,learn_phase(without_color)3,9950351,,,,,,,,black_plus_sign,,,null,object_04b.png,object_05a.png,,,,,,,,,,,,,,,,,,,
null,,black_cross(without_color)3,9951166,,,,,,,,green,,,null,object_04b.png,object_05a.png,,,,,,,,,,,,,,,,,,,
null,,rt_plussign_withcolor3,9951669,,,,,,,,green,,,null,object_04b.png,object_05a.png,,,,,,,,,,,,,,,,,,,
915.8999999985099,,rt_thecrossant_black3,9952859,,,,,,,,black_plus_sign,,,50,,,1,,,,,,,0.8571428571428571,,,,,,,,,,,
null,,color_black3,9952961,,,,,,,,black_plus_sign,,,null,,,,,,,,,,,,,,,,,,,,,
null,,learn_phase(without_color)3,9956464,,,,,,,,black_plus_sign,,,null,object_14a.png,object_15c.png,,,,,,,,,,,,,,,,,,,
null,,black_cross(without_color)3,9957080,,,,,,,,green,,,null,object_14a.png,object_15c.png,,,,,,,,,,,,,,,,,,,
null,,rt_plussign_withcolor3,9957582,,,,,,,,green,,,null,object_14a.png,object_15c.png,,,,,,,,,,,,,,,,,,,
944.1999999992549,,rt_thecrossant_black3,9958972,,,,,,,,black_plus_sign,,,50,,,1,,,,,,,0.8666666666666667,,,,,,,,,,,
null,,color_black3,9959074,,,,,,,,black_plus_sign,,,null,,,,,,,,,,,,,,,,,,,,,
null,,thebreak,9959176,,,,,,,,<p></p>,,,null,,,,,,,,,,,,,,,,,,,,,
1859.0999999977648,,intro_0,9961037,,,,,,,,instruct,,,32,,,,,,,,,,,,,,,,,,,,,
2729.300000000745,,directmemory_phase3,9963768,,,,,,,,object_01b.png,,,49,,,1,,object_10b.png,object_08c.png,object_05c.png,object_10b.png,,0.3548387096774194,,1,,,,,,,,,
3364.7999999970198,,directmemory_phase3,9967135,,,,,,,,object_05c.png,,,49,,,0,,object_03c.png,object_07c.png,object_11a.png,object_11a.png,,0.34375,,0,,,,,,,,,
4062.60000000149,,directmemory_phase3,9971200,,,,,,,,object_02c.png,,,50,,,1,,object_04b.png,object_12a.png,object_05a.png,object_12a.png,,0.36363636363636365,,1,,,,,,,,,
4065.10000000149,,directmemory_phase3,9975268,,,,,,,,object_07c.png,,,51,,,0,,object_07a.png,object_08c.png,object_12b.png,object_08c.png,,0.35294117647058826,,0,,,,,,,,,
4607.900000002235,,directmemory_phase3,9979879,,,,,,,,object_02b.png,,,50,,,0,,object_05b.png,object_05c.png,object_08a.png,object_08a.png,,0.34285714285714286,,0,,,,,,,,,
3621.699999999255,,directmemory_phase3,9983503,,,,,,,,object_07b.png,,,50,,,0,,object_03c.png,object_13b.png,object_15c.png,object_03c.png,,0.3333333333333333,,0,,,,,,,,,
3934,,directmemory_phase3,9987439,,,,,,,,object_04a.png,,,49,,,1,,object_12b.png,object_14a.png,object_13a.png,object_12b.png,,0.35135135135135137,,1,,,,,,,,,
3619.199999999255,,directmemory_phase3,9991061,,,,,,,,object_14c.png,,,50,,,0,,object_06c.png,object_12b.png,object_07c.png,object_06c.png,,0.34210526315789475,,0,,,,,,,,,
3703.2000000029802,,directmemory_phase3,9994766,,,,,,,,object_06a.png,,,49,,,0,,object_01c.png,object_13c.png,object_03c.png,object_13c.png,,0.3333333333333333,,0,,,,,,,,,
3766.400000002235,,directmemory_phase3,9998535,,,,,,,,object_06b.png,,,50,,,0,,object_09b.png,object_01a.png,object_04b.png,object_09b.png,,0.325,,0,,,,,,,,,
3720.60000000149,,directmemory_phase3,10002257,,,,,,,,object_07a.png,,,49,,,0,,object_05c.png,object_13b.png,object_11a.png,object_13b.png,,0.3170731707317073,,0,,,,,,,,,
3315.599999997765,,directmemory_phase3,10005575,,,,,,,,object_13a.png,,,50,,,1,,object_07a.png,object_01a.png,object_05b.png,object_01a.png,,0.3333333333333333,,1,,,,,,,,,
3056.89999999851,,directmemory_phase3,10008635,,,,,,,,object_04b.png,,,49,,,0,,object_11a.png,object_14c.png,object_05a.png,object_05a.png,,0.32558139534883723,,0,,,,,,,,,
2797.5,,directmemory_phase3,10011435,,,,,,,,object_01c.png,,,50,,,1,,object_07b.png,object_05b.png,object_06c.png,object_05b.png,,0.3409090909090909,,1,,,,,,,,,
2707.2999999970198,,directmemory_phase3,10014145,,,,,,,,object_15c.png,,,50,,,1,,object_07c.png,object_14a.png,object_10b.png,object_14a.png,,0.35555555555555557,,1,,,,,,,,,
null,,thebreak,10014262,,,,,,,,<p></p>,,,null,,,,,,,,,,,,,,,,,,,,,
2060.5,,intro_0,10016324,,,,,,,,instruct,,,32,,,,,,,,,,,,,,,,,,,,,
null,,learn_phase(without_color)4,10019826,,,,,,,,black_plus_sign,,,null,object_04a.png,object_12b.png,,,,,,,,,,,,,,,,,,,
null,,black_cross(without_color)4,10020424,,,,,,,,blue,,,null,object_04a.png,object_12b.png,,,,,,,,,,,,,,,,,,,
null,,rt_plussign_withcolor4,10020926,,,,,,,,blue,,,null,object_04a.png,object_12b.png,,,,,,,,,,,,,,,,,,,
795.5999999977648,,rt_thecrossant_black4,10022333,,,,,,,,black_plus_sign,,,50,,,0,,,,,,,0,,,,,,,,,,,
null,,color_black4,10022435,,,,,,,,black_plus_sign,,,null,,,,,,,,,,,,,,,,,,,,,
null,,learn_phase(without_color)4,10025939,,,,,,,,black_plus_sign,,,null,object_06c.png,object_14c.png,,,,,,,,,,,,,,,,,,,
null,,black_cross(without_color)4,10026693,,,,,,,,green,,,null,object_06c.png,object_14c.png,,,,,,,,,,,,,,,,,,,
null,,rt_plussign_withcolor4,10027195,,,,,,,,green,,,null,object_06c.png,object_14c.png,,,,,,,,,,,,,,,,,,,
775.0999999977648,,rt_thecrossant_black4,10028448,,,,,,,,black_plus_sign,,,50,,,1,,,,,,,0.5,,,,,,,,,,,
null,,color_black4,10028551,,,,,,,,black_plus_sign,,,null,,,,,,,,,,,,,,,,,,,,,
null,,learn_phase(without_color)4,10032055,,,,,,,,black_plus_sign,,,null,object_10b.png,object_01b.png,,,,,,,,,,,,,,,,,,,
null,,black_cross(without_color)4,10032868,,,,,,,,blue,,,null,object_10b.png,object_01b.png,,,,,,,,,,,,,,,,,,,
485.80000000074506,,rt_plussign_withcolor4,10033369,,,,,,,,blue,,,49,object_10b.png,object_01b.png,,,,,,,,,,,,,,,,,,,
null,,rt_thecrossant_black4,10034561,,,,,,,,black_plus_sign,,,null,,,1,,,,,,,0.6666666666666666,,,,,,,,,,,
null,,color_black4,10034663,,,,,,,,black_plus_sign,,,null,,,,,,,,,,,,,,,,,,,,,
null,,learn_phase(without_color)4,10038167,,,,,,,,black_plus_sign,,,null,object_13b.png,object_07a.png,,,,,,,,,,,,,,,,,,,
null,,black_cross(without_color)4,10038935,,,,,,,,green,,,null,object_13b.png,object_07a.png,,,,,,,,,,,,,,,,,,,
416.1000000014901,,rt_plussign_withcolor4,10039437,,,,,,,,green,,,50,object_13b.png,object_07a.png,,,,,,,,,,,,,,,,,,,
null,,rt_thecrossant_black4,10040673,,,,,,,,black_plus_sign,,,null,,,1,,,,,,,0.75,,,,,,,,,,,
null,,color_black4,10040775,,,,,,,,black_plus_sign,,,null,,,,,,,,,,,,,,,,,,,,,
null,,learn_phase(without_color)4,10044278,,,,,,,,black_plus_sign,,,null,object_03c.png,object_07b.png,,,,,,,,,,,,,,,,,,,
null,,black_cross(without_color)4,10045251,,,,,,,,blue,,,null,object_03c.png,object_07b.png,,,,,,,,,,,,,,,,,,,
408.70000000298023,,rt_plussign_withcolor4,10045753,,,,,,,,blue,,,49,object_03c.png,object_07b.png,,,,,,,,,,,,,,,,,,,
null,,rt_thecrossant_black4,10046787,,,,,,,,black_plus_sign,,,null,,,1,,,,,,,0.8,,,,,,,,,,,
null,,color_black4,10046890,,,,,,,,black_plus_sign,,,null,,,,,,,,,,,,,,,,,,,,,
null,,learn_phase(without_color)4,10050395,,,,,,,,black_plus_sign,,,null,object_05b.png,object_01c.png,,,,,,,,,,,,,,,,,,,
null,,black_cross(without_color)4,10051477,,,,,,,,blue,,,null,object_05b.png,object_01c.png,,,,,,,,,,,,,,,,,,,
null,,rt_plussign_withcolor4,10051979,,,,,,,,blue,,,null,object_05b.png,object_01c.png,,,,,,,,,,,,,,,,,,,
1340.300000000745,,rt_thecrossant_black4,10052909,,,,,,,,black_plus_sign,,,49,,,1,,,,,,,0.8333333333333334,,,,,,,,,,,
null,,color_black4,10053011,,,,,,,,black_plus_sign,,,null,,,,,,,,,,,,,,,,,,,,,
null,,learn_phase(without_color)4,10056513,,,,,,,,black_plus_sign,,,null,object_13a.png,object_01a.png,,,,,,,,,,,,,,,,,,,
null,,black_cross(without_color)4,10057095,,,,,,,,green,,,null,object_13a.png,object_01a.png,,,,,,,,,,,,,,,,,,,
null,,rt_plussign_withcolor4,10057598,,,,,,,,green,,,null,object_13a.png,object_01a.png,,,,,,,,,,,,,,,,,,,
1315.199999999255,,rt_thecrossant_black4,10059022,,,,,,,,black_plus_sign,,,50,,,1,,,,,,,0.8571428571428571,,,,,,,,,,,
null,,color_black4,10059125,,,,,,,,black_plus_sign,,,null,,,,,,,,,,,,,,,,,,,,,
null,,learn_phase(without_color)4,10062629,,,,,,,,black_plus_sign,,,null,object_15c.png,object_14a.png,,,,,,,,,,,,,,,,,,,
null,,black_cross(without_color)4,10063041,,,,,,,,green,,,null,object_15c.png,object_14a.png,,,,,,,,,,,,,,,,,,,
null,,rt_plussign_withcolor4,10063543,,,,,,,,green,,,null,object_15c.png,object_14a.png,,,,,,,,,,,,,,,,,,,
846.6999999992549,,rt_thecrossant_black4,10065135,,,,,,,,black_plus_sign,,,50,,,1,,,,,,,0.875,,,,,,,,,,,
null,,color_black4,10065237,,,,,,,,black_plus_sign,,,null,,,,,,,,,,,,,,,,,,,,,
null,,learn_phase(without_color)4,10068741,,,,,,,,black_plus_sign,,,null,object_02c.png,object_12a.png,,,,,,,,,,,,,,,,,,,
null,,black_cross(without_color)4,10069675,,,,,,,,blue,,,null,object_02c.png,object_12a.png,,,,,,,,,,,,,,,,,,,
497.30000000074506,,rt_plussign_withcolor4,10070176,,,,,,,,blue,,,49,object_02c.png,object_12a.png,,,,,,,,,,,,,,,,,,,
null,,rt_thecrossant_black4,10071248,,,,,,,,black_plus_sign,,,null,,,1,,,,,,,0.8888888888888888,,,,,,,,,,,
null,,color_black4,10071351,,,,,,,,black_plus_sign,,,null,,,,,,,,,,,,,,,,,,,,,
null,,learn_phase(without_color)4,10074854,,,,,,,,black_plus_sign,,,null,object_05c.png,object_11a.png,,,,,,,,,,,,,,,,,,,
null,,black_cross(without_color)4,10075414,,,,,,,,blue,,,null,object_05c.png,object_11a.png,,,,,,,,,,,,,,,,,,,
null,,rt_plussign_withcolor4,10075916,,,,,,,,blue,,,null,object_05c.png,object_11a.png,,,,,,,,,,,,,,,,,,,
1071.0999999977648,,rt_thecrossant_black4,10077361,,,,,,,,black_plus_sign,,,49,,,1,,,,,,,0.9,,,,,,,,,,,
null,,color_black4,10077463,,,,,,,,black_plus_sign,,,null,,,,,,,,,,,,,,,,,,,,,
null,,learn_phase(without_color)4,10080967,,,,,,,,black_plus_sign,,,null,object_06a.png,object_13c.png,,,,,,,,,,,,,,,,,,,
null,,black_cross(without_color)4,10081827,,,,,,,,green,,,null,object_06a.png,object_13c.png,,,,,,,,,,,,,,,,,,,
null,,rt_plussign_withcolor4,10082329,,,,,,,,green,,,null,object_06a.png,object_13c.png,,,,,,,,,,,,,,,,,,,
870.9000000022352,,rt_thecrossant_black4,10083473,,,,,,,,black_plus_sign,,,49,,,0,,,,,,,0.8181818181818182,,,,,,,,,,,
null,,color_black4,10083577,,,,,,,,black_plus_sign,,,null,,,,,,,,,,,,,,,,,,,,,
null,,learn_phase(without_color)4,10087081,,,,,,,,black_plus_sign,,,null,object_02b.png,object_08a.png,,,,,,,,,,,,,,,,,,,
null,,black_cross(without_color)4,10087832,,,,,,,,blue,,,null,object_02b.png,object_08a.png,,,,,,,,,,,,,,,,,,,
null,,rt_plussign_withcolor4,10088334,,,,,,,,blue,,,null,object_02b.png,object_08a.png,,,,,,,,,,,,,,,,,,,
1045.3999999985099,,rt_thecrossant_black4,10089589,,,,,,,,black_plus_sign,,,49,,,1,,,,,,,0.8333333333333334,,,,,,,,,,,
null,,color_black4,10089692,,,,,,,,black_plus_sign,,,null,,,,,,,,,,,,,,,,,,,,,
null,,learn_phase(without_color)4,10093196,,,,,,,,black_plus_sign,,,null,object_07c.png,object_08c.png,,,,,,,,,,,,,,,,,,,
null,,black_cross(without_color)4,10094228,,,,,,,,green,,,null,object_07c.png,object_08c.png,,,,,,,,,,,,,,,,,,,
null,,rt_plussign_withcolor4,10094730,,,,,,,,green,,,null,object_07c.png,object_08c.png,,,,,,,,,,,,,,,,,,,
1181,,rt_thecrossant_black4,10095704,,,,,,,,black_plus_sign,,,50,,,1,,,,,,,0.8461538461538461,,,,,,,,,,,
null,,color_black4,10095806,,,,,,,,black_plus_sign,,,null,,,,,,,,,,,,,,,,,,,,,
null,,learn_phase(without_color)4,10099309,,,,,,,,black_plus_sign,,,null,object_06b.png,object_09b.png,,,,,,,,,,,,,,,,,,,
null,,black_cross(without_color)4,10099828,,,,,,,,blue,,,null,object_06b.png,object_09b.png,,,,,,,,,,,,,,,,,,,
null,,rt_plussign_withcolor4,10100330,,,,,,,,blue,,,null,object_06b.png,object_09b.png,,,,,,,,,,,,,,,,,,,
1248.1000000014901,,rt_thecrossant_black4,10101819,,,,,,,,black_plus_sign,,,49,,,1,,,,,,,0.8571428571428571,,,,,,,,,,,
null,,color_black4,10101921,,,,,,,,black_plus_sign,,,null,,,,,,,,,,,,,,,,,,,,,
null,,learn_phase(without_color)4,10105425,,,,,,,,black_plus_sign,,,null,object_05a.png,object_04b.png,,,,,,,,,,,,,,,,,,,
null,,black_cross(without_color)4,10106173,,,,,,,,green,,,null,object_05a.png,object_04b.png,,,,,,,,,,,,,,,,,,,
null,,rt_plussign_withcolor4,10106674,,,,,,,,green,,,null,object_05a.png,object_04b.png,,,,,,,,,,,,,,,,,,,
731.1999999992549,,rt_thecrossant_black4,10107932,,,,,,,,black_plus_sign,,,50,,,1,,,,,,,0.8666666666666667,,,,,,,,,,,
null,,color_black4,10108035,,,,,,,,black_plus_sign,,,null,,,,,,,,,,,,,,,,,,,,,
null,,thebreak,10108149,,,,,,,,<p></p>,,,null,,,,,,,,,,,,,,,,,,,,,
1900.800000000745,,intro_0,10110052,,,,,,,,instruct,,,32,,,,,,,,,,,,,,,,,,,,,
3111.699999999255,,directmemory_phase4,10113166,,,,,,,,object_05c.png,,,50,,,0,,object_08a.png,object_01c.png,object_11a.png,object_11a.png,,0.34782608695652173,,0,,,,,,,,,
3633.5,,directmemory_phase4,10116802,,,,,,,,object_14c.png,,,51,,,0,,object_01c.png,object_06c.png,object_12b.png,object_06c.png,,0.3404255319148936,,0,,,,,,,,,
4165.099999997765,,directmemory_phase4,10120970,,,,,,,,object_02c.png,,,49,,,0,,object_02b.png,object_12a.png,object_13b.png,object_12a.png,,0.3333333333333333,,0,,,,,,,,,
4310,,directmemory_phase4,10125283,,,,,,,,object_06b.png,,,51,,,1,,object_08a.png,object_05c.png,object_09b.png,object_09b.png,,0.3469387755102041,,1,,,,,,,,,
3976.39999999851,,directmemory_phase4,10129262,,,,,,,,object_07b.png,,,49,,,1,,object_03c.png,object_12b.png,object_04a.png,object_03c.png,,0.36,,1,,,,,,,,,
3991.699999999255,,directmemory_phase4,10133256,,,,,,,,object_01c.png,,,50,,,1,,object_13a.png,object_05b.png,object_08a.png,object_05b.png,,0.37254901960784315,,1,,,,,,,,,
3534.199999999255,,directmemory_phase4,10136794,,,,,,,,object_06a.png,,,51,,,0,,object_13c.png,object_14a.png,object_02b.png,object_13c.png,,0.36538461538461536,,0,,,,,,,,,
3273.199999999255,,directmemory_phase4,10140070,,,,,,,,object_15c.png,,,50,,,0,,object_01a.png,object_01b.png,object_14a.png,object_14a.png,,0.3584905660377358,,0,,,,,,,,,
3186.800000000745,,directmemory_phase4,10143259,,,,,,,,object_07c.png,,,49,,,1,,object_08c.png,object_13c.png,object_01c.png,object_08c.png,,0.37037037037037035,,1,,,,,,,,,
3761.60000000149,,directmemory_phase4,10147024,,,,,,,,object_13a.png,,,50,,,0,,object_08a.png,object_07a.png,object_01a.png,object_01a.png,,0.36363636363636365,,0,,,,,,,,,
2961.7000000029802,,directmemory_phase4,10149989,,,,,,,,object_01b.png,,,50,,,1,,object_05c.png,object_10b.png,object_13c.png,object_10b.png,,0.375,,1,,,,,,,,,
3564.099999997765,,directmemory_phase4,10153555,,,,,,,,object_07a.png,,,51,,,1,,object_01a.png,object_05c.png,object_13b.png,object_13b.png,,0.38596491228070173,,1,,,,,,,,,
2876.39999999851,,directmemory_phase4,10156435,,,,,,,,object_02b.png,,,49,,,1,,object_08a.png,object_12b.png,object_07a.png,object_08a.png,,0.39655172413793105,,1,,,,,,,,,
2977.300000000745,,directmemory_phase4,10159415,,,,,,,,object_04b.png,,,50,,,1,,object_07b.png,object_05a.png,object_14a.png,object_05a.png,,0.4067796610169492,,1,,,,,,,,,
3116.10000000149,,directmemory_phase4,10162534,,,,,,,,object_04a.png,,,51,,,1,,object_01a.png,object_01c.png,object_12b.png,object_12b.png,,0.4166666666666667,,1,,,,,,,,,
null,,thebreak,10162650,,,,,,,,<p></p>,,,null,,,,,,,,,,,,,,,,,,,,,
3498,,intro_0,10166150,,,,,,,,instruct,,,32,,,,,,,,,,,,,,,,,,,,,
null,,learn_phase(without_color)5,10169654,,,,,,,,black_plus_sign,,,null,object_14b.png,object_12b.png,,,,,,,,,,,,,,,,,,,
null,,black_cross(without_color)5,10170438,,,,,,,,green,,,null,object_14b.png,object_12b.png,,,,,,,,,,,,,,,,,,,
null,,rt_plussign_withcolor5,10170940,,,,,,,,green,,,null,object_14b.png,object_12b.png,,,,,,,,,,,,,,,,,,,
974.2999999970198,,rt_thecrossant_black5,10172162,,,,,,,,black_plus_sign,,,50,,,1,,,,,,,1,,,,,,,,,,,
null,,color_black5,10172264,,,,,,,,black_plus_sign,,,null,,,,,,,,,,,,,,,,,,,,,
null,,learn_phase(without_color)5,10175767,,,,,,,,black_plus_sign,,,null,object_03a.png,object_11a.png,,,,,,,,,,,,,,,,,,,
null,,black_cross(without_color)5,10176636,,,,,,,,green,,,null,object_03a.png,object_11a.png,,,,,,,,,,,,,,,,,,,
440.69999999925494,,rt_plussign_withcolor5,10177138,,,,,,,,green,,,50,object_03a.png,object_11a.png,,,,,,,,,,,,,,,,,,,
null,,rt_thecrossant_black5,10178284,,,,,,,,black_plus_sign,,,null,,,1,,,,,,,1,,,,,,,,,,,
null,,color_black5,10178387,,,,,,,,black_plus_sign,,,null,,,,,,,,,,,,,,,,,,,,,
null,,learn_phase(without_color)5,10181891,,,,,,,,black_plus_sign,,,null,object_15a.png,object_12a.png,,,,,,,,,,,,,,,,,,,
null,,black_cross(without_color)5,10182382,,,,,,,,blue,,,null,object_15a.png,object_12a.png,,,,,,,,,,,,,,,,,,,
null,,rt_plussign_withcolor5,10182884,,,,,,,,blue,,,null,object_15a.png,object_12a.png,,,,,,,,,,,,,,,,,,,
1013.6000000014901,,rt_thecrossant_black5,10184399,,,,,,,,black_plus_sign,,,49,,,1,,,,,,,1,,,,,,,,,,,
null,,color_black5,10184503,,,,,,,,black_plus_sign,,,null,,,,,,,,,,,,,,,,,,,,,
null,,learn_phase(without_color)5,10188005,,,,,,,,black_plus_sign,,,null,object_08b.png,object_01a.png,,,,,,,,,,,,,,,,,,,
null,,black_cross(without_color)5,10189108,,,,,,,,green,,,null,object_08b.png,object_01a.png,,,,,,,,,,,,,,,,,,,
null,,rt_plussign_withcolor5,10189611,,,,,,,,green,,,null,object_08b.png,object_01a.png,,,,,,,,,,,,,,,,,,,
612,,rt_thecrossant_black5,10190515,,,,,,,,black_plus_sign,,,50,,,1,,,,,,,1,,,,,,,,,,,
null,,color_black5,10190618,,,,,,,,black_plus_sign,,,null,,,,,,,,,,,,,,,,,,,,,
null,,learn_phase(without_color)5,10194121,,,,,,,,black_plus_sign,,,null,object_06c.png,object_10c.png,,,,,,,,,,,,,,,,,,,
null,,black_cross(without_color)5,10195076,,,,,,,,blue,,,null,object_06c.png,object_10c.png,,,,,,,,,,,,,,,,,,,
392,,rt_plussign_withcolor5,10195580,,,,,,,,blue,,,49,object_06c.png,object_10c.png,,,,,,,,,,,,,,,,,,,
null,,rt_thecrossant_black5,10196631,,,,,,,,black_plus_sign,,,null,,,1,,,,,,,1,,,,,,,,,,,
null,,color_black5,10196733,,,,,,,,black_plus_sign,,,null,,,,,,,,,,,,,,,,,,,,,
null,,learn_phase(without_color)5,10200236,,,,,,,,black_plus_sign,,,null,object_11c.png,object_10b.png,,,,,,,,,,,,,,,,,,,
null,,black_cross(without_color)5,10201201,,,,,,,,green,,,null,object_11c.png,object_10b.png,,,,,,,,,,,,,,,,,,,
null,,rt_plussign_withcolor5,10201703,,,,,,,,green,,,null,object_11c.png,object_10b.png,,,,,,,,,,,,,,,,,,,
1271.9000000022352,,rt_thecrossant_black5,10202743,,,,,,,,black_plus_sign,,,50,,,1,,,,,,,1,,,,,,,,,,,
null,,color_black5,10202847,,,,,,,,black_plus_sign,,,null,,,,,,,,,,,,,,,,,,,,,
null,,learn_phase(without_color)5,10206350,,,,,,,,black_plus_sign,,,null,object_13b.png,object_15b.png,,,,,,,,,,,,,,,,,,,
null,,black_cross(without_color)5,10206999,,,,,,,,blue,,,null,object_13b.png,object_15b.png,,,,,,,,,,,,,,,,,,,
null,,rt_plussign_withcolor5,10207502,,,,,,,,blue,,,null,object_13b.png,object_15b.png,,,,,,,,,,,,,,,,,,,
1203.6000000014901,,rt_thecrossant_black5,10208860,,,,,,,,black_plus_sign,,,49,,,1,,,,,,,1,,,,,,,,,,,
null,,color_black5,10208962,,,,,,,,black_plus_sign,,,null,,,,,,,,,,,,,,,,,,,,,
null,,learn_phase(without_color)5,10212465,,,,,,,,black_plus_sign,,,null,object_09b.png,object_10a.png,,,,,,,,,,,,,,,,,,,
null,,black_cross(without_color)5,10213337,,,,,,,,green,,,null,object_09b.png,object_10a.png,,,,,,,,,,,,,,,,,,,
null,,rt_plussign_withcolor5,10213840,,,,,,,,green,,,null,object_09b.png,object_10a.png,,,,,,,,,,,,,,,,,,,
931.4000000022352,,rt_thecrossant_black5,10214974,,,,,,,,black_plus_sign,,,50,,,1,,,,,,,1,,,,,,,,,,,
null,,color_black5,10215077,,,,,,,,black_plus_sign,,,null,,,,,,,,,,,,,,,,,,,,,
null,,learn_phase(without_color)5,10218580,,,,,,,,black_plus_sign,,,null,object_09c.png,object_05b.png,,,,,,,,,,,,,,,,,,,
null,,black_cross(without_color)5,10219443,,,,,,,,blue,,,null,object_09c.png,object_05b.png,,,,,,,,,,,,,,,,,,,
486.4000000022352,,rt_plussign_withcolor5,10219945,,,,,,,,blue,,,49,object_09c.png,object_05b.png,,,,,,,,,,,,,,,,,,,
null,,rt_thecrossant_black5,10221087,,,,,,,,black_plus_sign,,,null,,,1,,,,,,,1,,,,,,,,,,,
null,,color_black5,10221190,,,,,,,,black_plus_sign,,,null,,,,,,,,,,,,,,,,,,,,,
null,,learn_phase(without_color)5,10224693,,,,,,,,black_plus_sign,,,null,object_09a.png,object_03c.png,,,,,,,,,,,,,,,,,,,
null,,black_cross(without_color)5,10225396,,,,,,,,blue,,,null,object_09a.png,object_03c.png,,,,,,,,,,,,,,,,,,,
null,,rt_plussign_withcolor5,10225898,,,,,,,,blue,,,null,object_09a.png,object_03c.png,,,,,,,,,,,,,,,,,,,
1064.2999999970198,,rt_thecrossant_black5,10227200,,,,,,,,black_plus_sign,,,49,,,1,,,,,,,1,,,,,,,,,,,
null,,color_black5,10227301,,,,,,,,black_plus_sign,,,null,,,,,,,,,,,,,,,,,,,,,
null,,learn_phase(without_color)5,10230805,,,,,,,,black_plus_sign,,,null,object_02a.png,object_13c.png,,,,,,,,,,,,,,,,,,,
null,,black_cross(without_color)5,10231413,,,,,,,,blue,,,null,object_02a.png,object_13c.png,,,,,,,,,,,,,,,,,,,
null,,rt_plussign_withcolor5,10231916,,,,,,,,blue,,,null,object_02a.png,object_13c.png,,,,,,,,,,,,,,,,,,,
924.6999999992549,,rt_thecrossant_black5,10233328,,,,,,,,black_plus_sign,,,49,,,1,,,,,,,1,,,,,,,,,,,
null,,color_black5,10233430,,,,,,,,black_plus_sign,,,null,,,,,,,,,,,,,,,,,,,,,
null,,learn_phase(without_color)5,10236933,,,,,,,,black_plus_sign,,,null,object_08a.png,object_12c.png,,,,,,,,,,,,,,,,,,,
null,,black_cross(without_color)5,10237477,,,,,,,,blue,,,null,object_08a.png,object_12c.png,,,,,,,,,,,,,,,,,,,
null,,rt_plussign_withcolor5,10237979,,,,,,,,blue,,,null,object_08a.png,object_12c.png,,,,,,,,,,,,,,,,,,,
760.0999999977648,,rt_thecrossant_black5,10239441,,,,,,,,black_plus_sign,,,49,,,1,,,,,,,1,,,,,,,,,,,
null,,color_black5,10239544,,,,,,,,black_plus_sign,,,null,,,,,,,,,,,,,,,,,,,,,
null,,learn_phase(without_color)5,10243048,,,,,,,,black_plus_sign,,,null,object_05a.png,object_04c.png,,,,,,,,,,,,,,,,,,,
null,,black_cross(without_color)5,10244088,,,,,,,,blue,,,null,object_05a.png,object_04c.png,,,,,,,,,,,,,,,,,,,
null,,rt_plussign_withcolor5,10244590,,,,,,,,blue,,,null,object_05a.png,object_04c.png,,,,,,,,,,,,,,,,,,,
804.3000000007451,,rt_thecrossant_black5,10245555,,,,,,,,black_plus_sign,,,49,,,1,,,,,,,1,,,,,,,,,,,
null,,color_black5,10245658,,,,,,,,black_plus_sign,,,null,,,,,,,,,,,,,,,,,,,,,
null,,learn_phase(without_color)5,10249161,,,,,,,,black_plus_sign,,,null,object_08c.png,object_11b.png,,,,,,,,,,,,,,,,,,,
null,,black_cross(without_color)5,10249831,,,,,,,,blue,,,null,object_08c.png,object_11b.png,,,,,,,,,,,,,,,,,,,
null,,rt_plussign_withcolor5,10250333,,,,,,,,blue,,,null,object_08c.png,object_11b.png,,,,,,,,,,,,,,,,,,,
1234,,rt_thecrossant_black5,10251670,,,,,,,,black_plus_sign,,,49,,,1,,,,,,,1,,,,,,,,,,,
null,,color_black5,10251774,,,,,,,,black_plus_sign,,,null,,,,,,,,,,,,,,,,,,,,,
null,,learn_phase(without_color)5,10255277,,,,,,,,black_plus_sign,,,null,object_14a.png,object_03b.png,,,,,,,,,,,,,,,,,,,
null,,black_cross(without_color)5,10256260,,,,,,,,green,,,null,object_14a.png,object_03b.png,,,,,,,,,,,,,,,,,,,
null,,rt_plussign_withcolor5,10256762,,,,,,,,green,,,null,object_14a.png,object_03b.png,,,,,,,,,,,,,,,,,,,
984.1999999992549,,rt_thecrossant_black5,10257784,,,,,,,,black_plus_sign,,,50,,,1,,,,,,,1,,,,,,,,,,,
null,,color_black5,10257886,,,,,,,,black_plus_sign,,,null,,,,,,,,,,,,,,,,,,,,,
null,,thebreak,10257988,,,,,,,,<p></p>,,,null,,,,,,,,,,,,,,,,,,,,,
1111.300000000745,,intro_0,10259101,,,,,,,,instruct,,,32,,,,,,,,,,,,,,,,,,,,,
3400.10000000149,,directmemory_phase5,10262503,,,,,,,,object_13b.png,,,50,,,1,,object_08a.png,object_15b.png,object_04c.png,object_15b.png,,0.4262295081967213,,1,,,,,,,,,
3762.89999999851,,directmemory_phase5,10266269,,,,,,,,object_12b.png,,,50,,,1,,object_11a.png,object_14b.png,object_09c.png,object_14b.png,,0.43548387096774194,,1,,,,,,,,,
4011.300000000745,,directmemory_phase5,10270283,,,,,,,,object_06c.png,,,49,,,1,,object_10c.png,object_12c.png,object_05b.png,object_10c.png,,0.4444444444444444,,1,,,,,,,,,
3518.7999999970198,,directmemory_phase5,10273805,,,,,,,,object_14a.png,,,50,,,1,,object_13b.png,object_03b.png,object_10c.png,object_03b.png,,0.453125,,1,,,,,,,,,
4231.300000000745,,directmemory_phase5,10278039,,,,,,,,object_11b.png,,,49,,,1,,object_08c.png,object_12b.png,object_04c.png,object_08c.png,,0.46153846153846156,,1,,,,,,,,,
3995.800000000745,,directmemory_phase5,10282038,,,,,,,,object_08b.png,,,50,,,1,,object_11b.png,object_01a.png,object_06c.png,object_01a.png,,0.4696969696969697,,1,,,,,,,,,
3805.7999999970198,,directmemory_phase5,10285847,,,,,,,,object_09b.png,,,51,,,1,,object_09a.png,object_14a.png,object_10a.png,object_10a.png,,0.47761194029850745,,1,,,,,,,,,
3887.199999999255,,directmemory_phase5,10289737,,,,,,,,object_09c.png,,,51,,,0,,object_05b.png,object_13b.png,object_08b.png,object_05b.png,,0.47058823529411764,,0,,,,,,,,,
4175.900000002235,,directmemory_phase5,10293915,,,,,,,,object_05a.png,,,49,,,1,,object_04c.png,object_14b.png,object_08a.png,object_04c.png,,0.4782608695652174,,1,,,,,,,,,
3991.800000000745,,directmemory_phase5,10297910,,,,,,,,object_02a.png,,,51,,,1,,object_08c.png,object_03b.png,object_13c.png,object_13c.png,,0.4857142857142857,,1,,,,,,,,,
3189.39999999851,,directmemory_phase5,10301102,,,,,,,,object_08a.png,,,50,,,0,,object_09c.png,object_10b.png,object_12c.png,object_12c.png,,0.4788732394366197,,0,,,,,,,,,
3295.800000000745,,directmemory_phase5,10304400,,,,,,,,object_11c.png,,,49,,,0,,object_14b.png,object_10b.png,object_03c.png,object_10b.png,,0.4722222222222222,,0,,,,,,,,,
3455.300000000745,,directmemory_phase5,10307858,,,,,,,,object_15a.png,,,50,,,0,,object_12b.png,object_10c.png,object_12a.png,object_12a.png,,0.4657534246575342,,0,,,,,,,,,
3199.39999999851,,directmemory_phase5,10311060,,,,,,,,object_03a.png,,,50,,,0,,object_13b.png,object_10c.png,object_11a.png,object_11a.png,,0.4594594594594595,,0,,,,,,,,,
3210.10000000149,,directmemory_phase5,10314273,,,,,,,,object_09a.png,,,51,,,1,,object_12b.png,object_10c.png,object_03c.png,object_03c.png,,0.4666666666666667,,1,,,,,,,,,
null,,thebreak,10314376,,,,,,,,<p></p>,,,null,,,,,,,,,,,,,,,,,,,,,
1617.5,,intro_0,10315995,,,,,,,,instruct,,,32,,,,,,,,,,,,,,,,,,,,,
null,,learn_phase(without_color)6,10319497,,,,,,,,black_plus_sign,,,null,object_05a.png,object_04c.png,,,,,,,,,,,,,,,,,,,
null,,black_cross(without_color)6,10320429,,,,,,,,green,,,null,object_05a.png,object_04c.png,,,,,,,,,,,,,,,,,,,
null,,rt_plussign_withcolor6,10320931,,,,,,,,green,,,null,object_05a.png,object_04c.png,,,,,,,,,,,,,,,,,,,
1076.199999999255,,rt_thecrossant_black6,10322004,,,,,,,,black_plus_sign,,,50,,,1,,,,,,,1,,,,,,,,,,,
null,,color_black6,10322106,,,,,,,,black_plus_sign,,,null,,,,,,,,,,,,,,,,,,,,,
null,,learn_phase(without_color)6,10325610,,,,,,,,black_plus_sign,,,null,object_11c.png,object_10b.png,,,,,,,,,,,,,,,,,,,
null,,black_cross(without_color)6,10326544,,,,,,,,blue,,,null,object_11c.png,object_10b.png,,,,,,,,,,,,,,,,,,,
null,,rt_plussign_withcolor6,10327046,,,,,,,,blue,,,null,object_11c.png,object_10b.png,,,,,,,,,,,,,,,,,,,
1104,,rt_thecrossant_black6,10328117,,,,,,,,black_plus_sign,,,49,,,1,,,,,,,1,,,,,,,,,,,
null,,color_black6,10328219,,,,,,,,black_plus_sign,,,null,,,,,,,,,,,,,,,,,,,,,
null,,learn_phase(without_color)6,10331723,,,,,,,,black_plus_sign,,,null,object_09a.png,object_03c.png,,,,,,,,,,,,,,,,,,,
null,,black_cross(without_color)6,10332575,,,,,,,,green,,,null,object_09a.png,object_03c.png,,,,,,,,,,,,,,,,,,,
446.30000000074506,,rt_plussign_withcolor6,10333077,,,,,,,,green,,,50,object_09a.png,object_03c.png,,,,,,,,,,,,,,,,,,,
null,,rt_thecrossant_black6,10334231,,,,,,,,black_plus_sign,,,null,,,1,,,,,,,1,,,,,,,,,,,
null,,color_black6,10334332,,,,,,,,black_plus_sign,,,null,,,,,,,,,,,,,,,,,,,,,
null,,learn_phase(without_color)6,10337836,,,,,,,,black_plus_sign,,,null,object_05b.png,object_09c.png,,,,,,,,,,,,,,,,,,,
null,,black_cross(without_color)6,10338568,,,,,,,,green,,,null,object_05b.png,object_09c.png,,,,,,,,,,,,,,,,,,,
null,,rt_plussign_withcolor6,10339069,,,,,,,,green,,,null,object_05b.png,object_09c.png,,,,,,,,,,,,,,,,,,,
1057.5,,rt_thecrossant_black6,10340344,,,,,,,,black_plus_sign,,,50,,,1,,,,,,,1,,,,,,,,,,,
null,,color_black6,10340447,,,,,,,,black_plus_sign,,,null,,,,,,,,,,,,,,,,,,,,,
null,,learn_phase(without_color)6,10343951,,,,,,,,black_plus_sign,,,null,object_01a.png,object_08b.png,,,,,,,,,,,,,,,,,,,
null,,black_cross(without_color)6,10344503,,,,,,,,green,,,null,object_01a.png,object_08b.png,,,,,,,,,,,,,,,,,,,
484.30000000074506,,rt_plussign_withcolor6,10345006,,,,,,,,green,,,50,object_01a.png,object_08b.png,,,,,,,,,,,,,,,,,,,
null,,rt_thecrossant_black6,10346458,,,,,,,,black_plus_sign,,,null,,,1,,,,,,,1,,,,,,,,,,,
null,,color_black6,10346560,,,,,,,,black_plus_sign,,,null,,,,,,,,,,,,,,,,,,,,,
null,,learn_phase(without_color)6,10350064,,,,,,,,black_plus_sign,,,null,object_10a.png,object_09b.png,,,,,,,,,,,,,,,,,,,
null,,black_cross(without_color)6,10351087,,,,,,,,blue,,,null,object_10a.png,object_09b.png,,,,,,,,,,,,,,,,,,,
483.30000000074506,,rt_plussign_withcolor6,10351588,,,,,,,,blue,,,49,object_10a.png,object_09b.png,,,,,,,,,,,,,,,,,,,
null,,rt_thecrossant_black6,10352571,,,,,,,,black_plus_sign,,,null,,,1,,,,,,,1,,,,,,,,,,,
null,,color_black6,10352674,,,,,,,,black_plus_sign,,,null,,,,,,,,,,,,,,,,,,,,,
null,,learn_phase(without_color)6,10356177,,,,,,,,black_plus_sign,,,null,object_11a.png,object_03a.png,,,,,,,,,,,,,,,,,,,
null,,black_cross(without_color)6,10357021,,,,,,,,green,,,null,object_11a.png,object_03a.png,,,,,,,,,,,,,,,,,,,
null,,rt_plussign_withcolor6,10357524,,,,,,,,green,,,null,object_11a.png,object_03a.png,,,,,,,,,,,,,,,,,,,
1190.1000000014901,,rt_thecrossant_black6,10358685,,,,,,,,black_plus_sign,,,50,,,1,,,,,,,1,,,,,,,,,,,
null,,color_black6,10358788,,,,,,,,black_plus_sign,,,null,,,,,,,,,,,,,,,,,,,,,
null,,learn_phase(without_color)6,10362291,,,,,,,,black_plus_sign,,,null,object_06c.png,object_10c.png,,,,,,,,,,,,,,,,,,,
null,,black_cross(without_color)6,10363036,,,,,,,,blue,,,null,object_06c.png,object_10c.png,,,,,,,,,,,,,,,,,,,
null,,rt_plussign_withcolor6,10363538,,,,,,,,blue,,,null,object_06c.png,object_10c.png,,,,,,,,,,,,,,,,,,,
1006.1999999992549,,rt_thecrossant_black6,10364799,,,,,,,,black_plus_sign,,,49,,,1,,,,,,,1,,,,,,,,,,,
null,,color_black6,10364901,,,,,,,,black_plus_sign,,,null,,,,,,,,,,,,,,,,,,,,,
null,,learn_phase(without_color)6,10368406,,,,,,,,black_plus_sign,,,null,object_12c.png,object_08a.png,,,,,,,,,,,,,,,,,,,
null,,black_cross(without_color)6,10369505,,,,,,,,green,,,null,object_12c.png,object_08a.png,,,,,,,,,,,,,,,,,,,
null,,rt_plussign_withcolor6,10370008,,,,,,,,green,,,null,object_12c.png,object_08a.png,,,,,,,,,,,,,,,,,,,
922,,rt_thecrossant_black6,10370923,,,,,,,,black_plus_sign,,,49,,,0,,,,,,,0.8888888888888888,,,,,,,,,,,
null,,color_black6,10371026,,,,,,,,black_plus_sign,,,null,,,,,,,,,,,,,,,,,,,,,
null,,learn_phase(without_color)6,10374531,,,,,,,,black_plus_sign,,,null,object_12a.png,object_15a.png,,,,,,,,,,,,,,,,,,,
null,,black_cross(without_color)6,10375405,,,,,,,,blue,,,null,object_12a.png,object_15a.png,,,,,,,,,,,,,,,,,,,
null,,rt_plussign_withcolor6,10375908,,,,,,,,blue,,,null,object_12a.png,object_15a.png,,,,,,,,,,,,,,,,,,,
1201.699999999255,,rt_thecrossant_black6,10377038,,,,,,,,black_plus_sign,,,49,,,1,,,,,,,0.9,,,,,,,,,,,
null,,color_black6,10377141,,,,,,,,black_plus_sign,,,null,,,,,,,,,,,,,,,,,,,,,
null,,learn_phase(without_color)6,10380645,,,,,,,,black_plus_sign,,,null,object_13b.png,object_15b.png,,,,,,,,,,,,,,,,,,,
null,,black_cross(without_color)6,10381166,,,,,,,,green,,,null,object_13b.png,object_15b.png,,,,,,,,,,,,,,,,,,,
482.30000000074506,,rt_plussign_withcolor6,10381669,,,,,,,,green,,,50,object_13b.png,object_15b.png,,,,,,,,,,,,,,,,,,,
null,,rt_thecrossant_black6,10383165,,,,,,,,black_plus_sign,,,null,,,1,,,,,,,0.9090909090909091,,,,,,,,,,,
null,,color_black6,10383269,,,,,,,,black_plus_sign,,,null,,,,,,,,,,,,,,,,,,,,,
null,,learn_phase(without_color)6,10386773,,,,,,,,black_plus_sign,,,null,object_03b.png,object_14a.png,,,,,,,,,,,,,,,,,,,
null,,black_cross(without_color)6,10387760,,,,,,,,blue,,,null,object_03b.png,object_14a.png,,,,,,,,,,,,,,,,,,,
null,,rt_plussign_withcolor6,10388263,,,,,,,,blue,,,null,object_03b.png,object_14a.png,,,,,,,,,,,,,,,,,,,
627.2000000029802,,rt_thecrossant_black6,10389281,,,,,,,,black_plus_sign,,,49,,,1,,,,,,,0.9166666666666666,,,,,,,,,,,
null,,color_black6,10389383,,,,,,,,black_plus_sign,,,null,,,,,,,,,,,,,,,,,,,,,
null,,learn_phase(without_color)6,10392888,,,,,,,,black_plus_sign,,,null,object_13c.png,object_02a.png,,,,,,,,,,,,,,,,,,,
null,,black_cross(without_color)6,10393749,,,,,,,,green,,,null,object_13c.png,object_02a.png,,,,,,,,,,,,,,,,,,,
null,,rt_plussign_withcolor6,10394251,,,,,,,,green,,,null,object_13c.png,object_02a.png,,,,,,,,,,,,,,,,,,,
1154.3999999985099,,rt_thecrossant_black6,10395397,,,,,,,,black_plus_sign,,,50,,,1,,,,,,,0.9230769230769231,,,,,,,,,,,
null,,color_black6,10395501,,,,,,,,black_plus_sign,,,null,,,,,,,,,,,,,,,,,,,,,
null,,learn_phase(without_color)6,10399005,,,,,,,,black_plus_sign,,,null,object_11b.png,object_08c.png,,,,,,,,,,,,,,,,,,,
null,,black_cross(without_color)6,10399864,,,,,,,,blue,,,null,object_11b.png,object_08c.png,,,,,,,,,,,,,,,,,,,
null,,rt_plussign_withcolor6,10400366,,,,,,,,blue,,,null,object_11b.png,object_08c.png,,,,,,,,,,,,,,,,,,,
1094.8999999985099,,rt_thecrossant_black6,10401513,,,,,,,,black_plus_sign,,,49,,,1,,,,,,,0.9285714285714286,,,,,,,,,,,
null,,color_black6,10401616,,,,,,,,black_plus_sign,,,null,,,,,,,,,,,,,,,,,,,,,
null,,learn_phase(without_color)6,10405120,,,,,,,,black_plus_sign,,,null,object_14b.png,object_12b.png,,,,,,,,,,,,,,,,,,,
null,,black_cross(without_color)6,10405955,,,,,,,,green,,,null,object_14b.png,object_12b.png,,,,,,,,,,,,,,,,,,,
null,,rt_plussign_withcolor6,10406457,,,,,,,,green,,,null,object_14b.png,object_12b.png,,,,,,,,,,,,,,,,,,,
1105.699999999255,,rt_thecrossant_black6,10407627,,,,,,,,black_plus_sign,,,50,,,1,,,,,,,0.9333333333333333,,,,,,,,,,,
null,,color_black6,10407730,,,,,,,,black_plus_sign,,,null,,,,,,,,,,,,,,,,,,,,,
null,,thebreak,10407834,,,,,,,,<p></p>,,,null,,,,,,,,,,,,,,,,,,,,,
1409.2999999970198,,intro_0,10409245,,,,,,,,instruct,,,32,,,,,,,,,,,,,,,,,,,,,
3431.10000000149,,directmemory_phase6,10412677,,,,,,,,object_08a.png,,,50,,,0,,object_03a.png,object_11a.png,object_12c.png,object_12c.png,,0.4605263157894737,,0,,,,,,,,,
4154.699999999255,,directmemory_phase6,10416834,,,,,,,,object_03a.png,,,49,,,0,,object_05a.png,object_11c.png,object_11a.png,object_11a.png,,0.45454545454545453,,0,,,,,,,,,
3724.2000000029802,,directmemory_phase6,10420561,,,,,,,,object_09c.png,,,50,,,0,,object_09b.png,object_10a.png,object_05b.png,object_05b.png,,0.44871794871794873,,0,,,,,,,,,
3623.099999997765,,directmemory_phase6,10424187,,,,,,,,object_03b.png,,,49,,,0,,object_08c.png,object_03a.png,object_14a.png,object_14a.png,,0.4430379746835443,,0,,,,,,,,,
3538.5,,directmemory_phase6,10427729,,,,,,,,object_11c.png,,,50,,,0,,object_10b.png,object_03c.png,object_14b.png,object_10b.png,,0.4375,,0,,,,,,,,,
4284.29999999702,,directmemory_phase6,10432016,,,,,,,,object_10c.png,,,50,,,0,,object_08a.png,object_03a.png,object_06c.png,object_06c.png,,0.43209876543209874,,0,,,,,,,,,
3738.39999999851,,directmemory_phase6,10435757,,,,,,,,object_09b.png,,,49,,,0,,object_08c.png,object_10a.png,object_10c.png,object_10a.png,,0.4268292682926829,,0,,,,,,,,,
3845.599999997765,,directmemory_phase6,10439606,,,,,,,,object_13c.png,,,50,,,0,,object_12c.png,object_08c.png,object_02a.png,object_02a.png,,0.42168674698795183,,0,,,,,,,,,
3687.5,,directmemory_phase6,10443297,,,,,,,,object_04c.png,,,49,,,1,,object_05a.png,object_08a.png,object_11c.png,object_05a.png,,0.42857142857142855,,1,,,,,,,,,
3509.099999997765,,directmemory_phase6,10446810,,,,,,,,object_09a.png,,,50,,,0,,object_06c.png,object_02a.png,object_03c.png,object_03c.png,,0.4235294117647059,,0,,,,,,,,,
3129.800000000745,,directmemory_phase6,10449942,,,,,,,,object_11b.png,,,49,,,0,,object_14a.png,object_03b.png,object_08c.png,object_08c.png,,0.4186046511627907,,0,,,,,,,,,
2871.900000002235,,directmemory_phase6,10452817,,,,,,,,object_15b.png,,,50,,,1,,object_10a.png,object_13b.png,object_05b.png,object_13b.png,,0.42528735632183906,,1,,,,,,,,,
3544.5,,directmemory_phase6,10456364,,,,,,,,object_08b.png,,,49,,,0,,object_11c.png,object_01a.png,object_12b.png,object_01a.png,,0.42045454545454547,,0,,,,,,,,,
3340.10000000149,,directmemory_phase6,10459707,,,,,,,,object_12a.png,,,50,,,1,,object_11a.png,object_15a.png,object_15b.png,object_15a.png,,0.42696629213483145,,1,,,,,,,,,
2896.2999999970198,,directmemory_phase6,10462606,,,,,,,,object_14b.png,,,49,,,0,,object_02a.png,object_12b.png,object_13b.png,object_12b.png,,0.4222222222222222,,0,,,,,,,,,
null,,thebreak,10462709,,,,,,,,<p></p>,,,null,,,,,,,,,,,,,,,,,,,,,
1477.6000000014901,,intro_0,10464188,,,,,,,,instruct,,,32,,,,,,,,,,,,,,,,,,,,,
null,,learn_phase(without_color)7,10467690,,,,,,,,black_plus_sign,,,null,object_04c.png,object_05a.png,,,,,,,,,,,,,,,,,,,
null,,black_cross(without_color)7,10468324,,,,,,,,green,,,null,object_04c.png,object_05a.png,,,,,,,,,,,,,,,,,,,
null,,rt_plussign_withcolor7,10468827,,,,,,,,green,,,null,object_04c.png,object_05a.png,,,,,,,,,,,,,,,,,,,
830.8000000007451,,rt_thecrossant_black7,10470206,,,,,,,,black_plus_sign,,,50,,,1,,,,,,,1,,,,,,,,,,,
null,,color_black7,10470308,,,,,,,,black_plus_sign,,,null,,,,,,,,,,,,,,,,,,,,,
null,,learn_phase(without_color)7,10473812,,,,,,,,black_plus_sign,,,null,object_08b.png,object_01a.png,,,,,,,,,,,,,,,,,,,
null,,black_cross(without_color)7,10474773,,,,,,,,green,,,null,object_08b.png,object_01a.png,,,,,,,,,,,,,,,,,,,
481.80000000074506,,rt_plussign_withcolor7,10475276,,,,,,,,green,,,50,object_08b.png,object_01a.png,,,,,,,,,,,,,,,,,,,
null,,rt_thecrossant_black7,10476321,,,,,,,,black_plus_sign,,,null,,,1,,,,,,,1,,,,,,,,,,,
null,,color_black7,10476423,,,,,,,,black_plus_sign,,,null,,,,,,,,,,,,,,,,,,,,,
null,,learn_phase(without_color)7,10479926,,,,,,,,black_plus_sign,,,null,object_05b.png,object_09c.png,,,,,,,,,,,,,,,,,,,
null,,black_cross(without_color)7,10480473,,,,,,,,green,,,null,object_05b.png,object_09c.png,,,,,,,,,,,,,,,,,,,
453.30000000074506,,rt_plussign_withcolor7,10480975,,,,,,,,green,,,50,object_05b.png,object_09c.png,,,,,,,,,,,,,,,,,,,
null,,rt_thecrossant_black7,10482434,,,,,,,,black_plus_sign,,,null,,,1,,,,,,,1,,,,,,,,,,,
null,,color_black7,10482537,,,,,,,,black_plus_sign,,,null,,,,,,,,,,,,,,,,,,,,,
null,,learn_phase(without_color)7,10486042,,,,,,,,black_plus_sign,,,null,object_03a.png,object_11a.png,,,,,,,,,,,,,,,,,,,
null,,black_cross(without_color)7,10486486,,,,,,,,blue,,,null,object_03a.png,object_11a.png,,,,,,,,,,,,,,,,,,,
424,,rt_plussign_withcolor7,10486989,,,,,,,,blue,,,49,object_03a.png,object_11a.png,,,,,,,,,,,,,,,,,,,
null,,rt_thecrossant_black7,10488549,,,,,,,,black_plus_sign,,,null,,,1,,,,,,,1,,,,,,,,,,,
null,,color_black7,10488652,,,,,,,,black_plus_sign,,,null,,,,,,,,,,,,,,,,,,,,,
null,,learn_phase(without_color)7,10492155,,,,,,,,black_plus_sign,,,null,object_09b.png,object_10a.png,,,,,,,,,,,,,,,,,,,
null,,black_cross(without_color)7,10492916,,,,,,,,blue,,,null,object_09b.png,object_10a.png,,,,,,,,,,,,,,,,,,,
439.0999999977648,,rt_plussign_withcolor7,10493418,,,,,,,,blue,,,50,object_09b.png,object_10a.png,,,,,,,,,,,,,,,,,,,
null,,rt_thecrossant_black7,10494663,,,,,,,,black_plus_sign,,,null,,,0,,,,,,,0.8,,,,,,,,,,,
null,,warning_page,10499667,,,,,,,,warning,,,null,,,,,,,,,,,,,,,,,,,,,
null,,color_black7,10499780,,,,,,,,black_plus_sign,,,null,,,,,,,,,,,,,,,,,,,,,
null,,learn_phase(without_color)7,10503283,,,,,,,,black_plus_sign,,,null,object_11c.png,object_10b.png,,,,,,,,,,,,,,,,,,,
null,,black_cross(without_color)7,10504210,,,,,,,,blue,,,null,object_11c.png,object_10b.png,,,,,,,,,,,,,,,,,,,
null,,rt_plussign_withcolor7,10504713,,,,,,,,blue,,,null,object_11c.png,object_10b.png,,,,,,,,,,,,,,,,,,,
1053.800000000745,,rt_thecrossant_black7,10505791,,,,,,,,black_plus_sign,,,49,,,1,,,,,,,0.8333333333333334,,,,,,,,,,,
null,,color_black7,10505893,,,,,,,,black_plus_sign,,,null,,,,,,,,,,,,,,,,,,,,,
null,,learn_phase(without_color)7,10509409,,,,,,,,black_plus_sign,,,null,object_15a.png,object_12a.png,,,,,,,,,,,,,,,,,,,
null,,black_cross(without_color)7,10509838,,,,,,,,green,,,null,object_15a.png,object_12a.png,,,,,,,,,,,,,,,,,,,
null,,rt_plussign_withcolor7,10510340,,,,,,,,green,,,null,object_15a.png,object_12a.png,,,,,,,,,,,,,,,,,,,
1168.8999999985099,,rt_thecrossant_black7,10511917,,,,,,,,black_plus_sign,,,50,,,1,,,,,,,0.8571428571428571,,,,,,,,,,,
null,,color_black7,10512019,,,,,,,,black_plus_sign,,,null,,,,,,,,,,,,,,,,,,,,,
null,,learn_phase(without_color)7,10515523,,,,,,,,black_plus_sign,,,null,object_12c.png,object_08a.png,,,,,,,,,,,,,,,,,,,
null,,black_cross(without_color)7,10516176,,,,,,,,green,,,null,object_12c.png,object_08a.png,,,,,,,,,,,,,,,,,,,
null,,rt_plussign_withcolor7,10516678,,,,,,,,green,,,null,object_12c.png,object_08a.png,,,,,,,,,,,,,,,,,,,
813.5,,rt_thecrossant_black7,10518031,,,,,,,,black_plus_sign,,,50,,,1,,,,,,,0.875,,,,,,,,,,,
null,,color_black7,10518134,,,,,,,,black_plus_sign,,,null,,,,,,,,,,,,,,,,,,,,,
null,,learn_phase(without_color)7,10521646,,,,,,,,black_plus_sign,,,null,object_13b.png,object_15b.png,,,,,,,,,,,,,,,,,,,
null,,black_cross(without_color)7,10522322,,,,,,,,blue,,,null,object_13b.png,object_15b.png,,,,,,,,,,,,,,,,,,,
null,,rt_plussign_withcolor7,10522825,,,,,,,,blue,,,null,object_13b.png,object_15b.png,,,,,,,,,,,,,,,,,,,
1108.7000000029802,,rt_thecrossant_black7,10524155,,,,,,,,black_plus_sign,,,49,,,1,,,,,,,0.8888888888888888,,,,,,,,,,,
null,,color_black7,10524257,,,,,,,,black_plus_sign,,,null,,,,,,,,,,,,,,,,,,,,,
null,,learn_phase(without_color)7,10527762,,,,,,,,black_plus_sign,,,null,object_09a.png,object_03c.png,,,,,,,,,,,,,,,,,,,
null,,black_cross(without_color)7,10528779,,,,,,,,blue,,,null,object_09a.png,object_03c.png,,,,,,,,,,,,,,,,,,,
null,,rt_plussign_withcolor7,10529282,,,,,,,,blue,,,null,object_09a.png,object_03c.png,,,,,,,,,,,,,,,,,,,
917.3999999985099,,rt_thecrossant_black7,10530284,,,,,,,,black_plus_sign,,,49,,,1,,,,,,,0.9,,,,,,,,,,,
null,,color_black7,10530387,,,,,,,,black_plus_sign,,,null,,,,,,,,,,,,,,,,,,,,,
null,,learn_phase(without_color)7,10533891,,,,,,,,black_plus_sign,,,null,object_12b.png,object_14b.png,,,,,,,,,,,,,,,,,,,
null,,black_cross(without_color)7,10534791,,,,,,,,green,,,null,object_12b.png,object_14b.png,,,,,,,,,,,,,,,,,,,
null,,rt_plussign_withcolor7,10535292,,,,,,,,green,,,null,object_12b.png,object_14b.png,,,,,,,,,,,,,,,,,,,
1412.6999999955297,,rt_thecrossant_black7,10536398,,,,,,,,black_plus_sign,,,50,,,1,,,,,,,0.9090909090909091,,,,,,,,,,,
null,,color_black7,10536501,,,,,,,,black_plus_sign,,,null,,,,,,,,,,,,,,,,,,,,,
null,,learn_phase(without_color)7,10540004,,,,,,,,black_plus_sign,,,null,object_03b.png,object_14a.png,,,,,,,,,,,,,,,,,,,
null,,black_cross(without_color)7,10540436,,,,,,,,blue,,,null,object_03b.png,object_14a.png,,,,,,,,,,,,,,,,,,,
null,,rt_plussign_withcolor7,10540939,,,,,,,,blue,,,null,object_03b.png,object_14a.png,,,,,,,,,,,,,,,,,,,
1387.6999999955297,,rt_thecrossant_black7,10542512,,,,,,,,black_plus_sign,,,49,,,1,,,,,,,0.9166666666666666,,,,,,,,,,,
null,,color_black7,10542615,,,,,,,,black_plus_sign,,,null,,,,,,,,,,,,,,,,,,,,,
null,,learn_phase(without_color)7,10546125,,,,,,,,black_plus_sign,,,null,object_11b.png,object_08c.png,,,,,,,,,,,,,,,,,,,
null,,black_cross(without_color)7,10546953,,,,,,,,blue,,,null,object_11b.png,object_08c.png,,,,,,,,,,,,,,,,,,,
null,,rt_plussign_withcolor7,10547455,,,,,,,,blue,,,null,object_11b.png,object_08c.png,,,,,,,,,,,,,,,,,,,
865.7999999970198,,rt_thecrossant_black7,10548633,,,,,,,,black_plus_sign,,,49,,,1,,,,,,,0.9230769230769231,,,,,,,,,,,
null,,color_black7,10548735,,,,,,,,black_plus_sign,,,null,,,,,,,,,,,,,,,,,,,,,
null,,learn_phase(without_color)7,10552238,,,,,,,,black_plus_sign,,,null,object_13c.png,object_02a.png,,,,,,,,,,,,,,,,,,,
null,,black_cross(without_color)7,10552909,,,,,,,,blue,,,null,object_13c.png,object_02a.png,,,,,,,,,,,,,,,,,,,
null,,rt_plussign_withcolor7,10553411,,,,,,,,blue,,,null,object_13c.png,object_02a.png,,,,,,,,,,,,,,,,,,,
1263.1000000014901,,rt_thecrossant_black7,10554747,,,,,,,,black_plus_sign,,,49,,,1,,,,,,,0.9285714285714286,,,,,,,,,,,
null,,color_black7,10554850,,,,,,,,black_plus_sign,,,null,,,,,,,,,,,,,,,,,,,,,
null,,learn_phase(without_color)7,10558355,,,,,,,,black_plus_sign,,,null,object_10c.png,object_06c.png,,,,,,,,,,,,,,,,,,,
null,,black_cross(without_color)7,10559212,,,,,,,,green,,,null,object_10c.png,object_06c.png,,,,,,,,,,,,,,,,,,,
null,,rt_plussign_withcolor7,10559714,,,,,,,,green,,,null,object_10c.png,object_06c.png,,,,,,,,,,,,,,,,,,,
1158.3999999985099,,rt_thecrossant_black7,10560863,,,,,,,,black_plus_sign,,,50,,,1,,,,,,,0.9333333333333333,,,,,,,,,,,
null,,color_black7,10560967,,,,,,,,black_plus_sign,,,null,,,,,,,,,,,,,,,,,,,,,
null,,thebreak,10561071,,,,,,,,<p></p>,,,null,,,,,,,,,,,,,,,,,,,,,
1133.4000000059605,,intro_0,10562206,,,,,,,,instruct,,,32,,,,,,,,,,,,,,,,,,,,,
1760,,directmemory_phase7,10563968,,,,,,,,object_08a.png,,,50,,,1,,object_01a.png,object_12c.png,object_03a.png,object_12c.png,,0.42857142857142855,,1,,,,,,,,,
2881.0999999940395,,directmemory_phase7,10566853,,,,,,,,object_14b.png,,,49,,,0,,object_01a.png,object_03b.png,object_12b.png,object_12b.png,,0.42391304347826086,,0,,,,,,,,,
2687.4000000059605,,directmemory_phase7,10569545,,,,,,,,object_10b.png,,,50,,,0,,object_11c.png,object_08b.png,object_09b.png,object_11c.png,,0.41935483870967744,,0,,,,,,,,,
2651.5999999940395,,directmemory_phase7,10572199,,,,,,,,object_11b.png,,,49,,,0,,object_10b.png,object_12c.png,object_08c.png,object_08c.png,,0.4148936170212766,,0,,,,,,,,,
3598.60000000149,,directmemory_phase7,10575800,,,,,,,,object_03c.png,,,50,,,1,,object_13c.png,object_09a.png,object_11c.png,object_09a.png,,0.42105263157894735,,1,,,,,,,,,
4036.8000000044703,,directmemory_phase7,10579840,,,,,,,,object_13b.png,,,50,,,0,,object_15b.png,object_09a.png,object_08c.png,object_15b.png,,0.4166666666666667,,0,,,,,,,,,
3041.3000000044703,,directmemory_phase7,10582884,,,,,,,,object_15a.png,,,51,,,0,,object_12c.png,object_12a.png,object_05b.png,object_12a.png,,0.41237113402061853,,0,,,,,,,,,
3159.5,,directmemory_phase7,10586046,,,,,,,,object_05b.png,,,51,,,1,,object_11b.png,object_05a.png,object_09c.png,object_09c.png,,0.41836734693877553,,1,,,,,,,,,
3280.9000000059605,,directmemory_phase7,10589330,,,,,,,,object_05a.png,,,51,,,0,,object_04c.png,object_11b.png,object_06c.png,object_04c.png,,0.41414141414141414,,0,,,,,,,,,
3002,,directmemory_phase7,10592335,,,,,,,,object_10c.png,,,50,,,0,,object_08a.png,object_08b.png,object_06c.png,object_06c.png,,0.41,,0,,,,,,,,,
2905.5999999940395,,directmemory_phase7,10595244,,,,,,,,object_03b.png,,,49,,,1,,object_14a.png,object_01a.png,object_09c.png,object_14a.png,,0.4158415841584158,,1,,,,,,,,,
2259.7999999970198,,directmemory_phase7,10597507,,,,,,,,object_08b.png,,,50,,,0,,object_01a.png,object_05a.png,object_10c.png,object_01a.png,,0.4117647058823529,,0,,,,,,,,,
2467.89999999851,,directmemory_phase7,10599977,,,,,,,,object_11a.png,,,50,,,0,,object_03a.png,object_04c.png,object_13b.png,object_03a.png,,0.4077669902912621,,0,,,,,,,,,
2775.3000000044703,,directmemory_phase7,10602755,,,,,,,,object_10a.png,,,50,,,0,,object_09b.png,object_10b.png,object_02a.png,object_09b.png,,0.40384615384615385,,0,,,,,,,,,
2424.1999999955297,,directmemory_phase7,10605182,,,,,,,,object_13c.png,,,49,,,0,,object_04c.png,object_12b.png,object_02a.png,object_02a.png,,0.4,,0,,,,,,,,,
null,,thebreak,10605286,,,,,,,,<p></p>,,,null,,,,,,,,,,,,,,,,,,,,,
2490.8000000044703,,intro_0,10607779,,,,,,,,instruct,,,32,,,,,,,,,,,,,,,,,,,,,
null,,learn_phase(without_color)8,10611281,,,,,,,,black_plus_sign,,,null,object_13c.png,object_02a.png,,,,,,,,,,,,,,,,,,,
null,,black_cross(without_color)8,10611914,,,,,,,,blue,,,null,object_13c.png,object_02a.png,,,,,,,,,,,,,,,,,,,
null,,rt_plussign_withcolor8,10612416,,,,,,,,blue,,,null,object_13c.png,object_02a.png,,,,,,,,,,,,,,,,,,,
1522.1999999955297,,rt_thecrossant_black8,10613790,,,,,,,,black_plus_sign,,,49,,,1,,,,,,,1,,,,,,,,,,,
null,,color_black8,10613892,,,,,,,,black_plus_sign,,,null,,,,,,,,,,,,,,,,,,,,,
null,,learn_phase(without_color)8,10617396,,,,,,,,black_plus_sign,,,null,object_15a.png,object_12a.png,,,,,,,,,,,,,,,,,,,
null,,black_cross(without_color)8,10618366,,,,,,,,green,,,null,object_15a.png,object_12a.png,,,,,,,,,,,,,,,,,,,
null,,rt_plussign_withcolor8,10618882,,,,,,,,green,,,null,object_15a.png,object_12a.png,,,,,,,,,,,,,,,,,,,
1185.7999999970198,,rt_thecrossant_black8,10619930,,,,,,,,black_plus_sign,,,50,,,1,,,,,,,1,,,,,,,,,,,
null,,color_black8,10620032,,,,,,,,black_plus_sign,,,null,,,,,,,,,,,,,,,,,,,,,
null,,learn_phase(without_color)8,10623535,,,,,,,,black_plus_sign,,,null,object_08b.png,object_01a.png,,,,,,,,,,,,,,,,,,,
null,,black_cross(without_color)8,10624344,,,,,,,,blue,,,null,object_08b.png,object_01a.png,,,,,,,,,,,,,,,,,,,
null,,rt_plussign_withcolor8,10624846,,,,,,,,blue,,,null,object_08b.png,object_01a.png,,,,,,,,,,,,,,,,,,,
1428.0999999940395,,rt_thecrossant_black8,10626043,,,,,,,,black_plus_sign,,,49,,,1,,,,,,,1,,,,,,,,,,,
null,,color_black8,10626148,,,,,,,,black_plus_sign,,,null,,,,,,,,,,,,,,,,,,,,,
null,,learn_phase(without_color)8,10629651,,,,,,,,black_plus_sign,,,null,object_11a.png,object_03a.png,,,,,,,,,,,,,,,,,,,
null,,black_cross(without_color)8,10630122,,,,,,,,green,,,null,object_11a.png,object_03a.png,,,,,,,,,,,,,,,,,,,
null,,rt_plussign_withcolor8,10630624,,,,,,,,green,,,null,object_11a.png,object_03a.png,,,,,,,,,,,,,,,,,,,
1276.8000000044703,,rt_thecrossant_black8,10632161,,,,,,,,black_plus_sign,,,50,,,1,,,,,,,1,,,,,,,,,,,
null,,color_black8,10632262,,,,,,,,black_plus_sign,,,null,,,,,,,,,,,,,,,,,,,,,
null,,learn_phase(without_color)8,10635766,,,,,,,,black_plus_sign,,,null,object_13b.png,object_15b.png,,,,,,,,,,,,,,,,,,,
null,,black_cross(without_color)8,10636496,,,,,,,,blue,,,null,object_13b.png,object_15b.png,,,,,,,,,,,,,,,,,,,
null,,rt_plussign_withcolor8,10636997,,,,,,,,blue,,,null,object_13b.png,object_15b.png,,,,,,,,,,,,,,,,,,,
880.1000000014901,,rt_thecrossant_black8,10638274,,,,,,,,black_plus_sign,,,49,,,1,,,,,,,1,,,,,,,,,,,
null,,color_black8,10638377,,,,,,,,black_plus_sign,,,null,,,,,,,,,,,,,,,,,,,,,
null,,learn_phase(without_color)8,10641881,,,,,,,,black_plus_sign,,,null,object_03b.png,object_14a.png,,,,,,,,,,,,,,,,,,,
null,,black_cross(without_color)8,10642852,,,,,,,,green,,,null,object_03b.png,object_14a.png,,,,,,,,,,,,,,,,,,,
null,,rt_plussign_withcolor8,10643354,,,,,,,,green,,,null,object_03b.png,object_14a.png,,,,,,,,,,,,,,,,,,,
1066,,rt_thecrossant_black8,10644389,,,,,,,,black_plus_sign,,,50,,,1,,,,,,,1,,,,,,,,,,,
null,,color_black8,10644492,,,,,,,,black_plus_sign,,,null,,,,,,,,,,,,,,,,,,,,,
null,,learn_phase(without_color)8,10647996,,,,,,,,black_plus_sign,,,null,object_06c.png,object_10c.png,,,,,,,,,,,,,,,,,,,
null,,black_cross(without_color)8,10648600,,,,,,,,blue,,,null,object_06c.png,object_10c.png,,,,,,,,,,,,,,,,,,,
null,,rt_plussign_withcolor8,10649102,,,,,,,,blue,,,null,object_06c.png,object_10c.png,,,,,,,,,,,,,,,,,,,
1349.5,,rt_thecrossant_black8,10650505,,,,,,,,black_plus_sign,,,49,,,1,,,,,,,1,,,,,,,,,,,
null,,color_black8,10650607,,,,,,,,black_plus_sign,,,null,,,,,,,,,,,,,,,,,,,,,
null,,learn_phase(without_color)8,10654111,,,,,,,,black_plus_sign,,,null,object_11c.png,object_10b.png,,,,,,,,,,,,,,,,,,,
null,,black_cross(without_color)8,10654682,,,,,,,,green,,,null,object_11c.png,object_10b.png,,,,,,,,,,,,,,,,,,,
null,,rt_plussign_withcolor8,10655186,,,,,,,,green,,,null,object_11c.png,object_10b.png,,,,,,,,,,,,,,,,,,,
1041.5999999940395,,rt_thecrossant_black8,10656619,,,,,,,,black_plus_sign,,,50,,,1,,,,,,,1,,,,,,,,,,,
null,,color_black8,10656722,,,,,,,,black_plus_sign,,,null,,,,,,,,,,,,,,,,,,,,,
null,,learn_phase(without_color)8,10660225,,,,,,,,black_plus_sign,,,null,object_03c.png,object_09a.png,,,,,,,,,,,,,,,,,,,
null,,black_cross(without_color)8,10660951,,,,,,,,green,,,null,object_03c.png,object_09a.png,,,,,,,,,,,,,,,,,,,
null,,rt_plussign_withcolor8,10661453,,,,,,,,green,,,null,object_03c.png,object_09a.png,,,,,,,,,,,,,,,,,,,
1008.8999999985099,,rt_thecrossant_black8,10662733,,,,,,,,black_plus_sign,,,50,,,1,,,,,,,1,,,,,,,,,,,
null,,color_black8,10662846,,,,,,,,black_plus_sign,,,null,,,,,,,,,,,,,,,,,,,,,
null,,learn_phase(without_color)8,10666348,,,,,,,,black_plus_sign,,,null,object_04c.png,object_05a.png,,,,,,,,,,,,,,,,,,,
null,,black_cross(without_color)8,10667430,,,,,,,,blue,,,null,object_04c.png,object_05a.png,,,,,,,,,,,,,,,,,,,
null,,rt_plussign_withcolor8,10667933,,,,,,,,blue,,,null,object_04c.png,object_05a.png,,,,,,,,,,,,,,,,,,,
1142,,rt_thecrossant_black8,10668859,,,,,,,,black_plus_sign,,,49,,,1,,,,,,,1,,,,,,,,,,,
null,,color_black8,10668962,,,,,,,,black_plus_sign,,,null,,,,,,,,,,,,,,,,,,,,,
null,,learn_phase(without_color)8,10672465,,,,,,,,black_plus_sign,,,null,object_10a.png,object_09b.png,,,,,,,,,,,,,,,,,,,
null,,black_cross(without_color)8,10673374,,,,,,,,green,,,null,object_10a.png,object_09b.png,,,,,,,,,,,,,,,,,,,
null,,rt_plussign_withcolor8,10673876,,,,,,,,green,,,null,object_10a.png,object_09b.png,,,,,,,,,,,,,,,,,,,
1504.5999999940395,,rt_thecrossant_black8,10674973,,,,,,,,black_plus_sign,,,50,,,1,,,,,,,1,,,,,,,,,,,
null,,color_black8,10675076,,,,,,,,black_plus_sign,,,null,,,,,,,,,,,,,,,,,,,,,
null,,learn_phase(without_color)8,10678580,,,,,,,,black_plus_sign,,,null,object_12c.png,object_08a.png,,,,,,,,,,,,,,,,,,,
null,,black_cross(without_color)8,10679439,,,,,,,,blue,,,null,object_12c.png,object_08a.png,,,,,,,,,,,,,,,,,,,
null,,rt_plussign_withcolor8,10679941,,,,,,,,blue,,,null,object_12c.png,object_08a.png,,,,,,,,,,,,,,,,,,,
1311.8000000044703,,rt_thecrossant_black8,10681098,,,,,,,,black_plus_sign,,,49,,,1,,,,,,,1,,,,,,,,,,,
null,,color_black8,10681202,,,,,,,,black_plus_sign,,,null,,,,,,,,,,,,,,,,,,,,,
null,,learn_phase(without_color)8,10684707,,,,,,,,black_plus_sign,,,null,object_12b.png,object_14b.png,,,,,,,,,,,,,,,,,,,
null,,black_cross(without_color)8,10685329,,,,,,,,green,,,null,object_12b.png,object_14b.png,,,,,,,,,,,,,,,,,,,
null,,rt_plussign_withcolor8,10685832,,,,,,,,green,,,null,object_12b.png,object_14b.png,,,,,,,,,,,,,,,,,,,
1313.7000000029802,,rt_thecrossant_black8,10687215,,,,,,,,black_plus_sign,,,50,,,1,,,,,,,1,,,,,,,,,,,
null,,color_black8,10687318,,,,,,,,black_plus_sign,,,null,,,,,,,,,,,,,,,,,,,,,
null,,learn_phase(without_color)8,10690822,,,,,,,,black_plus_sign,,,null,object_08c.png,object_11b.png,,,,,,,,,,,,,,,,,,,
null,,black_cross(without_color)8,10691396,,,,,,,,green,,,null,object_08c.png,object_11b.png,,,,,,,,,,,,,,,,,,,
null,,rt_plussign_withcolor8,10691898,,,,,,,,green,,,null,object_08c.png,object_11b.png,,,,,,,,,,,,,,,,,,,
1095.6000000014901,,rt_thecrossant_black8,10693332,,,,,,,,black_plus_sign,,,50,,,1,,,,,,,1,,,,,,,,,,,
null,,color_black8,10693435,,,,,,,,black_plus_sign,,,null,,,,,,,,,,,,,,,,,,,,,
null,,learn_phase(without_color)8,10696939,,,,,,,,black_plus_sign,,,null,object_09c.png,object_05b.png,,,,,,,,,,,,,,,,,,,
null,,black_cross(without_color)8,10697534,,,,,,,,green,,,null,object_09c.png,object_05b.png,,,,,,,,,,,,,,,,,,,
null,,rt_plussign_withcolor8,10698037,,,,,,,,green,,,null,object_09c.png,object_05b.png,,,,,,,,,,,,,,,,,,,
1153.7000000029802,,rt_thecrossant_black8,10699451,,,,,,,,black_plus_sign,,,50,,,1,,,,,,,1,,,,,,,,,,,
null,,color_black8,10699554,,,,,,,,black_plus_sign,,,null,,,,,,,,,,,,,,,,,,,,,
null,,thebreak,10699657,,,,,,,,<p></p>,,,null,,,,,,,,,,,,,,,,,,,,,
1191.7999999970198,,intro_0,10700851,,,,,,,,instruct,,,32,,,,,,,,,,,,,,,,,,,,,
3045.2000000029802,,directmemory_phase8,10703898,,,,,,,,object_12a.png,,,50,,,1,,object_14a.png,object_15a.png,object_08b.png,object_15a.png,,0.4056603773584906,,1,,,,,,,,,
3152.5,,directmemory_phase8,10707053,,,,,,,,object_14b.png,,,49,,,0,,object_10a.png,object_12b.png,object_01a.png,object_12b.png,,0.40186915887850466,,0,,,,,,,,,
