rt,responses,trial_type,time_elapsed,identifier_a,identifier_b,identifier_c,tasktype,browser_type,local_time,UTC_time,stimulus,button_pressed,response,key_press,stimulus_left,stimulus_right,accuracy,practice_cumulative_accuracy,stimulus_down_left,stimulus_down_mid,stimulus_down_right,stimulus_correct,prac_weighted_accuracy,cumulative_accuracy,weighted_accuracy,stimulus_middle,problems,smooth,distraction,strategies,easier,similar,comments
75877.29999999702,{worker_id:67f08fc0a2759404677ce665},id_enter,75879,object_10b.png; object_14c.png; object_01a.png; object_09b.png; object_12b.png; object_08c.png; object_02b.png; object_11c.png; object_12c.png; object_08b.png; object_14b.png; object_04b.png; object_14a.png; object_13a.png; object_12a.png,object_02a.png; object_07a.png; object_07c.png; object_04c.png; object_05a.png; object_09c.png; object_01b.png; object_06b.png; object_04a.png; object_03a.png; object_08a.png; object_05b.png; object_06c.png; object_11b.png; object_10a.png,object_02c.png; object_03b.png; object_10c.png; object_03c.png; object_11a.png; object_05c.png; object_15a.png; object_06a.png; object_15b.png; object_01c.png; object_13c.png; object_07b.png; object_13b.png; object_09a.png; object_15c.png,interleaved,Mozilla/5.0 (Windows NT 10.0; Win64; x64) AppleWebKit/537.36 (KHTML, like Gecko) Chrome/135.0.0.0 Safari/537.36,5/2/2025, 3:20:11 PM,2025-05-02 19:20:11.541,,,,,,,,,,,,,,,,,,,,,,,
45236,,make_fullscreen,121125,,,,,,,,fullscreen,0,,,,,,,,,,,,,,,,,,,,,
9379.89999999106,,instruct_1,130507,,,,,,,,instruct,0,Next,,,,,,,,,,,,,,,,,,,,
116512.09999999404,,instruct_2,247021,,,,,,,,instruct,1,Next,,,,,,,,,,,,,,,,,,,,
10286.90000000596,,instruct_3,257309,,,,,,,,instruct,1,Next,,,,,,,,,,,,,,,,,,,,
68469.20000000298,,instruct_4,325779,,,,,,,,instruct,1,Next,,,,,,,,,,,,,,,,,,,,
17216.5,,instruct_5,342997,,,,,,,,instruct,1,Next,,,,,,,,,,,,,,,,,,,,
6469.29999999702,,instruct_6,349467,,,,,,,,instruct,1,Next,,,,,,,,,,,,,,,,,,,,
73086.40000000596,,instruct_7,422554,,,,,,,,instruct,1,Next,,,,,,,,,,,,,,,,,,,,
null,,prac_atten_color_black,423112,,,,,,,,black_plus_sign,,,null,,,,,,,,,,,,,,,,,,,
null,,prac_atten_color,423959,,,,,,,,<p style='position:absolute;top: 50%;right: 50%;transform: translate(50%, -50%);font-size: 125px;color: blue;'>+</p>,,,null,,,,,,,,,,,,,,,,,,,
338.59999999403954,,prac_atten_color_black,425960,,,,,,,,black_plus_sign,,,49,,,,,,,,,,,,,,,,,,,
null,,prac_atten_color_black,426518,,,,,,,,black_plus_sign,,,null,,,,,,,,,,,,,,,,,,,
633.7999999970198,,prac_atten_color,427281,,,,,,,,<p style='position:absolute;top: 50%;right: 50%;transform: translate(50%, -50%);font-size: 125px;color: green;'>+</p>,,,50,,,,,,,,,,,,,,,,,,,
null,,prac_atten_color_black,429283,,,,,,,,black_plus_sign,,,null,,,,,,,,,,,,,,,,,,,
null,,prac_atten_color_black,429924,,,,,,,,black_plus_sign,,,null,,,,,,,,,,,,,,,,,,,
null,,prac_atten_color,430517,,,,,,,,<p style='position:absolute;top: 50%;right: 50%;transform: translate(50%, -50%);font-size: 125px;color: green;'>+</p>,,,null,,,,,,,,,,,,,,,,,,,
61.20000000298023,,prac_atten_color_black,432518,,,,,,,,black_plus_sign,,,50,,,,,,,,,,,,,,,,,,,
null,,prac_atten_color_black,433332,,,,,,,,black_plus_sign,,,null,,,,,,,,,,,,,,,,,,,
455.40000000596046,,prac_atten_color,434432,,,,,,,,<p style='position:absolute;top: 50%;right: 50%;transform: translate(50%, -50%);font-size: 125px;color: blue;'>+</p>,,,49,,,,,,,,,,,,,,,,,,,
null,,prac_atten_color_black,436435,,,,,,,,black_plus_sign,,,null,,,,,,,,,,,,,,,,,,,
null,,prac_atten_color_black,436740,,,,,,,,black_plus_sign,,,null,,,,,,,,,,,,,,,,,,,
434.09999999403954,,prac_atten_color,437705,,,,,,,,<p style='position:absolute;top: 50%;right: 50%;transform: translate(50%, -50%);font-size: 125px;color: green;'>+</p>,,,50,,,,,,,,,,,,,,,,,,,
null,,prac_atten_color_black,439706,,,,,,,,black_plus_sign,,,null,,,,,,,,,,,,,,,,,,,
null,,prac_atten_color_black,440146,,,,,,,,black_plus_sign,,,null,,,,,,,,,,,,,,,,,,,
536.0999999940395,,prac_atten_color,440888,,,,,,,,<p style='position:absolute;top: 50%;right: 50%;transform: translate(50%, -50%);font-size: 125px;color: green;'>+</p>,,,50,,,,,,,,,,,,,,,,,,,
null,,prac_atten_color_black,442890,,,,,,,,black_plus_sign,,,null,,,,,,,,,,,,,,,,,,,
null,,prac_atten_color_black,443551,,,,,,,,black_plus_sign,,,null,,,,,,,,,,,,,,,,,,,
383.30000001192093,,prac_atten_color,444034,,,,,,,,<p style='position:absolute;top: 50%;right: 50%;transform: translate(50%, -50%);font-size: 125px;color: blue;'>+</p>,,,49,,,,,,,,,,,,,,,,,,,
null,,prac_atten_color_black,446037,,,,,,,,black_plus_sign,,,null,,,,,,,,,,,,,,,,,,,
null,,prac_atten_color_black,446958,,,,,,,,black_plus_sign,,,null,,,,,,,,,,,,,,,,,,,
null,,prac_atten_color,447468,,,,,,,,<p style='position:absolute;top: 50%;right: 50%;transform: translate(50%, -50%);font-size: 125px;color: green;'>+</p>,,,null,,,,,,,,,,,,,,,,,,,
23.299999997019768,,prac_atten_color_black,449469,,,,,,,,black_plus_sign,,,50,,,,,,,,,,,,,,,,,,,
null,,prac_atten_color_black,450364,,,,,,,,black_plus_sign,,,null,,,,,,,,,,,,,,,,,,,
450.30000001192093,,prac_atten_color,451209,,,,,,,,<p style='position:absolute;top: 50%;right: 50%;transform: translate(50%, -50%);font-size: 125px;color: blue;'>+</p>,,,49,,,,,,,,,,,,,,,,,,,
null,,prac_atten_color_black,453210,,,,,,,,black_plus_sign,,,null,,,,,,,,,,,,,,,,,,,
null,,prac_atten_color_black,453778,,,,,,,,black_plus_sign,,,null,,,,,,,,,,,,,,,,,,,
560.4000000059605,,prac_atten_color,454651,,,,,,,,<p style='position:absolute;top: 50%;right: 50%;transform: translate(50%, -50%);font-size: 125px;color: blue;'>+</p>,,,49,,,,,,,,,,,,,,,,,,,
null,,prac_atten_color_black,456652,,,,,,,,black_plus_sign,,,null,,,,,,,,,,,,,,,,,,,
9047.300000011921,,attentioncheck_feedback,465701,,,,,,,,cross_check_feedback,0,,,,,,,,,,,,,,,,,,,,,
21387.79999999702,,last_instruct,487089,,,,,,,,instruct,,,32,,,,,,,,,,,,,,,,,,,
null,,prac_learn_phase(without_color),490604,,,,,,,,black_plus_sign,,,null,object_11b.png,object_09a.png,,,,,,,,,,,,,,,,,
null,,prac_black_cross(without_color),491182,,,,,,,,blue,,,null,object_11b.png,object_09a.png,,,,,,,,,,,,,,,,,
null,,prac_rt_plussign_withcolor,491683,,,,,,,,blue,,,null,object_11b.png,object_09a.png,,,,,,,,,,,,,,,,,
1340.7000000029802,,prac_rt_thecrossant_black,493111,,,,,,,,black_plus_sign,,,49,,,1,1,,,,,,,,,,,,,,,
null,,prac_color_black,493213,,,,,,,,black_plus_sign,,,null,,,,,,,,,,,,,,,,,,,
null,,prac_learn_phase(without_color),496715,,,,,,,,black_plus_sign,,,null,object_04b.png,object_05b.png,,,,,,,,,,,,,,,,,
null,,black_cross(without_color)1,497228,,,,,,,,blue,,,null,object_11b.png,object_09a.png,,,,,,,,,,,,,,,,,
null,,prac_rt_plussign_withcolor,497729,,,,,,,,green,,,null,object_04b.png,object_05b.png,,,,,,,,,,,,,,,,,
1755.0999999940395,,prac_rt_thecrossant_black,498894,,,,,,,,black_plus_sign,,,50,,,1,1,,,,,,,,,,,,,,,
null,,prac_color_black,498996,,,,,,,,black_plus_sign,,,null,,,,,,,,,,,,,,,,,,,
null,,prac_learn_phase(without_color),502499,,,,,,,,black_plus_sign,,,null,object_13c.png,object_08a.png,,,,,,,,,,,,,,,,,
null,,black_cross(without_color)1,503012,,,,,,,,blue,,,null,object_11b.png,object_09a.png,,,,,,,,,,,,,,,,,
null,,prac_rt_plussign_withcolor,503513,,,,,,,,green,,,null,object_13c.png,object_08a.png,,,,,,,,,,,,,,,,,
1214.5,,prac_rt_thecrossant_black,505005,,,,,,,,black_plus_sign,,,50,,,1,1,,,,,,,,,,,,,,,
null,,prac_color_black,505107,,,,,,,,black_plus_sign,,,null,,,,,,,,,,,,,,,,,,,
null,,prac_learn_phase(without_color),508610,,,,,,,,black_plus_sign,,,null,object_06c.png,object_14a.png,,,,,,,,,,,,,,,,,
null,,black_cross(without_color)1,509123,,,,,,,,blue,,,null,object_11b.png,object_09a.png,,,,,,,,,,,,,,,,,
496.19999998807907,,prac_rt_plussign_withcolor,509624,,,,,,,,green,,,50,object_06c.png,object_14a.png,,,,,,,,,,,,,,,,,
null,,prac_rt_thecrossant_black,511005,,,,,,,,black_plus_sign,,,null,,,1,1,,,,,,,,,,,,,,,
null,,prac_color_black,511106,,,,,,,,black_plus_sign,,,null,,,,,,,,,,,,,,,,,,,
26450.70000000298,,instruct_dir_01,537558,,,,,,,,instruct,0,Next,,,,,,,,,,,,,,,,,,,,
13716.10000000894,,instruct_dir_2,551275,,,,,,,,instruct,1,Next,,,,,,,,,,,,,,,,,,,,
11852.29999999702,,instruct_dir_3,563128,,,,,,,,instruct,1,Next,,,,,,,,,,,,,,,,,,,,
24060,,instruct_dir_4,587189,,,,,,,,instruct,1,Start,,,,,,,,,,,,,,,,,,,,
null,,thebreak,587290,,,,,,,,<p></p>,,,null,,,,,,,,,,,,,,,,,,,
2035.0999999940395,,intro_0,589326,,,,,,,,instruct,,,32,,,,,,,,,,,,,,,,,,,
9273.89999999106,,prac_directmemory_phase,598601,,,,,,,,practice/object_03a.png,,,51,,,1,,practice/object_02b.png,practice/object_01a.png,practice/object_03b.png,practice/object_03b.png,1,1,,,,,,,,,
8859.20000000298,,prac_directmemory_phase,607462,,,,,,,,practice/object_01a.png,,,50,,,1,,practice/object_04a.png,practice/object_01b.png,practice/object_04b.png,practice/object_01b.png,1,1,,,,,,,,,
null,,prac_directmemory_phase,622463,,,,,,,,practice/object_02a.png,,,null,,,0,,practice/object_02b.png,practice/object_01b.png,practice/object_04a.png,practice/object_02b.png,0,0.6666666666666666,,,,,,,,,
null,,warning_page,627465,,,,,,,,warning,,,null,,,,,,,,,,,,,,,,,,,
4591.899999991059,,prac_directmemory_phase,632057,,,,,,,,practice/object_04a.png,,,49,,,1,,practice/object_04b.png,practice/object_03b.png,practice/object_01a.png,practice/object_04b.png,1,0.75,,,,,,,,,
8628.59999999404,,practice_feedback,640687,,,,,,,,practice_feedback,1,,,,,,,,,,,,,,,,,,,,,
17322.10000000894,,proceed_actualTask,658010,,,,,,,,proceed_actualTask,1,Continue,,,,,,,,,,,,,,,,,,,,
47860.70000000298,,last_inst,705871,,,,,,,,last_inst,,,32,,,,,,,,,,,,,,,,,,,
null,,learn_phase(without_color)1,709373,,,,,,,,black_plus_sign,,,null,object_11b.png,object_09a.png,,,,,,,,,,,,,,,,,
null,,black_cross(without_color)1,709886,,,,,,,,blue,,,null,object_11b.png,object_09a.png,,,,,,,,,,,,,,,,,
null,,rt_plussign_withcolor1,710387,,,,,,,,blue,,,null,object_11b.png,object_09a.png,,,,,,,,,,,,,,,,,
1114.7999999970198,,rt_thecrossant_black1,711878,,,,,,,,black_plus_sign,,,49,,,1,,,,,,,1,,,,,,,,,
null,,color_black1,711981,,,,,,,,black_plus_sign,,,null,,,,,,,,,,,,,,,,,,,
null,,learn_phase(without_color)1,715483,,,,,,,,black_plus_sign,,,null,object_04b.png,object_05b.png,,,,,,,,,,,,,,,,,
null,,black_cross(without_color)1,716284,,,,,,,,green,,,null,object_04b.png,object_05b.png,,,,,,,,,,,,,,,,,
null,,rt_plussign_withcolor1,716785,,,,,,,,green,,,null,object_04b.png,object_05b.png,,,,,,,,,,,,,,,,,
664.5,,rt_thecrossant_black1,717989,,,,,,,,black_plus_sign,,,50,,,1,,,,,,,1,,,,,,,,,
null,,color_black1,718091,,,,,,,,black_plus_sign,,,null,,,,,,,,,,,,,,,,,,,
null,,learn_phase(without_color)1,721593,,,,,,,,black_plus_sign,,,null,object_13c.png,object_08a.png,,,,,,,,,,,,,,,,,
null,,black_cross(without_color)1,722193,,,,,,,,blue,,,null,object_13c.png,object_08a.png,,,,,,,,,,,,,,,,,
null,,rt_plussign_withcolor1,722695,,,,,,,,blue,,,null,object_13c.png,object_08a.png,,,,,,,,,,,,,,,,,
1226.4000000059605,,rt_thecrossant_black1,724098,,,,,,,,black_plus_sign,,,49,,,1,,,,,,,1,,,,,,,,,
null,,color_black1,724200,,,,,,,,black_plus_sign,,,null,,,,,,,,,,,,,,,,,,,
null,,learn_phase(without_color)1,727702,,,,,,,,black_plus_sign,,,null,object_06c.png,object_14a.png,,,,,,,,,,,,,,,,,
null,,black_cross(without_color)1,728115,,,,,,,,green,,,null,object_06c.png,object_14a.png,,,,,,,,,,,,,,,,,
null,,rt_plussign_withcolor1,728617,,,,,,,,green,,,null,object_06c.png,object_14a.png,,,,,,,,,,,,,,,,,
1031.1000000089407,,rt_thecrossant_black1,730209,,,,,,,,black_plus_sign,,,50,,,1,,,,,,,1,,,,,,,,,
null,,color_black1,730311,,,,,,,,black_plus_sign,,,null,,,,,,,,,,,,,,,,,,,
null,,learn_phase(without_color)1,733814,,,,,,,,black_plus_sign,,,null,object_03c.png,object_04c.png,,,,,,,,,,,,,,,,,
null,,black_cross(without_color)1,734786,,,,,,,,green,,,null,object_03c.png,object_04c.png,,,,,,,,,,,,,,,,,
null,,rt_plussign_withcolor1,735287,,,,,,,,green,,,null,object_03c.png,object_04c.png,,,,,,,,,,,,,,,,,
781.7000000029802,,rt_thecrossant_black1,736318,,,,,,,,black_plus_sign,,,50,,,1,,,,,,,1,,,,,,,,,
null,,color_black1,736420,,,,,,,,black_plus_sign,,,null,,,,,,,,,,,,,,,,,,,
null,,learn_phase(without_color)1,739922,,,,,,,,black_plus_sign,,,null,object_10a.png,object_15c.png,,,,,,,,,,,,,,,,,
null,,black_cross(without_color)1,740500,,,,,,,,blue,,,null,object_10a.png,object_15c.png,,,,,,,,,,,,,,,,,
null,,rt_plussign_withcolor1,741002,,,,,,,,blue,,,null,object_10a.png,object_15c.png,,,,,,,,,,,,,,,,,
1235.5999999940395,,rt_thecrossant_black1,742432,,,,,,,,black_plus_sign,,,49,,,1,,,,,,,1,,,,,,,,,
null,,color_black1,742533,,,,,,,,black_plus_sign,,,null,,,,,,,,,,,,,,,,,,,
null,,learn_phase(without_color)1,746035,,,,,,,,black_plus_sign,,,null,object_01c.png,object_03a.png,,,,,,,,,,,,,,,,,
null,,black_cross(without_color)1,746591,,,,,,,,blue,,,null,object_01c.png,object_03a.png,,,,,,,,,,,,,,,,,
null,,rt_plussign_withcolor1,747094,,,,,,,,blue,,,null,object_01c.png,object_03a.png,,,,,,,,,,,,,,,,,
985.2000000029802,,rt_thecrossant_black1,748546,,,,,,,,black_plus_sign,,,49,,,1,,,,,,,1,,,,,,,,,
null,,color_black1,748649,,,,,,,,black_plus_sign,,,null,,,,,,,,,,,,,,,,,,,
null,,learn_phase(without_color)1,752151,,,,,,,,black_plus_sign,,,null,object_12b.png,object_05a.png,,,,,,,,,,,,,,,,,
null,,black_cross(without_color)1,753249,,,,,,,,green,,,null,object_12b.png,object_05a.png,,,,,,,,,,,,,,,,,
null,,rt_plussign_withcolor1,753750,,,,,,,,green,,,null,object_12b.png,object_05a.png,,,,,,,,,,,,,,,,,
811.3999999910593,,rt_thecrossant_black1,754666,,,,,,,,black_plus_sign,,,50,,,1,,,,,,,1,,,,,,,,,
null,,color_black1,754769,,,,,,,,black_plus_sign,,,null,,,,,,,,,,,,,,,,,,,
null,,learn_phase(without_color)1,758271,,,,,,,,black_plus_sign,,,null,object_05c.png,object_09c.png,,,,,,,,,,,,,,,,,
null,,black_cross(without_color)1,758882,,,,,,,,green,,,null,object_05c.png,object_09c.png,,,,,,,,,,,,,,,,,
null,,rt_plussign_withcolor1,759390,,,,,,,,green,,,null,object_05c.png,object_09c.png,,,,,,,,,,,,,,,,,
1431.7999999970198,,rt_thecrossant_black1,760783,,,,,,,,black_plus_sign,,,50,,,1,,,,,,,1,,,,,,,,,
null,,color_black1,760885,,,,,,,,black_plus_sign,,,null,,,,,,,,,,,,,,,,,,,
null,,learn_phase(without_color)1,764387,,,,,,,,black_plus_sign,,,null,object_04a.png,object_12c.png,,,,,,,,,,,,,,,,,
null,,black_cross(without_color)1,764859,,,,,,,,green,,,null,object_04a.png,object_12c.png,,,,,,,,,,,,,,,,,
null,,rt_plussign_withcolor1,765360,,,,,,,,green,,,null,object_04a.png,object_12c.png,,,,,,,,,,,,,,,,,
971.4000000059605,,rt_thecrossant_black1,766894,,,,,,,,black_plus_sign,,,50,,,1,,,,,,,1,,,,,,,,,
null,,color_black1,766996,,,,,,,,black_plus_sign,,,null,,,,,,,,,,,,,,,,,,,
null,,learn_phase(without_color)1,770499,,,,,,,,black_plus_sign,,,null,object_10a.png,object_12a.png,,,,,,,,,,,,,,,,,
null,,black_cross(without_color)1,771502,,,,,,,,green,,,null,object_10a.png,object_12a.png,,,,,,,,,,,,,,,,,
null,,rt_plussign_withcolor1,772004,,,,,,,,green,,,null,object_10a.png,object_12a.png,,,,,,,,,,,,,,,,,
681.5,,rt_thecrossant_black1,773005,,,,,,,,black_plus_sign,,,50,,,1,,,,,,,1,,,,,,,,,
null,,color_black1,773106,,,,,,,,black_plus_sign,,,null,,,,,,,,,,,,,,,,,,,
null,,learn_phase(without_color)1,776608,,,,,,,,black_plus_sign,,,null,object_07a.png,object_03b.png,,,,,,,,,,,,,,,,,
null,,black_cross(without_color)1,777500,,,,,,,,blue,,,null,object_07a.png,object_03b.png,,,,,,,,,,,,,,,,,
349.29999999701977,,rt_plussign_withcolor1,778002,,,,,,,,blue,,,49,object_07a.png,object_03b.png,,,,,,,,,,,,,,,,,
null,,rt_thecrossant_black1,779113,,,,,,,,black_plus_sign,,,null,,,1,,,,,,,1,,,,,,,,,
null,,color_black1,779214,,,,,,,,black_plus_sign,,,null,,,,,,,,,,,,,,,,,,,
null,,learn_phase(without_color)1,782717,,,,,,,,black_plus_sign,,,null,object_01b.png,object_02b.png,,,,,,,,,,,,,,,,,
null,,black_cross(without_color)1,783138,,,,,,,,blue,,,null,object_01b.png,object_02b.png,,,,,,,,,,,,,,,,,
null,,rt_plussign_withcolor1,783640,,,,,,,,blue,,,null,object_01b.png,object_02b.png,,,,,,,,,,,,,,,,,
1208.0999999940395,,rt_thecrossant_black1,785221,,,,,,,,black_plus_sign,,,49,,,1,,,,,,,1,,,,,,,,,
null,,color_black1,785323,,,,,,,,black_plus_sign,,,null,,,,,,,,,,,,,,,,,,,
null,,learn_phase(without_color)1,788825,,,,,,,,black_plus_sign,,,null,object_04a.png,object_15b.png,,,,,,,,,,,,,,,,,
null,,black_cross(without_color)1,789235,,,,,,,,blue,,,null,object_04a.png,object_15b.png,,,,,,,,,,,,,,,,,
null,,rt_plussign_withcolor1,789736,,,,,,,,blue,,,null,object_04a.png,object_15b.png,,,,,,,,,,,,,,,,,
703.3999999910593,,rt_thecrossant_black1,791330,,,,,,,,black_plus_sign,,,49,,,1,,,,,,,1,,,,,,,,,
null,,color_black1,791433,,,,,,,,black_plus_sign,,,null,,,,,,,,,,,,,,,,,,,
null,,learn_phase(without_color)1,794936,,,,,,,,black_plus_sign,,,null,object_03a.png,object_08b.png,,,,,,,,,,,,,,,,,
null,,black_cross(without_color)1,795556,,,,,,,,blue,,,null,object_03a.png,object_08b.png,,,,,,,,,,,,,,,,,
null,,rt_plussign_withcolor1,796058,,,,,,,,blue,,,null,object_03a.png,object_08b.png,,,,,,,,,,,,,,,,,
595.1000000089407,,rt_thecrossant_black1,797441,,,,,,,,black_plus_sign,,,49,,,1,,,,,,,1,,,,,,,,,
null,,color_black1,797544,,,,,,,,black_plus_sign,,,null,,,,,,,,,,,,,,,,,,,
null,,learn_phase(without_color)1,801045,,,,,,,,black_plus_sign,,,null,object_06a.png,object_06b.png,,,,,,,,,,,,,,,,,
null,,black_cross(without_color)1,801867,,,,,,,,blue,,,null,object_06a.png,object_06b.png,,,,,,,,,,,,,,,,,
null,,rt_plussign_withcolor1,802370,,,,,,,,blue,,,null,object_06a.png,object_06b.png,,,,,,,,,,,,,,,,,
764.2999999970198,,rt_thecrossant_black1,803551,,,,,,,,black_plus_sign,,,49,,,1,,,,,,,1,,,,,,,,,
null,,color_black1,803652,,,,,,,,black_plus_sign,,,null,,,,,,,,,,,,,,,,,,,
null,,learn_phase(without_color)1,807163,,,,,,,,black_plus_sign,,,null,object_05a.png,object_11a.png,,,,,,,,,,,,,,,,,
null,,black_cross(without_color)1,807812,,,,,,,,blue,,,null,object_05a.png,object_11a.png,,,,,,,,,,,,,,,,,
null,,rt_plussign_withcolor1,808313,,,,,,,,blue,,,null,object_05a.png,object_11a.png,,,,,,,,,,,,,,,,,
1021.2999999970198,,rt_thecrossant_black1,809668,,,,,,,,black_plus_sign,,,49,,,1,,,,,,,1,,,,,,,,,
null,,color_black1,809770,,,,,,,,black_plus_sign,,,null,,,,,,,,,,,,,,,,,,,
null,,learn_phase(without_color)1,813272,,,,,,,,black_plus_sign,,,null,object_07b.png,object_05b.png,,,,,,,,,,,,,,,,,
null,,black_cross(without_color)1,814095,,,,,,,,blue,,,null,object_07b.png,object_05b.png,,,,,,,,,,,,,,,,,
null,,rt_plussign_withcolor1,814608,,,,,,,,blue,,,null,object_07b.png,object_05b.png,,,,,,,,,,,,,,,,,
940.2000000029802,,rt_thecrossant_black1,815791,,,,,,,,black_plus_sign,,,49,,,1,,,,,,,1,,,,,,,,,
null,,color_black1,815893,,,,,,,,black_plus_sign,,,null,,,,,,,,,,,,,,,,,,,
null,,learn_phase(without_color)1,819396,,,,,,,,black_plus_sign,,,null,object_07c.png,object_10c.png,,,,,,,,,,,,,,,,,
null,,black_cross(without_color)1,819887,,,,,,,,green,,,null,object_07c.png,object_10c.png,,,,,,,,,,,,,,,,,
null,,rt_plussign_withcolor1,820389,,,,,,,,green,,,null,object_07c.png,object_10c.png,,,,,,,,,,,,,,,,,
1181.5999999940395,,rt_thecrossant_black1,821901,,,,,,,,black_plus_sign,,,50,,,1,,,,,,,1,,,,,,,,,
null,,color_black1,822002,,,,,,,,black_plus_sign,,,null,,,,,,,,,,,,,,,,,,,
null,,learn_phase(without_color)1,825506,,,,,,,,black_plus_sign,,,null,object_14b.png,object_08a.png,,,,,,,,,,,,,,,,,
null,,black_cross(without_color)1,826590,,,,,,,,green,,,null,object_14b.png,object_08a.png,,,,,,,,,,,,,,,,,
null,,rt_plussign_withcolor1,827105,,,,,,,,green,,,null,object_14b.png,object_08a.png,,,,,,,,,,,,,,,,,
784.2000000029802,,rt_thecrossant_black1,828025,,,,,,,,black_plus_sign,,,50,,,1,,,,,,,1,,,,,,,,,
null,,color_black1,828127,,,,,,,,black_plus_sign,,,null,,,,,,,,,,,,,,,,,,,
null,,learn_phase(without_color)1,831629,,,,,,,,black_plus_sign,,,null,object_02a.png,object_10b.png,,,,,,,,,,,,,,,,,
null,,black_cross(without_color)1,832056,,,,,,,,blue,,,null,object_02a.png,object_10b.png,,,,,,,,,,,,,,,,,
null,,rt_plussign_withcolor1,832558,,,,,,,,blue,,,null,object_02a.png,object_10b.png,,,,,,,,,,,,,,,,,
1182.1000000089407,,rt_thecrossant_black1,834135,,,,,,,,black_plus_sign,,,49,,,1,,,,,,,1,,,,,,,,,
null,,color_black1,834237,,,,,,,,black_plus_sign,,,null,,,,,,,,,,,,,,,,,,,
null,,learn_phase(without_color)1,837738,,,,,,,,black_plus_sign,,,null,object_06c.png,object_13b.png,,,,,,,,,,,,,,,,,
null,,black_cross(without_color)1,838418,,,,,,,,green,,,null,object_06c.png,object_13b.png,,,,,,,,,,,,,,,,,
null,,rt_plussign_withcolor1,838920,,,,,,,,green,,,null,object_06c.png,object_13b.png,,,,,,,,,,,,,,,,,
679.3000000119209,,rt_thecrossant_black1,840245,,,,,,,,black_plus_sign,,,50,,,1,,,,,,,1,,,,,,,,,
null,,color_black1,840348,,,,,,,,black_plus_sign,,,null,,,,,,,,,,,,,,,,,,,
null,,learn_phase(without_color)1,843851,,,,,,,,black_plus_sign,,,null,object_11b.png,object_13a.png,,,,,,,,,,,,,,,,,
null,,black_cross(without_color)1,844940,,,,,,,,blue,,,null,object_11b.png,object_13a.png,,,,,,,,,,,,,,,,,
null,,rt_plussign_withcolor1,845442,,,,,,,,blue,,,null,object_11b.png,object_13a.png,,,,,,,,,,,,,,,,,
827.3999999910593,,rt_thecrossant_black1,846358,,,,,,,,black_plus_sign,,,49,,,1,,,,,,,1,,,,,,,,,
null,,color_black1,846462,,,,,,,,black_plus_sign,,,null,,,,,,,,,,,,,,,,,,,
null,,learn_phase(without_color)1,849964,,,,,,,,black_plus_sign,,,null,object_07a.png,object_14c.png,,,,,,,,,,,,,,,,,
null,,black_cross(without_color)1,850880,,,,,,,,blue,,,null,object_07a.png,object_14c.png,,,,,,,,,,,,,,,,,
null,,rt_plussign_withcolor1,851382,,,,,,,,blue,,,null,object_07a.png,object_14c.png,,,,,,,,,,,,,,,,,
1213.5999999940395,,rt_thecrossant_black1,852481,,,,,,,,black_plus_sign,,,49,,,1,,,,,,,1,,,,,,,,,
null,,color_black1,852583,,,,,,,,black_plus_sign,,,null,,,,,,,,,,,,,,,,,,,
null,,learn_phase(without_color)1,856085,,,,,,,,black_plus_sign,,,null,object_01a.png,object_07c.png,,,,,,,,,,,,,,,,,
null,,black_cross(without_color)1,857167,,,,,,,,blue,,,null,object_01a.png,object_07c.png,,,,,,,,,,,,,,,,,
null,,rt_plussign_withcolor1,857669,,,,,,,,blue,,,null,object_01a.png,object_07c.png,,,,,,,,,,,,,,,,,
1193,,rt_thecrossant_black1,858591,,,,,,,,black_plus_sign,,,49,,,1,,,,,,,1,,,,,,,,,
null,,color_black1,858693,,,,,,,,black_plus_sign,,,null,,,,,,,,,,,,,,,,,,,
null,,learn_phase(without_color)1,862196,,,,,,,,black_plus_sign,,,null,object_08c.png,object_09c.png,,,,,,,,,,,,,,,,,
null,,black_cross(without_color)1,863018,,,,,,,,blue,,,null,object_08c.png,object_09c.png,,,,,,,,,,,,,,,,,
492.40000000596046,,rt_plussign_withcolor1,863519,,,,,,,,blue,,,49,object_08c.png,object_09c.png,,,,,,,,,,,,,,,,,
null,,rt_thecrossant_black1,864702,,,,,,,,black_plus_sign,,,null,,,1,,,,,,,1,,,,,,,,,
null,,color_black1,864804,,,,,,,,black_plus_sign,,,null,,,,,,,,,,,,,,,,,,,
null,,learn_phase(without_color)1,868306,,,,,,,,black_plus_sign,,,null,object_02a.png,object_02c.png,,,,,,,,,,,,,,,,,
null,,black_cross(without_color)1,868986,,,,,,,,blue,,,null,object_02a.png,object_02c.png,,,,,,,,,,,,,,,,,
null,,rt_plussign_withcolor1,869488,,,,,,,,blue,,,null,object_02a.png,object_02c.png,,,,,,,,,,,,,,,,,
1072.2000000029802,,rt_thecrossant_black1,870812,,,,,,,,black_plus_sign,,,49,,,1,,,,,,,1,,,,,,,,,
null,,color_black1,870913,,,,,,,,black_plus_sign,,,null,,,,,,,,,,,,,,,,,,,
null,,learn_phase(without_color)1,874415,,,,,,,,black_plus_sign,,,null,object_15a.png,object_01b.png,,,,,,,,,,,,,,,,,
null,,black_cross(without_color)1,875388,,,,,,,,green,,,null,object_15a.png,object_01b.png,,,,,,,,,,,,,,,,,
null,,rt_plussign_withcolor1,875890,,,,,,,,green,,,null,object_15a.png,object_01b.png,,,,,,,,,,,,,,,,,
1083.4000000059605,,rt_thecrossant_black1,876922,,,,,,,,black_plus_sign,,,50,,,1,,,,,,,1,,,,,,,,,
null,,color_black1,877025,,,,,,,,black_plus_sign,,,null,,,,,,,,,,,,,,,,,,,
null,,learn_phase(without_color)1,880527,,,,,,,,black_plus_sign,,,null,object_04c.png,object_09b.png,,,,,,,,,,,,,,,,,
null,,black_cross(without_color)1,881109,,,,,,,,green,,,null,object_04c.png,object_09b.png,,,,,,,,,,,,,,,,,
null,,rt_plussign_withcolor1,881612,,,,,,,,green,,,null,object_04c.png,object_09b.png,,,,,,,,,,,,,,,,,
1417,,rt_thecrossant_black1,883035,,,,,,,,black_plus_sign,,,50,,,1,,,,,,,1,,,,,,,,,
null,,color_black1,883138,,,,,,,,black_plus_sign,,,null,,,,,,,,,,,,,,,,,,,
null,,learn_phase(without_color)1,886648,,,,,,,,black_plus_sign,,,null,object_06b.png,object_11c.png,,,,,,,,,,,,,,,,,
null,,black_cross(without_color)1,887511,,,,,,,,green,,,null,object_06b.png,object_11c.png,,,,,,,,,,,,,,,,,
null,,rt_plussign_withcolor1,888012,,,,,,,,green,,,null,object_06b.png,object_11c.png,,,,,,,,,,,,,,,,,
1105.7999999970198,,rt_thecrossant_black1,889153,,,,,,,,black_plus_sign,,,50,,,1,,,,,,,1,,,,,,,,,
null,,color_black1,889254,,,,,,,,black_plus_sign,,,null,,,,,,,,,,,,,,,,,,,
null,,thebreak,889358,,,,,,,,<p></p>,,,null,,,,,,,,,,,,,,,,,,,
20674.30000001192,,intro_0,910033,,,,,,,,instruct,,,32,,,,,,,,,,,,,,,,,,,
5027.70000000298,,directmemory_phase1,915061,,,,,,,,object_04a.png,,,51,,,0,,object_15b.png,object_13c.png,object_03a.png,object_15b.png,,0,0,,,,,,,,
2807.1000000089407,,directmemory_phase1,917870,,,,,,,,object_12a.png,,,51,,,0,,object_10a.png,object_05a.png,object_08c.png,object_10a.png,,0,0,,,,,,,,
2435.2000000029802,,directmemory_phase1,920306,,,,,,,,object_02c.png,,,49,,,0,,object_09c.png,object_01c.png,object_02a.png,object_02a.png,,0,0,,,,,,,,
3576.9000000059605,,directmemory_phase1,923885,,,,,,,,object_14a.png,,,50,,,0,,object_06c.png,object_04c.png,object_01a.png,object_06c.png,,0,0,,,,,,,,
3146,,directmemory_phase1,927032,,,,,,,,object_10a.png,,,49,,,1,,object_15c.png,object_15a.png,object_06b.png,object_15c.png,,0.2,1,,,,,,,,
2507.4000000059605,,directmemory_phase1,929541,,,,,,,,object_07b.png,,,49,,,0,,object_06a.png,object_05b.png,object_02a.png,object_05b.png,,0.16666666666666666,0,,,,,,,,
2491,,directmemory_phase1,932033,,,,,,,,object_05a.png,,,51,,,0,,object_11a.png,object_02c.png,object_08a.png,object_11a.png,,0.14285714285714285,0,,,,,,,,
2487.800000011921,,directmemory_phase1,934522,,,,,,,,object_09a.png,,,49,,,0,,object_10c.png,object_11b.png,object_06b.png,object_11b.png,,0.125,0,,,,,,,,
2526.7999999970198,,directmemory_phase1,937050,,,,,,,,object_12b.png,,,50,,,0,,object_06c.png,object_14b.png,object_05a.png,object_05a.png,,0.1111111111111111,0,,,,,,,,
3039.9000000059605,,directmemory_phase1,940092,,,,,,,,object_04c.png,,,50,,,0,,object_03c.png,object_13b.png,object_07c.png,object_03c.png,,0.1,0,,,,,,,,
2671.5,,directmemory_phase1,942765,,,,,,,,object_13a.png,,,50,,,1,,object_08b.png,object_11b.png,object_02a.png,object_11b.png,,0.18181818181818182,1,,,,,,,,
3271.2999999970198,,directmemory_phase1,946038,,,,,,,,object_14c.png,,,49,,,0,,object_10b.png,object_07a.png,object_08a.png,object_07a.png,,0.16666666666666666,0,,,,,,,,
3064.6000000089407,,directmemory_phase1,949103,,,,,,,,object_08b.png,,,49,,,0,,object_01b.png,object_11c.png,object_03a.png,object_03a.png,,0.15384615384615385,0,,,,,,,,
2045.2000000029802,,directmemory_phase1,951150,,,,,,,,object_14b.png,,,51,,,1,,object_06c.png,object_12b.png,object_08a.png,object_08a.png,,0.21428571428571427,1,,,,,,,,
3186.5999999940395,,directmemory_phase1,954338,,,,,,,,object_01b.png,,,50,,,0,,object_03c.png,object_07c.png,object_15a.png,object_15a.png,,0.2,0,,,,,,,,
3573.7999999970198,,directmemory_phase1,957913,,,,,,,,object_01a.png,,,51,,,1,,object_04c.png,object_09b.png,object_07c.png,object_07c.png,,0.25,1,,,,,,,,
3199.8999999910593,,directmemory_phase1,961114,,,,,,,,object_07c.png,,,50,,,0,,object_09a.png,object_02a.png,object_10c.png,object_10c.png,,0.23529411764705882,0,,,,,,,,
3054.7999999970198,,directmemory_phase1,964170,,,,,,,,object_04b.png,,,49,,,1,,object_05b.png,object_06b.png,object_12b.png,object_05b.png,,0.2777777777777778,1,,,,,,,,
2417.5,,directmemory_phase1,966589,,,,,,,,object_02b.png,,,49,,,0,,object_04c.png,object_13a.png,object_01b.png,object_01b.png,,0.2631578947368421,0,,,,,,,,
2844.9000000059605,,directmemory_phase1,969435,,,,,,,,object_01c.png,,,51,,,0,,object_03a.png,object_06b.png,object_06a.png,object_03a.png,,0.25,0,,,,,,,,
4558.600000008941,,directmemory_phase1,973995,,,,,,,,object_10b.png,,,51,,,0,,object_08b.png,object_02a.png,object_04a.png,object_02a.png,,0.23809523809523808,0,,,,,,,,
3303.0999999940395,,directmemory_phase1,977299,,,,,,,,object_11c.png,,,51,,,1,,object_08a.png,object_13a.png,object_06b.png,object_06b.png,,0.2727272727272727,1,,,,,,,,
2598.5,,directmemory_phase1,979899,,,,,,,,object_08a.png,,,49,,,0,,object_03b.png,object_05a.png,object_13c.png,object_13c.png,,0.2608695652173913,0,,,,,,,,
3491.2999999970198,,directmemory_phase1,983392,,,,,,,,object_06b.png,,,50,,,0,,object_06a.png,object_09a.png,object_02a.png,object_06a.png,,0.25,0,,,,,,,,
2491.2999999970198,,directmemory_phase1,985884,,,,,,,,object_05c.png,,,49,,,0,,object_15a.png,object_09c.png,object_07a.png,object_09c.png,,0.24,0,,,,,,,,
2547.2000000029802,,directmemory_phase1,988432,,,,,,,,object_12c.png,,,50,,,1,,object_11c.png,object_04a.png,object_06b.png,object_04a.png,,0.2692307692307692,1,,,,,,,,
2502.9000000059605,,directmemory_phase1,990937,,,,,,,,object_08c.png,,,51,,,0,,object_09c.png,object_04c.png,object_13a.png,object_09c.png,,0.25925925925925924,0,,,,,,,,
3025.5999999940395,,directmemory_phase1,993964,,,,,,,,object_07a.png,,,49,,,0,,object_02c.png,object_05a.png,object_03b.png,object_03b.png,,0.25,0,,,,,,,,
2686.300000011921,,directmemory_phase1,996652,,,,,,,,object_09b.png,,,51,,,0,,object_04c.png,object_01b.png,object_13a.png,object_04c.png,,0.2413793103448276,0,,,,,,,,
4009.7000000029802,,directmemory_phase1,1000663,,,,,,,,object_06c.png,,,50,,,0,,object_15b.png,object_07c.png,object_13b.png,object_13b.png,,0.23333333333333334,0,,,,,,,,
null,,thebreak,1000766,,,,,,,,<p></p>,,,null,,,,,,,,,,,,,,,,,,,
3006.7999999970198,,intro_0,1003773,,,,,,,,instruct,,,32,,,,,,,,,,,,,,,,,,,
null,,learn_phase(without_color)2,1007274,,,,,,,,black_plus_sign,,,null,object_10c.png,object_07c.png,,,,,,,,,,,,,,,,,
null,,black_cross(without_color)2,1008213,,,,,,,,green,,,null,object_10c.png,object_07c.png,,,,,,,,,,,,,,,,,
null,,rt_plussign_withcolor2,1008714,,,,,,,,green,,,null,object_10c.png,object_07c.png,,,,,,,,,,,,,,,,,
1947.2999999970198,,rt_thecrossant_black2,1009779,,,,,,,,black_plus_sign,,,50,,,1,,,,,,,1,,,,,,,,,
null,,color_black2,1009882,,,,,,,,black_plus_sign,,,null,,,,,,,,,,,,,,,,,,,
null,,learn_phase(without_color)2,1013384,,,,,,,,black_plus_sign,,,null,object_09a.png,object_11b.png,,,,,,,,,,,,,,,,,
null,,black_cross(without_color)2,1013901,,,,,,,,blue,,,null,object_09a.png,object_11b.png,,,,,,,,,,,,,,,,,
null,,rt_plussign_withcolor2,1014403,,,,,,,,blue,,,null,object_09a.png,object_11b.png,,,,,,,,,,,,,,,,,
1610.8999999910593,,rt_thecrossant_black2,1015891,,,,,,,,black_plus_sign,,,49,,,1,,,,,,,1,,,,,,,,,
null,,color_black2,1015994,,,,,,,,black_plus_sign,,,null,,,,,,,,,,,,,,,,,,,
null,,learn_phase(without_color)2,1019496,,,,,,,,black_plus_sign,,,null,object_13b.png,object_06c.png,,,,,,,,,,,,,,,,,
null,,black_cross(without_color)2,1020043,,,,,,,,blue,,,null,object_13b.png,object_06c.png,,,,,,,,,,,,,,,,,
null,,rt_plussign_withcolor2,1020544,,,,,,,,blue,,,null,object_13b.png,object_06c.png,,,,,,,,,,,,,,,,,
772.2999999970198,,rt_thecrossant_black2,1022001,,,,,,,,black_plus_sign,,,49,,,1,,,,,,,1,,,,,,,,,
null,,color_black2,1022103,,,,,,,,black_plus_sign,,,null,,,,,,,,,,,,,,,,,,,
null,,learn_phase(without_color)2,1025606,,,,,,,,black_plus_sign,,,null,object_02b.png,object_01b.png,,,,,,,,,,,,,,,,,
null,,black_cross(without_color)2,1026127,,,,,,,,blue,,,null,object_02b.png,object_01b.png,,,,,,,,,,,,,,,,,
null,,rt_plussign_withcolor2,1026629,,,,,,,,blue,,,null,object_02b.png,object_01b.png,,,,,,,,,,,,,,,,,
743,,rt_thecrossant_black2,1028110,,,,,,,,black_plus_sign,,,49,,,1,,,,,,,1,,,,,,,,,
null,,color_black2,1028213,,,,,,,,black_plus_sign,,,null,,,,,,,,,,,,,,,,,,,
null,,learn_phase(without_color)2,1031715,,,,,,,,black_plus_sign,,,null,object_03a.png,object_08b.png,,,,,,,,,,,,,,,,,
null,,black_cross(without_color)2,1032585,,,,,,,,green,,,null,object_03a.png,object_08b.png,,,,,,,,,,,,,,,,,
null,,rt_plussign_withcolor2,1033087,,,,,,,,green,,,null,object_03a.png,object_08b.png,,,,,,,,,,,,,,,,,
1031.2000000029802,,rt_thecrossant_black2,1034222,,,,,,,,black_plus_sign,,,50,,,1,,,,,,,1,,,,,,,,,
null,,color_black2,1034324,,,,,,,,black_plus_sign,,,null,,,,,,,,,,,,,,,,,,,
null,,learn_phase(without_color)2,1037826,,,,,,,,black_plus_sign,,,null,object_12c.png,object_04a.png,,,,,,,,,,,,,,,,,
null,,black_cross(without_color)2,1038797,,,,,,,,green,,,null,object_12c.png,object_04a.png,,,,,,,,,,,,,,,,,
null,,rt_plussign_withcolor2,1039298,,,,,,,,green,,,null,object_12c.png,object_04a.png,,,,,,,,,,,,,,,,,
1403.5,,rt_thecrossant_black2,1040334,,,,,,,,black_plus_sign,,,50,,,1,,,,,,,1,,,,,,,,,
null,,color_black2,1040436,,,,,,,,black_plus_sign,,,null,,,,,,,,,,,,,,,,,,,
null,,learn_phase(without_color)2,1043937,,,,,,,,black_plus_sign,,,null,object_01a.png,object_07c.png,,,,,,,,,,,,,,,,,
null,,black_cross(without_color)2,1044822,,,,,,,,green,,,null,object_01a.png,object_07c.png,,,,,,,,,,,,,,,,,
null,,rt_plussign_withcolor2,1045324,,,,,,,,green,,,null,object_01a.png,object_07c.png,,,,,,,,,,,,,,,,,
1320.2999999970198,,rt_thecrossant_black2,1046452,,,,,,,,black_plus_sign,,,50,,,1,,,,,,,1,,,,,,,,,
null,,color_black2,1046553,,,,,,,,black_plus_sign,,,null,,,,,,,,,,,,,,,,,,,
null,,learn_phase(without_color)2,1050056,,,,,,,,black_plus_sign,,,null,object_09c.png,object_05c.png,,,,,,,,,,,,,,,,,
null,,black_cross(without_color)2,1050683,,,,,,,,green,,,null,object_09c.png,object_05c.png,,,,,,,,,,,,,,,,,
null,,rt_plussign_withcolor2,1051185,,,,,,,,green,,,null,object_09c.png,object_05c.png,,,,,,,,,,,,,,,,,
1316.7000000029802,,rt_thecrossant_black2,1052562,,,,,,,,black_plus_sign,,,50,,,1,,,,,,,1,,,,,,,,,
null,,color_black2,1052664,,,,,,,,black_plus_sign,,,null,,,,,,,,,,,,,,,,,,,
null,,learn_phase(without_color)2,1056167,,,,,,,,black_plus_sign,,,null,object_10a.png,object_12a.png,,,,,,,,,,,,,,,,,
null,,black_cross(without_color)2,1056730,,,,,,,,blue,,,null,object_10a.png,object_12a.png,,,,,,,,,,,,,,,,,
null,,rt_plussign_withcolor2,1057233,,,,,,,,blue,,,null,object_10a.png,object_12a.png,,,,,,,,,,,,,,,,,
1104.0999999940395,,rt_thecrossant_black2,1058684,,,,,,,,black_plus_sign,,,49,,,1,,,,,,,1,,,,,,,,,
null,,color_black2,1058786,,,,,,,,black_plus_sign,,,null,,,,,,,,,,,,,,,,,,,
null,,learn_phase(without_color)2,1062288,,,,,,,,black_plus_sign,,,null,object_15a.png,object_01b.png,,,,,,,,,,,,,,,,,
null,,black_cross(without_color)2,1063084,,,,,,,,green,,,null,object_15a.png,object_01b.png,,,,,,,,,,,,,,,,,
null,,rt_plussign_withcolor2,1063586,,,,,,,,green,,,null,object_15a.png,object_01b.png,,,,,,,,,,,,,,,,,
1241.2999999970198,,rt_thecrossant_black2,1064794,,,,,,,,black_plus_sign,,,50,,,1,,,,,,,1,,,,,,,,,
null,,color_black2,1064896,,,,,,,,black_plus_sign,,,null,,,,,,,,,,,,,,,,,,,
null,,learn_phase(without_color)2,1068399,,,,,,,,black_plus_sign,,,null,object_14b.png,object_08a.png,,,,,,,,,,,,,,,,,
null,,black_cross(without_color)2,1069479,,,,,,,,blue,,,null,object_14b.png,object_08a.png,,,,,,,,,,,,,,,,,
null,,rt_plussign_withcolor2,1069981,,,,,,,,blue,,,null,object_14b.png,object_08a.png,,,,,,,,,,,,,,,,,
1055.1000000089407,,rt_thecrossant_black2,1070905,,,,,,,,black_plus_sign,,,49,,,1,,,,,,,1,,,,,,,,,
null,,color_black2,1071007,,,,,,,,black_plus_sign,,,null,,,,,,,,,,,,,,,,,,,
null,,learn_phase(without_color)2,1074509,,,,,,,,black_plus_sign,,,null,object_04c.png,object_09b.png,,,,,,,,,,,,,,,,,
null,,black_cross(without_color)2,1075350,,,,,,,,green,,,null,object_04c.png,object_09b.png,,,,,,,,,,,,,,,,,
null,,rt_plussign_withcolor2,1075852,,,,,,,,green,,,null,object_04c.png,object_09b.png,,,,,,,,,,,,,,,,,
1486.7000000029802,,rt_thecrossant_black2,1077014,,,,,,,,black_plus_sign,,,50,,,1,,,,,,,1,,,,,,,,,
null,,color_black2,1077116,,,,,,,,black_plus_sign,,,null,,,,,,,,,,,,,,,,,,,
null,,learn_phase(without_color)2,1080619,,,,,,,,black_plus_sign,,,null,object_05a.png,object_12b.png,,,,,,,,,,,,,,,,,
null,,black_cross(without_color)2,1081127,,,,,,,,green,,,null,object_05a.png,object_12b.png,,,,,,,,,,,,,,,,,
null,,rt_plussign_withcolor2,1081628,,,,,,,,green,,,null,object_05a.png,object_12b.png,,,,,,,,,,,,,,,,,
1603.8999999910593,,rt_thecrossant_black2,1083136,,,,,,,,black_plus_sign,,,50,,,1,,,,,,,1,,,,,,,,,
null,,color_black2,1083238,,,,,,,,black_plus_sign,,,null,,,,,,,,,,,,,,,,,,,
null,,learn_phase(without_color)2,1086740,,,,,,,,black_plus_sign,,,null,object_14c.png,object_07a.png,,,,,,,,,,,,,,,,,
null,,black_cross(without_color)2,1087336,,,,,,,,blue,,,null,object_14c.png,object_07a.png,,,,,,,,,,,,,,,,,
null,,rt_plussign_withcolor2,1087845,,,,,,,,blue,,,null,object_14c.png,object_07a.png,,,,,,,,,,,,,,,,,
968.4000000059605,,rt_thecrossant_black2,1089253,,,,,,,,black_plus_sign,,,49,,,1,,,,,,,1,,,,,,,,,
null,,color_black2,1089354,,,,,,,,black_plus_sign,,,null,,,,,,,,,,,,,,,,,,,
null,,learn_phase(without_color)2,1092856,,,,,,,,black_plus_sign,,,null,object_15c.png,object_10a.png,,,,,,,,,,,,,,,,,
null,,black_cross(without_color)2,1093928,,,,,,,,green,,,null,object_15c.png,object_10a.png,,,,,,,,,,,,,,,,,
null,,rt_plussign_withcolor2,1094432,,,,,,,,green,,,null,object_15c.png,object_10a.png,,,,,,,,,,,,,,,,,
967.7999999970198,,rt_thecrossant_black2,1095364,,,,,,,,black_plus_sign,,,50,,,1,,,,,,,1,,,,,,,,,
null,,color_black2,1095466,,,,,,,,black_plus_sign,,,null,,,,,,,,,,,,,,,,,,,
null,,learn_phase(without_color)2,1098968,,,,,,,,black_plus_sign,,,null,object_04a.png,object_15b.png,,,,,,,,,,,,,,,,,
null,,black_cross(without_color)2,1099839,,,,,,,,blue,,,null,object_04a.png,object_15b.png,,,,,,,,,,,,,,,,,
null,,rt_plussign_withcolor2,1100340,,,,,,,,blue,,,null,object_04a.png,object_15b.png,,,,,,,,,,,,,,,,,
1444.4000000059605,,rt_thecrossant_black2,1101474,,,,,,,,black_plus_sign,,,49,,,1,,,,,,,1,,,,,,,,,
null,,color_black2,1101575,,,,,,,,black_plus_sign,,,null,,,,,,,,,,,,,,,,,,,
null,,learn_phase(without_color)2,1105077,,,,,,,,black_plus_sign,,,null,object_02a.png,object_02c.png,,,,,,,,,,,,,,,,,
null,,black_cross(without_color)2,1105605,,,,,,,,blue,,,null,object_02a.png,object_02c.png,,,,,,,,,,,,,,,,,
null,,rt_plussign_withcolor2,1106106,,,,,,,,blue,,,null,object_02a.png,object_02c.png,,,,,,,,,,,,,,,,,
1104,,rt_thecrossant_black2,1107583,,,,,,,,black_plus_sign,,,49,,,1,,,,,,,1,,,,,,,,,
null,,color_black2,1107685,,,,,,,,black_plus_sign,,,null,,,,,,,,,,,,,,,,,,,
null,,learn_phase(without_color)2,1111188,,,,,,,,black_plus_sign,,,null,object_11c.png,object_06b.png,,,,,,,,,,,,,,,,,
null,,black_cross(without_color)2,1112273,,,,,,,,green,,,null,object_11c.png,object_06b.png,,,,,,,,,,,,,,,,,
null,,rt_plussign_withcolor2,1112775,,,,,,,,green,,,null,object_11c.png,object_06b.png,,,,,,,,,,,,,,,,,
885.1000000089407,,rt_thecrossant_black2,1113699,,,,,,,,black_plus_sign,,,50,,,1,,,,,,,1,,,,,,,,,
null,,color_black2,1113801,,,,,,,,black_plus_sign,,,null,,,,,,,,,,,,,,,,,,,
null,,learn_phase(without_color)2,1117304,,,,,,,,black_plus_sign,,,null,object_11b.png,object_13a.png,,,,,,,,,,,,,,,,,
null,,black_cross(without_color)2,1118291,,,,,,,,blue,,,null,object_11b.png,object_13a.png,,,,,,,,,,,,,,,,,
null,,rt_plussign_withcolor2,1118793,,,,,,,,blue,,,null,object_11b.png,object_13a.png,,,,,,,,,,,,,,,,,
1670.2999999970198,,rt_thecrossant_black2,1119811,,,,,,,,black_plus_sign,,,49,,,1,,,,,,,1,,,,,,,,,
null,,color_black2,1119914,,,,,,,,black_plus_sign,,,null,,,,,,,,,,,,,,,,,,,
null,,learn_phase(without_color)2,1123416,,,,,,,,black_plus_sign,,,null,object_05a.png,object_11a.png,,,,,,,,,,,,,,,,,
null,,black_cross(without_color)2,1124232,,,,,,,,blue,,,null,object_05a.png,object_11a.png,,,,,,,,,,,,,,,,,
null,,rt_plussign_withcolor2,1124733,,,,,,,,blue,,,null,object_05a.png,object_11a.png,,,,,,,,,,,,,,,,,
1298.7000000029802,,rt_thecrossant_black2,1125922,,,,,,,,black_plus_sign,,,49,,,1,,,,,,,1,,,,,,,,,
null,,color_black2,1126024,,,,,,,,black_plus_sign,,,null,,,,,,,,,,,,,,,,,,,
null,,learn_phase(without_color)2,1129526,,,,,,,,black_plus_sign,,,null,object_08c.png,object_09c.png,,,,,,,,,,,,,,,,,
null,,black_cross(without_color)2,1130435,,,,,,,,blue,,,null,object_08c.png,object_09c.png,,,,,,,,,,,,,,,,,
null,,rt_plussign_withcolor2,1130937,,,,,,,,blue,,,null,object_08c.png,object_09c.png,,,,,,,,,,,,,,,,,
1049.7000000029802,,rt_thecrossant_black2,1132041,,,,,,,,black_plus_sign,,,49,,,1,,,,,,,1,,,,,,,,,
null,,color_black2,1132143,,,,,,,,black_plus_sign,,,null,,,,,,,,,,,,,,,,,,,
null,,learn_phase(without_color)2,1135646,,,,,,,,black_plus_sign,,,null,object_08a.png,object_13c.png,,,,,,,,,,,,,,,,,
null,,black_cross(without_color)2,1136562,,,,,,,,green,,,null,object_08a.png,object_13c.png,,,,,,,,,,,,,,,,,
null,,rt_plussign_withcolor2,1137064,,,,,,,,green,,,null,object_08a.png,object_13c.png,,,,,,,,,,,,,,,,,
1237.8999999910593,,rt_thecrossant_black2,1138152,,,,,,,,black_plus_sign,,,50,,,1,,,,,,,1,,,,,,,,,
null,,color_black2,1138254,,,,,,,,black_plus_sign,,,null,,,,,,,,,,,,,,,,,,,
null,,learn_phase(without_color)2,1141756,,,,,,,,black_plus_sign,,,null,object_05b.png,object_04b.png,,,,,,,,,,,,,,,,,
null,,black_cross(without_color)2,1142351,,,,,,,,green,,,null,object_05b.png,object_04b.png,,,,,,,,,,,,,,,,,
null,,rt_plussign_withcolor2,1142852,,,,,,,,green,,,null,object_05b.png,object_04b.png,,,,,,,,,,,,,,,,,
1166.8999999910593,,rt_thecrossant_black2,1144261,,,,,,,,black_plus_sign,,,50,,,1,,,,,,,1,,,,,,,,,
null,,color_black2,1144363,,,,,,,,black_plus_sign,,,null,,,,,,,,,,,,,,,,,,,
null,,learn_phase(without_color)2,1147866,,,,,,,,black_plus_sign,,,null,object_02a.png,object_10b.png,,,,,,,,,,,,,,,,,
null,,black_cross(without_color)2,1148703,,,,,,,,green,,,null,object_02a.png,object_10b.png,,,,,,,,,,,,,,,,,
null,,rt_plussign_withcolor2,1149205,,,,,,,,green,,,null,object_02a.png,object_10b.png,,,,,,,,,,,,,,,,,
789.7000000029802,,rt_thecrossant_black2,1150373,,,,,,,,black_plus_sign,,,50,,,1,,,,,,,1,,,,,,,,,
null,,color_black2,1150486,,,,,,,,black_plus_sign,,,null,,,,,,,,,,,,,,,,,,,
null,,learn_phase(without_color)2,1153989,,,,,,,,black_plus_sign,,,null,object_06b.png,object_06a.png,,,,,,,,,,,,,,,,,
null,,black_cross(without_color)2,1155062,,,,,,,,green,,,null,object_06b.png,object_06a.png,,,,,,,,,,,,,,,,,
null,,rt_plussign_withcolor2,1155563,,,,,,,,green,,,null,object_06b.png,object_06a.png,,,,,,,,,,,,,,,,,
1103.7999999970198,,rt_thecrossant_black2,1156494,,,,,,,,black_plus_sign,,,50,,,1,,,,,,,1,,,,,,,,,
null,,color_black2,1156596,,,,,,,,black_plus_sign,,,null,,,,,,,,,,,,,,,,,,,
null,,learn_phase(without_color)2,1160099,,,,,,,,black_plus_sign,,,null,object_06c.png,object_14a.png,,,,,,,,,,,,,,,,,
null,,black_cross(without_color)2,1160963,,,,,,,,blue,,,null,object_06c.png,object_14a.png,,,,,,,,,,,,,,,,,
null,,rt_plussign_withcolor2,1161464,,,,,,,,blue,,,null,object_06c.png,object_14a.png,,,,,,,,,,,,,,,,,
1434.5,,rt_thecrossant_black2,1162604,,,,,,,,black_plus_sign,,,49,,,1,,,,,,,1,,,,,,,,,
null,,color_black2,1162706,,,,,,,,black_plus_sign,,,null,,,,,,,,,,,,,,,,,,,
null,,learn_phase(without_color)2,1166208,,,,,,,,black_plus_sign,,,null,object_03b.png,object_07a.png,,,,,,,,,,,,,,,,,
null,,black_cross(without_color)2,1166723,,,,,,,,blue,,,null,object_03b.png,object_07a.png,,,,,,,,,,,,,,,,,
null,,rt_plussign_withcolor2,1167224,,,,,,,,blue,,,null,object_03b.png,object_07a.png,,,,,,,,,,,,,,,,,
1048.6000000089407,,rt_thecrossant_black2,1168715,,,,,,,,black_plus_sign,,,49,,,1,,,,,,,1,,,,,,,,,
null,,color_black2,1168816,,,,,,,,black_plus_sign,,,null,,,,,,,,,,,,,,,,,,,
null,,learn_phase(without_color)2,1172319,,,,,,,,black_plus_sign,,,null,object_07b.png,object_05b.png,,,,,,,,,,,,,,,,,
null,,black_cross(without_color)2,1173408,,,,,,,,blue,,,null,object_07b.png,object_05b.png,,,,,,,,,,,,,,,,,
null,,rt_plussign_withcolor2,1173910,,,,,,,,blue,,,null,object_07b.png,object_05b.png,,,,,,,,,,,,,,,,,
692.5,,rt_thecrossant_black2,1174826,,,,,,,,black_plus_sign,,,49,,,1,,,,,,,1,,,,,,,,,
null,,color_black2,1174934,,,,,,,,black_plus_sign,,,null,,,,,,,,,,,,,,,,,,,
null,,learn_phase(without_color)2,1178443,,,,,,,,black_plus_sign,,,null,object_04c.png,object_03c.png,,,,,,,,,,,,,,,,,
null,,black_cross(without_color)2,1179004,,,,,,,,green,,,null,object_04c.png,object_03c.png,,,,,,,,,,,,,,,,,
null,,rt_plussign_withcolor2,1179506,,,,,,,,green,,,null,object_04c.png,object_03c.png,,,,,,,,,,,,,,,,,
1725,,rt_thecrossant_black2,1180948,,,,,,,,black_plus_sign,,,50,,,1,,,,,,,1,,,,,,,,,
null,,color_black2,1181052,,,,,,,,black_plus_sign,,,null,,,,,,,,,,,,,,,,,,,
null,,learn_phase(without_color)2,1184553,,,,,,,,black_plus_sign,,,null,object_01c.png,object_03a.png,,,,,,,,,,,,,,,,,
null,,black_cross(without_color)2,1185474,,,,,,,,blue,,,null,object_01c.png,object_03a.png,,,,,,,,,,,,,,,,,
null,,rt_plussign_withcolor2,1185975,,,,,,,,blue,,,null,object_01c.png,object_03a.png,,,,,,,,,,,,,,,,,
916.7000000029802,,rt_thecrossant_black2,1187059,,,,,,,,black_plus_sign,,,49,,,1,,,,,,,1,,,,,,,,,
null,,color_black2,1187160,,,,,,,,black_plus_sign,,,null,,,,,,,,,,,,,,,,,,,
null,,thebreak,1187263,,,,,,,,<p></p>,,,null,,,,,,,,,,,,,,,,,,,
1476.699999988079,,intro_0,1188741,,,,,,,,instruct,,,32,,,,,,,,,,,,,,,,,,,
2829.7000000029802,,directmemory_phase2,1191571,,,,,,,,object_14a.png,,,51,,,1,,object_02a.png,object_12b.png,object_06c.png,object_06c.png,,0.25806451612903225,1,,,,,,,,
2058.1000000089407,,directmemory_phase2,1193631,,,,,,,,object_13b.png,,,49,,,0,,object_05b.png,object_15b.png,object_06c.png,object_06c.png,,0.25,0,,,,,,,,
1496.5,,directmemory_phase2,1195129,,,,,,,,object_11c.png,,,50,,,1,,object_08c.png,object_06b.png,object_07a.png,object_06b.png,,0.2727272727272727,1,,,,,,,,
1799.7000000029802,,directmemory_phase2,1196930,,,,,,,,object_04a.png,,,49,,,1,,object_15b.png,object_05c.png,object_05a.png,object_15b.png,,0.29411764705882354,1,,,,,,,,
1796.2000000029802,,directmemory_phase2,1198728,,,,,,,,object_03b.png,,,51,,,0,,object_03c.png,object_07a.png,object_04a.png,object_07a.png,,0.2857142857142857,0,,,,,,,,
2087.5999999940395,,directmemory_phase2,1200817,,,,,,,,object_02b.png,,,51,,,0,,object_12c.png,object_01b.png,object_05b.png,object_01b.png,,0.2777777777777778,0,,,,,,,,
1975.4000000059605,,directmemory_phase2,1202793,,,,,,,,object_06b.png,,,51,,,0,,object_06a.png,object_15a.png,object_04a.png,object_06a.png,,0.2702702702702703,0,,,,,,,,
2133,,directmemory_phase2,1204928,,,,,,,,object_08c.png,,,51,,,1,,object_05a.png,object_08b.png,object_09c.png,object_09c.png,,0.2894736842105263,1,,,,,,,,
2587.5999999940395,,directmemory_phase2,1207517,,,,,,,,object_13c.png,,,49,,,1,,object_08a.png,object_07a.png,object_05c.png,object_08a.png,,0.3076923076923077,1,,,,,,,,
3057.5,,directmemory_phase2,1210576,,,,,,,,object_10a.png,,,51,,,1,,object_03b.png,object_05b.png,object_15c.png,object_15c.png,,0.325,1,,,,,,,,
2558.2000000029802,,directmemory_phase2,1213135,,,,,,,,object_14c.png,,,50,,,0,,object_07a.png,object_03a.png,object_11c.png,object_07a.png,,0.3170731707317073,0,,,,,,,,
1815.4000000059605,,directmemory_phase2,1214952,,,,,,,,object_07c.png,,,51,,,0,,object_10c.png,object_15b.png,object_06b.png,object_10c.png,,0.30952380952380953,0,,,,,,,,
1998.2000000029802,,directmemory_phase2,1216951,,,,,,,,object_10b.png,,,51,,,0,,object_02a.png,object_07c.png,object_02b.png,object_02a.png,,0.3023255813953488,0,,,,,,,,
2096.300000011921,,directmemory_phase2,1219049,,,,,,,,object_13a.png,,,50,,,1,,object_08c.png,object_11b.png,object_04a.png,object_11b.png,,0.3181818181818182,1,,,,,,,,
2343,,directmemory_phase2,1221394,,,,,,,,object_05c.png,,,51,,,1,,object_07c.png,object_15a.png,object_09c.png,object_09c.png,,0.3333333333333333,1,,,,,,,,
2635.4000000059605,,directmemory_phase2,1224031,,,,,,,,object_12a.png,,,51,,,1,,object_05b.png,object_10b.png,object_10a.png,object_10a.png,,0.34782608695652173,1,,,,,,,,
1985.3999999910593,,directmemory_phase2,1226018,,,,,,,,object_02c.png,,,49,,,1,,object_02a.png,object_01b.png,object_05c.png,object_02a.png,,0.3617021276595745,1,,,,,,,,
2972,,directmemory_phase2,1228991,,,,,,,,object_04c.png,,,50,,,0,,object_07b.png,object_09c.png,object_03c.png,object_03c.png,,0.3541666666666667,0,,,,,,,,
5242.9000000059605,,directmemory_phase2,1234236,,,,,,,,object_01b.png,,,51,,,0,,object_15a.png,object_05c.png,object_11b.png,object_15a.png,,0.3469387755102041,0,,,,,,,,
1984.699999988079,,directmemory_phase2,1236222,,,,,,,,object_08b.png,,,49,,,0,,object_02a.png,object_09b.png,object_03a.png,object_03a.png,,0.34,0,,,,,,,,
1857.9000000059605,,directmemory_phase2,1238081,,,,,,,,object_04b.png,,,50,,,1,,object_12c.png,object_05b.png,object_07a.png,object_05b.png,,0.35294117647058826,1,,,,,,,,
3172.7000000029802,,directmemory_phase2,1241255,,,,,,,,object_09b.png,,,50,,,1,,object_08b.png,object_04c.png,object_05a.png,object_04c.png,,0.36538461538461536,1,,,,,,,,
4014.2000000029802,,directmemory_phase2,1245271,,,,,,,,object_07b.png,,,49,,,0,,object_08a.png,object_10c.png,object_05b.png,object_05b.png,,0.3584905660377358,0,,,,,,,,
2775.5,,directmemory_phase2,1248048,,,,,,,,object_11b.png,,,49,,,0,,object_01b.png,object_09a.png,object_15a.png,object_09a.png,,0.35185185185185186,0,,,,,,,,
3212.4000000059605,,directmemory_phase2,1251262,,,,,,,,object_14b.png,,,50,,,1,,object_12c.png,object_08a.png,object_09c.png,object_08a.png,,0.36363636363636365,1,,,,,,,,
2245.5,,directmemory_phase2,1253508,,,,,,,,object_03a.png,,,50,,,0,,object_13c.png,object_06b.png,object_01c.png,object_01c.png,,0.35714285714285715,0,,,,,,,,
2661.2999999970198,,directmemory_phase2,1256171,,,,,,,,object_12b.png,,,49,,,1,,object_05a.png,object_01b.png,object_01a.png,object_05a.png,,0.3684210526315789,1,,,,,,,,
2547.1000000089407,,directmemory_phase2,1258720,,,,,,,,object_12c.png,,,50,,,0,,object_04c.png,object_08b.png,object_04a.png,object_04a.png,,0.3620689655172414,0,,,,,,,,
1790.2000000029802,,directmemory_phase2,1260512,,,,,,,,object_01a.png,,,49,,,1,,object_07c.png,object_11b.png,object_08b.png,object_07c.png,,0.3728813559322034,1,,,,,,,,
3530.2999999970198,,directmemory_phase2,1264044,,,,,,,,object_11a.png,,,51,,,1,,object_06b.png,object_15b.png,object_05a.png,object_05a.png,,0.38333333333333336,1,,,,,,,,
null,,thebreak,1264145,,,,,,,,<p></p>,,,null,,,,,,,,,,,,,,,,,,,
1424.2000000029802,,intro_0,1265570,,,,,,,,instruct,,,32,,,,,,,,,,,,,,,,,,,
null,,learn_phase(without_color)3,1269073,,,,,,,,black_plus_sign,,,null,object_09a.png,object_11b.png,,,,,,,,,,,,,,,,,
null,,black_cross(without_color)3,1270027,,,,,,,,green,,,null,object_09a.png,object_11b.png,,,,,,,,,,,,,,,,,
null,,rt_plussign_withcolor3,1270528,,,,,,,,green,,,null,object_09a.png,object_11b.png,,,,,,,,,,,,,,,,,
1963.2999999970198,,rt_thecrossant_black3,1271585,,,,,,,,black_plus_sign,,,50,,,1,,,,,,,1,,,,,,,,,
null,,color_black3,1271688,,,,,,,,black_plus_sign,,,null,,,,,,,,,,,,,,,,,,,
null,,learn_phase(without_color)3,1275189,,,,,,,,black_plus_sign,,,null,object_10a.png,object_12a.png,,,,,,,,,,,,,,,,,
null,,black_cross(without_color)3,1275614,,,,,,,,blue,,,null,object_10a.png,object_12a.png,,,,,,,,,,,,,,,,,
null,,rt_plussign_withcolor3,1276115,,,,,,,,blue,,,null,object_10a.png,object_12a.png,,,,,,,,,,,,,,,,,
1185.7999999970198,,rt_thecrossant_black3,1277695,,,,,,,,black_plus_sign,,,49,,,1,,,,,,,1,,,,,,,,,
null,,color_black3,1277797,,,,,,,,black_plus_sign,,,null,,,,,,,,,,,,,,,,,,,
null,,learn_phase(without_color)3,1281300,,,,,,,,black_plus_sign,,,null,object_04c.png,object_09b.png,,,,,,,,,,,,,,,,,
null,,black_cross(without_color)3,1281748,,,,,,,,green,,,null,object_04c.png,object_09b.png,,,,,,,,,,,,,,,,,
null,,rt_plussign_withcolor3,1282249,,,,,,,,green,,,null,object_04c.png,object_09b.png,,,,,,,,,,,,,,,,,
837.7999999970198,,rt_thecrossant_black3,1283819,,,,,,,,black_plus_sign,,,50,,,1,,,,,,,1,,,,,,,,,
null,,color_black3,1283922,,,,,,,,black_plus_sign,,,null,,,,,,,,,,,,,,,,,,,
null,,learn_phase(without_color)3,1287425,,,,,,,,black_plus_sign,,,null,object_08b.png,object_03a.png,,,,,,,,,,,,,,,,,
null,,black_cross(without_color)3,1287859,,,,,,,,green,,,null,object_08b.png,object_03a.png,,,,,,,,,,,,,,,,,
null,,rt_plussign_withcolor3,1288360,,,,,,,,green,,,null,object_08b.png,object_03a.png,,,,,,,,,,,,,,,,,
950.0999999940395,,rt_thecrossant_black3,1289930,,,,,,,,black_plus_sign,,,50,,,1,,,,,,,1,,,,,,,,,
null,,color_black3,1290032,,,,,,,,black_plus_sign,,,null,,,,,,,,,,,,,,,,,,,
null,,learn_phase(without_color)3,1293535,,,,,,,,black_plus_sign,,,null,object_15b.png,object_04a.png,,,,,,,,,,,,,,,,,
null,,black_cross(without_color)3,1294339,,,,,,,,blue,,,null,object_15b.png,object_04a.png,,,,,,,,,,,,,,,,,
null,,rt_plussign_withcolor3,1294843,,,,,,,,blue,,,null,object_15b.png,object_04a.png,,,,,,,,,,,,,,,,,
767.6000000089407,,rt_thecrossant_black3,1296043,,,,,,,,black_plus_sign,,,49,,,1,,,,,,,1,,,,,,,,,
null,,color_black3,1296146,,,,,,,,black_plus_sign,,,null,,,,,,,,,,,,,,,,,,,
null,,learn_phase(without_color)3,1299648,,,,,,,,black_plus_sign,,,null,object_04b.png,object_05b.png,,,,,,,,,,,,,,,,,
null,,black_cross(without_color)3,1300471,,,,,,,,blue,,,null,object_04b.png,object_05b.png,,,,,,,,,,,,,,,,,
null,,rt_plussign_withcolor3,1300972,,,,,,,,blue,,,null,object_04b.png,object_05b.png,,,,,,,,,,,,,,,,,
1213.5999999940395,,rt_thecrossant_black3,1302153,,,,,,,,black_plus_sign,,,49,,,1,,,,,,,1,,,,,,,,,
null,,color_black3,1302255,,,,,,,,black_plus_sign,,,null,,,,,,,,,,,,,,,,,,,
null,,learn_phase(without_color)3,1305759,,,,,,,,black_plus_sign,,,null,object_02c.png,object_02a.png,,,,,,,,,,,,,,,,,
null,,black_cross(without_color)3,1306690,,,,,,,,blue,,,null,object_02c.png,object_02a.png,,,,,,,,,,,,,,,,,
null,,rt_plussign_withcolor3,1307192,,,,,,,,blue,,,null,object_02c.png,object_02a.png,,,,,,,,,,,,,,,,,
1011.4000000059605,,rt_thecrossant_black3,1308267,,,,,,,,black_plus_sign,,,49,,,1,,,,,,,1,,,,,,,,,
null,,color_black3,1308369,,,,,,,,black_plus_sign,,,null,,,,,,,,,,,,,,,,,,,
null,,learn_phase(without_color)3,1311871,,,,,,,,black_plus_sign,,,null,object_05a.png,object_12b.png,,,,,,,,,,,,,,,,,
null,,black_cross(without_color)3,1312918,,,,,,,,green,,,null,object_05a.png,object_12b.png,,,,,,,,,,,,,,,,,
null,,rt_plussign_withcolor3,1313419,,,,,,,,green,,,null,object_05a.png,object_12b.png,,,,,,,,,,,,,,,,,
1428.6000000089407,,rt_thecrossant_black3,1314377,,,,,,,,black_plus_sign,,,50,,,1,,,,,,,1,,,,,,,,,
null,,color_black3,1314479,,,,,,,,black_plus_sign,,,null,,,,,,,,,,,,,,,,,,,
null,,learn_phase(without_color)3,1317982,,,,,,,,black_plus_sign,,,null,object_15a.png,object_01b.png,,,,,,,,,,,,,,,,,
null,,black_cross(without_color)3,1318409,,,,,,,,blue,,,null,object_15a.png,object_01b.png,,,,,,,,,,,,,,,,,
null,,rt_plussign_withcolor3,1318910,,,,,,,,blue,,,null,object_15a.png,object_01b.png,,,,,,,,,,,,,,,,,
1374.1000000089407,,rt_thecrossant_black3,1320488,,,,,,,,black_plus_sign,,,49,,,1,,,,,,,1,,,,,,,,,
null,,color_black3,1320590,,,,,,,,black_plus_sign,,,null,,,,,,,,,,,,,,,,,,,
null,,learn_phase(without_color)3,1324092,,,,,,,,black_plus_sign,,,null,object_01b.png,object_02b.png,,,,,,,,,,,,,,,,,
null,,black_cross(without_color)3,1324689,,,,,,,,blue,,,null,object_01b.png,object_02b.png,,,,,,,,,,,,,,,,,
null,,rt_plussign_withcolor3,1325190,,,,,,,,blue,,,null,object_01b.png,object_02b.png,,,,,,,,,,,,,,,,,
722.8000000119209,,rt_thecrossant_black3,1326597,,,,,,,,black_plus_sign,,,49,,,1,,,,,,,1,,,,,,,,,
null,,color_black3,1326699,,,,,,,,black_plus_sign,,,null,,,,,,,,,,,,,,,,,,,
null,,learn_phase(without_color)3,1330202,,,,,,,,black_plus_sign,,,null,object_14b.png,object_08a.png,,,,,,,,,,,,,,,,,
null,,black_cross(without_color)3,1330800,,,,,,,,green,,,null,object_14b.png,object_08a.png,,,,,,,,,,,,,,,,,
null,,rt_plussign_withcolor3,1331302,,,,,,,,green,,,null,object_14b.png,object_08a.png,,,,,,,,,,,,,,,,,
1090.5,,rt_thecrossant_black3,1332708,,,,,,,,black_plus_sign,,,50,,,1,,,,,,,1,,,,,,,,,
null,,color_black3,1332810,,,,,,,,black_plus_sign,,,null,,,,,,,,,,,,,,,,,,,
null,,learn_phase(without_color)3,1336312,,,,,,,,black_plus_sign,,,null,object_12c.png,object_04a.png,,,,,,,,,,,,,,,,,
null,,black_cross(without_color)3,1337261,,,,,,,,green,,,null,object_12c.png,object_04a.png,,,,,,,,,,,,,,,,,
null,,rt_plussign_withcolor3,1337775,,,,,,,,green,,,null,object_12c.png,object_04a.png,,,,,,,,,,,,,,,,,
869.5,,rt_thecrossant_black3,1338830,,,,,,,,black_plus_sign,,,50,,,1,,,,,,,1,,,,,,,,,
null,,color_black3,1338932,,,,,,,,black_plus_sign,,,null,,,,,,,,,,,,,,,,,,,
null,,learn_phase(without_color)3,1342434,,,,,,,,black_plus_sign,,,null,object_14a.png,object_06c.png,,,,,,,,,,,,,,,,,
null,,black_cross(without_color)3,1343276,,,,,,,,green,,,null,object_14a.png,object_06c.png,,,,,,,,,,,,,,,,,
null,,rt_plussign_withcolor3,1343777,,,,,,,,green,,,null,object_14a.png,object_06c.png,,,,,,,,,,,,,,,,,
1355.5999999940395,,rt_thecrossant_black3,1344940,,,,,,,,black_plus_sign,,,50,,,1,,,,,,,1,,,,,,,,,
null,,color_black3,1345042,,,,,,,,black_plus_sign,,,null,,,,,,,,,,,,,,,,,,,
null,,learn_phase(without_color)3,1348545,,,,,,,,black_plus_sign,,,null,object_11b.png,object_13a.png,,,,,,,,,,,,,,,,,
null,,black_cross(without_color)3,1349027,,,,,,,,blue,,,null,object_11b.png,object_13a.png,,,,,,,,,,,,,,,,,
null,,rt_plussign_withcolor3,1349529,,,,,,,,blue,,,null,object_11b.png,object_13a.png,,,,,,,,,,,,,,,,,
1065.6000000089407,,rt_thecrossant_black3,1351052,,,,,,,,black_plus_sign,,,49,,,1,,,,,,,1,,,,,,,,,
null,,color_black3,1351154,,,,,,,,black_plus_sign,,,null,,,,,,,,,,,,,,,,,,,
null,,learn_phase(without_color)3,1354657,,,,,,,,black_plus_sign,,,null,object_01a.png,object_07c.png,,,,,,,,,,,,,,,,,
null,,black_cross(without_color)3,1355452,,,,,,,,blue,,,null,object_01a.png,object_07c.png,,,,,,,,,,,,,,,,,
null,,rt_plussign_withcolor3,1355954,,,,,,,,blue,,,null,object_01a.png,object_07c.png,,,,,,,,,,,,,,,,,
1132,,rt_thecrossant_black3,1357164,,,,,,,,black_plus_sign,,,49,,,1,,,,,,,1,,,,,,,,,
null,,color_black3,1357265,,,,,,,,black_plus_sign,,,null,,,,,,,,,,,,,,,,,,,
null,,learn_phase(without_color)3,1360769,,,,,,,,black_plus_sign,,,null,object_03b.png,object_07a.png,,,,,,,,,,,,,,,,,
null,,black_cross(without_color)3,1361217,,,,,,,,green,,,null,object_03b.png,object_07a.png,,,,,,,,,,,,,,,,,
null,,rt_plussign_withcolor3,1361718,,,,,,,,green,,,null,object_03b.png,object_07a.png,,,,,,,,,,,,,,,,,
1143.2000000029802,,rt_thecrossant_black3,1363275,,,,,,,,black_plus_sign,,,50,,,1,,,,,,,1,,,,,,,,,
null,,color_black3,1363377,,,,,,,,black_plus_sign,,,null,,,,,,,,,,,,,,,,,,,
null,,learn_phase(without_color)3,1366879,,,,,,,,black_plus_sign,,,null,object_15c.png,object_10a.png,,,,,,,,,,,,,,,,,
null,,black_cross(without_color)3,1367480,,,,,,,,blue,,,null,object_15c.png,object_10a.png,,,,,,,,,,,,,,,,,
null,,rt_plussign_withcolor3,1367988,,,,,,,,blue,,,null,object_15c.png,object_10a.png,,,,,,,,,,,,,,,,,
771.4000000059605,,rt_thecrossant_black3,1369391,,,,,,,,black_plus_sign,,,49,,,1,,,,,,,1,,,,,,,,,
null,,color_black3,1369493,,,,,,,,black_plus_sign,,,null,,,,,,,,,,,,,,,,,,,
null,,learn_phase(without_color)3,1372996,,,,,,,,black_plus_sign,,,null,object_06a.png,object_06b.png,,,,,,,,,,,,,,,,,
null,,black_cross(without_color)3,1373518,,,,,,,,green,,,null,object_06a.png,object_06b.png,,,,,,,,,,,,,,,,,
null,,rt_plussign_withcolor3,1374020,,,,,,,,green,,,null,object_06a.png,object_06b.png,,,,,,,,,,,,,,,,,
1259.7999999970198,,rt_thecrossant_black3,1375502,,,,,,,,black_plus_sign,,,50,,,1,,,,,,,1,,,,,,,,,
null,,color_black3,1375604,,,,,,,,black_plus_sign,,,null,,,,,,,,,,,,,,,,,,,
null,,learn_phase(without_color)3,1379111,,,,,,,,black_plus_sign,,,null,object_11c.png,object_06b.png,,,,,,,,,,,,,,,,,
null,,black_cross(without_color)3,1379913,,,,,,,,blue,,,null,object_11c.png,object_06b.png,,,,,,,,,,,,,,,,,
null,,rt_plussign_withcolor3,1380415,,,,,,,,blue,,,null,object_11c.png,object_06b.png,,,,,,,,,,,,,,,,,
830.8999999910593,,rt_thecrossant_black3,1381618,,,,,,,,black_plus_sign,,,49,,,1,,,,,,,1,,,,,,,,,
null,,color_black3,1381720,,,,,,,,black_plus_sign,,,null,,,,,,,,,,,,,,,,,,,
null,,learn_phase(without_color)3,1385223,,,,,,,,black_plus_sign,,,null,object_05a.png,object_11a.png,,,,,,,,,,,,,,,,,
null,,black_cross(without_color)3,1386024,,,,,,,,green,,,null,object_05a.png,object_11a.png,,,,,,,,,,,,,,,,,
null,,rt_plussign_withcolor3,1386525,,,,,,,,green,,,null,object_05a.png,object_11a.png,,,,,,,,,,,,,,,,,
1245,,rt_thecrossant_black3,1387729,,,,,,,,black_plus_sign,,,50,,,1,,,,,,,1,,,,,,,,,
null,,color_black3,1387832,,,,,,,,black_plus_sign,,,null,,,,,,,,,,,,,,,,,,,
null,,learn_phase(without_color)3,1391347,,,,,,,,black_plus_sign,,,null,object_09c.png,object_08c.png,,,,,,,,,,,,,,,,,
null,,black_cross(without_color)3,1392372,,,,,,,,blue,,,null,object_09c.png,object_08c.png,,,,,,,,,,,,,,,,,
null,,rt_plussign_withcolor3,1392874,,,,,,,,blue,,,null,object_09c.png,object_08c.png,,,,,,,,,,,,,,,,,
1003.7000000029802,,rt_thecrossant_black3,1393858,,,,,,,,black_plus_sign,,,49,,,1,,,,,,,1,,,,,,,,,
null,,color_black3,1393960,,,,,,,,black_plus_sign,,,null,,,,,,,,,,,,,,,,,,,
null,,learn_phase(without_color)3,1397463,,,,,,,,black_plus_sign,,,null,object_08a.png,object_13c.png,,,,,,,,,,,,,,,,,
null,,black_cross(without_color)3,1398453,,,,,,,,blue,,,null,object_08a.png,object_13c.png,,,,,,,,,,,,,,,,,
null,,rt_plussign_withcolor3,1398954,,,,,,,,blue,,,null,object_08a.png,object_13c.png,,,,,,,,,,,,,,,,,
1241.1000000089407,,rt_thecrossant_black3,1399968,,,,,,,,black_plus_sign,,,49,,,1,,,,,,,1,,,,,,,,,
null,,color_black3,1400070,,,,,,,,black_plus_sign,,,null,,,,,,,,,,,,,,,,,,,
null,,learn_phase(without_color)3,1403574,,,,,,,,black_plus_sign,,,null,object_07c.png,object_10c.png,,,,,,,,,,,,,,,,,
null,,black_cross(without_color)3,1404044,,,,,,,,green,,,null,object_07c.png,object_10c.png,,,,,,,,,,,,,,,,,
null,,rt_plussign_withcolor3,1404547,,,,,,,,green,,,null,object_07c.png,object_10c.png,,,,,,,,,,,,,,,,,
1352.1000000089407,,rt_thecrossant_black3,1406092,,,,,,,,black_plus_sign,,,50,,,1,,,,,,,1,,,,,,,,,
null,,color_black3,1406194,,,,,,,,black_plus_sign,,,null,,,,,,,,,,,,,,,,,,,
null,,learn_phase(without_color)3,1409697,,,,,,,,black_plus_sign,,,null,object_09c.png,object_05c.png,,,,,,,,,,,,,,,,,
null,,black_cross(without_color)3,1410536,,,,,,,,blue,,,null,object_09c.png,object_05c.png,,,,,,,,,,,,,,,,,
null,,rt_plussign_withcolor3,1411038,,,,,,,,blue,,,null,object_09c.png,object_05c.png,,,,,,,,,,,,,,,,,
738.2999999970198,,rt_thecrossant_black3,1412205,,,,,,,,black_plus_sign,,,49,,,1,,,,,,,1,,,,,,,,,
null,,color_black3,1412307,,,,,,,,black_plus_sign,,,null,,,,,,,,,,,,,,,,,,,
null,,learn_phase(without_color)3,1415810,,,,,,,,black_plus_sign,,,null,object_07a.png,object_14c.png,,,,,,,,,,,,,,,,,
null,,black_cross(without_color)3,1416324,,,,,,,,blue,,,null,object_07a.png,object_14c.png,,,,,,,,,,,,,,,,,
null,,rt_plussign_withcolor3,1416827,,,,,,,,blue,,,null,object_07a.png,object_14c.png,,,,,,,,,,,,,,,,,
1055.1000000089407,,rt_thecrossant_black3,1418316,,,,,,,,black_plus_sign,,,49,,,1,,,,,,,1,,,,,,,,,
null,,color_black3,1418418,,,,,,,,black_plus_sign,,,null,,,,,,,,,,,,,,,,,,,
null,,learn_phase(without_color)3,1421921,,,,,,,,black_plus_sign,,,null,object_13b.png,object_06c.png,,,,,,,,,,,,,,,,,
null,,black_cross(without_color)3,1422972,,,,,,,,green,,,null,object_13b.png,object_06c.png,,,,,,,,,,,,,,,,,
null,,rt_plussign_withcolor3,1423474,,,,,,,,green,,,null,object_13b.png,object_06c.png,,,,,,,,,,,,,,,,,
1369.800000011921,,rt_thecrossant_black3,1424428,,,,,,,,black_plus_sign,,,50,,,1,,,,,,,1,,,,,,,,,
null,,color_black3,1424530,,,,,,,,black_plus_sign,,,null,,,,,,,,,,,,,,,,,,,
null,,learn_phase(without_color)3,1428032,,,,,,,,black_plus_sign,,,null,object_05b.png,object_07b.png,,,,,,,,,,,,,,,,,
null,,black_cross(without_color)3,1429040,,,,,,,,green,,,null,object_05b.png,object_07b.png,,,,,,,,,,,,,,,,,
null,,rt_plussign_withcolor3,1429541,,,,,,,,green,,,null,object_05b.png,object_07b.png,,,,,,,,,,,,,,,,,
1443.5,,rt_thecrossant_black3,1430538,,,,,,,,black_plus_sign,,,50,,,1,,,,,,,1,,,,,,,,,
null,,color_black3,1430641,,,,,,,,black_plus_sign,,,null,,,,,,,,,,,,,,,,,,,
null,,learn_phase(without_color)3,1434156,,,,,,,,black_plus_sign,,,null,object_04c.png,object_03c.png,,,,,,,,,,,,,,,,,
null,,black_cross(without_color)3,1434782,,,,,,,,green,,,null,object_04c.png,object_03c.png,,,,,,,,,,,,,,,,,
null,,rt_plussign_withcolor3,1435284,,,,,,,,green,,,null,object_04c.png,object_03c.png,,,,,,,,,,,,,,,,,
1385.300000011921,,rt_thecrossant_black3,1436663,,,,,,,,black_plus_sign,,,50,,,1,,,,,,,1,,,,,,,,,
null,,color_black3,1436765,,,,,,,,black_plus_sign,,,null,,,,,,,,,,,,,,,,,,,
null,,learn_phase(without_color)3,1440268,,,,,,,,black_plus_sign,,,null,object_01c.png,object_03a.png,,,,,,,,,,,,,,,,,
null,,black_cross(without_color)3,1441240,,,,,,,,green,,,null,object_01c.png,object_03a.png,,,,,,,,,,,,,,,,,
null,,rt_plussign_withcolor3,1441754,,,,,,,,green,,,null,object_01c.png,object_03a.png,,,,,,,,,,,,,,,,,
887.6999999880791,,rt_thecrossant_black3,1442785,,,,,,,,black_plus_sign,,,50,,,1,,,,,,,1,,,,,,,,,
null,,color_black3,1442887,,,,,,,,black_plus_sign,,,null,,,,,,,,,,,,,,,,,,,
null,,learn_phase(without_color)3,1446390,,,,,,,,black_plus_sign,,,null,object_10b.png,object_02a.png,,,,,,,,,,,,,,,,,
null,,black_cross(without_color)3,1447183,,,,,,,,blue,,,null,object_10b.png,object_02a.png,,,,,,,,,,,,,,,,,
null,,rt_plussign_withcolor3,1447684,,,,,,,,blue,,,null,object_10b.png,object_02a.png,,,,,,,,,,,,,,,,,
1598,,rt_thecrossant_black3,1448896,,,,,,,,black_plus_sign,,,49,,,1,,,,,,,1,,,,,,,,,
null,,color_black3,1448999,,,,,,,,black_plus_sign,,,null,,,,,,,,,,,,,,,,,,,
null,,thebreak,1449102,,,,,,,,<p></p>,,,null,,,,,,,,,,,,,,,,,,,
1165.1000000089407,,intro_0,1450268,,,,,,,,instruct,,,32,,,,,,,,,,,,,,,,,,,
2853.2000000029802,,directmemory_phase3,1453122,,,,,,,,object_12b.png,,,49,,,1,,object_05a.png,object_07a.png,object_01a.png,object_05a.png,,0.39344262295081966,1,,,,,,,,
3497.9000000059605,,directmemory_phase3,1456622,,,,,,,,object_08b.png,,,49,,,1,,object_03a.png,object_11b.png,object_14b.png,object_03a.png,,0.4032258064516129,1,,,,,,,,
2251.5999999940395,,directmemory_phase3,1458875,,,,,,,,object_02a.png,,,50,,,0,,object_05c.png,object_05b.png,object_02c.png,object_02c.png,,0.3968253968253968,0,,,,,,,,
1948.5,,directmemory_phase3,1460825,,,,,,,,object_14c.png,,,49,,,0,,object_04c.png,object_08c.png,object_07a.png,object_07a.png,,0.390625,0,,,,,,,,
2310.9000000059605,,directmemory_phase3,1463137,,,,,,,,object_12c.png,,,49,,,0,,object_12b.png,object_04a.png,object_07c.png,object_04a.png,,0.38461538461538464,0,,,,,,,,
2387.2000000029802,,directmemory_phase3,1465526,,,,,,,,object_10b.png,,,51,,,1,,object_11b.png,object_14b.png,object_02a.png,object_02a.png,,0.3939393939393939,1,,,,,,,,
2094.800000011921,,directmemory_phase3,1467622,,,,,,,,object_06c.png,,,51,,,0,,object_13b.png,object_13c.png,object_09c.png,object_13b.png,,0.3880597014925373,0,,,,,,,,
1702.4000000059605,,directmemory_phase3,1469326,,,,,,,,object_11c.png,,,51,,,1,,object_07a.png,object_10b.png,object_06b.png,object_06b.png,,0.39705882352941174,1,,,,,,,,
3748.5999999940395,,directmemory_phase3,1473076,,,,,,,,object_09b.png,,,50,,,1,,object_11c.png,object_04c.png,object_05a.png,object_04c.png,,0.4057971014492754,1,,,,,,,,
3117.1000000089407,,directmemory_phase3,1476195,,,,,,,,object_03b.png,,,49,,,0,,object_06b.png,object_03c.png,object_07a.png,object_07a.png,,0.4,0,,,,,,,,
2319.7999999970198,,directmemory_phase3,1478516,,,,,,,,object_05a.png,,,49,,,0,,object_06b.png,object_11a.png,object_15b.png,object_11a.png,,0.39436619718309857,0,,,,,,,,
2705.4000000059605,,directmemory_phase3,1481223,,,,,,,,object_15a.png,,,50,,,1,,object_03c.png,object_01b.png,object_08a.png,object_01b.png,,0.4027777777777778,1,,,,,,,,
2913.0999999940395,,directmemory_phase3,1484138,,,,,,,,object_03c.png,,,51,,,1,,object_03a.png,object_01c.png,object_04c.png,object_04c.png,,0.410958904109589,1,,,,,,,,
2769.7999999970198,,directmemory_phase3,1486909,,,,,,,,object_07c.png,,,50,,,1,,object_01b.png,object_10c.png,object_06a.png,object_10c.png,,0.4189189189189189,1,,,,,,,,
2630.199999988079,,directmemory_phase3,1489541,,,,,,,,object_11b.png,,,49,,,1,,object_09a.png,object_02c.png,object_06c.png,object_09a.png,,0.4266666666666667,1,,,,,,,,
2593.1000000089407,,directmemory_phase3,1492135,,,,,,,,object_08c.png,,,50,,,1,,object_10b.png,object_09c.png,object_04c.png,object_09c.png,,0.4342105263157895,1,,,,,,,,
1563.3999999910593,,directmemory_phase3,1493700,,,,,,,,object_01a.png,,,49,,,1,,object_07c.png,object_02a.png,object_13a.png,object_07c.png,,0.44155844155844154,1,,,,,,,,
3732.8999999910593,,directmemory_phase3,1497434,,,,,,,,object_12a.png,,,49,,,1,,object_10a.png,object_04a.png,object_04b.png,object_10a.png,,0.44871794871794873,1,,,,,,,,
2921.2000000029802,,directmemory_phase3,1500357,,,,,,,,object_02b.png,,,50,,,0,,object_05a.png,object_13a.png,object_01b.png,object_01b.png,,0.4430379746835443,0,,,,,,,,
3269,,directmemory_phase3,1503628,,,,,,,,object_05b.png,,,50,,,0,,object_06a.png,object_04c.png,object_07b.png,object_07b.png,,0.4375,0,,,,,,,,
2631.5,,directmemory_phase3,1506261,,,,,,,,object_15b.png,,,50,,,0,,object_04a.png,object_02a.png,object_13c.png,object_04a.png,,0.43209876543209874,0,,,,,,,,
3512.2000000029802,,directmemory_phase3,1509774,,,,,,,,object_06b.png,,,51,,,1,,object_13b.png,object_08a.png,object_06a.png,object_06a.png,,0.43902439024390244,1,,,,,,,,
2443.5,,directmemory_phase3,1512219,,,,,,,,object_08a.png,,,49,,,0,,object_04c.png,object_13c.png,object_10c.png,object_13c.png,,0.43373493975903615,0,,,,,,,,
2203.9000000059605,,directmemory_phase3,1514425,,,,,,,,object_14a.png,,,50,,,0,,object_06c.png,object_03a.png,object_12c.png,object_06c.png,,0.42857142857142855,0,,,,,,,,
3050.199999988079,,directmemory_phase3,1517476,,,,,,,,object_01c.png,,,50,,,1,,object_13b.png,object_03a.png,object_06b.png,object_03a.png,,0.43529411764705883,1,,,,,,,,
2635.2000000029802,,directmemory_phase3,1520113,,,,,,,,object_04b.png,,,50,,,0,,object_04a.png,object_01a.png,object_05b.png,object_05b.png,,0.43023255813953487,0,,,,,,,,
3314,,directmemory_phase3,1523428,,,,,,,,object_10a.png,,,51,,,0,,object_15c.png,object_07b.png,object_07c.png,object_15c.png,,0.42528735632183906,0,,,,,,,,
3076.800000011921,,directmemory_phase3,1526506,,,,,,,,object_13a.png,,,51,,,1,,object_09c.png,object_09b.png,object_11b.png,object_11b.png,,0.4318181818181818,1,,,,,,,,
1684.5,,directmemory_phase3,1528193,,,,,,,,object_14b.png,,,50,,,1,,object_10b.png,object_08a.png,object_03a.png,object_08a.png,,0.43820224719101125,1,,,,,,,,
2170.2999999970198,,directmemory_phase3,1530365,,,,,,,,object_05c.png,,,49,,,1,,object_09c.png,object_05b.png,object_15b.png,object_09c.png,,0.4444444444444444,1,,,,,,,,
null,,thebreak,1530467,,,,,,,,<p></p>,,,null,,,,,,,,,,,,,,,,,,,
1178.6000000089407,,intro_0,1531647,,,,,,,,instruct,,,32,,,,,,,,,,,,,,,,,,,
null,,learn_phase(without_color)4,1535150,,,,,,,,black_plus_sign,,,null,object_15a.png,object_01b.png,,,,,,,,,,,,,,,,,
null,,black_cross(without_color)4,1536026,,,,,,,,green,,,null,object_15a.png,object_01b.png,,,,,,,,,,,,,,,,,
null,,rt_plussign_withcolor4,1536527,,,,,,,,green,,,null,object_15a.png,object_01b.png,,,,,,,,,,,,,,,,,
1735.3999999910593,,rt_thecrossant_black4,1537655,,,,,,,,black_plus_sign,,,50,,,1,,,,,,,1,,,,,,,,,
null,,color_black4,1537757,,,,,,,,black_plus_sign,,,null,,,,,,,,,,,,,,,,,,,
null,,learn_phase(without_color)4,1541260,,,,,,,,black_plus_sign,,,null,object_11a.png,object_05a.png,,,,,,,,,,,,,,,,,
null,,black_cross(without_color)4,1541666,,,,,,,,green,,,null,object_11a.png,object_05a.png,,,,,,,,,,,,,,,,,
null,,rt_plussign_withcolor4,1542167,,,,,,,,green,,,null,object_11a.png,object_05a.png,,,,,,,,,,,,,,,,,
1220.5999999940395,,rt_thecrossant_black4,1543766,,,,,,,,black_plus_sign,,,50,,,1,,,,,,,1,,,,,,,,,
null,,color_black4,1543867,,,,,,,,black_plus_sign,,,null,,,,,,,,,,,,,,,,,,,
null,,learn_phase(without_color)4,1547370,,,,,,,,black_plus_sign,,,null,object_04c.png,object_09b.png,,,,,,,,,,,,,,,,,
null,,black_cross(without_color)4,1548343,,,,,,,,green,,,null,object_04c.png,object_09b.png,,,,,,,,,,,,,,,,,
null,,rt_plussign_withcolor4,1548845,,,,,,,,green,,,null,object_04c.png,object_09b.png,,,,,,,,,,,,,,,,,
774.0999999940395,,rt_thecrossant_black4,1549876,,,,,,,,black_plus_sign,,,50,,,1,,,,,,,1,,,,,,,,,
null,,color_black4,1549979,,,,,,,,black_plus_sign,,,null,,,,,,,,,,,,,,,,,,,
null,,learn_phase(without_color)4,1553482,,,,,,,,black_plus_sign,,,null,object_10c.png,object_07c.png,,,,,,,,,,,,,,,,,
null,,black_cross(without_color)4,1554506,,,,,,,,green,,,null,object_10c.png,object_07c.png,,,,,,,,,,,,,,,,,
null,,rt_plussign_withcolor4,1555008,,,,,,,,green,,,null,object_10c.png,object_07c.png,,,,,,,,,,,,,,,,,
1220.2999999970198,,rt_thecrossant_black4,1555989,,,,,,,,black_plus_sign,,,50,,,1,,,,,,,1,,,,,,,,,
null,,color_black4,1556091,,,,,,,,black_plus_sign,,,null,,,,,,,,,,,,,,,,,,,
null,,learn_phase(without_color)4,1559594,,,,,,,,black_plus_sign,,,null,object_10a.png,object_12a.png,,,,,,,,,,,,,,,,,
null,,black_cross(without_color)4,1560336,,,,,,,,green,,,null,object_10a.png,object_12a.png,,,,,,,,,,,,,,,,,
null,,rt_plussign_withcolor4,1560838,,,,,,,,green,,,null,object_10a.png,object_12a.png,,,,,,,,,,,,,,,,,
1377,,rt_thecrossant_black4,1562100,,,,,,,,black_plus_sign,,,50,,,1,,,,,,,1,,,,,,,,,
null,,color_black4,1562202,,,,,,,,black_plus_sign,,,null,,,,,,,,,,,,,,,,,,,
null,,learn_phase(without_color)4,1565705,,,,,,,,black_plus_sign,,,null,object_10a.png,object_15c.png,,,,,,,,,,,,,,,,,
null,,black_cross(without_color)4,1566361,,,,,,,,blue,,,null,object_10a.png,object_15c.png,,,,,,,,,,,,,,,,,
null,,rt_plussign_withcolor4,1566864,,,,,,,,blue,,,null,object_10a.png,object_15c.png,,,,,,,,,,,,,,,,,
1010.1000000089407,,rt_thecrossant_black4,1568213,,,,,,,,black_plus_sign,,,49,,,1,,,,,,,1,,,,,,,,,
null,,color_black4,1568315,,,,,,,,black_plus_sign,,,null,,,,,,,,,,,,,,,,,,,
null,,learn_phase(without_color)4,1571818,,,,,,,,black_plus_sign,,,null,object_02a.png,object_02c.png,,,,,,,,,,,,,,,,,
null,,black_cross(without_color)4,1572610,,,,,,,,green,,,null,object_02a.png,object_02c.png,,,,,,,,,,,,,,,,,
null,,rt_plussign_withcolor4,1573112,,,,,,,,green,,,null,object_02a.png,object_02c.png,,,,,,,,,,,,,,,,,
792,,rt_thecrossant_black4,1574324,,,,,,,,black_plus_sign,,,50,,,1,,,,,,,1,,,,,,,,,
null,,color_black4,1574433,,,,,,,,black_plus_sign,,,null,,,,,,,,,,,,,,,,,,,
null,,learn_phase(without_color)4,1577936,,,,,,,,black_plus_sign,,,null,object_04a.png,object_12c.png,,,,,,,,,,,,,,,,,
null,,black_cross(without_color)4,1578613,,,,,,,,green,,,null,object_04a.png,object_12c.png,,,,,,,,,,,,,,,,,
null,,rt_plussign_withcolor4,1579116,,,,,,,,green,,,null,object_04a.png,object_12c.png,,,,,,,,,,,,,,,,,
1067.7000000029802,,rt_thecrossant_black4,1580443,,,,,,,,black_plus_sign,,,50,,,1,,,,,,,1,,,,,,,,,
null,,color_black4,1580545,,,,,,,,black_plus_sign,,,null,,,,,,,,,,,,,,,,,,,
null,,learn_phase(without_color)4,1584047,,,,,,,,black_plus_sign,,,null,object_04a.png,object_15b.png,,,,,,,,,,,,,,,,,
null,,black_cross(without_color)4,1584832,,,,,,,,blue,,,null,object_04a.png,object_15b.png,,,,,,,,,,,,,,,,,
null,,rt_plussign_withcolor4,1585334,,,,,,,,blue,,,null,object_04a.png,object_15b.png,,,,,,,,,,,,,,,,,
948,,rt_thecrossant_black4,1586553,,,,,,,,black_plus_sign,,,49,,,1,,,,,,,1,,,,,,,,,
null,,color_black4,1586655,,,,,,,,black_plus_sign,,,null,,,,,,,,,,,,,,,,,,,
null,,learn_phase(without_color)4,1590158,,,,,,,,black_plus_sign,,,null,object_12b.png,object_05a.png,,,,,,,,,,,,,,,,,
null,,black_cross(without_color)4,1590747,,,,,,,,green,,,null,object_12b.png,object_05a.png,,,,,,,,,,,,,,,,,
null,,rt_plussign_withcolor4,1591249,,,,,,,,green,,,null,object_12b.png,object_05a.png,,,,,,,,,,,,,,,,,
1059.2999999970198,,rt_thecrossant_black4,1592665,,,,,,,,black_plus_sign,,,50,,,1,,,,,,,1,,,,,,,,,
null,,color_black4,1592767,,,,,,,,black_plus_sign,,,null,,,,,,,,,,,,,,,,,,,
null,,learn_phase(without_color)4,1596270,,,,,,,,black_plus_sign,,,null,object_14c.png,object_07a.png,,,,,,,,,,,,,,,,,
null,,black_cross(without_color)4,1596716,,,,,,,,blue,,,null,object_14c.png,object_07a.png,,,,,,,,,,,,,,,,,
null,,rt_plussign_withcolor4,1597219,,,,,,,,blue,,,null,object_14c.png,object_07a.png,,,,,,,,,,,,,,,,,
894.7000000029802,,rt_thecrossant_black4,1598779,,,,,,,,black_plus_sign,,,49,,,1,,,,,,,1,,,,,,,,,
null,,color_black4,1598888,,,,,,,,black_plus_sign,,,null,,,,,,,,,,,,,,,,,,,
null,,learn_phase(without_color)4,1602390,,,,,,,,black_plus_sign,,,null,object_05b.png,object_07b.png,,,,,,,,,,,,,,,,,
null,,black_cross(without_color)4,1603385,,,,,,,,blue,,,null,object_05b.png,object_07b.png,,,,,,,,,,,,,,,,,
null,,rt_plussign_withcolor4,1603886,,,,,,,,blue,,,null,object_05b.png,object_07b.png,,,,,,,,,,,,,,,,,
926.9000000059605,,rt_thecrossant_black4,1604898,,,,,,,,black_plus_sign,,,49,,,1,,,,,,,1,,,,,,,,,
null,,color_black4,1604999,,,,,,,,black_plus_sign,,,null,,,,,,,,,,,,,,,,,,,
null,,learn_phase(without_color)4,1608502,,,,,,,,black_plus_sign,,,null,object_06c.png,object_13b.png,,,,,,,,,,,,,,,,,
null,,black_cross(without_color)4,1609059,,,,,,,,green,,,null,object_06c.png,object_13b.png,,,,,,,,,,,,,,,,,
null,,rt_plussign_withcolor4,1609561,,,,,,,,green,,,null,object_06c.png,object_13b.png,,,,,,,,,,,,,,,,,
1215.6000000089407,,rt_thecrossant_black4,1611017,,,,,,,,black_plus_sign,,,50,,,1,,,,,,,1,,,,,,,,,
null,,color_black4,1611120,,,,,,,,black_plus_sign,,,null,,,,,,,,,,,,,,,,,,,
null,,learn_phase(without_color)4,1614623,,,,,,,,black_plus_sign,,,null,object_11b.png,object_13a.png,,,,,,,,,,,,,,,,,
null,,black_cross(without_color)4,1615206,,,,,,,,green,,,null,object_11b.png,object_13a.png,,,,,,,,,,,,,,,,,
null,,rt_plussign_withcolor4,1615718,,,,,,,,green,,,null,object_11b.png,object_13a.png,,,,,,,,,,,,,,,,,
751.7999999970198,,rt_thecrossant_black4,1617140,,,,,,,,black_plus_sign,,,50,,,1,,,,,,,1,,,,,,,,,
null,,color_black4,1617243,,,,,,,,black_plus_sign,,,null,,,,,,,,,,,,,,,,,,,
null,,learn_phase(without_color)4,1620746,,,,,,,,black_plus_sign,,,null,object_02b.png,object_01b.png,,,,,,,,,,,,,,,,,
null,,black_cross(without_color)4,1621492,,,,,,,,green,,,null,object_02b.png,object_01b.png,,,,,,,,,,,,,,,,,
null,,rt_plussign_withcolor4,1621994,,,,,,,,green,,,null,object_02b.png,object_01b.png,,,,,,,,,,,,,,,,,
828.5999999940395,,rt_thecrossant_black4,1623253,,,,,,,,black_plus_sign,,,50,,,1,,,,,,,1,,,,,,,,,
null,,color_black4,1623354,,,,,,,,black_plus_sign,,,null,,,,,,,,,,,,,,,,,,,
null,,learn_phase(without_color)4,1626856,,,,,,,,black_plus_sign,,,null,object_03c.png,object_04c.png,,,,,,,,,,,,,,,,,
null,,black_cross(without_color)4,1627561,,,,,,,,blue,,,null,object_03c.png,object_04c.png,,,,,,,,,,,,,,,,,
null,,rt_plussign_withcolor4,1628062,,,,,,,,blue,,,null,object_03c.png,object_04c.png,,,,,,,,,,,,,,,,,
984.1000000089407,,rt_thecrossant_black4,1629371,,,,,,,,black_plus_sign,,,49,,,1,,,,,,,1,,,,,,,,,
null,,color_black4,1629473,,,,,,,,black_plus_sign,,,null,,,,,,,,,,,,,,,,,,,
null,,learn_phase(without_color)4,1632976,,,,,,,,black_plus_sign,,,null,object_03a.png,object_01c.png,,,,,,,,,,,,,,,,,
null,,black_cross(without_color)4,1633554,,,,,,,,blue,,,null,object_03a.png,object_01c.png,,,,,,,,,,,,,,,,,
null,,rt_plussign_withcolor4,1634057,,,,,,,,blue,,,null,object_03a.png,object_01c.png,,,,,,,,,,,,,,,,,
994.9000000059605,,rt_thecrossant_black4,1635482,,,,,,,,black_plus_sign,,,49,,,1,,,,,,,1,,,,,,,,,
null,,color_black4,1635591,,,,,,,,black_plus_sign,,,null,,,,,,,,,,,,,,,,,,,
null,,learn_phase(without_color)4,1639092,,,,,,,,black_plus_sign,,,null,object_01a.png,object_07c.png,,,,,,,,,,,,,,,,,
null,,black_cross(without_color)4,1639662,,,,,,,,blue,,,null,object_01a.png,object_07c.png,,,,,,,,,,,,,,,,,
null,,rt_plussign_withcolor4,1640164,,,,,,,,blue,,,null,object_01a.png,object_07c.png,,,,,,,,,,,,,,,,,
998.7000000029802,,rt_thecrossant_black4,1641600,,,,,,,,black_plus_sign,,,49,,,1,,,,,,,1,,,,,,,,,
null,,color_black4,1641702,,,,,,,,black_plus_sign,,,null,,,,,,,,,,,,,,,,,,,
null,,learn_phase(without_color)4,1645218,,,,,,,,black_plus_sign,,,null,object_03a.png,object_08b.png,,,,,,,,,,,,,,,,,
null,,black_cross(without_color)4,1645954,,,,,,,,green,,,null,object_03a.png,object_08b.png,,,,,,,,,,,,,,,,,
null,,rt_plussign_withcolor4,1646456,,,,,,,,green,,,null,object_03a.png,object_08b.png,,,,,,,,,,,,,,,,,
836.6000000089407,,rt_thecrossant_black4,1647725,,,,,,,,black_plus_sign,,,50,,,1,,,,,,,1,,,,,,,,,
null,,color_black4,1647827,,,,,,,,black_plus_sign,,,null,,,,,,,,,,,,,,,,,,,
null,,learn_phase(without_color)4,1651330,,,,,,,,black_plus_sign,,,null,object_09c.png,object_05c.png,,,,,,,,,,,,,,,,,
null,,black_cross(without_color)4,1652319,,,,,,,,green,,,null,object_09c.png,object_05c.png,,,,,,,,,,,,,,,,,
null,,rt_plussign_withcolor4,1652821,,,,,,,,green,,,null,object_09c.png,object_05c.png,,,,,,,,,,,,,,,,,
999,,rt_thecrossant_black4,1653837,,,,,,,,black_plus_sign,,,50,,,1,,,,,,,1,,,,,,,,,
null,,color_black4,1653939,,,,,,,,black_plus_sign,,,null,,,,,,,,,,,,,,,,,,,
null,,learn_phase(without_color)4,1657442,,,,,,,,black_plus_sign,,,null,object_06b.png,object_06a.png,,,,,,,,,,,,,,,,,
null,,black_cross(without_color)4,1658316,,,,,,,,green,,,null,object_06b.png,object_06a.png,,,,,,,,,,,,,,,,,
null,,rt_plussign_withcolor4,1658817,,,,,,,,green,,,null,object_06b.png,object_06a.png,,,,,,,,,,,,,,,,,
1277.7999999970198,,rt_thecrossant_black4,1659948,,,,,,,,black_plus_sign,,,50,,,1,,,,,,,1,,,,,,,,,
null,,color_black4,1660051,,,,,,,,black_plus_sign,,,null,,,,,,,,,,,,,,,,,,,
null,,learn_phase(without_color)4,1663553,,,,,,,,black_plus_sign,,,null,object_13c.png,object_08a.png,,,,,,,,,,,,,,,,,
null,,black_cross(without_color)4,1664108,,,,,,,,green,,,null,object_13c.png,object_08a.png,,,,,,,,,,,,,,,,,
null,,rt_plussign_withcolor4,1664611,,,,,,,,green,,,null,object_13c.png,object_08a.png,,,,,,,,,,,,,,,,,
1060,,rt_thecrossant_black4,1666060,,,,,,,,black_plus_sign,,,50,,,1,,,,,,,1,,,,,,,,,
null,,color_black4,1666162,,,,,,,,black_plus_sign,,,null,,,,,,,,,,,,,,,,,,,
null,,learn_phase(without_color)4,1669665,,,,,,,,black_plus_sign,,,null,object_08a.png,object_14b.png,,,,,,,,,,,,,,,,,
null,,black_cross(without_color)4,1670119,,,,,,,,green,,,null,object_08a.png,object_14b.png,,,,,,,,,,,,,,,,,
null,,rt_plussign_withcolor4,1670625,,,,,,,,green,,,null,object_08a.png,object_14b.png,,,,,,,,,,,,,,,,,
815.7999999970198,,rt_thecrossant_black4,1672175,,,,,,,,black_plus_sign,,,50,,,1,,,,,,,1,,,,,,,,,
null,,color_black4,1672277,,,,,,,,black_plus_sign,,,null,,,,,,,,,,,,,,,,,,,
null,,learn_phase(without_color)4,1675779,,,,,,,,black_plus_sign,,,null,object_07a.png,object_03b.png,,,,,,,,,,,,,,,,,
null,,black_cross(without_color)4,1676620,,,,,,,,green,,,null,object_07a.png,object_03b.png,,,,,,,,,,,,,,,,,
null,,rt_plussign_withcolor4,1677121,,,,,,,,green,,,null,object_07a.png,object_03b.png,,,,,,,,,,,,,,,,,
620.1000000089407,,rt_thecrossant_black4,1678285,,,,,,,,black_plus_sign,,,50,,,1,,,,,,,1,,,,,,,,,
null,,color_black4,1678387,,,,,,,,black_plus_sign,,,null,,,,,,,,,,,,,,,,,,,
null,,learn_phase(without_color)4,1681890,,,,,,,,black_plus_sign,,,null,object_04b.png,object_05b.png,,,,,,,,,,,,,,,,,
null,,black_cross(without_color)4,1682677,,,,,,,,green,,,null,object_04b.png,object_05b.png,,,,,,,,,,,,,,,,,
null,,rt_plussign_withcolor4,1683179,,,,,,,,green,,,null,object_04b.png,object_05b.png,,,,,,,,,,,,,,,,,
994.4000000059605,,rt_thecrossant_black4,1684397,,,,,,,,black_plus_sign,,,50,,,1,,,,,,,1,,,,,,,,,
null,,color_black4,1684500,,,,,,,,black_plus_sign,,,null,,,,,,,,,,,,,,,,,,,
null,,learn_phase(without_color)4,1688002,,,,,,,,black_plus_sign,,,null,object_06c.png,object_14a.png,,,,,,,,,,,,,,,,,
null,,black_cross(without_color)4,1688482,,,,,,,,green,,,null,object_06c.png,object_14a.png,,,,,,,,,,,,,,,,,
null,,rt_plussign_withcolor4,1688984,,,,,,,,green,,,null,object_06c.png,object_14a.png,,,,,,,,,,,,,,,,,
1041.5999999940395,,rt_thecrossant_black4,1690509,,,,,,,,black_plus_sign,,,50,,,1,,,,,,,1,,,,,,,,,
null,,color_black4,1690611,,,,,,,,black_plus_sign,,,null,,,,,,,,,,,,,,,,,,,
null,,learn_phase(without_color)4,1694113,,,,,,,,black_plus_sign,,,null,object_09c.png,object_08c.png,,,,,,,,,,,,,,,,,
null,,black_cross(without_color)4,1695201,,,,,,,,green,,,null,object_09c.png,object_08c.png,,,,,,,,,,,,,,,,,
null,,rt_plussign_withcolor4,1695703,,,,,,,,green,,,null,object_09c.png,object_08c.png,,,,,,,,,,,,,,,,,
679,,rt_thecrossant_black4,1696620,,,,,,,,black_plus_sign,,,50,,,1,,,,,,,1,,,,,,,,,
null,,color_black4,1696722,,,,,,,,black_plus_sign,,,null,,,,,,,,,,,,,,,,,,,
null,,learn_phase(without_color)4,1700226,,,,,,,,black_plus_sign,,,null,object_11b.png,object_09a.png,,,,,,,,,,,,,,,,,
null,,black_cross(without_color)4,1700969,,,,,,,,blue,,,null,object_11b.png,object_09a.png,,,,,,,,,,,,,,,,,
null,,rt_plussign_withcolor4,1701470,,,,,,,,blue,,,null,object_11b.png,object_09a.png,,,,,,,,,,,,,,,,,
1431.800000011921,,rt_thecrossant_black4,1702733,,,,,,,,black_plus_sign,,,49,,,1,,,,,,,1,,,,,,,,,
null,,color_black4,1702835,,,,,,,,black_plus_sign,,,null,,,,,,,,,,,,,,,,,,,
null,,learn_phase(without_color)4,1706338,,,,,,,,black_plus_sign,,,null,object_11c.png,object_06b.png,,,,,,,,,,,,,,,,,
null,,black_cross(without_color)4,1706766,,,,,,,,green,,,null,object_11c.png,object_06b.png,,,,,,,,,,,,,,,,,
null,,rt_plussign_withcolor4,1707268,,,,,,,,green,,,null,object_11c.png,object_06b.png,,,,,,,,,,,,,,,,,
1122.4000000059605,,rt_thecrossant_black4,1708843,,,,,,,,black_plus_sign,,,50,,,1,,,,,,,1,,,,,,,,,
null,,color_black4,1708945,,,,,,,,black_plus_sign,,,null,,,,,,,,,,,,,,,,,,,
null,,learn_phase(without_color)4,1712448,,,,,,,,black_plus_sign,,,null,object_02a.png,object_10b.png,,,,,,,,,,,,,,,,,
null,,black_cross(without_color)4,1713261,,,,,,,,green,,,null,object_02a.png,object_10b.png,,,,,,,,,,,,,,,,,
null,,rt_plussign_withcolor4,1713763,,,,,,,,green,,,null,object_02a.png,object_10b.png,,,,,,,,,,,,,,,,,
868.1999999880791,,rt_thecrossant_black4,1714955,,,,,,,,black_plus_sign,,,50,,,1,,,,,,,1,,,,,,,,,
null,,color_black4,1715057,,,,,,,,black_plus_sign,,,null,,,,,,,,,,,,,,,,,,,
null,,thebreak,1715159,,,,,,,,<p></p>,,,null,,,,,,,,,,,,,,,,,,,
1274,,intro_0,1716434,,,,,,,,instruct,,,32,,,,,,,,,,,,,,,,,,,
1804.0999999940395,,directmemory_phase4,1718239,,,,,,,,object_02b.png,,,49,,,0,,object_13a.png,object_01b.png,object_09c.png,object_01b.png,,0.43956043956043955,0,,,,,,,,
3307.5,,directmemory_phase4,1721548,,,,,,,,object_02a.png,,,51,,,1,,object_05c.png,object_08a.png,object_02c.png,object_02c.png,,0.44565217391304346,1,,,,,,,,
1749,,directmemory_phase4,1723299,,,,,,,,object_15a.png,,,51,,,1,,object_04c.png,object_02c.png,object_01b.png,object_01b.png,,0.45161290322580644,1,,,,,,,,
2660.5,,directmemory_phase4,1725961,,,,,,,,object_07a.png,,,50,,,0,,object_01c.png,object_07c.png,object_03b.png,object_03b.png,,0.44680851063829785,0,,,,,,,,
3839,,directmemory_phase4,1729802,,,,,,,,object_14c.png,,,51,,,0,,object_07a.png,object_06c.png,object_10b.png,object_07a.png,,0.4421052631578947,0,,,,,,,,
1958.2000000029802,,directmemory_phase4,1731761,,,,,,,,object_06a.png,,,51,,,1,,object_08a.png,object_13c.png,object_06b.png,object_06b.png,,0.4479166666666667,1,,,,,,,,
1828.199999988079,,directmemory_phase4,1733591,,,,,,,,object_12c.png,,,49,,,1,,object_04a.png,object_07a.png,object_10b.png,object_04a.png,,0.4536082474226804,1,,,,,,,,
1798.2999999970198,,directmemory_phase4,1735391,,,,,,,,object_05b.png,,,50,,,0,,object_15b.png,object_01b.png,object_07b.png,object_07b.png,,0.4489795918367347,0,,,,,,,,
1806.4000000059605,,directmemory_phase4,1737199,,,,,,,,object_10b.png,,,50,,,0,,object_02a.png,object_07c.png,object_12c.png,object_02a.png,,0.4444444444444444,0,,,,,,,,
2246.2999999970198,,directmemory_phase4,1739447,,,,,,,,object_08c.png,,,51,,,1,,object_01b.png,object_14c.png,object_09c.png,object_09c.png,,0.45,1,,,,,,,,
1412.800000011921,,directmemory_phase4,1740861,,,,,,,,object_10c.png,,,49,,,1,,object_07c.png,object_11b.png,object_07b.png,object_07c.png,,0.45544554455445546,1,,,,,,,,
1388,,directmemory_phase4,1742251,,,,,,,,object_11c.png,,,49,,,1,,object_06b.png,object_01b.png,object_14c.png,object_06b.png,,0.46078431372549017,1,,,,,,,,
2748.5,,directmemory_phase4,1745001,,,,,,,,object_10a.png,,,50,,,0,,object_15c.png,object_10c.png,object_08a.png,object_15c.png,,0.4563106796116505,0,,,,,,,,
2574.0999999940395,,directmemory_phase4,1747577,,,,,,,,object_12b.png,,,51,,,0,,object_05a.png,object_05b.png,object_08b.png,object_05a.png,,0.4519230769230769,0,,,,,,,,
1942.2000000029802,,directmemory_phase4,1749520,,,,,,,,object_05c.png,,,50,,,0,,object_09c.png,object_07a.png,object_07b.png,object_09c.png,,0.44761904761904764,0,,,,,,,,
1548.7000000029802,,directmemory_phase4,1751071,,,,,,,,object_01a.png,,,51,,,1,,object_01b.png,object_14a.png,object_07c.png,object_07c.png,,0.4528301886792453,1,,,,,,,,
2407.2999999970198,,directmemory_phase4,1753480,,,,,,,,object_14b.png,,,50,,,0,,object_08a.png,object_04a.png,object_01a.png,object_08a.png,,0.4485981308411215,0,,,,,,,,
3408,,directmemory_phase4,1756889,,,,,,,,object_08b.png,,,49,,,0,,object_04a.png,object_02b.png,object_03a.png,object_03a.png,,0.4444444444444444,0,,,,,,,,
3178.7999999970198,,directmemory_phase4,1760070,,,,,,,,object_03c.png,,,50,,,1,,object_05c.png,object_04c.png,object_06c.png,object_04c.png,,0.44954128440366975,1,,,,,,,,
2439.4000000059605,,directmemory_phase4,1762511,,,,,,,,object_09b.png,,,50,,,1,,object_14c.png,object_04c.png,object_05a.png,object_04c.png,,0.45454545454545453,1,,,,,,,,
2591.7000000029802,,directmemory_phase4,1765104,,,,,,,,object_05a.png,,,51,,,0,,object_06c.png,object_11a.png,object_05c.png,object_11a.png,,0.45045045045045046,0,,,,,,,,
2523.9000000059605,,directmemory_phase4,1767630,,,,,,,,object_15b.png,,,50,,,0,,object_07c.png,object_10c.png,object_04a.png,object_04a.png,,0.44642857142857145,0,,,,,,,,
1807,,directmemory_phase4,1769439,,,,,,,,object_03a.png,,,51,,,0,,object_01c.png,object_06a.png,object_07c.png,object_01c.png,,0.4424778761061947,0,,,,,,,,
2597.5,,directmemory_phase4,1772038,,,,,,,,object_14a.png,,,50,,,0,,object_09c.png,object_09b.png,object_06c.png,object_06c.png,,0.43859649122807015,0,,,,,,,,
2581.7999999970198,,directmemory_phase4,1774621,,,,,,,,object_13b.png,,,51,,,0,,object_06c.png,object_06b.png,object_03c.png,object_06c.png,,0.43478260869565216,0,,,,,,,,
3160,,directmemory_phase4,1777783,,,,,,,,object_13a.png,,,49,,,1,,object_11b.png,object_02a.png,object_14b.png,object_11b.png,,0.4396551724137931,1,,,,,,,,
1937.800000011921,,directmemory_phase4,1779722,,,,,,,,object_09a.png,,,49,,,1,,object_11b.png,object_04a.png,object_03b.png,object_11b.png,,0.4444444444444444,1,,,,,,,,
1894.4000000059605,,directmemory_phase4,1781619,,,,,,,,object_04b.png,,,51,,,1,,object_05a.png,object_10b.png,object_05b.png,object_05b.png,,0.4491525423728814,1,,,,,,,,
2387.4000000059605,,directmemory_phase4,1784008,,,,,,,,object_08a.png,,,51,,,0,,object_01b.png,object_13c.png,object_05c.png,object_13c.png,,0.44537815126050423,0,,,,,,,,
1812.2000000029802,,directmemory_phase4,1785822,,,,,,,,object_12a.png,,,50,,,0,,object_10a.png,object_02a.png,object_14a.png,object_10a.png,,0.44166666666666665,0,,,,,,,,
null,,thebreak,1785925,,,,,,,,<p></p>,,,null,,,,,,,,,,,,,,,,,,,
8563.20000000298,,intro_0,1794490,,,,,,,,instruct,,,32,,,,,,,,,,,,,,,,,,,
49637.90000000596,,intro_1,1844129,,,,,,,,instruct,,,32,,,,,,,,,,,,,,,,,,,
9398.60000000894,,intro_2,1853528,,,,,,,,instruct,,,32,,,,,,,,,,,,,,,,,,,
,,intro_3,1889305,,,,,,,,instruct,,,,,,,,,,,,,,,,,,,,,,
78808.20000000298,,intro_4,1968115,,,,,,,,instruct,,,32,,,,,,,,,,,,,,,,,,,
3164.7999999970198,,inference_phase,1971281,,,,,,,,object_08c.png,,,49,object_05c.png,object_02c.png,1,,,,,object_05c.png,,1,,object_04a.png,,,,,,,
3889.7999999970198,,inference_phase,1975173,,,,,,,,object_15c.png,,,50,object_10b.png,object_12a.png,0,,,,,object_12a.png,,0.5,,object_11b.png,,,,,,,
3027.2999999970198,,inference_phase,1978202,,,,,,,,object_10b.png,,,51,object_02c.png,object_15a.png,0,,,,,object_02c.png,,0.3333333333333333,,object_05b.png,,,,,,,
3287.8999999910593,,inference_phase,1981491,,,,,,,,object_04b.png,,,49,object_06b.png,object_07b.png,0,,,,,object_07b.png,,0.25,,object_13b.png,,,,,,,
1969.4000000059605,,inference_phase,1983462,,,,,,,,object_06a.png,,,49,object_12b.png,object_07c.png,0,,,,,object_11c.png,,0.2,,object_11c.png,,,,,,,
4966.800000011921,,inference_phase,1988430,,,,,,,,object_10c.png,,,49,object_04b.png,object_01a.png,0,,,,,object_01a.png,,0.16666666666666666,,object_03a.png,,,,,,,
2201.2000000029802,,inference_phase,1990633,,,,,,,,object_11a.png,,,49,object_08b.png,object_12b.png,0,,,,,object_12b.png,,0.14285714285714285,,object_09c.png,,,,,,,
3685.300000011921,,inference_phase,1994319,,,,,,,,object_15a.png,,,51,object_14c.png,object_11b.png,0,,,,,object_02b.png,,0.125,,object_02b.png,,,,,,,
2362.6000000089407,,inference_phase,1996684,,,,,,,,object_15b.png,,,49,object_01a.png,object_12c.png,0,,,,,object_12c.png,,0.1111111111111111,,object_07a.png,,,,,,,
2790.7999999970198,,inference_phase,1999476,,,,,,,,object_03c.png,,,50,object_13a.png,object_05a.png,1,,,,,object_09b.png,,0.2,,object_09b.png,,,,,,,
3567.9000000059605,,inference_phase,2003046,,,,,,,,object_13c.png,,,50,object_12b.png,object_14b.png,0,,,,,object_14b.png,,0.18181818181818182,,object_06b.png,,,,,,,
2900.7999999970198,,inference_phase,2005948,,,,,,,,object_14a.png,,,50,object_01b.png,object_02c.png,1,,,,,object_13b.png,,0.25,,object_13b.png,,,,,,,
2298.5,,inference_phase,2008248,,,,,,,,object_09a.png,,,50,object_12b.png,object_06b.png,1,,,,,object_13a.png,,0.3076923076923077,,object_13a.png,,,,,,,
2405.4000000059605,,inference_phase,2010655,,,,,,,,object_14c.png,,,49,object_03a.png,object_15a.png,0,,,,,object_03b.png,,0.2857142857142857,,object_03b.png,,,,,,,
2731.4000000059605,,inference_phase,2013388,,,,,,,,object_01c.png,,,50,object_08b.png,object_14a.png,0,,,,,object_08b.png,,0.26666666666666666,,object_08a.png,,,,,,,
,,survey,2166424,,,,,,,,survey-questions,,,,,,,,,,,,,,,,none,high,No, I was not doing anything else while participating ,I tried to compare the items with other things that looked familiar with other objects ,Yes, some were easier in terms of the colors that were paired while others weren't,nO,No
