rt,responses,trial_type,time_elapsed,identifier_a,identifier_b,identifier_c,tasktype,browser_type,local_time,UTC_time,stimulus,button_pressed,response,key_press,stimulus_left,stimulus_right,accuracy,practice_cumulative_accuracy,stimulus_down_left,stimulus_down_mid,stimulus_down_right,stimulus_correct,prac_weighted_accuracy,cumulative_accuracy,weighted_accuracy,stimulus_middle,problems,smooth,distraction,strategies,easier,similar,comments,detectfocus,breakfocus,completion_code
6729,{worker_id:5e9c8deb90dd470441c7f98e},id_enter,6731,object_03a.png; object_13b.png; object_03c.png; object_04a.png; object_14a.png; object_09c.png; object_05c.png; object_11a.png; object_12c.png; object_01c.png; object_03b.png; object_01b.png; object_07b.png; object_08b.png; object_15a.png,object_02c.png; object_13a.png; object_06c.png; object_04c.png; object_11b.png; object_10a.png; object_02a.png; object_09b.png; object_13c.png; object_09a.png; object_14c.png; object_04b.png; object_11c.png; object_15b.png; object_01a.png,object_02b.png; object_12a.png; object_06b.png; object_14b.png; object_05a.png; object_08c.png; object_07a.png; object_06a.png; object_05b.png; object_07c.png; object_12b.png; object_10b.png; object_08a.png; object_10c.png; object_15c.png,interleaved,Mozilla/5.0 (Windows NT 10.0; Win64; x64) AppleWebKit/537.36 (KHTML, like Gecko) Chrome/136.0.0.0 Safari/537.36,5/8/2025, 3:08:39 PM,2025-05-08 19:08:39.545,,,,,,,,,,,,,,,,,,,,,,,,,,
15477.399999976158,,make_fullscreen,22222,,,,,,,,fullscreen,0,,,,,,,,,,,,,,,,,,,,,,,,
5493.899999976158,,instruct_1,27718,,,,,,,,instruct,0,Next,,,,,,,,,,,,,,,,,,,,,,,
21727.300000071526,,instruct_2,49446,,,,,,,,instruct,1,Next,,,,,,,,,,,,,,,,,,,,,,,
13769.600000023842,,instruct_3,63217,,,,,,,,instruct,1,Next,,,,,,,,,,,,,,,,,,,,,,,
21273,,instruct_4,84492,,,,,,,,instruct,1,Next,,,,,,,,,,,,,,,,,,,,,,,
28838.100000023842,,instruct_5,113331,,,,,,,,instruct,1,Next,,,,,,,,,,,,,,,,,,,,,,,
22396.700000047684,,instruct_6,135729,,,,,,,,instruct,1,Next,,,,,,,,,,,,,,,,,,,,,,,
17574.5,,instruct_7,153304,,,,,,,,instruct,1,Next,,,,,,,,,,,,,,,,,,,,,,,
null,,prac_atten_color_black,154185,,,,,,,,black_plus_sign,,,null,,,,,,,,,,,,,,,,,,,,,,
null,,prac_atten_color,154709,,,,,,,,<p style='position:absolute;top: 50%;right: 50%;transform: translate(50%, -50%);font-size: 125px;color: blue;'>+</p>,,,null,,,,,,,,,,,,,,,,,,,,,,
null,,prac_atten_color_black,156711,,,,,,,,black_plus_sign,,,null,,,,,,,,,,,,,,,,,,,,,,
9415,,attentioncheck_help,166128,,,,,,,,instruct,,,32,,,,,,,,,,,,,,,,,,,,,,
null,,prac_atten_color_black,167008,,,,,,,,black_plus_sign,,,null,,,,,,,,,,,,,,,,,,,,,,
null,,prac_atten_color,167690,,,,,,,,<p style='position:absolute;top: 50%;right: 50%;transform: translate(50%, -50%);font-size: 125px;color: green;'>+</p>,,,null,,,,,,,,,,,,,,,,,,,,,,
17.100000023841858,,prac_atten_color_black,169692,,,,,,,,black_plus_sign,,,50,,,,,,,,,,,,,,,,,,,,,,
null,,prac_atten_color_black,170414,,,,,,,,black_plus_sign,,,null,,,,,,,,,,,,,,,,,,,,,,
576.8999999761581,,prac_atten_color,171027,,,,,,,,<p style='position:absolute;top: 50%;right: 50%;transform: translate(50%, -50%);font-size: 125px;color: green;'>+</p>,,,50,,,,,,,,,,,,,,,,,,,,,,
null,,prac_atten_color_black,173028,,,,,,,,black_plus_sign,,,null,,,,,,,,,,,,,,,,,,,,,,
null,,prac_atten_color_black,173818,,,,,,,,black_plus_sign,,,null,,,,,,,,,,,,,,,,,,,,,,
482.60000002384186,,prac_atten_color,174448,,,,,,,,<p style='position:absolute;top: 50%;right: 50%;transform: translate(50%, -50%);font-size: 125px;color: blue;'>+</p>,,,49,,,,,,,,,,,,,,,,,,,,,,
null,,prac_atten_color_black,176451,,,,,,,,black_plus_sign,,,null,,,,,,,,,,,,,,,,,,,,,,
null,,prac_atten_color_black,177225,,,,,,,,black_plus_sign,,,null,,,,,,,,,,,,,,,,,,,,,,
null,,prac_atten_color,177757,,,,,,,,<p style='position:absolute;top: 50%;right: 50%;transform: translate(50%, -50%);font-size: 125px;color: green;'>+</p>,,,null,,,,,,,,,,,,,,,,,,,,,,
75.29999995231628,,prac_atten_color_black,179759,,,,,,,,black_plus_sign,,,50,,,,,,,,,,,,,,,,,,,,,,
null,,prac_atten_color_black,180632,,,,,,,,black_plus_sign,,,null,,,,,,,,,,,,,,,,,,,,,,
601,,prac_atten_color,181719,,,,,,,,<p style='position:absolute;top: 50%;right: 50%;transform: translate(50%, -50%);font-size: 125px;color: green;'>+</p>,,,50,,,,,,,,,,,,,,,,,,,,,,
null,,prac_atten_color_black,183720,,,,,,,,black_plus_sign,,,null,,,,,,,,,,,,,,,,,,,,,,
null,,prac_atten_color_black,184038,,,,,,,,black_plus_sign,,,null,,,,,,,,,,,,,,,,,,,,,,
569.5,,prac_atten_color,184643,,,,,,,,<p style='position:absolute;top: 50%;right: 50%;transform: translate(50%, -50%);font-size: 125px;color: blue;'>+</p>,,,49,,,,,,,,,,,,,,,,,,,,,,
null,,prac_atten_color_black,186645,,,,,,,,black_plus_sign,,,null,,,,,,,,,,,,,,,,,,,,,,
null,,prac_atten_color_black,187443,,,,,,,,black_plus_sign,,,null,,,,,,,,,,,,,,,,,,,,,,
501.7999999523163,,prac_atten_color,188127,,,,,,,,<p style='position:absolute;top: 50%;right: 50%;transform: translate(50%, -50%);font-size: 125px;color: green;'>+</p>,,,50,,,,,,,,,,,,,,,,,,,,,,
null,,prac_atten_color_black,190129,,,,,,,,black_plus_sign,,,null,,,,,,,,,,,,,,,,,,,,,,
null,,prac_atten_color_black,190848,,,,,,,,black_plus_sign,,,null,,,,,,,,,,,,,,,,,,,,,,
379,,prac_atten_color,191467,,,,,,,,<p style='position:absolute;top: 50%;right: 50%;transform: translate(50%, -50%);font-size: 125px;color: blue;'>+</p>,,,49,,,,,,,,,,,,,,,,,,,,,,
null,,prac_atten_color_black,193468,,,,,,,,black_plus_sign,,,null,,,,,,,,,,,,,,,,,,,,,,
null,,prac_atten_color_black,194253,,,,,,,,black_plus_sign,,,null,,,,,,,,,,,,,,,,,,,,,,
542,,prac_atten_color,195140,,,,,,,,<p style='position:absolute;top: 50%;right: 50%;transform: translate(50%, -50%);font-size: 125px;color: blue;'>+</p>,,,49,,,,,,,,,,,,,,,,,,,,,,
null,,prac_atten_color_black,197141,,,,,,,,black_plus_sign,,,null,,,,,,,,,,,,,,,,,,,,,,
19237,,attentioncheck_feedback,216380,,,,,,,,cross_check_feedback,0,,,,,,,,,,,,,,,,,,,,,,,,
10093.699999928474,,last_instruct,226474,,,,,,,,instruct,,,32,,,,,,,,,,,,,,,,,,,,,,
null,,prac_learn_phase(without_color),229977,,,,,,,,black_plus_sign,,,null,object_01b.png,object_04b.png,,,,,,,,,,,,,,,,,,,,
null,,prac_black_cross(without_color),230896,,,,,,,,green,,,null,object_01b.png,object_04b.png,,,,,,,,,,,,,,,,,,,,
null,,prac_rt_plussign_withcolor,231398,,,,,,,,green,,,null,object_01b.png,object_04b.png,,,,,,,,,,,,,,,,,,,,
937.3999999761581,,prac_rt_thecrossant_black,232483,,,,,,,,black_plus_sign,,,50,,,1,1,,,,,,,,,,,,,,,,,,
null,,prac_color_black,232585,,,,,,,,black_plus_sign,,,null,,,,,,,,,,,,,,,,,,,,,,
null,,prac_learn_phase(without_color),236088,,,,,,,,black_plus_sign,,,null,object_08b.png,object_15b.png,,,,,,,,,,,,,,,,,,,,
null,,black_cross(without_color)1,236855,,,,,,,,green,,,null,object_01b.png,object_04b.png,,,,,,,,,,,,,,,,,,,,
null,,prac_rt_plussign_withcolor,237356,,,,,,,,green,,,null,object_08b.png,object_15b.png,,,,,,,,,,,,,,,,,,,,
null,,prac_rt_thecrossant_black,238955,,,,,,,,black_plus_sign,,,null,,,,1,,,,,,,,,,,,,,,,,,
null,,prac_color_black,239057,,,,,,,,black_plus_sign,,,null,,,,,,,,,,,,,,,,,,,,,,
null,,prac_learn_phase(without_color),242561,,,,,,,,black_plus_sign,,,null,object_12c.png,object_13c.png,,,,,,,,,,,,,,,,,,,,
null,,black_cross(without_color)1,243327,,,,,,,,green,,,null,object_01b.png,object_04b.png,,,,,,,,,,,,,,,,,,,,
null,,prac_rt_plussign_withcolor,243830,,,,,,,,green,,,null,object_12c.png,object_13c.png,,,,,,,,,,,,,,,,,,,,
null,,prac_rt_thecrossant_black,244872,,,,,,,,black_plus_sign,,,null,,,,1,,,,,,,,,,,,,,,,,,
null,,warning_page,249874,,,,,,,,warning,,,null,,,,,,,,,,,,,,,,,,,,,,
null,,prac_color_black,249976,,,,,,,,black_plus_sign,,,null,,,,,,,,,,,,,,,,,,,,,,
null,,prac_learn_phase(without_color),253479,,,,,,,,black_plus_sign,,,null,object_01c.png,object_09a.png,,,,,,,,,,,,,,,,,,,,
null,,black_cross(without_color)1,254245,,,,,,,,green,,,null,object_01b.png,object_04b.png,,,,,,,,,,,,,,,,,,,,
null,,prac_rt_plussign_withcolor,254747,,,,,,,,blue,,,null,object_01c.png,object_09a.png,,,,,,,,,,,,,,,,,,,,
1852.1000000238419,,prac_rt_thecrossant_black,255922,,,,,,,,black_plus_sign,,,49,,,1,1,,,,,,,,,,,,,,,,,,
null,,prac_color_black,256024,,,,,,,,black_plus_sign,,,null,,,,,,,,,,,,,,,,,,,,,,
11846.899999976158,,instruct_dir_01,267873,,,,,,,,instruct,0,Next,,,,,,,,,,,,,,,,,,,,,,,
4676.799999952316,,instruct_dir_2,272551,,,,,,,,instruct,1,Next,,,,,,,,,,,,,,,,,,,,,,,
4906.5,,instruct_dir_3,277458,,,,,,,,instruct,1,Next,,,,,,,,,,,,,,,,,,,,,,,
8022.799999952316,,instruct_dir_4,285482,,,,,,,,instruct,1,Start,,,,,,,,,,,,,,,,,,,,,,,
null,,thebreak,285584,,,,,,,,<p></p>,,,null,,,,,,,,,,,,,,,,,,,,,,
5645.400000095367,,intro_0,291230,,,,,,,,instruct,,,32,,,,,,,,,,,,,,,,,,,,,,
3074.3000000715256,,prac_directmemory_phase,294305,,,,,,,,practice/object_01b.png,,,50,,,1,,practice/object_04a.png,practice/object_01a.png,practice/object_02a.png,practice/object_01a.png,1,1,,,,,,,,,,,,
2415.7999999523163,,prac_directmemory_phase,296723,,,,,,,,practice/object_04b.png,,,51,,,1,,practice/object_01a.png,practice/object_02a.png,practice/object_04a.png,practice/object_04a.png,1,1,,,,,,,,,,,,
3473.100000023842,,prac_directmemory_phase,300197,,,,,,,,practice/object_02b.png,,,50,,,1,,practice/object_03a.png,practice/object_02a.png,practice/object_01a.png,practice/object_02a.png,1,1,,,,,,,,,,,,
1957.2999999523163,,prac_directmemory_phase,302156,,,,,,,,practice/object_03b.png,,,50,,,0,,practice/object_04a.png,practice/object_02a.png,practice/object_03a.png,practice/object_03a.png,0,0.75,,,,,,,,,,,,
14322,,practice_feedback,316480,,,,,,,,practice_feedback,0,,,,,,,,,,,,,,,,,,,,,,,,
3571.600000023842,,last_instruct,320052,,,,,,,,instruct,,,32,,,,,,,,,,,,,,,,,,,,,,
null,,prac_learn_phase(without_color),323553,,,,,,,,black_plus_sign,,,null,object_01b.png,object_04b.png,,,,,,,,,,,,,,,,,,,,
null,,prac_black_cross(without_color),324035,,,,,,,,green,,,null,object_01b.png,object_04b.png,,,,,,,,,,,,,,,,,,,,
null,,prac_rt_plussign_withcolor,324537,,,,,,,,green,,,null,object_01b.png,object_04b.png,,,,,,,,,,,,,,,,,,,,
null,,prac_rt_thecrossant_black,326059,,,,,,,,black_plus_sign,,,null,,,,1,,,,,,,,,,,,,,,,,,
null,,prac_color_black,326160,,,,,,,,black_plus_sign,,,null,,,,,,,,,,,,,,,,,,,,,,
null,,prac_learn_phase(without_color),329662,,,,,,,,black_plus_sign,,,null,object_08b.png,object_15b.png,,,,,,,,,,,,,,,,,,,,
null,,black_cross(without_color)1,330429,,,,,,,,green,,,null,object_01b.png,object_04b.png,,,,,,,,,,,,,,,,,,,,
null,,prac_rt_plussign_withcolor,330931,,,,,,,,green,,,null,object_08b.png,object_15b.png,,,,,,,,,,,,,,,,,,,,
null,,prac_rt_thecrossant_black,332128,,,,,,,,black_plus_sign,,,null,,,,1,,,,,,,,,,,,,,,,,,
null,,warning_page,337130,,,,,,,,warning,,,null,,,,,,,,,,,,,,,,,,,,,,
null,,prac_color_black,337231,,,,,,,,black_plus_sign,,,null,,,,,,,,,,,,,,,,,,,,,,
null,,prac_learn_phase(without_color),340734,,,,,,,,black_plus_sign,,,null,object_12c.png,object_13c.png,,,,,,,,,,,,,,,,,,,,
null,,black_cross(without_color)1,341501,,,,,,,,green,,,null,object_01b.png,object_04b.png,,,,,,,,,,,,,,,,,,,,
null,,prac_rt_plussign_withcolor,342002,,,,,,,,green,,,null,object_12c.png,object_13c.png,,,,,,,,,,,,,,,,,,,,
1082.3999999761581,,prac_rt_thecrossant_black,343558,,,,,,,,black_plus_sign,,,50,,,1,1,,,,,,,,,,,,,,,,,,
null,,prac_color_black,343660,,,,,,,,black_plus_sign,,,null,,,,,,,,,,,,,,,,,,,,,,
null,,prac_learn_phase(without_color),347162,,,,,,,,black_plus_sign,,,null,object_01c.png,object_09a.png,,,,,,,,,,,,,,,,,,,,
null,,black_cross(without_color)1,347929,,,,,,,,green,,,null,object_01b.png,object_04b.png,,,,,,,,,,,,,,,,,,,,
null,,prac_rt_plussign_withcolor,348430,,,,,,,,blue,,,null,object_01c.png,object_09a.png,,,,,,,,,,,,,,,,,,,,
657.1000000238419,,prac_rt_thecrossant_black,350022,,,,,,,,black_plus_sign,,,49,,,1,1,,,,,,,,,,,,,,,,,,
null,,prac_color_black,350124,,,,,,,,black_plus_sign,,,null,,,,,,,,,,,,,,,,,,,,,,
13008.5,,instruct_dir_01,363133,,,,,,,,instruct,0,Next,,,,,,,,,,,,,,,,,,,,,,,
6209,,instruct_dir_2,369343,,,,,,,,instruct,1,Next,,,,,,,,,,,,,,,,,,,,,,,
2906.5,,instruct_dir_3,372251,,,,,,,,instruct,1,Next,,,,,,,,,,,,,,,,,,,,,,,
3147.5,,instruct_dir_4,375399,,,,,,,,instruct,1,Start,,,,,,,,,,,,,,,,,,,,,,,
null,,thebreak,375500,,,,,,,,<p></p>,,,null,,,,,,,,,,,,,,,,,,,,,,
3024.8000000715256,,intro_0,378526,,,,,,,,instruct,,,32,,,,,,,,,,,,,,,,,,,,,,
1657.5,,prac_directmemory_phase,380184,,,,,,,,practice/object_01b.png,,,50,,,1,,practice/object_04a.png,practice/object_01a.png,practice/object_02a.png,practice/object_01a.png,1,1,,,,,,,,,,,,
2352.899999976158,,prac_directmemory_phase,382538,,,,,,,,practice/object_04b.png,,,51,,,1,,practice/object_01a.png,practice/object_02a.png,practice/object_04a.png,practice/object_04a.png,1,1,,,,,,,,,,,,
2730.8000000715256,,prac_directmemory_phase,385270,,,,,,,,practice/object_02b.png,,,50,,,1,,practice/object_03a.png,practice/object_02a.png,practice/object_01a.png,practice/object_02a.png,1,1,,,,,,,,,,,,
2688,,prac_directmemory_phase,387960,,,,,,,,practice/object_03b.png,,,51,,,1,,practice/object_04a.png,practice/object_02a.png,practice/object_03a.png,practice/object_03a.png,1,1,,,,,,,,,,,,
2580.7000000476837,,practice_feedback,390541,,,,,,,,practice_feedback,1,,,,,,,,,,,,,,,,,,,,,,,,
18249,,proceed_actualTask,408791,,,,,,,,proceed_actualTask,1,Continue,,,,,,,,,,,,,,,,,,,,,,,
12910.399999976158,,last_inst,421702,,,,,,,,last_inst,,,32,,,,,,,,,,,,,,,,,,,,,,
null,,learn_phase(without_color)1,425203,,,,,,,,black_plus_sign,,,null,object_01b.png,object_04b.png,,,,,,,,,,,,,,,,,,,,
null,,black_cross(without_color)1,425971,,,,,,,,green,,,null,object_01b.png,object_04b.png,,,,,,,,,,,,,,,,,,,,
null,,rt_plussign_withcolor1,426472,,,,,,,,green,,,null,object_01b.png,object_04b.png,,,,,,,,,,,,,,,,,,,,
597.1000000238419,,rt_thecrossant_black1,427709,,,,,,,,black_plus_sign,,,50,,,1,,,,,,,1,,,,,,,,,,,,
null,,color_black1,427812,,,,,,,,black_plus_sign,,,null,,,,,,,,,,,,,,,,,,,,,,
null,,learn_phase(without_color)1,431314,,,,,,,,black_plus_sign,,,null,object_08b.png,object_15b.png,,,,,,,,,,,,,,,,,,,,
null,,black_cross(without_color)1,431928,,,,,,,,blue,,,null,object_08b.png,object_15b.png,,,,,,,,,,,,,,,,,,,,
null,,rt_plussign_withcolor1,432430,,,,,,,,blue,,,null,object_08b.png,object_15b.png,,,,,,,,,,,,,,,,,,,,
null,,rt_thecrossant_black1,433828,,,,,,,,black_plus_sign,,,null,,,,,,,,,,1,,,,,,,,,,,,
null,,color_black1,433931,,,,,,,,black_plus_sign,,,null,,,,,,,,,,,,,,,,,,,,,,
null,,learn_phase(without_color)1,437432,,,,,,,,black_plus_sign,,,null,object_12c.png,object_13c.png,,,,,,,,,,,,,,,,,,,,
null,,black_cross(without_color)1,438328,,,,,,,,blue,,,null,object_12c.png,object_13c.png,,,,,,,,,,,,,,,,,,,,
465.7999999523163,,rt_plussign_withcolor1,438829,,,,,,,,blue,,,49,object_12c.png,object_13c.png,,,,,,,,,,,,,,,,,,,,
null,,rt_thecrossant_black1,439938,,,,,,,,black_plus_sign,,,null,,,1,,,,,,,1,,,,,,,,,,,,
null,,color_black1,440039,,,,,,,,black_plus_sign,,,null,,,,,,,,,,,,,,,,,,,,,,
null,,learn_phase(without_color)1,443540,,,,,,,,black_plus_sign,,,null,object_01c.png,object_09a.png,,,,,,,,,,,,,,,,,,,,
null,,black_cross(without_color)1,444595,,,,,,,,green,,,null,object_01c.png,object_09a.png,,,,,,,,,,,,,,,,,,,,
null,,rt_plussign_withcolor1,445097,,,,,,,,green,,,null,object_01c.png,object_09a.png,,,,,,,,,,,,,,,,,,,,
1329.2999999523163,,rt_thecrossant_black1,446047,,,,,,,,black_plus_sign,,,50,,,1,,,,,,,1,,,,,,,,,,,,
null,,color_black1,446149,,,,,,,,black_plus_sign,,,null,,,,,,,,,,,,,,,,,,,,,,
null,,learn_phase(without_color)1,449651,,,,,,,,black_plus_sign,,,null,object_03b.png,object_14c.png,,,,,,,,,,,,,,,,,,,,
null,,black_cross(without_color)1,450489,,,,,,,,blue,,,null,object_03b.png,object_14c.png,,,,,,,,,,,,,,,,,,,,
null,,rt_plussign_withcolor1,450991,,,,,,,,blue,,,null,object_03b.png,object_14c.png,,,,,,,,,,,,,,,,,,,,
1159.3999999761581,,rt_thecrossant_black1,452158,,,,,,,,black_plus_sign,,,49,,,1,,,,,,,1,,,,,,,,,,,,
null,,color_black1,452260,,,,,,,,black_plus_sign,,,null,,,,,,,,,,,,,,,,,,,,,,
null,,learn_phase(without_color)1,455762,,,,,,,,black_plus_sign,,,null,object_09a.png,object_07c.png,,,,,,,,,,,,,,,,,,,,
null,,black_cross(without_color)1,456347,,,,,,,,green,,,null,object_09a.png,object_07c.png,,,,,,,,,,,,,,,,,,,,
null,,rt_plussign_withcolor1,456848,,,,,,,,green,,,null,object_09a.png,object_07c.png,,,,,,,,,,,,,,,,,,,,
948.8000000715256,,rt_thecrossant_black1,458268,,,,,,,,black_plus_sign,,,50,,,1,,,,,,,1,,,,,,,,,,,,
null,,color_black1,458370,,,,,,,,black_plus_sign,,,null,,,,,,,,,,,,,,,,,,,,,,
null,,learn_phase(without_color)1,461872,,,,,,,,black_plus_sign,,,null,object_14a.png,object_11b.png,,,,,,,,,,,,,,,,,,,,
null,,black_cross(without_color)1,462446,,,,,,,,green,,,null,object_14a.png,object_11b.png,,,,,,,,,,,,,,,,,,,,
null,,rt_plussign_withcolor1,462949,,,,,,,,green,,,null,object_14a.png,object_11b.png,,,,,,,,,,,,,,,,,,,,
728.4000000953674,,rt_thecrossant_black1,464378,,,,,,,,black_plus_sign,,,50,,,1,,,,,,,1,,,,,,,,,,,,
null,,color_black1,464480,,,,,,,,black_plus_sign,,,null,,,,,,,,,,,,,,,,,,,,,,
null,,learn_phase(without_color)1,467982,,,,,,,,black_plus_sign,,,null,object_11c.png,object_08a.png,,,,,,,,,,,,,,,,,,,,
null,,black_cross(without_color)1,468405,,,,,,,,green,,,null,object_11c.png,object_08a.png,,,,,,,,,,,,,,,,,,,,
null,,rt_plussign_withcolor1,468907,,,,,,,,green,,,null,object_11c.png,object_08a.png,,,,,,,,,,,,,,,,,,,,
null,,rt_thecrossant_black1,470489,,,,,,,,black_plus_sign,,,null,,,,,,,,,,1,,,,,,,,,,,,
null,,color_black1,470591,,,,,,,,black_plus_sign,,,null,,,,,,,,,,,,,,,,,,,,,,
null,,learn_phase(without_color)1,474093,,,,,,,,black_plus_sign,,,null,object_06c.png,object_06b.png,,,,,,,,,,,,,,,,,,,,
null,,black_cross(without_color)1,475068,,,,,,,,green,,,null,object_06c.png,object_06b.png,,,,,,,,,,,,,,,,,,,,
null,,rt_plussign_withcolor1,475570,,,,,,,,green,,,null,object_06c.png,object_06b.png,,,,,,,,,,,,,,,,,,,,
523.1000000238419,,rt_thecrossant_black1,476600,,,,,,,,black_plus_sign,,,50,,,1,,,,,,,1,,,,,,,,,,,,
null,,color_black1,476702,,,,,,,,black_plus_sign,,,null,,,,,,,,,,,,,,,,,,,,,,
null,,learn_phase(without_color)1,480205,,,,,,,,black_plus_sign,,,null,object_01a.png,object_15c.png,,,,,,,,,,,,,,,,,,,,
null,,black_cross(without_color)1,481260,,,,,,,,blue,,,null,object_01a.png,object_15c.png,,,,,,,,,,,,,,,,,,,,
499.2000000476837,,rt_plussign_withcolor1,481761,,,,,,,,blue,,,49,object_01a.png,object_15c.png,,,,,,,,,,,,,,,,,,,,
null,,rt_thecrossant_black1,482712,,,,,,,,black_plus_sign,,,null,,,1,,,,,,,1,,,,,,,,,,,,
null,,color_black1,482813,,,,,,,,black_plus_sign,,,null,,,,,,,,,,,,,,,,,,,,,,
null,,learn_phase(without_color)1,486316,,,,,,,,black_plus_sign,,,null,object_04b.png,object_10b.png,,,,,,,,,,,,,,,,,,,,
null,,black_cross(without_color)1,486825,,,,,,,,blue,,,null,object_04b.png,object_10b.png,,,,,,,,,,,,,,,,,,,,
null,,rt_plussign_withcolor1,487328,,,,,,,,blue,,,null,object_04b.png,object_10b.png,,,,,,,,,,,,,,,,,,,,
1315.3999999761581,,rt_thecrossant_black1,488822,,,,,,,,black_plus_sign,,,49,,,1,,,,,,,1,,,,,,,,,,,,
null,,color_black1,488923,,,,,,,,black_plus_sign,,,null,,,,,,,,,,,,,,,,,,,,,,
null,,learn_phase(without_color)1,492425,,,,,,,,black_plus_sign,,,null,object_15b.png,object_10c.png,,,,,,,,,,,,,,,,,,,,
null,,black_cross(without_color)1,493124,,,,,,,,blue,,,null,object_15b.png,object_10c.png,,,,,,,,,,,,,,,,,,,,
null,,rt_plussign_withcolor1,493625,,,,,,,,blue,,,null,object_15b.png,object_10c.png,,,,,,,,,,,,,,,,,,,,
800.8999999761581,,rt_thecrossant_black1,494930,,,,,,,,black_plus_sign,,,49,,,1,,,,,,,1,,,,,,,,,,,,
null,,color_black1,495031,,,,,,,,black_plus_sign,,,null,,,,,,,,,,,,,,,,,,,,,,
null,,learn_phase(without_color)1,498533,,,,,,,,black_plus_sign,,,null,object_03a.png,object_02c.png,,,,,,,,,,,,,,,,,,,,
null,,black_cross(without_color)1,499320,,,,,,,,green,,,null,object_03a.png,object_02c.png,,,,,,,,,,,,,,,,,,,,
433,,rt_plussign_withcolor1,499822,,,,,,,,green,,,50,object_03a.png,object_02c.png,,,,,,,,,,,,,,,,,,,,
null,,rt_thecrossant_black1,501039,,,,,,,,black_plus_sign,,,null,,,1,,,,,,,1,,,,,,,,,,,,
null,,color_black1,501140,,,,,,,,black_plus_sign,,,null,,,,,,,,,,,,,,,,,,,,,,
null,,learn_phase(without_color)1,504642,,,,,,,,black_plus_sign,,,null,object_02a.png,object_07a.png,,,,,,,,,,,,,,,,,,,,
null,,black_cross(without_color)1,505155,,,,,,,,green,,,null,object_02a.png,object_07a.png,,,,,,,,,,,,,,,,,,,,
null,,rt_plussign_withcolor1,505657,,,,,,,,green,,,null,object_02a.png,object_07a.png,,,,,,,,,,,,,,,,,,,,
1581.3999999761581,,rt_thecrossant_black1,507146,,,,,,,,black_plus_sign,,,50,,,1,,,,,,,1,,,,,,,,,,,,
null,,color_black1,507248,,,,,,,,black_plus_sign,,,null,,,,,,,,,,,,,,,,,,,,,,
null,,learn_phase(without_color)1,510751,,,,,,,,black_plus_sign,,,null,object_15a.png,object_01a.png,,,,,,,,,,,,,,,,,,,,
null,,black_cross(without_color)1,511346,,,,,,,,green,,,null,object_15a.png,object_01a.png,,,,,,,,,,,,,,,,,,,,
null,,rt_plussign_withcolor1,511849,,,,,,,,green,,,null,object_15a.png,object_01a.png,,,,,,,,,,,,,,,,,,,,
644.8000000715256,,rt_thecrossant_black1,513257,,,,,,,,black_plus_sign,,,50,,,1,,,,,,,1,,,,,,,,,,,,
null,,color_black1,513359,,,,,,,,black_plus_sign,,,null,,,,,,,,,,,,,,,,,,,,,,
null,,learn_phase(without_color)1,516861,,,,,,,,black_plus_sign,,,null,object_11b.png,object_05a.png,,,,,,,,,,,,,,,,,,,,
null,,black_cross(without_color)1,517939,,,,,,,,blue,,,null,object_11b.png,object_05a.png,,,,,,,,,,,,,,,,,,,,
443.2000000476837,,rt_plussign_withcolor1,518440,,,,,,,,blue,,,49,object_11b.png,object_05a.png,,,,,,,,,,,,,,,,,,,,
null,,rt_thecrossant_black1,519366,,,,,,,,black_plus_sign,,,null,,,1,,,,,,,1,,,,,,,,,,,,
null,,color_black1,519468,,,,,,,,black_plus_sign,,,null,,,,,,,,,,,,,,,,,,,,,,
null,,learn_phase(without_color)1,522970,,,,,,,,black_plus_sign,,,null,object_04c.png,object_14b.png,,,,,,,,,,,,,,,,,,,,
null,,black_cross(without_color)1,523820,,,,,,,,blue,,,null,object_04c.png,object_14b.png,,,,,,,,,,,,,,,,,,,,
null,,rt_plussign_withcolor1,524321,,,,,,,,blue,,,null,object_04c.png,object_14b.png,,,,,,,,,,,,,,,,,,,,
1248.2999999523163,,rt_thecrossant_black1,525475,,,,,,,,black_plus_sign,,,49,,,1,,,,,,,1,,,,,,,,,,,,
null,,color_black1,525577,,,,,,,,black_plus_sign,,,null,,,,,,,,,,,,,,,,,,,,,,
null,,learn_phase(without_color)1,529080,,,,,,,,black_plus_sign,,,null,object_05c.png,object_02a.png,,,,,,,,,,,,,,,,,,,,
null,,black_cross(without_color)1,530165,,,,,,,,green,,,null,object_05c.png,object_02a.png,,,,,,,,,,,,,,,,,,,,
492.89999997615814,,rt_plussign_withcolor1,530667,,,,,,,,green,,,50,object_05c.png,object_02a.png,,,,,,,,,,,,,,,,,,,,
null,,rt_thecrossant_black1,531586,,,,,,,,black_plus_sign,,,null,,,1,,,,,,,1,,,,,,,,,,,,
null,,color_black1,531688,,,,,,,,black_plus_sign,,,null,,,,,,,,,,,,,,,,,,,,,,
null,,learn_phase(without_color)1,535190,,,,,,,,black_plus_sign,,,null,object_10a.png,object_08c.png,,,,,,,,,,,,,,,,,,,,
null,,black_cross(without_color)1,535625,,,,,,,,green,,,null,object_10a.png,object_08c.png,,,,,,,,,,,,,,,,,,,,
null,,rt_plussign_withcolor1,536126,,,,,,,,green,,,null,object_10a.png,object_08c.png,,,,,,,,,,,,,,,,,,,,
1398.7999999523163,,rt_thecrossant_black1,537696,,,,,,,,black_plus_sign,,,50,,,1,,,,,,,1,,,,,,,,,,,,
null,,color_black1,537797,,,,,,,,black_plus_sign,,,null,,,,,,,,,,,,,,,,,,,,,,
null,,learn_phase(without_color)1,541300,,,,,,,,black_plus_sign,,,null,object_07b.png,object_11c.png,,,,,,,,,,,,,,,,,,,,
null,,black_cross(without_color)1,542077,,,,,,,,blue,,,null,object_07b.png,object_11c.png,,,,,,,,,,,,,,,,,,,,
489.7000000476837,,rt_plussign_withcolor1,542578,,,,,,,,blue,,,49,object_07b.png,object_11c.png,,,,,,,,,,,,,,,,,,,,
null,,rt_thecrossant_black1,543805,,,,,,,,black_plus_sign,,,null,,,1,,,,,,,1,,,,,,,,,,,,
null,,color_black1,543908,,,,,,,,black_plus_sign,,,null,,,,,,,,,,,,,,,,,,,,,,
null,,learn_phase(without_color)1,547409,,,,,,,,black_plus_sign,,,null,object_14c.png,object_12b.png,,,,,,,,,,,,,,,,,,,,
null,,black_cross(without_color)1,548260,,,,,,,,green,,,null,object_14c.png,object_12b.png,,,,,,,,,,,,,,,,,,,,
null,,rt_plussign_withcolor1,548762,,,,,,,,green,,,null,object_14c.png,object_12b.png,,,,,,,,,,,,,,,,,,,,
1221.7999999523163,,rt_thecrossant_black1,549914,,,,,,,,black_plus_sign,,,50,,,1,,,,,,,1,,,,,,,,,,,,
null,,color_black1,550017,,,,,,,,black_plus_sign,,,null,,,,,,,,,,,,,,,,,,,,,,
null,,learn_phase(without_color)1,553519,,,,,,,,black_plus_sign,,,null,object_09b.png,object_06a.png,,,,,,,,,,,,,,,,,,,,
null,,black_cross(without_color)1,554219,,,,,,,,blue,,,null,object_09b.png,object_06a.png,,,,,,,,,,,,,,,,,,,,
322.2000000476837,,rt_plussign_withcolor1,554721,,,,,,,,blue,,,49,object_09b.png,object_06a.png,,,,,,,,,,,,,,,,,,,,
null,,rt_thecrossant_black1,556025,,,,,,,,black_plus_sign,,,null,,,1,,,,,,,1,,,,,,,,,,,,
null,,color_black1,556126,,,,,,,,black_plus_sign,,,null,,,,,,,,,,,,,,,,,,,,,,
null,,learn_phase(without_color)1,559628,,,,,,,,black_plus_sign,,,null,object_11a.png,object_09b.png,,,,,,,,,,,,,,,,,,,,
null,,black_cross(without_color)1,560603,,,,,,,,blue,,,null,object_11a.png,object_09b.png,,,,,,,,,,,,,,,,,,,,
null,,rt_plussign_withcolor1,561104,,,,,,,,blue,,,null,object_11a.png,object_09b.png,,,,,,,,,,,,,,,,,,,,
831.7000000476837,,rt_thecrossant_black1,562133,,,,,,,,black_plus_sign,,,49,,,1,,,,,,,1,,,,,,,,,,,,
null,,color_black1,562235,,,,,,,,black_plus_sign,,,null,,,,,,,,,,,,,,,,,,,,,,
null,,learn_phase(without_color)1,565738,,,,,,,,black_plus_sign,,,null,object_13a.png,object_12a.png,,,,,,,,,,,,,,,,,,,,
null,,black_cross(without_color)1,566361,,,,,,,,blue,,,null,object_13a.png,object_12a.png,,,,,,,,,,,,,,,,,,,,
477.2000000476837,,rt_plussign_withcolor1,566862,,,,,,,,blue,,,49,object_13a.png,object_12a.png,,,,,,,,,,,,,,,,,,,,
null,,rt_thecrossant_black1,568244,,,,,,,,black_plus_sign,,,null,,,1,,,,,,,1,,,,,,,,,,,,
null,,color_black1,568346,,,,,,,,black_plus_sign,,,null,,,,,,,,,,,,,,,,,,,,,,
null,,learn_phase(without_color)1,571848,,,,,,,,black_plus_sign,,,null,object_13b.png,object_13a.png,,,,,,,,,,,,,,,,,,,,
null,,black_cross(without_color)1,572518,,,,,,,,green,,,null,object_13b.png,object_13a.png,,,,,,,,,,,,,,,,,,,,
null,,rt_plussign_withcolor1,573019,,,,,,,,green,,,null,object_13b.png,object_13a.png,,,,,,,,,,,,,,,,,,,,
1203,,rt_thecrossant_black1,574354,,,,,,,,black_plus_sign,,,50,,,1,,,,,,,1,,,,,,,,,,,,
null,,color_black1,574456,,,,,,,,black_plus_sign,,,null,,,,,,,,,,,,,,,,,,,,,,
null,,learn_phase(without_color)1,577958,,,,,,,,black_plus_sign,,,null,object_02c.png,object_02b.png,,,,,,,,,,,,,,,,,,,,
null,,black_cross(without_color)1,578830,,,,,,,,blue,,,null,object_02c.png,object_02b.png,,,,,,,,,,,,,,,,,,,,
427,,rt_plussign_withcolor1,579332,,,,,,,,blue,,,49,object_02c.png,object_02b.png,,,,,,,,,,,,,,,,,,,,
null,,rt_thecrossant_black1,580465,,,,,,,,black_plus_sign,,,null,,,1,,,,,,,1,,,,,,,,,,,,
null,,color_black1,580568,,,,,,,,black_plus_sign,,,null,,,,,,,,,,,,,,,,,,,,,,
null,,learn_phase(without_color)1,584070,,,,,,,,black_plus_sign,,,null,object_04a.png,object_04c.png,,,,,,,,,,,,,,,,,,,,
null,,black_cross(without_color)1,584785,,,,,,,,green,,,null,object_04a.png,object_04c.png,,,,,,,,,,,,,,,,,,,,
411.39999997615814,,rt_plussign_withcolor1,585287,,,,,,,,green,,,50,object_04a.png,object_04c.png,,,,,,,,,,,,,,,,,,,,
null,,rt_thecrossant_black1,586576,,,,,,,,black_plus_sign,,,null,,,1,,,,,,,1,,,,,,,,,,,,
null,,color_black1,586678,,,,,,,,black_plus_sign,,,null,,,,,,,,,,,,,,,,,,,,,,
null,,learn_phase(without_color)1,590180,,,,,,,,black_plus_sign,,,null,object_13c.png,object_05b.png,,,,,,,,,,,,,,,,,,,,
null,,black_cross(without_color)1,590690,,,,,,,,green,,,null,object_13c.png,object_05b.png,,,,,,,,,,,,,,,,,,,,
null,,rt_plussign_withcolor1,591192,,,,,,,,green,,,null,object_13c.png,object_05b.png,,,,,,,,,,,,,,,,,,,,
1130.2999999523163,,rt_thecrossant_black1,592688,,,,,,,,black_plus_sign,,,50,,,1,,,,,,,1,,,,,,,,,,,,
null,,color_black1,592790,,,,,,,,black_plus_sign,,,null,,,,,,,,,,,,,,,,,,,,,,
null,,learn_phase(without_color)1,596292,,,,,,,,black_plus_sign,,,null,object_09c.png,object_10a.png,,,,,,,,,,,,,,,,,,,,
null,,black_cross(without_color)1,597279,,,,,,,,blue,,,null,object_09c.png,object_10a.png,,,,,,,,,,,,,,,,,,,,
330.5,,rt_plussign_withcolor1,597780,,,,,,,,blue,,,49,object_09c.png,object_10a.png,,,,,,,,,,,,,,,,,,,,
null,,rt_thecrossant_black1,598797,,,,,,,,black_plus_sign,,,null,,,1,,,,,,,1,,,,,,,,,,,,
null,,color_black1,598899,,,,,,,,black_plus_sign,,,null,,,,,,,,,,,,,,,,,,,,,,
null,,learn_phase(without_color)1,602402,,,,,,,,black_plus_sign,,,null,object_03c.png,object_06c.png,,,,,,,,,,,,,,,,,,,,
null,,black_cross(without_color)1,602936,,,,,,,,green,,,null,object_03c.png,object_06c.png,,,,,,,,,,,,,,,,,,,,
null,,rt_plussign_withcolor1,603449,,,,,,,,green,,,null,object_03c.png,object_06c.png,,,,,,,,,,,,,,,,,,,,
1794.1999999284744,,rt_thecrossant_black1,604918,,,,,,,,black_plus_sign,,,49,,,0,,,,,,,0.9642857142857143,,,,,,,,,,,,
null,,color_black1,605020,,,,,,,,black_plus_sign,,,null,,,,,,,,,,,,,,,,,,,,,,
null,,thebreak,605123,,,,,,,,<p></p>,,,null,,,,,,,,,,,,,,,,,,,,,,
1442.2999999523163,,intro_0,606567,,,,,,,,instruct,,,32,,,,,,,,,,,,,,,,,,,,,,
5118,,directmemory_phase1,611686,,,,,,,,object_01a.png,,,50,,,1,,object_05c.png,object_15a.png,object_14a.png,object_15a.png,,1,1,,,,,,,,,,,
3339.5,,directmemory_phase1,615027,,,,,,,,object_05a.png,,,50,,,1,,object_13c.png,object_11b.png,object_11c.png,object_11b.png,,1,1,,,,,,,,,,,
3361.899999976158,,directmemory_phase1,618390,,,,,,,,object_04c.png,,,49,,,1,,object_04a.png,object_13b.png,object_08b.png,object_04a.png,,1,1,,,,,,,,,,,
408,,directmemory_phase1,618800,,,,,,,,object_15b.png,,,49,,,1,,object_08b.png,object_07b.png,object_01b.png,object_08b.png,,1,1,,,,,,,,,,,
4578.699999928474,,directmemory_phase1,623381,,,,,,,,object_10b.png,,,51,,,0,,object_02a.png,object_04b.png,object_09a.png,object_04b.png,,0.8,0,,,,,,,,,,,
4651.899999976158,,directmemory_phase1,628034,,,,,,,,object_06c.png,,,50,,,0,,object_03c.png,object_03b.png,object_01c.png,object_03c.png,,0.6666666666666666,0,,,,,,,,,,,
3895.600000023842,,directmemory_phase1,631931,,,,,,,,object_06a.png,,,51,,,1,,object_04c.png,object_10a.png,object_09b.png,object_09b.png,,0.7142857142857143,1,,,,,,,,,,,
3658.899999976158,,directmemory_phase1,635592,,,,,,,,object_15c.png,,,51,,,0,,object_01a.png,object_14c.png,object_13a.png,object_01a.png,,0.625,0,,,,,,,,,,,
3783.100000023842,,directmemory_phase1,639377,,,,,,,,object_14b.png,,,50,,,0,,object_13a.png,object_14c.png,object_04c.png,object_04c.png,,0.5555555555555556,0,,,,,,,,,,,
2302.3000000715256,,directmemory_phase1,641681,,,,,,,,object_09a.png,,,49,,,0,,object_04a.png,object_01c.png,object_09c.png,object_01c.png,,0.5,0,,,,,,,,,,,
2821.899999976158,,directmemory_phase1,644504,,,,,,,,object_04b.png,,,51,,,1,,object_07b.png,object_14a.png,object_01b.png,object_01b.png,,0.5454545454545454,1,,,,,,,,,,,
2699.899999976158,,directmemory_phase1,647205,,,,,,,,object_07a.png,,,49,,,0,,object_10a.png,object_14c.png,object_02a.png,object_02a.png,,0.5,0,,,,,,,,,,,
1917.6999999284744,,directmemory_phase1,649124,,,,,,,,object_05b.png,,,49,,,1,,object_13c.png,object_11c.png,object_02a.png,object_13c.png,,0.5384615384615384,1,,,,,,,,,,,
3562,,directmemory_phase1,652688,,,,,,,,object_12a.png,,,51,,,0,,object_13a.png,object_02c.png,object_11b.png,object_13a.png,,0.5,0,,,,,,,,,,,
3556.5999999046326,,directmemory_phase1,656246,,,,,,,,object_02b.png,,,50,,,0,,object_04c.png,object_11b.png,object_02c.png,object_02c.png,,0.4666666666666667,0,,,,,,,,,,,
2960.899999976158,,directmemory_phase1,659208,,,,,,,,object_06b.png,,,49,,,1,,object_06c.png,object_02c.png,object_04b.png,object_06c.png,,0.5,1,,,,,,,,,,,
4180.5,,directmemory_phase1,663390,,,,,,,,object_14c.png,,,50,,,0,,object_07b.png,object_11a.png,object_03b.png,object_03b.png,,0.47058823529411764,0,,,,,,,,,,,
1771.7000000476837,,directmemory_phase1,665164,,,,,,,,object_13a.png,,,51,,,0,,object_13b.png,object_01c.png,object_07b.png,object_13b.png,,0.4444444444444444,0,,,,,,,,,,,
3371.600000023842,,directmemory_phase1,668537,,,,,,,,object_11b.png,,,50,,,0,,object_12c.png,object_03c.png,object_14a.png,object_14a.png,,0.42105263157894735,0,,,,,,,,,,,
2504.899999976158,,directmemory_phase1,671043,,,,,,,,object_10c.png,,,50,,,0,,object_15b.png,object_06c.png,object_13a.png,object_15b.png,,0.4,0,,,,,,,,,,,
2256,,directmemory_phase1,673301,,,,,,,,object_08a.png,,,51,,,0,,object_11c.png,object_13c.png,object_02c.png,object_11c.png,,0.38095238095238093,0,,,,,,,,,,,
3670.5,,directmemory_phase1,676973,,,,,,,,object_02c.png,,,50,,,1,,object_05c.png,object_03a.png,object_09c.png,object_03a.png,,0.4090909090909091,1,,,,,,,,,,,
3234.2000000476837,,directmemory_phase1,680209,,,,,,,,object_12b.png,,,49,,,1,,object_14c.png,object_13c.png,object_11c.png,object_14c.png,,0.43478260869565216,1,,,,,,,,,,,
1838.5999999046326,,directmemory_phase1,682049,,,,,,,,object_13c.png,,,49,,,0,,object_03c.png,object_12c.png,object_13b.png,object_12c.png,,0.4166666666666667,0,,,,,,,,,,,
3150.2000000476837,,directmemory_phase1,685201,,,,,,,,object_10a.png,,,49,,,0,,object_03a.png,object_13b.png,object_09c.png,object_09c.png,,0.4,0,,,,,,,,,,,
2620.7000000476837,,directmemory_phase1,687823,,,,,,,,object_08c.png,,,50,,,0,,object_02a.png,object_14c.png,object_10a.png,object_10a.png,,0.38461538461538464,0,,,,,,,,,,,
1439.6999999284744,,directmemory_phase1,689264,,,,,,,,object_11c.png,,,49,,,1,,object_07b.png,object_01c.png,object_11a.png,object_07b.png,,0.4074074074074074,1,,,,,,,,,,,
1792,,directmemory_phase1,691058,,,,,,,,object_07c.png,,,51,,,0,,object_09a.png,object_10a.png,object_13a.png,object_09a.png,,0.39285714285714285,0,,,,,,,,,,,
1896,,directmemory_phase1,692956,,,,,,,,object_02a.png,,,51,,,1,,object_08b.png,object_07b.png,object_05c.png,object_05c.png,,0.41379310344827586,1,,,,,,,,,,,
2073.7000000476837,,directmemory_phase1,695031,,,,,,,,object_09b.png,,,49,,,0,,object_08b.png,object_11a.png,object_05c.png,object_11a.png,,0.4,0,,,,,,,,,,,
null,,thebreak,695134,,,,,,,,<p></p>,,,null,,,,,,,,,,,,,,,,,,,,,,
1390,,intro_0,696525,,,,,,,,instruct,,,32,,,,,,,,,,,,,,,,,,,,,,
null,,learn_phase(without_color)2,700026,,,,,,,,black_plus_sign,,,null,object_06c.png,object_06b.png,,,,,,,,,,,,,,,,,,,,
null,,black_cross(without_color)2,700731,,,,,,,,blue,,,null,object_06c.png,object_06b.png,,,,,,,,,,,,,,,,,,,,
null,,rt_plussign_withcolor2,701233,,,,,,,,blue,,,null,object_06c.png,object_06b.png,,,,,,,,,,,,,,,,,,,,
null,,rt_thecrossant_black2,702533,,,,,,,,black_plus_sign,,,null,,,,,,,,,,NaN,,,,,,,,,,,,
null,,warning_page,707535,,,,,,,,warning,,,null,,,,,,,,,,,,,,,,,,,,,,
null,,color_black2,707637,,,,,,,,black_plus_sign,,,null,,,,,,,,,,,,,,,,,,,,,,
null,,learn_phase(without_color)2,711139,,,,,,,,black_plus_sign,,,null,object_15b.png,object_10c.png,,,,,,,,,,,,,,,,,,,,
null,,black_cross(without_color)2,711825,,,,,,,,green,,,null,object_15b.png,object_10c.png,,,,,,,,,,,,,,,,,,,,
null,,rt_plussign_withcolor2,712327,,,,,,,,green,,,null,object_15b.png,object_10c.png,,,,,,,,,,,,,,,,,,,,
null,,rt_thecrossant_black2,713645,,,,,,,,black_plus_sign,,,null,,,,,,,,,,NaN,,,,,,,,,,,,
null,,warning_page,718648,,,,,,,,warning,,,null,,,,,,,,,,,,,,,,,,,,,,
null,,color_black2,718750,,,,,,,,black_plus_sign,,,null,,,,,,,,,,,,,,,,,,,,,,
null,,learn_phase(without_color)2,722252,,,,,,,,black_plus_sign,,,null,object_01a.png,object_15c.png,,,,,,,,,,,,,,,,,,,,
null,,black_cross(without_color)2,723258,,,,,,,,green,,,null,object_01a.png,object_15c.png,,,,,,,,,,,,,,,,,,,,
null,,rt_plussign_withcolor2,723759,,,,,,,,green,,,null,object_01a.png,object_15c.png,,,,,,,,,,,,,,,,,,,,
879.5999999046326,,rt_thecrossant_black2,724759,,,,,,,,black_plus_sign,,,50,,,1,,,,,,,1,,,,,,,,,,,,
null,,color_black2,724860,,,,,,,,black_plus_sign,,,null,,,,,,,,,,,,,,,,,,,,,,
null,,learn_phase(without_color)2,728363,,,,,,,,black_plus_sign,,,null,object_01b.png,object_04b.png,,,,,,,,,,,,,,,,,,,,
null,,black_cross(without_color)2,728866,,,,,,,,blue,,,null,object_01b.png,object_04b.png,,,,,,,,,,,,,,,,,,,,
null,,rt_plussign_withcolor2,729369,,,,,,,,blue,,,null,object_01b.png,object_04b.png,,,,,,,,,,,,,,,,,,,,
1550.5,,rt_thecrossant_black2,730870,,,,,,,,black_plus_sign,,,50,,,0,,,,,,,0.5,,,,,,,,,,,,
null,,color_black2,730972,,,,,,,,black_plus_sign,,,null,,,,,,,,,,,,,,,,,,,,,,
null,,learn_phase(without_color)2,734474,,,,,,,,black_plus_sign,,,null,object_04a.png,object_04c.png,,,,,,,,,,,,,,,,,,,,
null,,black_cross(without_color)2,735118,,,,,,,,blue,,,null,object_04a.png,object_04c.png,,,,,,,,,,,,,,,,,,,,
379.40000009536743,,rt_plussign_withcolor2,735619,,,,,,,,blue,,,49,object_04a.png,object_04c.png,,,,,,,,,,,,,,,,,,,,
null,,rt_thecrossant_black2,736978,,,,,,,,black_plus_sign,,,null,,,1,,,,,,,0.6666666666666666,,,,,,,,,,,,
null,,color_black2,737079,,,,,,,,black_plus_sign,,,null,,,,,,,,,,,,,,,,,,,,,,
null,,learn_phase(without_color)2,740581,,,,,,,,black_plus_sign,,,null,object_03a.png,object_02c.png,,,,,,,,,,,,,,,,,,,,
null,,black_cross(without_color)2,741642,,,,,,,,blue,,,null,object_03a.png,object_02c.png,,,,,,,,,,,,,,,,,,,,
490.5,,rt_plussign_withcolor2,742144,,,,,,,,blue,,,49,object_03a.png,object_02c.png,,,,,,,,,,,,,,,,,,,,
null,,rt_thecrossant_black2,743087,,,,,,,,black_plus_sign,,,null,,,1,,,,,,,0.75,,,,,,,,,,,,
null,,color_black2,743189,,,,,,,,black_plus_sign,,,null,,,,,,,,,,,,,,,,,,,,,,
null,,learn_phase(without_color)2,746692,,,,,,,,black_plus_sign,,,null,object_13c.png,object_05b.png,,,,,,,,,,,,,,,,,,,,
null,,black_cross(without_color)2,747584,,,,,,,,blue,,,null,object_13c.png,object_05b.png,,,,,,,,,,,,,,,,,,,,
null,,rt_plussign_withcolor2,748086,,,,,,,,blue,,,null,object_13c.png,object_05b.png,,,,,,,,,,,,,,,,,,,,
1253.7000000476837,,rt_thecrossant_black2,749199,,,,,,,,black_plus_sign,,,49,,,1,,,,,,,0.8,,,,,,,,,,,,
null,,color_black2,749301,,,,,,,,black_plus_sign,,,null,,,,,,,,,,,,,,,,,,,,,,
null,,learn_phase(without_color)2,752803,,,,,,,,black_plus_sign,,,null,object_09b.png,object_06a.png,,,,,,,,,,,,,,,,,,,,
null,,black_cross(without_color)2,753748,,,,,,,,green,,,null,object_09b.png,object_06a.png,,,,,,,,,,,,,,,,,,,,
null,,rt_plussign_withcolor2,754250,,,,,,,,green,,,null,object_09b.png,object_06a.png,,,,,,,,,,,,,,,,,,,,
1006.8000000715256,,rt_thecrossant_black2,755310,,,,,,,,black_plus_sign,,,50,,,1,,,,,,,0.8333333333333334,,,,,,,,,,,,
null,,color_black2,755412,,,,,,,,black_plus_sign,,,null,,,,,,,,,,,,,,,,,,,,,,
null,,learn_phase(without_color)2,758913,,,,,,,,black_plus_sign,,,null,object_15a.png,object_01a.png,,,,,,,,,,,,,,,,,,,,
null,,black_cross(without_color)2,759318,,,,,,,,green,,,null,object_15a.png,object_01a.png,,,,,,,,,,,,,,,,,,,,
null,,rt_plussign_withcolor2,759820,,,,,,,,green,,,null,object_15a.png,object_01a.png,,,,,,,,,,,,,,,,,,,,
1070.1999999284744,,rt_thecrossant_black2,761419,,,,,,,,black_plus_sign,,,50,,,1,,,,,,,0.8571428571428571,,,,,,,,,,,,
null,,color_black2,761522,,,,,,,,black_plus_sign,,,null,,,,,,,,,,,,,,,,,,,,,,
null,,learn_phase(without_color)2,765023,,,,,,,,black_plus_sign,,,null,object_10a.png,object_08c.png,,,,,,,,,,,,,,,,,,,,
null,,black_cross(without_color)2,765878,,,,,,,,green,,,null,object_10a.png,object_08c.png,,,,,,,,,,,,,,,,,,,,
null,,rt_plussign_withcolor2,766380,,,,,,,,green,,,null,object_10a.png,object_08c.png,,,,,,,,,,,,,,,,,,,,
805.7000000476837,,rt_thecrossant_black2,767532,,,,,,,,black_plus_sign,,,50,,,1,,,,,,,0.875,,,,,,,,,,,,
null,,color_black2,767633,,,,,,,,black_plus_sign,,,null,,,,,,,,,,,,,,,,,,,,,,
null,,learn_phase(without_color)2,771135,,,,,,,,black_plus_sign,,,null,object_14c.png,object_12b.png,,,,,,,,,,,,,,,,,,,,
null,,black_cross(without_color)2,771708,,,,,,,,green,,,null,object_14c.png,object_12b.png,,,,,,,,,,,,,,,,,,,,
439.5,,rt_plussign_withcolor2,772209,,,,,,,,green,,,50,object_14c.png,object_12b.png,,,,,,,,,,,,,,,,,,,,
null,,rt_thecrossant_black2,773640,,,,,,,,black_plus_sign,,,null,,,1,,,,,,,0.8888888888888888,,,,,,,,,,,,
null,,color_black2,773743,,,,,,,,black_plus_sign,,,null,,,,,,,,,,,,,,,,,,,,,,
null,,learn_phase(without_color)2,777244,,,,,,,,black_plus_sign,,,null,object_11b.png,object_05a.png,,,,,,,,,,,,,,,,,,,,
null,,black_cross(without_color)2,778165,,,,,,,,blue,,,null,object_11b.png,object_05a.png,,,,,,,,,,,,,,,,,,,,
null,,rt_plussign_withcolor2,778667,,,,,,,,blue,,,null,object_11b.png,object_05a.png,,,,,,,,,,,,,,,,,,,,
683.5,,rt_thecrossant_black2,779750,,,,,,,,black_plus_sign,,,49,,,1,,,,,,,0.9,,,,,,,,,,,,
null,,color_black2,779853,,,,,,,,black_plus_sign,,,null,,,,,,,,,,,,,,,,,,,,,,
null,,learn_phase(without_color)2,783355,,,,,,,,black_plus_sign,,,null,object_12c.png,object_13c.png,,,,,,,,,,,,,,,,,,,,
null,,black_cross(without_color)2,784116,,,,,,,,green,,,null,object_12c.png,object_13c.png,,,,,,,,,,,,,,,,,,,,
415.2999999523163,,rt_plussign_withcolor2,784618,,,,,,,,green,,,50,object_12c.png,object_13c.png,,,,,,,,,,,,,,,,,,,,
null,,rt_thecrossant_black2,785861,,,,,,,,black_plus_sign,,,null,,,1,,,,,,,0.9090909090909091,,,,,,,,,,,,
null,,color_black2,785963,,,,,,,,black_plus_sign,,,null,,,,,,,,,,,,,,,,,,,,,,
null,,learn_phase(without_color)2,789465,,,,,,,,black_plus_sign,,,null,object_05c.png,object_02a.png,,,,,,,,,,,,,,,,,,,,
null,,black_cross(without_color)2,790055,,,,,,,,blue,,,null,object_05c.png,object_02a.png,,,,,,,,,,,,,,,,,,,,
405.3000000715256,,rt_plussign_withcolor2,790556,,,,,,,,blue,,,49,object_05c.png,object_02a.png,,,,,,,,,,,,,,,,,,,,
null,,rt_thecrossant_black2,791970,,,,,,,,black_plus_sign,,,null,,,1,,,,,,,0.9166666666666666,,,,,,,,,,,,
null,,color_black2,792072,,,,,,,,black_plus_sign,,,null,,,,,,,,,,,,,,,,,,,,,,
null,,learn_phase(without_color)2,795575,,,,,,,,black_plus_sign,,,null,object_02a.png,object_07a.png,,,,,,,,,,,,,,,,,,,,
null,,black_cross(without_color)2,796112,,,,,,,,green,,,null,object_02a.png,object_07a.png,,,,,,,,,,,,,,,,,,,,
null,,rt_plussign_withcolor2,796614,,,,,,,,green,,,null,object_02a.png,object_07a.png,,,,,,,,,,,,,,,,,,,,
1156.2999999523163,,rt_thecrossant_black2,798089,,,,,,,,black_plus_sign,,,50,,,1,,,,,,,0.9230769230769231,,,,,,,,,,,,
null,,color_black2,798191,,,,,,,,black_plus_sign,,,null,,,,,,,,,,,,,,,,,,,,,,
null,,learn_phase(without_color)2,801692,,,,,,,,black_plus_sign,,,null,object_13b.png,object_13a.png,,,,,,,,,,,,,,,,,,,,
null,,black_cross(without_color)2,802375,,,,,,,,green,,,null,object_13b.png,object_13a.png,,,,,,,,,,,,,,,,,,,,
null,,rt_plussign_withcolor2,802877,,,,,,,,green,,,null,object_13b.png,object_13a.png,,,,,,,,,,,,,,,,,,,,
827.5,,rt_thecrossant_black2,804199,,,,,,,,black_plus_sign,,,50,,,1,,,,,,,0.9285714285714286,,,,,,,,,,,,
null,,color_black2,804300,,,,,,,,black_plus_sign,,,null,,,,,,,,,,,,,,,,,,,,,,
null,,learn_phase(without_color)2,807803,,,,,,,,black_plus_sign,,,null,object_13a.png,object_12a.png,,,,,,,,,,,,,,,,,,,,
null,,black_cross(without_color)2,808643,,,,,,,,blue,,,null,object_13a.png,object_12a.png,,,,,,,,,,,,,,,,,,,,
326,,rt_plussign_withcolor2,809144,,,,,,,,blue,,,49,object_13a.png,object_12a.png,,,,,,,,,,,,,,,,,,,,
null,,rt_thecrossant_black2,810308,,,,,,,,black_plus_sign,,,null,,,1,,,,,,,0.9333333333333333,,,,,,,,,,,,
null,,color_black2,810411,,,,,,,,black_plus_sign,,,null,,,,,,,,,,,,,,,,,,,,,,
null,,learn_phase(without_color)2,813914,,,,,,,,black_plus_sign,,,null,object_03b.png,object_14c.png,,,,,,,,,,,,,,,,,,,,
null,,black_cross(without_color)2,814498,,,,,,,,blue,,,null,object_03b.png,object_14c.png,,,,,,,,,,,,,,,,,,,,
373.89999997615814,,rt_plussign_withcolor2,814999,,,,,,,,blue,,,49,object_03b.png,object_14c.png,,,,,,,,,,,,,,,,,,,,
null,,rt_thecrossant_black2,816420,,,,,,,,black_plus_sign,,,null,,,1,,,,,,,0.9375,,,,,,,,,,,,
null,,color_black2,816522,,,,,,,,black_plus_sign,,,null,,,,,,,,,,,,,,,,,,,,,,
null,,learn_phase(without_color)2,820024,,,,,,,,black_plus_sign,,,null,object_01c.png,object_09a.png,,,,,,,,,,,,,,,,,,,,
null,,black_cross(without_color)2,820541,,,,,,,,green,,,null,object_01c.png,object_09a.png,,,,,,,,,,,,,,,,,,,,
null,,rt_plussign_withcolor2,821043,,,,,,,,green,,,null,object_01c.png,object_09a.png,,,,,,,,,,,,,,,,,,,,
704.3999999761581,,rt_thecrossant_black2,822530,,,,,,,,black_plus_sign,,,50,,,1,,,,,,,0.9411764705882353,,,,,,,,,,,,
null,,color_black2,822631,,,,,,,,black_plus_sign,,,null,,,,,,,,,,,,,,,,,,,,,,
null,,learn_phase(without_color)2,826134,,,,,,,,black_plus_sign,,,null,object_14a.png,object_11b.png,,,,,,,,,,,,,,,,,,,,
null,,black_cross(without_color)2,827203,,,,,,,,green,,,null,object_14a.png,object_11b.png,,,,,,,,,,,,,,,,,,,,
null,,rt_plussign_withcolor2,827704,,,,,,,,green,,,null,object_14a.png,object_11b.png,,,,,,,,,,,,,,,,,,,,
673.1999999284744,,rt_thecrossant_black2,828638,,,,,,,,black_plus_sign,,,50,,,1,,,,,,,0.9444444444444444,,,,,,,,,,,,
null,,color_black2,828739,,,,,,,,black_plus_sign,,,null,,,,,,,,,,,,,,,,,,,,,,
null,,learn_phase(without_color)2,832241,,,,,,,,black_plus_sign,,,null,object_09a.png,object_07c.png,,,,,,,,,,,,,,,,,,,,
null,,black_cross(without_color)2,832749,,,,,,,,green,,,null,object_09a.png,object_07c.png,,,,,,,,,,,,,,,,,,,,
null,,rt_plussign_withcolor2,833250,,,,,,,,green,,,null,object_09a.png,object_07c.png,,,,,,,,,,,,,,,,,,,,
1345,,rt_thecrossant_black2,834748,,,,,,,,black_plus_sign,,,50,,,1,,,,,,,0.9473684210526315,,,,,,,,,,,,
null,,color_black2,834850,,,,,,,,black_plus_sign,,,null,,,,,,,,,,,,,,,,,,,,,,
null,,learn_phase(without_color)2,838352,,,,,,,,black_plus_sign,,,null,object_11a.png,object_09b.png,,,,,,,,,,,,,,,,,,,,
null,,black_cross(without_color)2,839273,,,,,,,,blue,,,null,object_11a.png,object_09b.png,,,,,,,,,,,,,,,,,,,,
494.2000000476837,,rt_plussign_withcolor2,839774,,,,,,,,blue,,,49,object_11a.png,object_09b.png,,,,,,,,,,,,,,,,,,,,
null,,rt_thecrossant_black2,840857,,,,,,,,black_plus_sign,,,null,,,1,,,,,,,0.95,,,,,,,,,,,,
null,,color_black2,840959,,,,,,,,black_plus_sign,,,null,,,,,,,,,,,,,,,,,,,,,,
null,,learn_phase(without_color)2,844461,,,,,,,,black_plus_sign,,,null,object_09c.png,object_10a.png,,,,,,,,,,,,,,,,,,,,
null,,black_cross(without_color)2,845248,,,,,,,,blue,,,null,object_09c.png,object_10a.png,,,,,,,,,,,,,,,,,,,,
null,,rt_plussign_withcolor2,845750,,,,,,,,blue,,,null,object_09c.png,object_10a.png,,,,,,,,,,,,,,,,,,,,
1129.6000000238419,,rt_thecrossant_black2,846966,,,,,,,,black_plus_sign,,,49,,,1,,,,,,,0.9523809523809523,,,,,,,,,,,,
null,,color_black2,847069,,,,,,,,black_plus_sign,,,null,,,,,,,,,,,,,,,,,,,,,,
null,,learn_phase(without_color)2,850572,,,,,,,,black_plus_sign,,,null,object_04b.png,object_10b.png,,,,,,,,,,,,,,,,,,,,
null,,black_cross(without_color)2,851448,,,,,,,,blue,,,null,object_04b.png,object_10b.png,,,,,,,,,,,,,,,,,,,,
405.2999999523163,,rt_plussign_withcolor2,851950,,,,,,,,blue,,,49,object_04b.png,object_10b.png,,,,,,,,,,,,,,,,,,,,
null,,rt_thecrossant_black2,853078,,,,,,,,black_plus_sign,,,null,,,1,,,,,,,0.9545454545454546,,,,,,,,,,,,
null,,color_black2,853180,,,,,,,,black_plus_sign,,,null,,,,,,,,,,,,,,,,,,,,,,
null,,learn_phase(without_color)2,856682,,,,,,,,black_plus_sign,,,null,object_08b.png,object_15b.png,,,,,,,,,,,,,,,,,,,,
null,,black_cross(without_color)2,857637,,,,,,,,green,,,null,object_08b.png,object_15b.png,,,,,,,,,,,,,,,,,,,,
407.09999990463257,,rt_plussign_withcolor2,858139,,,,,,,,green,,,50,object_08b.png,object_15b.png,,,,,,,,,,,,,,,,,,,,
null,,rt_thecrossant_black2,859189,,,,,,,,black_plus_sign,,,null,,,1,,,,,,,0.9565217391304348,,,,,,,,,,,,
null,,color_black2,859291,,,,,,,,black_plus_sign,,,null,,,,,,,,,,,,,,,,,,,,,,
null,,learn_phase(without_color)2,862794,,,,,,,,black_plus_sign,,,null,object_03c.png,object_06c.png,,,,,,,,,,,,,,,,,,,,
null,,black_cross(without_color)2,863583,,,,,,,,blue,,,null,object_03c.png,object_06c.png,,,,,,,,,,,,,,,,,,,,
null,,rt_plussign_withcolor2,864084,,,,,,,,blue,,,null,object_03c.png,object_06c.png,,,,,,,,,,,,,,,,,,,,
1084.7000000476837,,rt_thecrossant_black2,865300,,,,,,,,black_plus_sign,,,49,,,1,,,,,,,0.9583333333333334,,,,,,,,,,,,
null,,color_black2,865403,,,,,,,,black_plus_sign,,,null,,,,,,,,,,,,,,,,,,,,,,
null,,learn_phase(without_color)2,868906,,,,,,,,black_plus_sign,,,null,object_02c.png,object_02b.png,,,,,,,,,,,,,,,,,,,,
null,,black_cross(without_color)2,869310,,,,,,,,blue,,,null,object_02c.png,object_02b.png,,,,,,,,,,,,,,,,,,,,
null,,rt_plussign_withcolor2,869812,,,,,,,,blue,,,null,object_02c.png,object_02b.png,,,,,,,,,,,,,,,,,,,,
1169.7999999523163,,rt_thecrossant_black2,871412,,,,,,,,black_plus_sign,,,49,,,1,,,,,,,0.96,,,,,,,,,,,,
null,,color_black2,871513,,,,,,,,black_plus_sign,,,null,,,,,,,,,,,,,,,,,,,,,,
null,,learn_phase(without_color)2,875015,,,,,,,,black_plus_sign,,,null,object_11c.png,object_08a.png,,,,,,,,,,,,,,,,,,,,
null,,black_cross(without_color)2,875873,,,,,,,,blue,,,null,object_11c.png,object_08a.png,,,,,,,,,,,,,,,,,,,,
null,,rt_plussign_withcolor2,876375,,,,,,,,blue,,,null,object_11c.png,object_08a.png,,,,,,,,,,,,,,,,,,,,
533,,rt_thecrossant_black2,877521,,,,,,,,black_plus_sign,,,49,,,1,,,,,,,0.9615384615384616,,,,,,,,,,,,
null,,color_black2,877622,,,,,,,,black_plus_sign,,,null,,,,,,,,,,,,,,,,,,,,,,
null,,learn_phase(without_color)2,881126,,,,,,,,black_plus_sign,,,null,object_04c.png,object_14b.png,,,,,,,,,,,,,,,,,,,,
null,,black_cross(without_color)2,881875,,,,,,,,green,,,null,object_04c.png,object_14b.png,,,,,,,,,,,,,,,,,,,,
null,,rt_plussign_withcolor2,882376,,,,,,,,green,,,null,object_04c.png,object_14b.png,,,,,,,,,,,,,,,,,,,,
969.5,,rt_thecrossant_black2,883630,,,,,,,,black_plus_sign,,,50,,,1,,,,,,,0.9629629629629629,,,,,,,,,,,,
null,,color_black2,883732,,,,,,,,black_plus_sign,,,null,,,,,,,,,,,,,,,,,,,,,,
null,,learn_phase(without_color)2,887233,,,,,,,,black_plus_sign,,,null,object_07b.png,object_11c.png,,,,,,,,,,,,,,,,,,,,
null,,black_cross(without_color)2,888224,,,,,,,,blue,,,null,object_07b.png,object_11c.png,,,,,,,,,,,,,,,,,,,,
458.2000000476837,,rt_plussign_withcolor2,888725,,,,,,,,blue,,,49,object_07b.png,object_11c.png,,,,,,,,,,,,,,,,,,,,
null,,rt_thecrossant_black2,889739,,,,,,,,black_plus_sign,,,null,,,1,,,,,,,0.9642857142857143,,,,,,,,,,,,
null,,color_black2,889841,,,,,,,,black_plus_sign,,,null,,,,,,,,,,,,,,,,,,,,,,
null,,thebreak,889943,,,,,,,,<p></p>,,,null,,,,,,,,,,,,,,,,,,,,,,
1873.1000000238419,,intro_0,891818,,,,,,,,instruct,,,32,,,,,,,,,,,,,,,,,,,,,,
3531,,directmemory_phase2,895350,,,,,,,,object_06c.png,,,49,,,0,,object_09c.png,object_01b.png,object_03c.png,object_03c.png,,0.3870967741935484,0,,,,,,,,,,,
2565.2000000476837,,directmemory_phase2,897917,,,,,,,,object_02a.png,,,50,,,1,,object_14a.png,object_05c.png,object_07b.png,object_05c.png,,0.40625,1,,,,,,,,,,,
4063.8000000715256,,directmemory_phase2,901982,,,,,,,,object_09a.png,,,49,,,0,,object_12c.png,object_03b.png,object_01c.png,object_01c.png,,0.3939393939393939,0,,,,,,,,,,,
3623.5,,directmemory_phase2,905608,,,,,,,,object_14b.png,,,51,,,0,,object_06c.png,object_04c.png,object_10a.png,object_04c.png,,0.38235294117647056,0,,,,,,,,,,,
1453.3999999761581,,directmemory_phase2,907062,,,,,,,,object_04b.png,,,50,,,1,,object_08b.png,object_01b.png,object_03a.png,object_01b.png,,0.4,1,,,,,,,,,,,
3082.3000000715256,,directmemory_phase2,910146,,,,,,,,object_09b.png,,,49,,,1,,object_11a.png,object_08b.png,object_09c.png,object_11a.png,,0.4166666666666667,1,,,,,,,,,,,
2858.600000023842,,directmemory_phase2,913007,,,,,,,,object_02c.png,,,51,,,0,,object_03a.png,object_03c.png,object_13b.png,object_03a.png,,0.40540540540540543,0,,,,,,,,,,,
5417.899999976158,,directmemory_phase2,918427,,,,,,,,object_04c.png,,,49,,,0,,object_08b.png,object_09c.png,object_04a.png,object_04a.png,,0.39473684210526316,0,,,,,,,,,,,
1656.1000000238419,,directmemory_phase2,920084,,,,,,,,object_15b.png,,,51,,,1,,object_03a.png,object_07b.png,object_08b.png,object_08b.png,,0.41025641025641024,1,,,,,,,,,,,
3612.7999999523163,,directmemory_phase2,923699,,,,,,,,object_02b.png,,,51,,,1,,object_13c.png,object_09b.png,object_02c.png,object_02c.png,,0.425,1,,,,,,,,,,,
1437.7999999523163,,directmemory_phase2,925138,,,,,,,,object_05b.png,,,50,,,1,,object_14c.png,object_13c.png,object_09a.png,object_13c.png,,0.43902439024390244,1,,,,,,,,,,,
2984,,directmemory_phase2,928124,,,,,,,,object_05a.png,,,49,,,0,,object_10a.png,object_13c.png,object_11b.png,object_11b.png,,0.42857142857142855,0,,,,,,,,,,,
2672.600000023842,,directmemory_phase2,930798,,,,,,,,object_13c.png,,,51,,,0,,object_12c.png,object_05c.png,object_01c.png,object_12c.png,,0.4186046511627907,0,,,,,,,,,,,
2418.2999999523163,,directmemory_phase2,933217,,,,,,,,object_07c.png,,,50,,,1,,object_11b.png,object_09a.png,object_14c.png,object_09a.png,,0.4318181818181818,1,,,,,,,,,,,
4007.7999999523163,,directmemory_phase2,937227,,,,,,,,object_13a.png,,,51,,,1,,object_03a.png,object_11a.png,object_13b.png,object_13b.png,,0.4444444444444444,1,,,,,,,,,,,
1499.2000000476837,,directmemory_phase2,938728,,,,,,,,object_06a.png,,,50,,,0,,object_02a.png,object_14c.png,object_09b.png,object_09b.png,,0.43478260869565216,0,,,,,,,,,,,
2429.8000000715256,,directmemory_phase2,941160,,,,,,,,object_12a.png,,,51,,,1,,object_02a.png,object_13c.png,object_13a.png,object_13a.png,,0.44680851063829785,1,,,,,,,,,,,
1877,,directmemory_phase2,943038,,,,,,,,object_11b.png,,,49,,,0,,object_13b.png,object_07b.png,object_14a.png,object_14a.png,,0.4375,0,,,,,,,,,,,
1732.2999999523163,,directmemory_phase2,944772,,,,,,,,object_08a.png,,,51,,,1,,object_13c.png,object_09b.png,object_11c.png,object_11c.png,,0.4489795918367347,1,,,,,,,,,,,
2749.8000000715256,,directmemory_phase2,947523,,,,,,,,object_01a.png,,,51,,,0,,object_03b.png,object_15a.png,object_13b.png,object_15a.png,,0.44,0,,,,,,,,,,,
3238,,directmemory_phase2,950763,,,,,,,,object_07a.png,,,50,,,0,,object_02a.png,object_06c.png,object_04c.png,object_02a.png,,0.43137254901960786,0,,,,,,,,,,,
2740.2000000476837,,directmemory_phase2,953505,,,,,,,,object_08c.png,,,50,,,1,,object_02c.png,object_10a.png,object_06c.png,object_10a.png,,0.4423076923076923,1,,,,,,,,,,,
1961.5,,directmemory_phase2,955468,,,,,,,,object_14c.png,,,51,,,0,,object_03b.png,object_09c.png,object_01c.png,object_03b.png,,0.4339622641509434,0,,,,,,,,,,,
2869.600000023842,,directmemory_phase2,958339,,,,,,,,object_10c.png,,,51,,,1,,object_09b.png,object_13a.png,object_15b.png,object_15b.png,,0.4444444444444444,1,,,,,,,,,,,
1775,,directmemory_phase2,960116,,,,,,,,object_06b.png,,,50,,,1,,object_13a.png,object_06c.png,object_09a.png,object_06c.png,,0.45454545454545453,1,,,,,,,,,,,
1625.4000000953674,,directmemory_phase2,961743,,,,,,,,object_11c.png,,,50,,,1,,object_03b.png,object_07b.png,object_01b.png,object_07b.png,,0.4642857142857143,1,,,,,,,,,,,
2208.4000000953674,,directmemory_phase2,963953,,,,,,,,object_10a.png,,,49,,,1,,object_09c.png,object_03c.png,object_03b.png,object_09c.png,,0.47368421052631576,1,,,,,,,,,,,
1531.1999999284744,,directmemory_phase2,965486,,,,,,,,object_10b.png,,,49,,,1,,object_04b.png,object_02a.png,object_13c.png,object_04b.png,,0.4827586206896552,1,,,,,,,,,,,
2855.399999976158,,directmemory_phase2,968344,,,,,,,,object_15c.png,,,51,,,0,,object_01a.png,object_04b.png,object_09a.png,object_01a.png,,0.4745762711864407,0,,,,,,,,,,,
2839.9000000953674,,directmemory_phase2,971185,,,,,,,,object_12b.png,,,51,,,1,,object_02c.png,object_15b.png,object_14c.png,object_14c.png,,0.48333333333333334,1,,,,,,,,,,,
null,,thebreak,971288,,,,,,,,<p></p>,,,null,,,,,,,,,,,,,,,,,,,,,,
1822,,intro_0,973111,,,,,,,,instruct,,,32,,,,,,,,,,,,,,,,,,,,,,
null,,learn_phase(without_color)3,976613,,,,,,,,black_plus_sign,,,null,object_03c.png,object_06c.png,,,,,,,,,,,,,,,,,,,,
null,,black_cross(without_color)3,977582,,,,,,,,blue,,,null,object_03c.png,object_06c.png,,,,,,,,,,,,,,,,,,,,
null,,rt_plussign_withcolor3,978083,,,,,,,,blue,,,null,object_03c.png,object_06c.png,,,,,,,,,,,,,,,,,,,,
null,,rt_thecrossant_black3,979117,,,,,,,,black_plus_sign,,,null,,,,,,,,,,NaN,,,,,,,,,,,,
null,,color_black3,979219,,,,,,,,black_plus_sign,,,null,,,,,,,,,,,,,,,,,,,,,,
null,,learn_phase(without_color)3,982721,,,,,,,,black_plus_sign,,,null,object_09c.png,object_10a.png,,,,,,,,,,,,,,,,,,,,
null,,black_cross(without_color)3,983127,,,,,,,,green,,,null,object_09c.png,object_10a.png,,,,,,,,,,,,,,,,,,,,
null,,rt_plussign_withcolor3,983629,,,,,,,,green,,,null,object_09c.png,object_10a.png,,,,,,,,,,,,,,,,,,,,
1183.1000000238419,,rt_thecrossant_black3,985227,,,,,,,,black_plus_sign,,,50,,,1,,,,,,,1,,,,,,,,,,,,
null,,color_black3,985329,,,,,,,,black_plus_sign,,,null,,,,,,,,,,,,,,,,,,,,,,
null,,learn_phase(without_color)3,988832,,,,,,,,black_plus_sign,,,null,object_01b.png,object_04b.png,,,,,,,,,,,,,,,,,,,,
null,,black_cross(without_color)3,989690,,,,,,,,green,,,null,object_01b.png,object_04b.png,,,,,,,,,,,,,,,,,,,,
null,,rt_plussign_withcolor3,990192,,,,,,,,green,,,null,object_01b.png,object_04b.png,,,,,,,,,,,,,,,,,,,,
530,,rt_thecrossant_black3,991338,,,,,,,,black_plus_sign,,,50,,,1,,,,,,,1,,,,,,,,,,,,
null,,color_black3,991440,,,,,,,,black_plus_sign,,,null,,,,,,,,,,,,,,,,,,,,,,
null,,learn_phase(without_color)3,994942,,,,,,,,black_plus_sign,,,null,object_04c.png,object_14b.png,,,,,,,,,,,,,,,,,,,,
null,,black_cross(without_color)3,995635,,,,,,,,blue,,,null,object_04c.png,object_14b.png,,,,,,,,,,,,,,,,,,,,
null,,rt_plussign_withcolor3,996138,,,,,,,,blue,,,null,object_04c.png,object_14b.png,,,,,,,,,,,,,,,,,,,,
null,,rt_thecrossant_black3,997449,,,,,,,,black_plus_sign,,,null,,,,,,,,,,1,,,,,,,,,,,,
null,,color_black3,997551,,,,,,,,black_plus_sign,,,null,,,,,,,,,,,,,,,,,,,,,,
null,,learn_phase(without_color)3,1001054,,,,,,,,black_plus_sign,,,null,object_13c.png,object_05b.png,,,,,,,,,,,,,,,,,,,,
null,,black_cross(without_color)3,1001782,,,,,,,,blue,,,null,object_13c.png,object_05b.png,,,,,,,,,,,,,,,,,,,,
346.8000000715256,,rt_plussign_withcolor3,1002283,,,,,,,,blue,,,49,object_13c.png,object_05b.png,,,,,,,,,,,,,,,,,,,,
null,,rt_thecrossant_black3,1003559,,,,,,,,black_plus_sign,,,null,,,1,,,,,,,1,,,,,,,,,,,,
null,,color_black3,1003662,,,,,,,,black_plus_sign,,,null,,,,,,,,,,,,,,,,,,,,,,
null,,learn_phase(without_color)3,1007165,,,,,,,,black_plus_sign,,,null,object_11a.png,object_09b.png,,,,,,,,,,,,,,,,,,,,
null,,black_cross(without_color)3,1007733,,,,,,,,green,,,null,object_11a.png,object_09b.png,,,,,,,,,,,,,,,,,,,,
409.2999999523163,,rt_plussign_withcolor3,1008234,,,,,,,,green,,,50,object_11a.png,object_09b.png,,,,,,,,,,,,,,,,,,,,
null,,rt_thecrossant_black3,1009671,,,,,,,,black_plus_sign,,,null,,,1,,,,,,,1,,,,,,,,,,,,
null,,color_black3,1009773,,,,,,,,black_plus_sign,,,null,,,,,,,,,,,,,,,,,,,,,,
null,,learn_phase(without_color)3,1013277,,,,,,,,black_plus_sign,,,null,object_10a.png,object_08c.png,,,,,,,,,,,,,,,,,,,,
null,,black_cross(without_color)3,1014359,,,,,,,,blue,,,null,object_10a.png,object_08c.png,,,,,,,,,,,,,,,,,,,,
461.6999999284744,,rt_plussign_withcolor3,1014861,,,,,,,,blue,,,49,object_10a.png,object_08c.png,,,,,,,,,,,,,,,,,,,,
null,,rt_thecrossant_black3,1015783,,,,,,,,black_plus_sign,,,null,,,1,,,,,,,1,,,,,,,,,,,,
null,,color_black3,1015886,,,,,,,,black_plus_sign,,,null,,,,,,,,,,,,,,,,,,,,,,
null,,learn_phase(without_color)3,1019388,,,,,,,,black_plus_sign,,,null,object_03a.png,object_02c.png,,,,,,,,,,,,,,,,,,,,
null,,black_cross(without_color)3,1020398,,,,,,,,green,,,null,object_03a.png,object_02c.png,,,,,,,,,,,,,,,,,,,,
465.2000000476837,,rt_plussign_withcolor3,1020898,,,,,,,,green,,,50,object_03a.png,object_02c.png,,,,,,,,,,,,,,,,,,,,
null,,rt_thecrossant_black3,1021893,,,,,,,,black_plus_sign,,,null,,,1,,,,,,,1,,,,,,,,,,,,
null,,color_black3,1021995,,,,,,,,black_plus_sign,,,null,,,,,,,,,,,,,,,,,,,,,,
null,,learn_phase(without_color)3,1025498,,,,,,,,black_plus_sign,,,null,object_11b.png,object_05a.png,,,,,,,,,,,,,,,,,,,,
null,,black_cross(without_color)3,1026128,,,,,,,,green,,,null,object_11b.png,object_05a.png,,,,,,,,,,,,,,,,,,,,
null,,rt_plussign_withcolor3,1026630,,,,,,,,green,,,null,object_11b.png,object_05a.png,,,,,,,,,,,,,,,,,,,,
1348.6000000238419,,rt_thecrossant_black3,1028004,,,,,,,,black_plus_sign,,,50,,,1,,,,,,,1,,,,,,,,,,,,
null,,color_black3,1028106,,,,,,,,black_plus_sign,,,null,,,,,,,,,,,,,,,,,,,,,,
null,,learn_phase(without_color)3,1031608,,,,,,,,black_plus_sign,,,null,object_11c.png,object_08a.png,,,,,,,,,,,,,,,,,,,,
null,,black_cross(without_color)3,1032568,,,,,,,,green,,,null,object_11c.png,object_08a.png,,,,,,,,,,,,,,,,,,,,
null,,rt_plussign_withcolor3,1033069,,,,,,,,green,,,null,object_11c.png,object_08a.png,,,,,,,,,,,,,,,,,,,,
758.3999999761581,,rt_thecrossant_black3,1034113,,,,,,,,black_plus_sign,,,50,,,1,,,,,,,1,,,,,,,,,,,,
null,,color_black3,1034216,,,,,,,,black_plus_sign,,,null,,,,,,,,,,,,,,,,,,,,,,
null,,learn_phase(without_color)3,1037718,,,,,,,,black_plus_sign,,,null,object_01c.png,object_09a.png,,,,,,,,,,,,,,,,,,,,
null,,black_cross(without_color)3,1038610,,,,,,,,blue,,,null,object_01c.png,object_09a.png,,,,,,,,,,,,,,,,,,,,
355.59999990463257,,rt_plussign_withcolor3,1039112,,,,,,,,blue,,,49,object_01c.png,object_09a.png,,,,,,,,,,,,,,,,,,,,
null,,rt_thecrossant_black3,1040225,,,,,,,,black_plus_sign,,,null,,,1,,,,,,,1,,,,,,,,,,,,
null,,color_black3,1040334,,,,,,,,black_plus_sign,,,null,,,,,,,,,,,,,,,,,,,,,,
null,,learn_phase(without_color)3,1043835,,,,,,,,black_plus_sign,,,null,object_14a.png,object_11b.png,,,,,,,,,,,,,,,,,,,,
null,,black_cross(without_color)3,1044400,,,,,,,,blue,,,null,object_14a.png,object_11b.png,,,,,,,,,,,,,,,,,,,,
null,,rt_plussign_withcolor3,1044901,,,,,,,,blue,,,null,object_14a.png,object_11b.png,,,,,,,,,,,,,,,,,,,,
1065,,rt_thecrossant_black3,1046341,,,,,,,,black_plus_sign,,,49,,,1,,,,,,,1,,,,,,,,,,,,
null,,color_black3,1046442,,,,,,,,black_plus_sign,,,null,,,,,,,,,,,,,,,,,,,,,,
null,,learn_phase(without_color)3,1049944,,,,,,,,black_plus_sign,,,null,object_08b.png,object_15b.png,,,,,,,,,,,,,,,,,,,,
null,,black_cross(without_color)3,1051032,,,,,,,,green,,,null,object_08b.png,object_15b.png,,,,,,,,,,,,,,,,,,,,
414.90000009536743,,rt_plussign_withcolor3,1051534,,,,,,,,green,,,50,object_08b.png,object_15b.png,,,,,,,,,,,,,,,,,,,,
null,,rt_thecrossant_black3,1052449,,,,,,,,black_plus_sign,,,null,,,1,,,,,,,1,,,,,,,,,,,,
null,,color_black3,1052552,,,,,,,,black_plus_sign,,,null,,,,,,,,,,,,,,,,,,,,,,
null,,learn_phase(without_color)3,1056054,,,,,,,,black_plus_sign,,,null,object_04b.png,object_10b.png,,,,,,,,,,,,,,,,,,,,
null,,black_cross(without_color)3,1056543,,,,,,,,blue,,,null,object_04b.png,object_10b.png,,,,,,,,,,,,,,,,,,,,
361.60000002384186,,rt_plussign_withcolor3,1057044,,,,,,,,blue,,,49,object_04b.png,object_10b.png,,,,,,,,,,,,,,,,,,,,
null,,rt_thecrossant_black3,1058558,,,,,,,,black_plus_sign,,,null,,,1,,,,,,,1,,,,,,,,,,,,
null,,color_black3,1058661,,,,,,,,black_plus_sign,,,null,,,,,,,,,,,,,,,,,,,,,,
null,,learn_phase(without_color)3,1062163,,,,,,,,black_plus_sign,,,null,object_07b.png,object_11c.png,,,,,,,,,,,,,,,,,,,,
null,,black_cross(without_color)3,1063119,,,,,,,,green,,,null,object_07b.png,object_11c.png,,,,,,,,,,,,,,,,,,,,
null,,rt_plussign_withcolor3,1063620,,,,,,,,green,,,null,object_07b.png,object_11c.png,,,,,,,,,,,,,,,,,,,,
665.6000000238419,,rt_thecrossant_black3,1064669,,,,,,,,black_plus_sign,,,50,,,1,,,,,,,1,,,,,,,,,,,,
null,,color_black3,1064771,,,,,,,,black_plus_sign,,,null,,,,,,,,,,,,,,,,,,,,,,
null,,learn_phase(without_color)3,1068274,,,,,,,,black_plus_sign,,,null,object_15b.png,object_10c.png,,,,,,,,,,,,,,,,,,,,
null,,black_cross(without_color)3,1069073,,,,,,,,green,,,null,object_15b.png,object_10c.png,,,,,,,,,,,,,,,,,,,,
335.60000002384186,,rt_plussign_withcolor3,1069574,,,,,,,,green,,,49,object_15b.png,object_10c.png,,,,,,,,,,,,,,,,,,,,
null,,rt_thecrossant_black3,1070779,,,,,,,,black_plus_sign,,,null,,,0,,,,,,,0.9285714285714286,,,,,,,,,,,,
null,,color_black3,1070881,,,,,,,,black_plus_sign,,,null,,,,,,,,,,,,,,,,,,,,,,
null,,learn_phase(without_color)3,1074383,,,,,,,,black_plus_sign,,,null,object_04a.png,object_04c.png,,,,,,,,,,,,,,,,,,,,
null,,black_cross(without_color)3,1075301,,,,,,,,green,,,null,object_04a.png,object_04c.png,,,,,,,,,,,,,,,,,,,,
384.5,,rt_plussign_withcolor3,1075803,,,,,,,,green,,,50,object_04a.png,object_04c.png,,,,,,,,,,,,,,,,,,,,
null,,rt_thecrossant_black3,1076890,,,,,,,,black_plus_sign,,,null,,,1,,,,,,,0.9333333333333333,,,,,,,,,,,,
null,,color_black3,1076992,,,,,,,,black_plus_sign,,,null,,,,,,,,,,,,,,,,,,,,,,
null,,learn_phase(without_color)3,1080495,,,,,,,,black_plus_sign,,,null,object_01a.png,object_15c.png,,,,,,,,,,,,,,,,,,,,
null,,black_cross(without_color)3,1081147,,,,,,,,green,,,null,object_01a.png,object_15c.png,,,,,,,,,,,,,,,,,,,,
null,,rt_plussign_withcolor3,1081649,,,,,,,,green,,,null,object_01a.png,object_15c.png,,,,,,,,,,,,,,,,,,,,
1202.6000000238419,,rt_thecrossant_black3,1083000,,,,,,,,black_plus_sign,,,50,,,1,,,,,,,0.9375,,,,,,,,,,,,
null,,color_black3,1083103,,,,,,,,black_plus_sign,,,null,,,,,,,,,,,,,,,,,,,,,,
null,,learn_phase(without_color)3,1086606,,,,,,,,black_plus_sign,,,null,object_09a.png,object_07c.png,,,,,,,,,,,,,,,,,,,,
null,,black_cross(without_color)3,1087190,,,,,,,,green,,,null,object_09a.png,object_07c.png,,,,,,,,,,,,,,,,,,,,
475.10000002384186,,rt_plussign_withcolor3,1087691,,,,,,,,green,,,50,object_09a.png,object_07c.png,,,,,,,,,,,,,,,,,,,,
null,,rt_thecrossant_black3,1089110,,,,,,,,black_plus_sign,,,null,,,1,,,,,,,0.9411764705882353,,,,,,,,,,,,
null,,color_black3,1089212,,,,,,,,black_plus_sign,,,null,,,,,,,,,,,,,,,,,,,,,,
null,,learn_phase(without_color)3,1092714,,,,,,,,black_plus_sign,,,null,object_14c.png,object_12b.png,,,,,,,,,,,,,,,,,,,,
null,,black_cross(without_color)3,1093273,,,,,,,,green,,,null,object_14c.png,object_12b.png,,,,,,,,,,,,,,,,,,,,
null,,rt_plussign_withcolor3,1093775,,,,,,,,green,,,null,object_14c.png,object_12b.png,,,,,,,,,,,,,,,,,,,,
874.5,,rt_thecrossant_black3,1095220,,,,,,,,black_plus_sign,,,50,,,1,,,,,,,0.9444444444444444,,,,,,,,,,,,
null,,color_black3,1095321,,,,,,,,black_plus_sign,,,null,,,,,,,,,,,,,,,,,,,,,,
null,,learn_phase(without_color)3,1098823,,,,,,,,black_plus_sign,,,null,object_03b.png,object_14c.png,,,,,,,,,,,,,,,,,,,,
null,,black_cross(without_color)3,1099771,,,,,,,,green,,,null,object_03b.png,object_14c.png,,,,,,,,,,,,,,,,,,,,
null,,rt_plussign_withcolor3,1100273,,,,,,,,green,,,null,object_03b.png,object_14c.png,,,,,,,,,,,,,,,,,,,,
723.8000000715256,,rt_thecrossant_black3,1101330,,,,,,,,black_plus_sign,,,50,,,1,,,,,,,0.9473684210526315,,,,,,,,,,,,
null,,color_black3,1101432,,,,,,,,black_plus_sign,,,null,,,,,,,,,,,,,,,,,,,,,,
null,,learn_phase(without_color)3,1104935,,,,,,,,black_plus_sign,,,null,object_13b.png,object_13a.png,,,,,,,,,,,,,,,,,,,,
null,,black_cross(without_color)3,1105668,,,,,,,,blue,,,null,object_13b.png,object_13a.png,,,,,,,,,,,,,,,,,,,,
null,,rt_plussign_withcolor3,1106170,,,,,,,,blue,,,null,object_13b.png,object_13a.png,,,,,,,,,,,,,,,,,,,,
1158.2999999523163,,rt_thecrossant_black3,1107441,,,,,,,,black_plus_sign,,,49,,,1,,,,,,,0.95,,,,,,,,,,,,
null,,color_black3,1107544,,,,,,,,black_plus_sign,,,null,,,,,,,,,,,,,,,,,,,,,,
null,,learn_phase(without_color)3,1111047,,,,,,,,black_plus_sign,,,null,object_06c.png,object_06b.png,,,,,,,,,,,,,,,,,,,,
null,,black_cross(without_color)3,1111668,,,,,,,,blue,,,null,object_06c.png,object_06b.png,,,,,,,,,,,,,,,,,,,,
null,,rt_plussign_withcolor3,1112170,,,,,,,,blue,,,null,object_06c.png,object_06b.png,,,,,,,,,,,,,,,,,,,,
910.3999999761581,,rt_thecrossant_black3,1113553,,,,,,,,black_plus_sign,,,49,,,1,,,,,,,0.9523809523809523,,,,,,,,,,,,
null,,color_black3,1113655,,,,,,,,black_plus_sign,,,null,,,,,,,,,,,,,,,,,,,,,,
null,,learn_phase(without_color)3,1117158,,,,,,,,black_plus_sign,,,null,object_09b.png,object_06a.png,,,,,,,,,,,,,,,,,,,,
null,,black_cross(without_color)3,1117692,,,,,,,,blue,,,null,object_09b.png,object_06a.png,,,,,,,,,,,,,,,,,,,,
412.3000000715256,,rt_plussign_withcolor3,1118195,,,,,,,,blue,,,49,object_09b.png,object_06a.png,,,,,,,,,,,,,,,,,,,,
null,,rt_thecrossant_black3,1119665,,,,,,,,black_plus_sign,,,null,,,1,,,,,,,0.9545454545454546,,,,,,,,,,,,
null,,color_black3,1119766,,,,,,,,black_plus_sign,,,null,,,,,,,,,,,,,,,,,,,,,,
null,,learn_phase(without_color)3,1123268,,,,,,,,black_plus_sign,,,null,object_05c.png,object_02a.png,,,,,,,,,,,,,,,,,,,,
null,,black_cross(without_color)3,1124317,,,,,,,,green,,,null,object_05c.png,object_02a.png,,,,,,,,,,,,,,,,,,,,
null,,rt_plussign_withcolor3,1124819,,,,,,,,green,,,null,object_05c.png,object_02a.png,,,,,,,,,,,,,,,,,,,,
657.8999999761581,,rt_thecrossant_black3,1125774,,,,,,,,black_plus_sign,,,50,,,1,,,,,,,0.9565217391304348,,,,,,,,,,,,
null,,color_black3,1125877,,,,,,,,black_plus_sign,,,null,,,,,,,,,,,,,,,,,,,,,,
null,,learn_phase(without_color)3,1129379,,,,,,,,black_plus_sign,,,null,object_02a.png,object_07a.png,,,,,,,,,,,,,,,,,,,,
null,,black_cross(without_color)3,1129929,,,,,,,,blue,,,null,object_02a.png,object_07a.png,,,,,,,,,,,,,,,,,,,,
null,,rt_plussign_withcolor3,1130430,,,,,,,,blue,,,null,object_02a.png,object_07a.png,,,,,,,,,,,,,,,,,,,,
1237.6000000238419,,rt_thecrossant_black3,1131885,,,,,,,,black_plus_sign,,,50,,,0,,,,,,,0.9166666666666666,,,,,,,,,,,,
null,,warning_page,1136888,,,,,,,,warning,,,null,,,,,,,,,,,,,,,,,,,,,,
null,,color_black3,1136989,,,,,,,,black_plus_sign,,,null,,,,,,,,,,,,,,,,,,,,,,
null,,learn_phase(without_color)3,1140492,,,,,,,,black_plus_sign,,,null,object_13a.png,object_12a.png,,,,,,,,,,,,,,,,,,,,
null,,black_cross(without_color)3,1141436,,,,,,,,green,,,null,object_13a.png,object_12a.png,,,,,,,,,,,,,,,,,,,,
null,,rt_plussign_withcolor3,1141938,,,,,,,,green,,,null,object_13a.png,object_12a.png,,,,,,,,,,,,,,,,,,,,
717.5,,rt_thecrossant_black3,1142999,,,,,,,,black_plus_sign,,,50,,,1,,,,,,,0.92,,,,,,,,,,,,
null,,color_black3,1143101,,,,,,,,black_plus_sign,,,null,,,,,,,,,,,,,,,,,,,,,,
null,,learn_phase(without_color)3,1146604,,,,,,,,black_plus_sign,,,null,object_02c.png,object_02b.png,,,,,,,,,,,,,,,,,,,,
null,,black_cross(without_color)3,1147297,,,,,,,,blue,,,null,object_02c.png,object_02b.png,,,,,,,,,,,,,,,,,,,,
null,,rt_plussign_withcolor3,1147798,,,,,,,,blue,,,null,object_02c.png,object_02b.png,,,,,,,,,,,,,,,,,,,,
1517.2999999523163,,rt_thecrossant_black3,1149111,,,,,,,,black_plus_sign,,,49,,,1,,,,,,,0.9230769230769231,,,,,,,,,,,,
null,,color_black3,1149213,,,,,,,,black_plus_sign,,,null,,,,,,,,,,,,,,,,,,,,,,
null,,learn_phase(without_color)3,1152715,,,,,,,,black_plus_sign,,,null,object_12c.png,object_13c.png,,,,,,,,,,,,,,,,,,,,
null,,black_cross(without_color)3,1153583,,,,,,,,green,,,null,object_12c.png,object_13c.png,,,,,,,,,,,,,,,,,,,,
454.39999997615814,,rt_plussign_withcolor3,1154086,,,,,,,,green,,,50,object_12c.png,object_13c.png,,,,,,,,,,,,,,,,,,,,
null,,rt_thecrossant_black3,1155223,,,,,,,,black_plus_sign,,,null,,,1,,,,,,,0.9259259259259259,,,,,,,,,,,,
null,,color_black3,1155325,,,,,,,,black_plus_sign,,,null,,,,,,,,,,,,,,,,,,,,,,
null,,learn_phase(without_color)3,1158827,,,,,,,,black_plus_sign,,,null,object_15a.png,object_01a.png,,,,,,,,,,,,,,,,,,,,
null,,black_cross(without_color)3,1159783,,,,,,,,blue,,,null,object_15a.png,object_01a.png,,,,,,,,,,,,,,,,,,,,
395.3000000715256,,rt_plussign_withcolor3,1160285,,,,,,,,blue,,,49,object_15a.png,object_01a.png,,,,,,,,,,,,,,,,,,,,
null,,rt_thecrossant_black3,1161333,,,,,,,,black_plus_sign,,,null,,,1,,,,,,,0.9285714285714286,,,,,,,,,,,,
null,,color_black3,1161435,,,,,,,,black_plus_sign,,,null,,,,,,,,,,,,,,,,,,,,,,
null,,thebreak,1161538,,,,,,,,<p></p>,,,null,,,,,,,,,,,,,,,,,,,,,,
2242.7000000476837,,intro_0,1163781,,,,,,,,instruct,,,32,,,,,,,,,,,,,,,,,,,,,,
2675.7999999523163,,directmemory_phase3,1166458,,,,,,,,object_08a.png,,,51,,,1,,object_09b.png,object_02c.png,object_11c.png,object_11c.png,,0.4918032786885246,1,,,,,,,,,,,
7018.099999904633,,directmemory_phase3,1173478,,,,,,,,object_10c.png,,,51,,,0,,object_11b.png,object_15b.png,object_14c.png,object_15b.png,,0.4838709677419355,0,,,,,,,,,,,
1397.8999999761581,,directmemory_phase3,1174878,,,,,,,,object_05b.png,,,50,,,1,,object_02c.png,object_13c.png,object_09a.png,object_13c.png,,0.49206349206349204,1,,,,,,,,,,,
3061.1999999284744,,directmemory_phase3,1177941,,,,,,,,object_07c.png,,,50,,,1,,object_09b.png,object_09a.png,object_06c.png,object_09a.png,,0.5,1,,,,,,,,,,,
3044.5,,directmemory_phase3,1180988,,,,,,,,object_09a.png,,,51,,,1,,object_03a.png,object_01b.png,object_01c.png,object_01c.png,,0.5076923076923077,1,,,,,,,,,,,
1711.3999999761581,,directmemory_phase3,1182701,,,,,,,,object_14b.png,,,50,,,1,,object_04b.png,object_04c.png,object_13c.png,object_04c.png,,0.5151515151515151,1,,,,,,,,,,,
4738.300000071526,,directmemory_phase3,1187441,,,,,,,,object_15c.png,,,50,,,0,,object_01a.png,object_02c.png,object_15b.png,object_01a.png,,0.5074626865671642,0,,,,,,,,,,,
1855,,directmemory_phase3,1189298,,,,,,,,object_12a.png,,,49,,,1,,object_13a.png,object_02c.png,object_15b.png,object_13a.png,,0.5147058823529411,1,,,,,,,,,,,
2254.5999999046326,,directmemory_phase3,1191554,,,,,,,,object_04c.png,,,51,,,0,,object_09c.png,object_04a.png,object_01c.png,object_04a.png,,0.5072463768115942,0,,,,,,,,,,,
3067.600000023842,,directmemory_phase3,1194624,,,,,,,,object_10a.png,,,50,,,0,,object_07b.png,object_01c.png,object_09c.png,object_09c.png,,0.5,0,,,,,,,,,,,
2167.399999976158,,directmemory_phase3,1196793,,,,,,,,object_06b.png,,,51,,,1,,object_14c.png,object_11c.png,object_06c.png,object_06c.png,,0.5070422535211268,1,,,,,,,,,,,
1702.5999999046326,,directmemory_phase3,1198498,,,,,,,,object_06a.png,,,49,,,1,,object_09b.png,object_10a.png,object_14c.png,object_09b.png,,0.5138888888888888,1,,,,,,,,,,,
3505.5,,directmemory_phase3,1202005,,,,,,,,object_10b.png,,,50,,,0,,object_04b.png,object_13a.png,object_15b.png,object_04b.png,,0.5068493150684932,0,,,,,,,,,,,
3961.100000023842,,directmemory_phase3,1205968,,,,,,,,object_06c.png,,,49,,,1,,object_03c.png,object_01b.png,object_09c.png,object_03c.png,,0.5135135135135135,1,,,,,,,,,,,
4102.5,,directmemory_phase3,1210072,,,,,,,,object_07a.png,,,49,,,1,,object_02a.png,object_04c.png,object_14c.png,object_02a.png,,0.52,1,,,,,,,,,,,
3816.100000023842,,directmemory_phase3,1213889,,,,,,,,object_11b.png,,,50,,,1,,object_13b.png,object_14a.png,object_08b.png,object_14a.png,,0.5263157894736842,1,,,,,,,,,,,
3477,,directmemory_phase3,1217367,,,,,,,,object_13a.png,,,51,,,1,,object_05c.png,object_12c.png,object_13b.png,object_13b.png,,0.5324675324675324,1,,,,,,,,,,,
1235,,directmemory_phase3,1218604,,,,,,,,object_11c.png,,,50,,,1,,object_03b.png,object_07b.png,object_08b.png,object_07b.png,,0.5384615384615384,1,,,,,,,,,,,
1447.3999999761581,,directmemory_phase3,1220053,,,,,,,,object_15b.png,,,49,,,1,,object_08b.png,object_03b.png,object_14a.png,object_08b.png,,0.5443037974683544,1,,,,,,,,,,,
4032.2000000476837,,directmemory_phase3,1224087,,,,,,,,object_13c.png,,,51,,,0,,object_12c.png,object_03b.png,object_01c.png,object_12c.png,,0.5375,0,,,,,,,,,,,
3142.5,,directmemory_phase3,1227231,,,,,,,,object_08c.png,,,49,,,1,,object_10a.png,object_06c.png,object_02c.png,object_10a.png,,0.5432098765432098,1,,,,,,,,,,,
1325.8999999761581,,directmemory_phase3,1228558,,,,,,,,object_02a.png,,,50,,,1,,object_12c.png,object_05c.png,object_01b.png,object_05c.png,,0.5487804878048781,1,,,,,,,,,,,
2393.100000023842,,directmemory_phase3,1230953,,,,,,,,object_14c.png,,,49,,,1,,object_03b.png,object_13b.png,object_09c.png,object_03b.png,,0.5542168674698795,1,,,,,,,,,,,
1878.6999999284744,,directmemory_phase3,1232833,,,,,,,,object_12b.png,,,49,,,1,,object_14c.png,object_09a.png,object_13a.png,object_14c.png,,0.5595238095238095,1,,,,,,,,,,,
2864.7000000476837,,directmemory_phase3,1235699,,,,,,,,object_09b.png,,,50,,,1,,object_03a.png,object_11a.png,object_05c.png,object_11a.png,,0.5647058823529412,1,,,,,,,,,,,
2173.5,,directmemory_phase3,1237875,,,,,,,,object_02c.png,,,49,,,0,,object_13b.png,object_03a.png,object_14a.png,object_03a.png,,0.5581395348837209,0,,,,,,,,,,,
1205.1000000238419,,directmemory_phase3,1239082,,,,,,,,object_04b.png,,,50,,,0,,object_03b.png,object_07b.png,object_01b.png,object_01b.png,,0.5517241379310345,0,,,,,,,,,,,
4178.799999952316,,directmemory_phase3,1243263,,,,,,,,object_05a.png,,,49,,,0,,object_10a.png,object_11b.png,object_02c.png,object_11b.png,,0.5454545454545454,0,,,,,,,,,,,
3547.2999999523163,,directmemory_phase3,1246812,,,,,,,,object_02b.png,,,51,,,1,,object_11c.png,object_06c.png,object_02c.png,object_02c.png,,0.550561797752809,1,,,,,,,,,,,
2589.100000023842,,directmemory_phase3,1249403,,,,,,,,object_01a.png,,,51,,,1,,object_03b.png,object_04a.png,object_15a.png,object_15a.png,,0.5555555555555556,1,,,,,,,,,,,
null,,thebreak,1249506,,,,,,,,<p></p>,,,null,,,,,,,,,,,,,,,,,,,,,,
1587.2999999523163,,intro_0,1251094,,,,,,,,instruct,,,32,,,,,,,,,,,,,,,,,,,,,,
null,,learn_phase(without_color)4,1254596,,,,,,,,black_plus_sign,,,null,object_01c.png,object_09a.png,,,,,,,,,,,,,,,,,,,,
null,,black_cross(without_color)4,1255574,,,,,,,,green,,,null,object_01c.png,object_09a.png,,,,,,,,,,,,,,,,,,,,
null,,rt_plussign_withcolor4,1256075,,,,,,,,green,,,null,object_01c.png,object_09a.png,,,,,,,,,,,,,,,,,,,,
1674.3000000715256,,rt_thecrossant_black4,1257101,,,,,,,,black_plus_sign,,,50,,,1,,,,,,,1,,,,,,,,,,,,
null,,color_black4,1257203,,,,,,,,black_plus_sign,,,null,,,,,,,,,,,,,,,,,,,,,,
null,,learn_phase(without_color)4,1260704,,,,,,,,black_plus_sign,,,null,object_09b.png,object_06a.png,,,,,,,,,,,,,,,,,,,,
null,,black_cross(without_color)4,1261556,,,,,,,,green,,,null,object_09b.png,object_06a.png,,,,,,,,,,,,,,,,,,,,
null,,rt_plussign_withcolor4,1262057,,,,,,,,green,,,null,object_09b.png,object_06a.png,,,,,,,,,,,,,,,,,,,,
null,,rt_thecrossant_black4,1263209,,,,,,,,black_plus_sign,,,null,,,,,,,,,,1,,,,,,,,,,,,
null,,warning_page,1268211,,,,,,,,warning,,,null,,,,,,,,,,,,,,,,,,,,,,
null,,color_black4,1268314,,,,,,,,black_plus_sign,,,null,,,,,,,,,,,,,,,,,,,,,,
null,,learn_phase(without_color)4,1271816,,,,,,,,black_plus_sign,,,null,object_13b.png,object_13a.png,,,,,,,,,,,,,,,,,,,,
null,,black_cross(without_color)4,1272692,,,,,,,,blue,,,null,object_13b.png,object_13a.png,,,,,,,,,,,,,,,,,,,,
null,,rt_plussign_withcolor4,1273194,,,,,,,,blue,,,null,object_13b.png,object_13a.png,,,,,,,,,,,,,,,,,,,,
1271.2999999523163,,rt_thecrossant_black4,1274322,,,,,,,,black_plus_sign,,,50,,,0,,,,,,,0.5,,,,,,,,,,,,
null,,warning_page,1279325,,,,,,,,warning,,,null,,,,,,,,,,,,,,,,,,,,,,
null,,color_black4,1279426,,,,,,,,black_plus_sign,,,null,,,,,,,,,,,,,,,,,,,,,,
null,,learn_phase(without_color)4,1282929,,,,,,,,black_plus_sign,,,null,object_13c.png,object_05b.png,,,,,,,,,,,,,,,,,,,,
null,,black_cross(without_color)4,1283520,,,,,,,,blue,,,null,object_13c.png,object_05b.png,,,,,,,,,,,,,,,,,,,,
null,,rt_plussign_withcolor4,1284021,,,,,,,,blue,,,null,object_13c.png,object_05b.png,,,,,,,,,,,,,,,,,,,,
1177.8999999761581,,rt_thecrossant_black4,1285434,,,,,,,,black_plus_sign,,,49,,,1,,,,,,,0.6666666666666666,,,,,,,,,,,,
null,,color_black4,1285537,,,,,,,,black_plus_sign,,,null,,,,,,,,,,,,,,,,,,,,,,
null,,learn_phase(without_color)4,1289039,,,,,,,,black_plus_sign,,,null,object_08b.png,object_15b.png,,,,,,,,,,,,,,,,,,,,
null,,black_cross(without_color)4,1289866,,,,,,,,blue,,,null,object_08b.png,object_15b.png,,,,,,,,,,,,,,,,,,,,
null,,rt_plussign_withcolor4,1290368,,,,,,,,blue,,,null,object_08b.png,object_15b.png,,,,,,,,,,,,,,,,,,,,
721.2999999523163,,rt_thecrossant_black4,1291544,,,,,,,,black_plus_sign,,,49,,,1,,,,,,,0.75,,,,,,,,,,,,
null,,color_black4,1291646,,,,,,,,black_plus_sign,,,null,,,,,,,,,,,,,,,,,,,,,,
null,,learn_phase(without_color)4,1295149,,,,,,,,black_plus_sign,,,null,object_05c.png,object_02a.png,,,,,,,,,,,,,,,,,,,,
null,,black_cross(without_color)4,1295639,,,,,,,,blue,,,null,object_05c.png,object_02a.png,,,,,,,,,,,,,,,,,,,,
null,,rt_plussign_withcolor4,1296141,,,,,,,,blue,,,null,object_05c.png,object_02a.png,,,,,,,,,,,,,,,,,,,,
1002,,rt_thecrossant_black4,1297655,,,,,,,,black_plus_sign,,,49,,,1,,,,,,,0.8,,,,,,,,,,,,
null,,color_black4,1297759,,,,,,,,black_plus_sign,,,null,,,,,,,,,,,,,,,,,,,,,,
null,,learn_phase(without_color)4,1301261,,,,,,,,black_plus_sign,,,null,object_12c.png,object_13c.png,,,,,,,,,,,,,,,,,,,,
null,,black_cross(without_color)4,1301899,,,,,,,,blue,,,null,object_12c.png,object_13c.png,,,,,,,,,,,,,,,,,,,,
null,,rt_plussign_withcolor4,1302400,,,,,,,,blue,,,null,object_12c.png,object_13c.png,,,,,,,,,,,,,,,,,,,,
661.7000000476837,,rt_thecrossant_black4,1303767,,,,,,,,black_plus_sign,,,49,,,1,,,,,,,0.8333333333333334,,,,,,,,,,,,
null,,color_black4,1303869,,,,,,,,black_plus_sign,,,null,,,,,,,,,,,,,,,,,,,,,,
null,,learn_phase(without_color)4,1307371,,,,,,,,black_plus_sign,,,null,object_09a.png,object_07c.png,,,,,,,,,,,,,,,,,,,,
null,,black_cross(without_color)4,1308119,,,,,,,,blue,,,null,object_09a.png,object_07c.png,,,,,,,,,,,,,,,,,,,,
null,,rt_plussign_withcolor4,1308621,,,,,,,,blue,,,null,object_09a.png,object_07c.png,,,,,,,,,,,,,,,,,,,,
783.1000000238419,,rt_thecrossant_black4,1309879,,,,,,,,black_plus_sign,,,49,,,1,,,,,,,0.8571428571428571,,,,,,,,,,,,
null,,color_black4,1309981,,,,,,,,black_plus_sign,,,null,,,,,,,,,,,,,,,,,,,,,,
null,,learn_phase(without_color)4,1313484,,,,,,,,black_plus_sign,,,null,object_04a.png,object_04c.png,,,,,,,,,,,,,,,,,,,,
null,,black_cross(without_color)4,1314019,,,,,,,,blue,,,null,object_04a.png,object_04c.png,,,,,,,,,,,,,,,,,,,,
null,,rt_plussign_withcolor4,1314520,,,,,,,,blue,,,null,object_04a.png,object_04c.png,,,,,,,,,,,,,,,,,,,,
1031.1999999284744,,rt_thecrossant_black4,1315989,,,,,,,,black_plus_sign,,,49,,,1,,,,,,,0.875,,,,,,,,,,,,
null,,color_black4,1316090,,,,,,,,black_plus_sign,,,null,,,,,,,,,,,,,,,,,,,,,,
null,,learn_phase(without_color)4,1319592,,,,,,,,black_plus_sign,,,null,object_11b.png,object_05a.png,,,,,,,,,,,,,,,,,,,,
null,,black_cross(without_color)4,1320597,,,,,,,,green,,,null,object_11b.png,object_05a.png,,,,,,,,,,,,,,,,,,,,
447.7999999523163,,rt_plussign_withcolor4,1321099,,,,,,,,green,,,50,object_11b.png,object_05a.png,,,,,,,,,,,,,,,,,,,,
null,,rt_thecrossant_black4,1322096,,,,,,,,black_plus_sign,,,null,,,1,,,,,,,0.8888888888888888,,,,,,,,,,,,
null,,color_black4,1322198,,,,,,,,black_plus_sign,,,null,,,,,,,,,,,,,,,,,,,,,,
null,,learn_phase(without_color)4,1325700,,,,,,,,black_plus_sign,,,null,object_03a.png,object_02c.png,,,,,,,,,,,,,,,,,,,,
null,,black_cross(without_color)4,1326472,,,,,,,,green,,,null,object_03a.png,object_02c.png,,,,,,,,,,,,,,,,,,,,
null,,rt_plussign_withcolor4,1326974,,,,,,,,green,,,null,object_03a.png,object_02c.png,,,,,,,,,,,,,,,,,,,,
1186,,rt_thecrossant_black4,1328206,,,,,,,,black_plus_sign,,,50,,,1,,,,,,,0.9,,,,,,,,,,,,
null,,color_black4,1328309,,,,,,,,black_plus_sign,,,null,,,,,,,,,,,,,,,,,,,,,,
null,,learn_phase(without_color)4,1331811,,,,,,,,black_plus_sign,,,null,object_13a.png,object_12a.png,,,,,,,,,,,,,,,,,,,,
null,,black_cross(without_color)4,1332629,,,,,,,,blue,,,null,object_13a.png,object_12a.png,,,,,,,,,,,,,,,,,,,,
null,,rt_plussign_withcolor4,1333131,,,,,,,,blue,,,null,object_13a.png,object_12a.png,,,,,,,,,,,,,,,,,,,,
1101.8999999761581,,rt_thecrossant_black4,1334316,,,,,,,,black_plus_sign,,,49,,,1,,,,,,,0.9090909090909091,,,,,,,,,,,,
null,,color_black4,1334420,,,,,,,,black_plus_sign,,,null,,,,,,,,,,,,,,,,,,,,,,
null,,learn_phase(without_color)4,1337922,,,,,,,,black_plus_sign,,,null,object_06c.png,object_06b.png,,,,,,,,,,,,,,,,,,,,
null,,black_cross(without_color)4,1339014,,,,,,,,green,,,null,object_06c.png,object_06b.png,,,,,,,,,,,,,,,,,,,,
428.3000000715256,,rt_plussign_withcolor4,1339516,,,,,,,,green,,,50,object_06c.png,object_06b.png,,,,,,,,,,,,,,,,,,,,
null,,rt_thecrossant_black4,1340429,,,,,,,,black_plus_sign,,,null,,,1,,,,,,,0.9166666666666666,,,,,,,,,,,,
null,,color_black4,1340532,,,,,,,,black_plus_sign,,,null,,,,,,,,,,,,,,,,,,,,,,
null,,learn_phase(without_color)4,1344035,,,,,,,,black_plus_sign,,,null,object_04c.png,object_14b.png,,,,,,,,,,,,,,,,,,,,
null,,black_cross(without_color)4,1345103,,,,,,,,green,,,null,object_04c.png,object_14b.png,,,,,,,,,,,,,,,,,,,,
null,,rt_plussign_withcolor4,1345604,,,,,,,,green,,,null,object_04c.png,object_14b.png,,,,,,,,,,,,,,,,,,,,
1219.5999999046326,,rt_thecrossant_black4,1346540,,,,,,,,black_plus_sign,,,50,,,1,,,,,,,0.9230769230769231,,,,,,,,,,,,
null,,color_black4,1346641,,,,,,,,black_plus_sign,,,null,,,,,,,,,,,,,,,,,,,,,,
null,,learn_phase(without_color)4,1350145,,,,,,,,black_plus_sign,,,null,object_10a.png,object_08c.png,,,,,,,,,,,,,,,,,,,,
null,,black_cross(without_color)4,1350677,,,,,,,,green,,,null,object_10a.png,object_08c.png,,,,,,,,,,,,,,,,,,,,
null,,rt_plussign_withcolor4,1351179,,,,,,,,green,,,null,object_10a.png,object_08c.png,,,,,,,,,,,,,,,,,,,,
1265.6000000238419,,rt_thecrossant_black4,1352652,,,,,,,,black_plus_sign,,,50,,,1,,,,,,,0.9285714285714286,,,,,,,,,,,,
null,,color_black4,1352754,,,,,,,,black_plus_sign,,,null,,,,,,,,,,,,,,,,,,,,,,
null,,learn_phase(without_color)4,1356257,,,,,,,,black_plus_sign,,,null,object_11c.png,object_08a.png,,,,,,,,,,,,,,,,,,,,
null,,black_cross(without_color)4,1357176,,,,,,,,green,,,null,object_11c.png,object_08a.png,,,,,,,,,,,,,,,,,,,,
null,,rt_plussign_withcolor4,1357678,,,,,,,,green,,,null,object_11c.png,object_08a.png,,,,,,,,,,,,,,,,,,,,
629.8999999761581,,rt_thecrossant_black4,1358764,,,,,,,,black_plus_sign,,,50,,,1,,,,,,,0.9333333333333333,,,,,,,,,,,,
null,,color_black4,1358876,,,,,,,,black_plus_sign,,,null,,,,,,,,,,,,,,,,,,,,,,
null,,learn_phase(without_color)4,1362378,,,,,,,,black_plus_sign,,,null,object_15b.png,object_10c.png,,,,,,,,,,,,,,,,,,,,
null,,black_cross(without_color)4,1363349,,,,,,,,green,,,null,object_15b.png,object_10c.png,,,,,,,,,,,,,,,,,,,,
426.10000002384186,,rt_plussign_withcolor4,1363850,,,,,,,,green,,,50,object_15b.png,object_10c.png,,,,,,,,,,,,,,,,,,,,
null,,rt_thecrossant_black4,1364883,,,,,,,,black_plus_sign,,,null,,,1,,,,,,,0.9375,,,,,,,,,,,,
null,,color_black4,1364984,,,,,,,,black_plus_sign,,,null,,,,,,,,,,,,,,,,,,,,,,
null,,learn_phase(without_color)4,1368488,,,,,,,,black_plus_sign,,,null,object_02a.png,object_07a.png,,,,,,,,,,,,,,,,,,,,
null,,black_cross(without_color)4,1369434,,,,,,,,blue,,,null,object_02a.png,object_07a.png,,,,,,,,,,,,,,,,,,,,
null,,rt_plussign_withcolor4,1369936,,,,,,,,blue,,,null,object_02a.png,object_07a.png,,,,,,,,,,,,,,,,,,,,
1379.8999999761581,,rt_thecrossant_black4,1370995,,,,,,,,black_plus_sign,,,49,,,1,,,,,,,0.9411764705882353,,,,,,,,,,,,
null,,color_black4,1371097,,,,,,,,black_plus_sign,,,null,,,,,,,,,,,,,,,,,,,,,,
null,,learn_phase(without_color)4,1374600,,,,,,,,black_plus_sign,,,null,object_01b.png,object_04b.png,,,,,,,,,,,,,,,,,,,,
null,,black_cross(without_color)4,1375188,,,,,,,,blue,,,null,object_01b.png,object_04b.png,,,,,,,,,,,,,,,,,,,,
468.60000002384186,,rt_plussign_withcolor4,1375689,,,,,,,,blue,,,49,object_01b.png,object_04b.png,,,,,,,,,,,,,,,,,,,,
null,,rt_thecrossant_black4,1377105,,,,,,,,black_plus_sign,,,null,,,1,,,,,,,0.9444444444444444,,,,,,,,,,,,
null,,color_black4,1377207,,,,,,,,black_plus_sign,,,null,,,,,,,,,,,,,,,,,,,,,,
null,,learn_phase(without_color)4,1380709,,,,,,,,black_plus_sign,,,null,object_14a.png,object_11b.png,,,,,,,,,,,,,,,,,,,,
null,,black_cross(without_color)4,1381551,,,,,,,,green,,,null,object_14a.png,object_11b.png,,,,,,,,,,,,,,,,,,,,
443.7000000476837,,rt_plussign_withcolor4,1382053,,,,,,,,green,,,50,object_14a.png,object_11b.png,,,,,,,,,,,,,,,,,,,,
null,,rt_thecrossant_black4,1383215,,,,,,,,black_plus_sign,,,null,,,1,,,,,,,0.9473684210526315,,,,,,,,,,,,
null,,color_black4,1383318,,,,,,,,black_plus_sign,,,null,,,,,,,,,,,,,,,,,,,,,,
null,,learn_phase(without_color)4,1386820,,,,,,,,black_plus_sign,,,null,object_11a.png,object_09b.png,,,,,,,,,,,,,,,,,,,,
null,,black_cross(without_color)4,1387809,,,,,,,,blue,,,null,object_11a.png,object_09b.png,,,,,,,,,,,,,,,,,,,,
397.2999999523163,,rt_plussign_withcolor4,1388311,,,,,,,,blue,,,49,object_11a.png,object_09b.png,,,,,,,,,,,,,,,,,,,,
null,,rt_thecrossant_black4,1389327,,,,,,,,black_plus_sign,,,null,,,1,,,,,,,0.95,,,,,,,,,,,,
null,,color_black4,1389429,,,,,,,,black_plus_sign,,,null,,,,,,,,,,,,,,,,,,,,,,
null,,learn_phase(without_color)4,1392931,,,,,,,,black_plus_sign,,,null,object_15a.png,object_01a.png,,,,,,,,,,,,,,,,,,,,
null,,black_cross(without_color)4,1393789,,,,,,,,green,,,null,object_15a.png,object_01a.png,,,,,,,,,,,,,,,,,,,,
null,,rt_plussign_withcolor4,1394291,,,,,,,,green,,,null,object_15a.png,object_01a.png,,,,,,,,,,,,,,,,,,,,
1385.3000000715256,,rt_thecrossant_black4,1395437,,,,,,,,black_plus_sign,,,50,,,1,,,,,,,0.9523809523809523,,,,,,,,,,,,
null,,color_black4,1395538,,,,,,,,black_plus_sign,,,null,,,,,,,,,,,,,,,,,,,,,,
null,,learn_phase(without_color)4,1399041,,,,,,,,black_plus_sign,,,null,object_14c.png,object_12b.png,,,,,,,,,,,,,,,,,,,,
null,,black_cross(without_color)4,1399537,,,,,,,,green,,,null,object_14c.png,object_12b.png,,,,,,,,,,,,,,,,,,,,
null,,rt_plussign_withcolor4,1400039,,,,,,,,green,,,null,object_14c.png,object_12b.png,,,,,,,,,,,,,,,,,,,,
1109.5,,rt_thecrossant_black4,1401548,,,,,,,,black_plus_sign,,,50,,,1,,,,,,,0.9545454545454546,,,,,,,,,,,,
null,,color_black4,1401651,,,,,,,,black_plus_sign,,,null,,,,,,,,,,,,,,,,,,,,,,
null,,learn_phase(without_color)4,1405153,,,,,,,,black_plus_sign,,,null,object_03c.png,object_06c.png,,,,,,,,,,,,,,,,,,,,
null,,black_cross(without_color)4,1406104,,,,,,,,green,,,null,object_03c.png,object_06c.png,,,,,,,,,,,,,,,,,,,,
424.60000002384186,,rt_plussign_withcolor4,1406605,,,,,,,,green,,,50,object_03c.png,object_06c.png,,,,,,,,,,,,,,,,,,,,
null,,rt_thecrossant_black4,1407659,,,,,,,,black_plus_sign,,,null,,,1,,,,,,,0.9565217391304348,,,,,,,,,,,,
null,,color_black4,1407761,,,,,,,,black_plus_sign,,,null,,,,,,,,,,,,,,,,,,,,,,
null,,learn_phase(without_color)4,1411263,,,,,,,,black_plus_sign,,,null,object_07b.png,object_11c.png,,,,,,,,,,,,,,,,,,,,
null,,black_cross(without_color)4,1412307,,,,,,,,green,,,null,object_07b.png,object_11c.png,,,,,,,,,,,,,,,,,,,,
null,,rt_plussign_withcolor4,1412809,,,,,,,,green,,,null,object_07b.png,object_11c.png,,,,,,,,,,,,,,,,,,,,
1303.5,,rt_thecrossant_black4,1413783,,,,,,,,black_plus_sign,,,50,,,1,,,,,,,0.9583333333333334,,,,,,,,,,,,
null,,color_black4,1413884,,,,,,,,black_plus_sign,,,null,,,,,,,,,,,,,,,,,,,,,,
null,,learn_phase(without_color)4,1417386,,,,,,,,black_plus_sign,,,null,object_02c.png,object_02b.png,,,,,,,,,,,,,,,,,,,,
null,,black_cross(without_color)4,1418073,,,,,,,,blue,,,null,object_02c.png,object_02b.png,,,,,,,,,,,,,,,,,,,,
335.10000002384186,,rt_plussign_withcolor4,1418576,,,,,,,,blue,,,49,object_02c.png,object_02b.png,,,,,,,,,,,,,,,,,,,,
null,,rt_thecrossant_black4,1419892,,,,,,,,black_plus_sign,,,null,,,1,,,,,,,0.96,,,,,,,,,,,,
null,,color_black4,1419994,,,,,,,,black_plus_sign,,,null,,,,,,,,,,,,,,,,,,,,,,
null,,learn_phase(without_color)4,1423497,,,,,,,,black_plus_sign,,,null,object_09c.png,object_10a.png,,,,,,,,,,,,,,,,,,,,
null,,black_cross(without_color)4,1424113,,,,,,,,blue,,,null,object_09c.png,object_10a.png,,,,,,,,,,,,,,,,,,,,
null,,rt_plussign_withcolor4,1424615,,,,,,,,blue,,,null,object_09c.png,object_10a.png,,,,,,,,,,,,,,,,,,,,
807,,rt_thecrossant_black4,1426003,,,,,,,,black_plus_sign,,,49,,,1,,,,,,,0.9615384615384616,,,,,,,,,,,,
null,,color_black4,1426106,,,,,,,,black_plus_sign,,,null,,,,,,,,,,,,,,,,,,,,,,
null,,learn_phase(without_color)4,1429608,,,,,,,,black_plus_sign,,,null,object_04b.png,object_10b.png,,,,,,,,,,,,,,,,,,,,
null,,black_cross(without_color)4,1430120,,,,,,,,green,,,null,object_04b.png,object_10b.png,,,,,,,,,,,,,,,,,,,,
373,,rt_plussign_withcolor4,1430621,,,,,,,,green,,,50,object_04b.png,object_10b.png,,,,,,,,,,,,,,,,,,,,
null,,rt_thecrossant_black4,1432113,,,,,,,,black_plus_sign,,,null,,,1,,,,,,,0.9629629629629629,,,,,,,,,,,,
null,,color_black4,1432215,,,,,,,,black_plus_sign,,,null,,,,,,,,,,,,,,,,,,,,,,
null,,learn_phase(without_color)4,1435718,,,,,,,,black_plus_sign,,,null,object_01a.png,object_15c.png,,,,,,,,,,,,,,,,,,,,
null,,black_cross(without_color)4,1436569,,,,,,,,green,,,null,object_01a.png,object_15c.png,,,,,,,,,,,,,,,,,,,,
null,,rt_plussign_withcolor4,1437071,,,,,,,,green,,,null,object_01a.png,object_15c.png,,,,,,,,,,,,,,,,,,,,
698.6000000238419,,rt_thecrossant_black4,1438225,,,,,,,,black_plus_sign,,,50,,,1,,,,,,,0.9642857142857143,,,,,,,,,,,,
null,,color_black4,1438329,,,,,,,,black_plus_sign,,,null,,,,,,,,,,,,,,,,,,,,,,
null,,learn_phase(without_color)4,1441831,,,,,,,,black_plus_sign,,,null,object_03b.png,object_14c.png,,,,,,,,,,,,,,,,,,,,
null,,black_cross(without_color)4,1442546,,,,,,,,green,,,null,object_03b.png,object_14c.png,,,,,,,,,,,,,,,,,,,,
499.7000000476837,,rt_plussign_withcolor4,1443048,,,,,,,,green,,,50,object_03b.png,object_14c.png,,,,,,,,,,,,,,,,,,,,
null,,rt_thecrossant_black4,1444338,,,,,,,,black_plus_sign,,,null,,,1,,,,,,,0.9655172413793104,,,,,,,,,,,,
null,,color_black4,1444441,,,,,,,,black_plus_sign,,,null,,,,,,,,,,,,,,,,,,,,,,
null,,thebreak,1444543,,,,,,,,<p></p>,,,null,,,,,,,,,,,,,,,,,,,,,,
4025.2999999523163,,intro_0,1448569,,,,,,,,instruct,,,32,,,,,,,,,,,,,,,,,,,,,,
4083.2000000476837,,directmemory_phase4,1452653,,,,,,,,object_15b.png,,,49,,,1,,object_08b.png,object_05c.png,object_04a.png,object_08b.png,,0.5604395604395604,1,,,,,,,,,,,
3648.9000000953674,,directmemory_phase4,1456304,,,,,,,,object_08c.png,,,50,,,1,,object_15b.png,object_10a.png,object_09b.png,object_10a.png,,0.5652173913043478,1,,,,,,,,,,,
2923.5,,directmemory_phase4,1459228,,,,,,,,object_06c.png,,,50,,,0,,object_03c.png,object_11a.png,object_13b.png,object_03c.png,,0.5591397849462365,0,,,,,,,,,,,
2592.3000000715256,,directmemory_phase4,1461822,,,,,,,,object_10b.png,,,51,,,0,,object_04b.png,object_11c.png,object_09b.png,object_04b.png,,0.5531914893617021,0,,,,,,,,,,,
1557.0999999046326,,directmemory_phase4,1463381,,,,,,,,object_02b.png,,,51,,,1,,object_13a.png,object_02a.png,object_02c.png,object_02c.png,,0.5578947368421052,1,,,,,,,,,,,
3765.7999999523163,,directmemory_phase4,1467149,,,,,,,,object_05a.png,,,49,,,0,,object_09a.png,object_11b.png,object_06c.png,object_11b.png,,0.5520833333333334,0,,,,,,,,,,,
3294.5999999046326,,directmemory_phase4,1470445,,,,,,,,object_07c.png,,,50,,,1,,object_02a.png,object_09a.png,object_02c.png,object_09a.png,,0.5567010309278351,1,,,,,,,,,,,
3180,,directmemory_phase4,1473626,,,,,,,,object_13c.png,,,50,,,1,,object_04a.png,object_12c.png,object_08b.png,object_12c.png,,0.5612244897959183,1,,,,,,,,,,,
2769,,directmemory_phase4,1476397,,,,,,,,object_05b.png,,,50,,,1,,object_11c.png,object_13c.png,object_13a.png,object_13c.png,,0.5656565656565656,1,,,,,,,,,,,
3772.3000000715256,,directmemory_phase4,1480171,,,,,,,,object_02c.png,,,51,,,0,,object_03a.png,object_03b.png,object_13b.png,object_03a.png,,0.56,0,,,,,,,,,,,
1401.8999999761581,,directmemory_phase4,1481575,,,,,,,,object_08a.png,,,51,,,1,,object_15b.png,object_10a.png,object_11c.png,object_11c.png,,0.5643564356435643,1,,,,,,,,,,,
5064,,directmemory_phase4,1486641,,,,,,,,object_14c.png,,,50,,,1,,object_01c.png,object_03b.png,object_08b.png,object_03b.png,,0.5686274509803921,1,,,,,,,,,,,
3367.2999999523163,,directmemory_phase4,1490010,,,,,,,,object_04c.png,,,49,,,1,,object_04a.png,object_12c.png,object_03a.png,object_04a.png,,0.5728155339805825,1,,,,,,,,,,,
3729.7000000476837,,directmemory_phase4,1493742,,,,,,,,object_14b.png,,,50,,,1,,object_10a.png,object_04c.png,object_14c.png,object_04c.png,,0.5769230769230769,1,,,,,,,,,,,
2006.2000000476837,,directmemory_phase4,1495750,,,,,,,,object_11c.png,,,51,,,1,,object_03c.png,object_03a.png,object_07b.png,object_07b.png,,0.580952380952381,1,,,,,,,,,,,
1327.8000000715256,,directmemory_phase4,1497079,,,,,,,,object_06a.png,,,50,,,1,,object_04c.png,object_09b.png,object_13a.png,object_09b.png,,0.5849056603773585,1,,,,,,,,,,,
2455.6999999284744,,directmemory_phase4,1499537,,,,,,,,object_12b.png,,,51,,,1,,object_11c.png,object_06c.png,object_14c.png,object_14c.png,,0.5887850467289719,1,,,,,,,,,,,
1451.2999999523163,,directmemory_phase4,1500990,,,,,,,,object_15c.png,,,49,,,1,,object_01a.png,object_10a.png,object_13c.png,object_01a.png,,0.5925925925925926,1,,,,,,,,,,,
2697.399999976158,,directmemory_phase4,1503689,,,,,,,,object_09b.png,,,50,,,1,,object_01c.png,object_11a.png,object_03b.png,object_11a.png,,0.5963302752293578,1,,,,,,,,,,,
3078.899999976158,,directmemory_phase4,1506769,,,,,,,,object_01a.png,,,49,,,1,,object_15a.png,object_07b.png,object_01b.png,object_15a.png,,0.6,1,,,,,,,,,,,
3407.899999976158,,directmemory_phase4,1510179,,,,,,,,object_10a.png,,,51,,,1,,object_03a.png,object_08b.png,object_09c.png,object_09c.png,,0.6036036036036037,1,,,,,,,,,,,
2816.5999999046326,,directmemory_phase4,1512998,,,,,,,,object_09a.png,,,49,,,1,,object_01c.png,object_01b.png,object_04a.png,object_01c.png,,0.6071428571428571,1,,,,,,,,,,,
3738.5,,directmemory_phase4,1516738,,,,,,,,object_13a.png,,,49,,,0,,object_03c.png,object_13b.png,object_11a.png,object_13b.png,,0.6017699115044248,0,,,,,,,,,,,
1714.1000000238419,,directmemory_phase4,1518454,,,,,,,,object_04b.png,,,49,,,1,,object_01b.png,object_13b.png,object_05c.png,object_01b.png,,0.6052631578947368,1,,,,,,,,,,,
1866.8000000715256,,directmemory_phase4,1520323,,,,,,,,object_11b.png,,,50,,,1,,object_08b.png,object_14a.png,object_05c.png,object_14a.png,,0.6086956521739131,1,,,,,,,,,,,
5274.100000023842,,directmemory_phase4,1525598,,,,,,,,object_10c.png,,,51,,,1,,object_09a.png,object_09b.png,object_15b.png,object_15b.png,,0.6120689655172413,1,,,,,,,,,,,
1406.2999999523163,,directmemory_phase4,1527006,,,,,,,,object_02a.png,,,50,,,1,,object_01c.png,object_05c.png,object_01b.png,object_05c.png,,0.6153846153846154,1,,,,,,,,,,,
1335.5,,directmemory_phase4,1528344,,,,,,,,object_06b.png,,,50,,,1,,object_09a.png,object_06c.png,object_11b.png,object_06c.png,,0.6186440677966102,1,,,,,,,,,,,
2192,,directmemory_phase4,1530538,,,,,,,,object_12a.png,,,49,,,1,,object_13a.png,object_15b.png,object_09b.png,object_13a.png,,0.6218487394957983,1,,,,,,,,,,,
3124.0999999046326,,directmemory_phase4,1533664,,,,,,,,object_07a.png,,,49,,,1,,object_02a.png,object_04c.png,object_11c.png,object_02a.png,,0.625,1,,,,,,,,,,,
null,,thebreak,1533767,,,,,,,,<p></p>,,,null,,,,,,,,,,,,,,,,,,,,,,
3488.399999976158,,intro_0,1537257,,,,,,,,instruct,,,32,,,,,,,,,,,,,,,,,,,,,,
24468.199999928474,,intro_1,1561726,,,,,,,,instruct,,,32,,,,,,,,,,,,,,,,,,,,,,
6255.399999976158,,intro_2,1567983,,,,,,,,instruct,,,32,,,,,,,,,,,,,,,,,,,,,,
,,intro_3,1583499,,,,,,,,instruct,,,,,,,,,,,,,,,,,,,,,,,,,
3305.6999999284744,,intro_4,1586806,,,,,,,,instruct,,,32,,,,,,,,,,,,,,,,,,,,,,
7129.899999976158,,inference_phase,1593938,,,,,,,,object_12a.png,,,50,object_08b.png,object_05c.png,1,,,,,object_13b.png,,1,,object_13b.png,,,,,,,,,,
4121.300000071526,,inference_phase,1598061,,,,,,,,object_12b.png,,,50,object_11a.png,object_04a.png,1,,,,,object_03b.png,,1,,object_03b.png,,,,,,,,,,
3427.600000023842,,inference_phase,1601490,,,,,,,,object_15c.png,,,50,object_15a.png,object_03b.png,0,,,,,object_15a.png,,0.6666666666666666,,object_04a.png,,,,,,,,,,
3344.899999976158,,inference_phase,1604837,,,,,,,,object_07a.png,,,50,object_12c.png,object_03b.png,1,,,,,object_05c.png,,0.75,,object_05c.png,,,,,,,,,,
6705.200000047684,,inference_phase,1611543,,,,,,,,object_14b.png,,,51,object_09c.png,object_04a.png,1,,,,,object_04a.png,,0.8,,object_12c.png,,,,,,,,,,
3553.100000023842,,inference_phase,1615098,,,,,,,,object_06a.png,,,49,object_03c.png,object_01b.png,0,,,,,object_11a.png,,0.6666666666666666,,object_11a.png,,,,,,,,,,
4012,,inference_phase,1619111,,,,,,,,object_08a.png,,,51,object_01c.png,object_07b.png,1,,,,,object_07b.png,,0.7142857142857143,,object_03a.png,,,,,,,,,,
3414,,inference_phase,1622527,,,,,,,,object_05b.png,,,51,object_08b.png,object_03b.png,0,,,,,object_12c.png,,0.625,,object_12c.png,,,,,,,,,,
2412.9000000953674,,inference_phase,1624942,,,,,,,,object_02b.png,,,50,object_04a.png,object_12c.png,1,,,,,object_03a.png,,0.6666666666666666,,object_03a.png,,,,,,,,,,
2721.600000023842,,inference_phase,1627666,,,,,,,,object_08c.png,,,50,object_09c.png,object_01c.png,0,,,,,object_09c.png,,0.6,,object_11a.png,,,,,,,,,,
4627.5,,inference_phase,1632295,,,,,,,,object_05a.png,,,49,object_03a.png,object_03c.png,0,,,,,object_14a.png,,0.5454545454545454,,object_14a.png,,,,,,,,,,
3271.5,,inference_phase,1635568,,,,,,,,object_07c.png,,,51,object_01b.png,object_14a.png,0,,,,,object_01c.png,,0.5,,object_01c.png,,,,,,,,,,
3618.7000000476837,,inference_phase,1639188,,,,,,,,object_06b.png,,,50,object_04a.png,object_09c.png,1,,,,,object_03c.png,,0.5384615384615384,,object_03c.png,,,,,,,,,,
3754.7000000476837,,inference_phase,1642945,,,,,,,,object_10b.png,,,49,object_01b.png,object_03a.png,1,,,,,object_01b.png,,0.5714285714285714,,object_13b.png,,,,,,,,,,
