rt,responses,trial_type,time_elapsed,identifier_a,identifier_b,identifier_c,tasktype,browser_type,local_time,UTC_time,stimulus,button_pressed,response,key_press,stimulus_left,stimulus_right,accuracy,practice_cumulative_accuracy,stimulus_down_left,stimulus_down_mid,stimulus_down_right,stimulus_correct,prac_weighted_accuracy,cumulative_accuracy,failed_practice,weighted_accuracy,stimulus_middle,problems,smooth,distraction,strategies,easier,similar,comments,detectfocus,breakfocus,completion_code
20192,{worker_id:67dad40a0d401668ca95ea4b},id_enter,20196,object_04b.png; object_05c.png; object_02c.png; object_14c.png; object_05a.png; object_07c.png; object_11b.png; object_06b.png; object_03b.png; object_09a.png; object_10b.png; object_14b.png; object_15a.png; object_10c.png; object_12b.png,object_02a.png; object_15b.png; object_10a.png; object_09b.png; object_06a.png; object_13b.png; object_08a.png; object_04c.png; object_08c.png; object_02b.png; object_15c.png; object_01a.png; object_05b.png; object_13c.png; object_11a.png,object_12a.png; object_04a.png; object_03c.png; object_09c.png; object_13a.png; object_03a.png; object_01c.png; object_07b.png; object_01b.png; object_14a.png; object_06c.png; object_08b.png; object_11c.png; object_12c.png; object_07a.png,interleaved,Mozilla/5.0 (Windows NT 10.0; Win64; x64) AppleWebKit/537.36 (KHTML, like Gecko) Chrome/135.0.0.0 Safari/537.36,5/8/2025, 1:57:07 PM,2025-05-08 18:57:07.758,,,,,,,,,,,,,,,,,,,,,,,,,,,
14305,,make_fullscreen,34517,,,,,,,,fullscreen,0,,,,,,,,,,,,,,,,,,,,,,,,,
57929,,instruct_1,92490,,,,,,,,instruct,0,Next,,,,,,,,,,,,,,,,,,,,,,,,
12921,,instruct_2,105413,,,,,,,,instruct,1,Next,,,,,,,,,,,,,,,,,,,,,,,,
9372,,instruct_3,114787,,,,,,,,instruct,1,Next,,,,,,,,,,,,,,,,,,,,,,,,
34484,,instruct_4,149271,,,,,,,,instruct,1,Next,,,,,,,,,,,,,,,,,,,,,,,,
12800,,instruct_5,162072,,,,,,,,instruct,1,Next,,,,,,,,,,,,,,,,,,,,,,,,
7549,,instruct_6,169621,,,,,,,,instruct,1,Next,,,,,,,,,,,,,,,,,,,,,,,,
44333,,instruct_7,213955,,,,,,,,instruct,1,Next,,,,,,,,,,,,,,,,,,,,,,,,
null,,prac_atten_color_black,214284,,,,,,,,black_plus_sign,,,null,,,,,,,,,,,,,,,,,,,,,,,
null,,prac_atten_color,215364,,,,,,,,<p style='position:absolute;top: 50%;right: 50%;transform: translate(50%, -50%);font-size: 125px;color: blue;'>+</p>,,,null,,,,,,,,,,,,,,,,,,,,,,,
775,,prac_atten_color_black,217366,,,,,,,,black_plus_sign,,,50,,,,,,,,,,,,,,,,,,,,,,,
12067,,attentioncheck_help,229434,,,,,,,,instruct,,,32,,,,,,,,,,,,,,,,,,,,,,,
null,,prac_atten_color_black,229762,,,,,,,,black_plus_sign,,,null,,,,,,,,,,,,,,,,,,,,,,,
null,,prac_atten_color,230290,,,,,,,,<p style='position:absolute;top: 50%;right: 50%;transform: translate(50%, -50%);font-size: 125px;color: green;'>+</p>,,,null,,,,,,,,,,,,,,,,,,,,,,,
697,,prac_atten_color_black,232294,,,,,,,,black_plus_sign,,,50,,,,,,,,,,,,,,,,,,,,,,,
null,,prac_atten_color_black,233173,,,,,,,,black_plus_sign,,,null,,,,,,,,,,,,,,,,,,,,,,,
null,,prac_atten_color,233682,,,,,,,,<p style='position:absolute;top: 50%;right: 50%;transform: translate(50%, -50%);font-size: 125px;color: green;'>+</p>,,,null,,,,,,,,,,,,,,,,,,,,,,,
335,,prac_atten_color_black,235685,,,,,,,,black_plus_sign,,,50,,,,,,,,,,,,,,,,,,,,,,,
null,,prac_atten_color_black,236581,,,,,,,,black_plus_sign,,,null,,,,,,,,,,,,,,,,,,,,,,,
null,,prac_atten_color,237351,,,,,,,,<p style='position:absolute;top: 50%;right: 50%;transform: translate(50%, -50%);font-size: 125px;color: blue;'>+</p>,,,null,,,,,,,,,,,,,,,,,,,,,,,
56,,prac_atten_color_black,239355,,,,,,,,black_plus_sign,,,49,,,,,,,,,,,,,,,,,,,,,,,
null,,prac_atten_color_black,239991,,,,,,,,black_plus_sign,,,null,,,,,,,,,,,,,,,,,,,,,,,
null,,prac_atten_color,240557,,,,,,,,<p style='position:absolute;top: 50%;right: 50%;transform: translate(50%, -50%);font-size: 125px;color: green;'>+</p>,,,null,,,,,,,,,,,,,,,,,,,,,,,
291,,prac_atten_color_black,242561,,,,,,,,black_plus_sign,,,50,,,,,,,,,,,,,,,,,,,,,,,
null,,prac_atten_color_black,243403,,,,,,,,black_plus_sign,,,null,,,,,,,,,,,,,,,,,,,,,,,
null,,prac_atten_color,244115,,,,,,,,<p style='position:absolute;top: 50%;right: 50%;transform: translate(50%, -50%);font-size: 125px;color: green;'>+</p>,,,null,,,,,,,,,,,,,,,,,,,,,,,
118,,prac_atten_color_black,246117,,,,,,,,black_plus_sign,,,50,,,,,,,,,,,,,,,,,,,,,,,
null,,prac_atten_color_black,246811,,,,,,,,black_plus_sign,,,null,,,,,,,,,,,,,,,,,,,,,,,
686,,prac_atten_color,247805,,,,,,,,<p style='position:absolute;top: 50%;right: 50%;transform: translate(50%, -50%);font-size: 125px;color: blue;'>+</p>,,,49,,,,,,,,,,,,,,,,,,,,,,,
null,,prac_atten_color_black,249810,,,,,,,,black_plus_sign,,,null,,,,,,,,,,,,,,,,,,,,,,,
null,,prac_atten_color_black,250223,,,,,,,,black_plus_sign,,,null,,,,,,,,,,,,,,,,,,,,,,,
null,,prac_atten_color,250629,,,,,,,,<p style='position:absolute;top: 50%;right: 50%;transform: translate(50%, -50%);font-size: 125px;color: green;'>+</p>,,,null,,,,,,,,,,,,,,,,,,,,,,,
454,,prac_atten_color_black,252632,,,,,,,,black_plus_sign,,,50,,,,,,,,,,,,,,,,,,,,,,,
null,,prac_atten_color_black,253634,,,,,,,,black_plus_sign,,,null,,,,,,,,,,,,,,,,,,,,,,,
null,,prac_atten_color,254081,,,,,,,,<p style='position:absolute;top: 50%;right: 50%;transform: translate(50%, -50%);font-size: 125px;color: blue;'>+</p>,,,null,,,,,,,,,,,,,,,,,,,,,,,
306,,prac_atten_color_black,256084,,,,,,,,black_plus_sign,,,49,,,,,,,,,,,,,,,,,,,,,,,
null,,prac_atten_color_black,257039,,,,,,,,black_plus_sign,,,null,,,,,,,,,,,,,,,,,,,,,,,
null,,prac_atten_color,257547,,,,,,,,<p style='position:absolute;top: 50%;right: 50%;transform: translate(50%, -50%);font-size: 125px;color: blue;'>+</p>,,,null,,,,,,,,,,,,,,,,,,,,,,,
325,,prac_atten_color_black,259552,,,,,,,,black_plus_sign,,,49,,,,,,,,,,,,,,,,,,,,,,,
6177,,attentioncheck_feedback,265730,,,,,,,,cross_check_feedback,0,,,,,,,,,,,,,,,,,,,,,,,,,
8249,,last_instruct,273981,,,,,,,,instruct,,,32,,,,,,,,,,,,,,,,,,,,,,,
null,,prac_learn_phase(without_color),277485,,,,,,,,black_plus_sign,,,null,object_10c.png,object_13c.png,,,,,,,,,,,,,,,,,,,,,
null,,prac_black_cross(without_color),277958,,,,,,,,green,,,null,object_10c.png,object_13c.png,,,,,,,,,,,,,,,,,,,,,
null,,prac_rt_plussign_withcolor,278461,,,,,,,,green,,,null,object_10c.png,object_13c.png,,,,,,,,,,,,,,,,,,,,,
1700,,prac_rt_thecrossant_black,279995,,,,,,,,black_plus_sign,,,49,,,0,0,,,,,,,,,,,,,,,,,,,
null,,prac_color_black,280097,,,,,,,,black_plus_sign,,,null,,,,,,,,,,,,,,,,,,,,,,,
null,,prac_learn_phase(without_color),283600,,,,,,,,black_plus_sign,,,null,object_15b.png,object_04a.png,,,,,,,,,,,,,,,,,,,,,
null,,black_cross(without_color)1,284197,,,,,,,,blue,,,null,object_10c.png,object_13c.png,,,,,,,,,,,,,,,,,,,,,
null,,prac_rt_plussign_withcolor,284700,,,,,,,,blue,,,null,object_15b.png,object_04a.png,,,,,,,,,,,,,,,,,,,,,
1598,,prac_rt_thecrossant_black,285935,,,,,,,,black_plus_sign,,,49,,,1,0.5,,,,,,,,,,,,,,,,,,,
null,,prac_color_black,286038,,,,,,,,black_plus_sign,,,null,,,,,,,,,,,,,,,,,,,,,,,
null,,prac_learn_phase(without_color),289541,,,,,,,,black_plus_sign,,,null,object_11a.png,object_07a.png,,,,,,,,,,,,,,,,,,,,,
null,,black_cross(without_color)1,290138,,,,,,,,blue,,,null,object_10c.png,object_13c.png,,,,,,,,,,,,,,,,,,,,,
null,,prac_rt_plussign_withcolor,290641,,,,,,,,blue,,,null,object_11a.png,object_07a.png,,,,,,,,,,,,,,,,,,,,,
1364,,prac_rt_thecrossant_black,291947,,,,,,,,black_plus_sign,,,49,,,1,0.6666666666666666,,,,,,,,,,,,,,,,,,,
null,,prac_color_black,292048,,,,,,,,black_plus_sign,,,null,,,,,,,,,,,,,,,,,,,,,,,
null,,prac_learn_phase(without_color),295551,,,,,,,,black_plus_sign,,,null,object_05c.png,object_15b.png,,,,,,,,,,,,,,,,,,,,,
null,,black_cross(without_color)1,296148,,,,,,,,blue,,,null,object_10c.png,object_13c.png,,,,,,,,,,,,,,,,,,,,,
null,,prac_rt_plussign_withcolor,296652,,,,,,,,blue,,,null,object_05c.png,object_15b.png,,,,,,,,,,,,,,,,,,,,,
1189,,prac_rt_thecrossant_black,297653,,,,,,,,black_plus_sign,,,49,,,1,0.75,,,,,,,,,,,,,,,,,,,
null,,prac_color_black,297755,,,,,,,,black_plus_sign,,,null,,,,,,,,,,,,,,,,,,,,,,,
40956,,instruct_dir_01,338712,,,,,,,,instruct,0,Next,,,,,,,,,,,,,,,,,,,,,,,,
54760,,instruct_dir_2,393474,,,,,,,,instruct,1,Next,,,,,,,,,,,,,,,,,,,,,,,,
6304,,instruct_dir_3,399779,,,,,,,,instruct,1,Next,,,,,,,,,,,,,,,,,,,,,,,,
17106,,instruct_dir_4,416885,,,,,,,,instruct,1,Start,,,,,,,,,,,,,,,,,,,,,,,,
null,,thebreak,416987,,,,,,,,<p></p>,,,null,,,,,,,,,,,,,,,,,,,,,,,
2842,,intro_0,419830,,,,,,,,instruct,,,32,,,,,,,,,,,,,,,,,,,,,,,
3362,,prac_directmemory_phase,423193,,,,,,,,practice/object_04b.png,,,50,,,0,,practice/object_03a.png,practice/object_02a.png,practice/object_04a.png,practice/object_04a.png,0,0,,,,,,,,,,,,,
3893,,prac_directmemory_phase,427088,,,,,,,,practice/object_02b.png,,,50,,,0,,practice/object_04a.png,practice/object_03a.png,practice/object_02a.png,practice/object_02a.png,0,0,,,,,,,,,,,,,
3618,,prac_directmemory_phase,430708,,,,,,,,practice/object_01b.png,,,51,,,0,,practice/object_01a.png,practice/object_04a.png,practice/object_02a.png,practice/object_01a.png,0,0,,,,,,,,,,,,,
4279,,prac_directmemory_phase,434988,,,,,,,,practice/object_03b.png,,,50,,,0,,practice/object_03a.png,practice/object_01a.png,practice/object_02a.png,practice/object_03a.png,0,0,,,,,,,,,,,,,
5380,,practice_feedback_force_restart,440370,,,,,,,,practice_feedback,0,,,,,,,,,,,,,1,,,,,,,,,,,,
15824,,last_instruct,456195,,,,,,,,instruct,,,32,,,,,,,,,,,,,,,,,,,,,,,
null,,prac_learn_phase(without_color),459696,,,,,,,,black_plus_sign,,,null,object_10c.png,object_13c.png,,,,,,,,,,,,,,,,,,,,,
null,,prac_black_cross(without_color),460691,,,,,,,,green,,,null,object_10c.png,object_13c.png,,,,,,,,,,,,,,,,,,,,,
null,,prac_rt_plussign_withcolor,461194,,,,,,,,green,,,null,object_10c.png,object_13c.png,,,,,,,,,,,,,,,,,,,,,
1276,,prac_rt_thecrossant_black,462208,,,,,,,,black_plus_sign,,,50,,,1,0.8,,,,,,,,,,,,,,,,,,,
null,,prac_color_black,462308,,,,,,,,black_plus_sign,,,null,,,,,,,,,,,,,,,,,,,,,,,
null,,prac_learn_phase(without_color),465811,,,,,,,,black_plus_sign,,,null,object_15b.png,object_04a.png,,,,,,,,,,,,,,,,,,,,,
null,,black_cross(without_color)1,466406,,,,,,,,blue,,,null,object_10c.png,object_13c.png,,,,,,,,,,,,,,,,,,,,,
null,,prac_rt_plussign_withcolor,466910,,,,,,,,blue,,,null,object_15b.png,object_04a.png,,,,,,,,,,,,,,,,,,,,,
1612,,prac_rt_thecrossant_black,468443,,,,,,,,black_plus_sign,,,50,,,0,0.6666666666666666,,,,,,,,,,,,,,,,,,,
null,,prac_color_black,468544,,,,,,,,black_plus_sign,,,null,,,,,,,,,,,,,,,,,,,,,,,
null,,prac_learn_phase(without_color),472047,,,,,,,,black_plus_sign,,,null,object_11a.png,object_07a.png,,,,,,,,,,,,,,,,,,,,,
null,,black_cross(without_color)1,472644,,,,,,,,blue,,,null,object_10c.png,object_13c.png,,,,,,,,,,,,,,,,,,,,,
null,,prac_rt_plussign_withcolor,473148,,,,,,,,blue,,,null,object_11a.png,object_07a.png,,,,,,,,,,,,,,,,,,,,,
1080,,prac_rt_thecrossant_black,474582,,,,,,,,black_plus_sign,,,49,,,1,0.7142857142857143,,,,,,,,,,,,,,,,,,,
null,,prac_color_black,474682,,,,,,,,black_plus_sign,,,null,,,,,,,,,,,,,,,,,,,,,,,
null,,prac_learn_phase(without_color),478186,,,,,,,,black_plus_sign,,,null,object_05c.png,object_15b.png,,,,,,,,,,,,,,,,,,,,,
null,,black_cross(without_color)1,478782,,,,,,,,blue,,,null,object_10c.png,object_13c.png,,,,,,,,,,,,,,,,,,,,,
null,,prac_rt_plussign_withcolor,479286,,,,,,,,blue,,,null,object_05c.png,object_15b.png,,,,,,,,,,,,,,,,,,,,,
1206,,prac_rt_thecrossant_black,480443,,,,,,,,black_plus_sign,,,49,,,1,0.75,,,,,,,,,,,,,,,,,,,
null,,prac_color_black,480543,,,,,,,,black_plus_sign,,,null,,,,,,,,,,,,,,,,,,,,,,,
6099,,instruct_dir_01,486644,,,,,,,,instruct,0,Next,,,,,,,,,,,,,,,,,,,,,,,,
3528,,instruct_dir_2,490173,,,,,,,,instruct,1,Next,,,,,,,,,,,,,,,,,,,,,,,,
2786,,instruct_dir_3,492960,,,,,,,,instruct,1,Next,,,,,,,,,,,,,,,,,,,,,,,,
3918,,instruct_dir_4,496880,,,,,,,,instruct,1,Start,,,,,,,,,,,,,,,,,,,,,,,,
null,,thebreak,496982,,,,,,,,<p></p>,,,null,,,,,,,,,,,,,,,,,,,,,,,
1434,,intro_0,498417,,,,,,,,instruct,,,32,,,,,,,,,,,,,,,,,,,,,,,
2530,,prac_directmemory_phase,500949,,,,,,,,practice/object_04b.png,,,49,,,0,,practice/object_03a.png,practice/object_02a.png,practice/object_04a.png,practice/object_04a.png,0,0,,,,,,,,,,,,,
4398,,prac_directmemory_phase,505348,,,,,,,,practice/object_02b.png,,,51,,,1,,practice/object_04a.png,practice/object_03a.png,practice/object_02a.png,practice/object_02a.png,1,0.5,,,,,,,,,,,,,
2188,,prac_directmemory_phase,507537,,,,,,,,practice/object_01b.png,,,49,,,1,,practice/object_01a.png,practice/object_04a.png,practice/object_02a.png,practice/object_01a.png,1,0.6666666666666666,,,,,,,,,,,,,
1844,,prac_directmemory_phase,509383,,,,,,,,practice/object_03b.png,,,50,,,0,,practice/object_03a.png,practice/object_01a.png,practice/object_02a.png,practice/object_03a.png,0,0.5,,,,,,,,,,,,,
28312,,practice_feedback_force_restart,537697,,,,,,,,practice_feedback,0,,,,,,,,,,,,,2,,,,,,,,,,,,
2905,,last_instruct,540603,,,,,,,,instruct,,,32,,,,,,,,,,,,,,,,,,,,,,,
null,,prac_learn_phase(without_color),544107,,,,,,,,black_plus_sign,,,null,object_10c.png,object_13c.png,,,,,,,,,,,,,,,,,,,,,
null,,prac_black_cross(without_color),544701,,,,,,,,green,,,null,object_10c.png,object_13c.png,,,,,,,,,,,,,,,,,,,,,
null,,prac_rt_plussign_withcolor,545204,,,,,,,,green,,,null,object_10c.png,object_13c.png,,,,,,,,,,,,,,,,,,,,,
1886,,prac_rt_thecrossant_black,546617,,,,,,,,black_plus_sign,,,49,,,0,0.6666666666666666,,,,,,,,,,,,,,,,,,,
null,,prac_color_black,546717,,,,,,,,black_plus_sign,,,null,,,,,,,,,,,,,,,,,,,,,,,
null,,prac_learn_phase(without_color),550221,,,,,,,,black_plus_sign,,,null,object_15b.png,object_04a.png,,,,,,,,,,,,,,,,,,,,,
null,,black_cross(without_color)1,550817,,,,,,,,blue,,,null,object_10c.png,object_13c.png,,,,,,,,,,,,,,,,,,,,,
null,,prac_rt_plussign_withcolor,551321,,,,,,,,blue,,,null,object_15b.png,object_04a.png,,,,,,,,,,,,,,,,,,,,,
1052,,prac_rt_thecrossant_black,552602,,,,,,,,black_plus_sign,,,49,,,1,0.7,,,,,,,,,,,,,,,,,,,
null,,prac_color_black,552703,,,,,,,,black_plus_sign,,,null,,,,,,,,,,,,,,,,,,,,,,,
null,,prac_learn_phase(without_color),556207,,,,,,,,black_plus_sign,,,null,object_11a.png,object_07a.png,,,,,,,,,,,,,,,,,,,,,
null,,black_cross(without_color)1,556802,,,,,,,,blue,,,null,object_10c.png,object_13c.png,,,,,,,,,,,,,,,,,,,,,
null,,prac_rt_plussign_withcolor,557305,,,,,,,,blue,,,null,object_11a.png,object_07a.png,,,,,,,,,,,,,,,,,,,,,
1524,,prac_rt_thecrossant_black,558411,,,,,,,,black_plus_sign,,,49,,,1,0.7272727272727273,,,,,,,,,,,,,,,,,,,
null,,prac_color_black,558514,,,,,,,,black_plus_sign,,,null,,,,,,,,,,,,,,,,,,,,,,,
null,,prac_learn_phase(without_color),562018,,,,,,,,black_plus_sign,,,null,object_05c.png,object_15b.png,,,,,,,,,,,,,,,,,,,,,
null,,black_cross(without_color)1,562615,,,,,,,,blue,,,null,object_10c.png,object_13c.png,,,,,,,,,,,,,,,,,,,,,
null,,prac_rt_plussign_withcolor,563119,,,,,,,,blue,,,null,object_05c.png,object_15b.png,,,,,,,,,,,,,,,,,,,,,
1422,,prac_rt_thecrossant_black,564677,,,,,,,,black_plus_sign,,,49,,,1,0.75,,,,,,,,,,,,,,,,,,,
null,,prac_color_black,564778,,,,,,,,black_plus_sign,,,null,,,,,,,,,,,,,,,,,,,,,,,
40211,,instruct_dir_01,604990,,,,,,,,instruct,0,Next,,,,,,,,,,,,,,,,,,,,,,,,
1780,,instruct_dir_2,606772,,,,,,,,instruct,1,Next,,,,,,,,,,,,,,,,,,,,,,,,
3413,,instruct_dir_3,610186,,,,,,,,instruct,1,Next,,,,,,,,,,,,,,,,,,,,,,,,
1614,,instruct_dir_4,611801,,,,,,,,instruct,1,Start,,,,,,,,,,,,,,,,,,,,,,,,
null,,thebreak,611903,,,,,,,,<p></p>,,,null,,,,,,,,,,,,,,,,,,,,,,,
4831,,intro_0,616734,,,,,,,,instruct,,,32,,,,,,,,,,,,,,,,,,,,,,,
7699,,prac_directmemory_phase,624433,,,,,,,,practice/object_04b.png,,,51,,,1,,practice/object_03a.png,practice/object_02a.png,practice/object_04a.png,practice/object_04a.png,1,1,,,,,,,,,,,,,
4283,,prac_directmemory_phase,628718,,,,,,,,practice/object_02b.png,,,51,,,1,,practice/object_04a.png,practice/object_03a.png,practice/object_02a.png,practice/object_02a.png,1,1,,,,,,,,,,,,,
6688,,prac_directmemory_phase,635408,,,,,,,,practice/object_01b.png,,,49,,,1,,practice/object_01a.png,practice/object_04a.png,practice/object_02a.png,practice/object_01a.png,1,1,,,,,,,,,,,,,
5859,,prac_directmemory_phase,641269,,,,,,,,practice/object_03b.png,,,49,,,1,,practice/object_03a.png,practice/object_01a.png,practice/object_02a.png,practice/object_03a.png,1,1,,,,,,,,,,,,,
5790,,practice_feedback,647075,,,,,,,,practice_feedback,1,,,,,,,,,,,,,,,,,,,,,,,,,
13985,,proceed_actualTask,661061,,,,,,,,proceed_actualTask,1,Continue,,,,,,,,,,,,,,,,,,,,,,,,
14797,,last_inst,675859,,,,,,,,last_inst,,,32,,,,,,,,,,,,,,,,,,,,,,,
null,,learn_phase(without_color)1,679363,,,,,,,,black_plus_sign,,,null,object_10c.png,object_13c.png,,,,,,,,,,,,,,,,,,,,,
null,,black_cross(without_color)1,679959,,,,,,,,blue,,,null,object_10c.png,object_13c.png,,,,,,,,,,,,,,,,,,,,,
null,,rt_plussign_withcolor1,680462,,,,,,,,blue,,,null,object_10c.png,object_13c.png,,,,,,,,,,,,,,,,,,,,,
1190,,rt_thecrossant_black1,681873,,,,,,,,black_plus_sign,,,49,,,1,,,,,,,1,,,,,,,,,,,,,
null,,color_black1,681975,,,,,,,,black_plus_sign,,,null,,,,,,,,,,,,,,,,,,,,,,,
null,,learn_phase(without_color)1,685480,,,,,,,,black_plus_sign,,,null,object_15b.png,object_04a.png,,,,,,,,,,,,,,,,,,,,,
null,,black_cross(without_color)1,685994,,,,,,,,green,,,null,object_15b.png,object_04a.png,,,,,,,,,,,,,,,,,,,,,
null,,rt_plussign_withcolor1,686498,,,,,,,,green,,,null,object_15b.png,object_04a.png,,,,,,,,,,,,,,,,,,,,,
1815,,rt_thecrossant_black1,687989,,,,,,,,black_plus_sign,,,50,,,1,,,,,,,1,,,,,,,,,,,,,
null,,color_black1,688090,,,,,,,,black_plus_sign,,,null,,,,,,,,,,,,,,,,,,,,,,,
null,,learn_phase(without_color)1,691593,,,,,,,,black_plus_sign,,,null,object_11a.png,object_07a.png,,,,,,,,,,,,,,,,,,,,,
null,,black_cross(without_color)1,692073,,,,,,,,green,,,null,object_11a.png,object_07a.png,,,,,,,,,,,,,,,,,,,,,
null,,rt_plussign_withcolor1,692575,,,,,,,,green,,,null,object_11a.png,object_07a.png,,,,,,,,,,,,,,,,,,,,,
984,,rt_thecrossant_black1,694103,,,,,,,,black_plus_sign,,,50,,,1,,,,,,,1,,,,,,,,,,,,,
null,,color_black1,694204,,,,,,,,black_plus_sign,,,null,,,,,,,,,,,,,,,,,,,,,,,
null,,learn_phase(without_color)1,697708,,,,,,,,black_plus_sign,,,null,object_05c.png,object_15b.png,,,,,,,,,,,,,,,,,,,,,
null,,black_cross(without_color)1,698365,,,,,,,,blue,,,null,object_05c.png,object_15b.png,,,,,,,,,,,,,,,,,,,,,
null,,rt_plussign_withcolor1,698868,,,,,,,,blue,,,null,object_05c.png,object_15b.png,,,,,,,,,,,,,,,,,,,,,
1195,,rt_thecrossant_black1,700217,,,,,,,,black_plus_sign,,,49,,,1,,,,,,,1,,,,,,,,,,,,,
null,,color_black1,700317,,,,,,,,black_plus_sign,,,null,,,,,,,,,,,,,,,,,,,,,,,
null,,learn_phase(without_color)1,703820,,,,,,,,black_plus_sign,,,null,object_04b.png,object_02a.png,,,,,,,,,,,,,,,,,,,,,
null,,black_cross(without_color)1,704294,,,,,,,,blue,,,null,object_04b.png,object_02a.png,,,,,,,,,,,,,,,,,,,,,
null,,rt_plussign_withcolor1,704797,,,,,,,,blue,,,null,object_04b.png,object_02a.png,,,,,,,,,,,,,,,,,,,,,
1031,,rt_thecrossant_black1,706329,,,,,,,,black_plus_sign,,,49,,,1,,,,,,,1,,,,,,,,,,,,,
null,,color_black1,706430,,,,,,,,black_plus_sign,,,null,,,,,,,,,,,,,,,,,,,,,,,
null,,learn_phase(without_color)1,709934,,,,,,,,black_plus_sign,,,null,object_08c.png,object_01b.png,,,,,,,,,,,,,,,,,,,,,
null,,black_cross(without_color)1,710372,,,,,,,,green,,,null,object_08c.png,object_01b.png,,,,,,,,,,,,,,,,,,,,,
null,,rt_plussign_withcolor1,710876,,,,,,,,green,,,null,object_08c.png,object_01b.png,,,,,,,,,,,,,,,,,,,,,
843,,rt_thecrossant_black1,712446,,,,,,,,black_plus_sign,,,50,,,1,,,,,,,1,,,,,,,,,,,,,
null,,color_black1,712546,,,,,,,,black_plus_sign,,,null,,,,,,,,,,,,,,,,,,,,,,,
null,,learn_phase(without_color)1,716049,,,,,,,,black_plus_sign,,,null,object_06a.png,object_13a.png,,,,,,,,,,,,,,,,,,,,,
null,,black_cross(without_color)1,716632,,,,,,,,green,,,null,object_06a.png,object_13a.png,,,,,,,,,,,,,,,,,,,,,
null,,rt_plussign_withcolor1,717135,,,,,,,,green,,,null,object_06a.png,object_13a.png,,,,,,,,,,,,,,,,,,,,,
923,,rt_thecrossant_black1,718559,,,,,,,,black_plus_sign,,,50,,,1,,,,,,,1,,,,,,,,,,,,,
null,,color_black1,718661,,,,,,,,black_plus_sign,,,null,,,,,,,,,,,,,,,,,,,,,,,
null,,learn_phase(without_color)1,722164,,,,,,,,black_plus_sign,,,null,object_11b.png,object_08a.png,,,,,,,,,,,,,,,,,,,,,
null,,black_cross(without_color)1,722745,,,,,,,,green,,,null,object_11b.png,object_08a.png,,,,,,,,,,,,,,,,,,,,,
null,,rt_plussign_withcolor1,723248,,,,,,,,green,,,null,object_11b.png,object_08a.png,,,,,,,,,,,,,,,,,,,,,
1094,,rt_thecrossant_black1,724675,,,,,,,,black_plus_sign,,,50,,,1,,,,,,,1,,,,,,,,,,,,,
null,,color_black1,724777,,,,,,,,black_plus_sign,,,null,,,,,,,,,,,,,,,,,,,,,,,
null,,learn_phase(without_color)1,728281,,,,,,,,black_plus_sign,,,null,object_13b.png,object_03a.png,,,,,,,,,,,,,,,,,,,,,
null,,black_cross(without_color)1,728846,,,,,,,,green,,,null,object_13b.png,object_03a.png,,,,,,,,,,,,,,,,,,,,,
null,,rt_plussign_withcolor1,729350,,,,,,,,green,,,null,object_13b.png,object_03a.png,,,,,,,,,,,,,,,,,,,,,
1029,,rt_thecrossant_black1,730794,,,,,,,,black_plus_sign,,,50,,,1,,,,,,,1,,,,,,,,,,,,,
null,,color_black1,730895,,,,,,,,black_plus_sign,,,null,,,,,,,,,,,,,,,,,,,,,,,
null,,learn_phase(without_color)1,734399,,,,,,,,black_plus_sign,,,null,object_14b.png,object_01a.png,,,,,,,,,,,,,,,,,,,,,
null,,black_cross(without_color)1,735071,,,,,,,,blue,,,null,object_14b.png,object_01a.png,,,,,,,,,,,,,,,,,,,,,
null,,rt_plussign_withcolor1,735574,,,,,,,,blue,,,null,object_14b.png,object_01a.png,,,,,,,,,,,,,,,,,,,,,
1105,,rt_thecrossant_black1,736910,,,,,,,,black_plus_sign,,,49,,,1,,,,,,,1,,,,,,,,,,,,,
null,,color_black1,737011,,,,,,,,black_plus_sign,,,null,,,,,,,,,,,,,,,,,,,,,,,
null,,learn_phase(without_color)1,740514,,,,,,,,black_plus_sign,,,null,object_04c.png,object_07b.png,,,,,,,,,,,,,,,,,,,,,
null,,black_cross(without_color)1,741024,,,,,,,,green,,,null,object_04c.png,object_07b.png,,,,,,,,,,,,,,,,,,,,,
null,,rt_plussign_withcolor1,741529,,,,,,,,green,,,null,object_04c.png,object_07b.png,,,,,,,,,,,,,,,,,,,,,
1127,,rt_thecrossant_black1,743028,,,,,,,,black_plus_sign,,,50,,,1,,,,,,,1,,,,,,,,,,,,,
null,,color_black1,743128,,,,,,,,black_plus_sign,,,null,,,,,,,,,,,,,,,,,,,,,,,
null,,learn_phase(without_color)1,746632,,,,,,,,black_plus_sign,,,null,object_12b.png,object_11a.png,,,,,,,,,,,,,,,,,,,,,
null,,black_cross(without_color)1,747327,,,,,,,,blue,,,null,object_12b.png,object_11a.png,,,,,,,,,,,,,,,,,,,,,
null,,rt_plussign_withcolor1,747830,,,,,,,,blue,,,null,object_12b.png,object_11a.png,,,,,,,,,,,,,,,,,,,,,
1074,,rt_thecrossant_black1,749142,,,,,,,,black_plus_sign,,,49,,,1,,,,,,,1,,,,,,,,,,,,,
null,,color_black1,749243,,,,,,,,black_plus_sign,,,null,,,,,,,,,,,,,,,,,,,,,,,
null,,learn_phase(without_color)1,752747,,,,,,,,black_plus_sign,,,null,object_09b.png,object_09c.png,,,,,,,,,,,,,,,,,,,,,
null,,black_cross(without_color)1,753346,,,,,,,,green,,,null,object_09b.png,object_09c.png,,,,,,,,,,,,,,,,,,,,,
null,,rt_plussign_withcolor1,753850,,,,,,,,green,,,null,object_09b.png,object_09c.png,,,,,,,,,,,,,,,,,,,,,
1064,,rt_thecrossant_black1,755257,,,,,,,,black_plus_sign,,,50,,,1,,,,,,,1,,,,,,,,,,,,,
null,,color_black1,755359,,,,,,,,black_plus_sign,,,null,,,,,,,,,,,,,,,,,,,,,,,
null,,learn_phase(without_color)1,758864,,,,,,,,black_plus_sign,,,null,object_08a.png,object_01c.png,,,,,,,,,,,,,,,,,,,,,
null,,black_cross(without_color)1,759749,,,,,,,,blue,,,null,object_08a.png,object_01c.png,,,,,,,,,,,,,,,,,,,,,
null,,rt_plussign_withcolor1,760252,,,,,,,,blue,,,null,object_08a.png,object_01c.png,,,,,,,,,,,,,,,,,,,,,
1123,,rt_thecrossant_black1,761372,,,,,,,,black_plus_sign,,,49,,,1,,,,,,,1,,,,,,,,,,,,,
null,,color_black1,761474,,,,,,,,black_plus_sign,,,null,,,,,,,,,,,,,,,,,,,,,,,
null,,learn_phase(without_color)1,764977,,,,,,,,black_plus_sign,,,null,object_09a.png,object_02b.png,,,,,,,,,,,,,,,,,,,,,
null,,black_cross(without_color)1,765827,,,,,,,,blue,,,null,object_09a.png,object_02b.png,,,,,,,,,,,,,,,,,,,,,
null,,rt_plussign_withcolor1,766330,,,,,,,,blue,,,null,object_09a.png,object_02b.png,,,,,,,,,,,,,,,,,,,,,
1466,,rt_thecrossant_black1,767487,,,,,,,,black_plus_sign,,,49,,,1,,,,,,,1,,,,,,,,,,,,,
null,,color_black1,767588,,,,,,,,black_plus_sign,,,null,,,,,,,,,,,,,,,,,,,,,,,
null,,learn_phase(without_color)1,771089,,,,,,,,black_plus_sign,,,null,object_05a.png,object_06a.png,,,,,,,,,,,,,,,,,,,,,
null,,black_cross(without_color)1,771658,,,,,,,,blue,,,null,object_05a.png,object_06a.png,,,,,,,,,,,,,,,,,,,,,
null,,rt_plussign_withcolor1,772160,,,,,,,,blue,,,null,object_05a.png,object_06a.png,,,,,,,,,,,,,,,,,,,,,
1500,,rt_thecrossant_black1,773595,,,,,,,,black_plus_sign,,,49,,,1,,,,,,,1,,,,,,,,,,,,,
null,,color_black1,773697,,,,,,,,black_plus_sign,,,null,,,,,,,,,,,,,,,,,,,,,,,
null,,learn_phase(without_color)1,777200,,,,,,,,black_plus_sign,,,null,object_02b.png,object_14a.png,,,,,,,,,,,,,,,,,,,,,
null,,black_cross(without_color)1,778275,,,,,,,,green,,,null,object_02b.png,object_14a.png,,,,,,,,,,,,,,,,,,,,,
null,,rt_plussign_withcolor1,778778,,,,,,,,green,,,null,object_02b.png,object_14a.png,,,,,,,,,,,,,,,,,,,,,
838,,rt_thecrossant_black1,779710,,,,,,,,black_plus_sign,,,50,,,1,,,,,,,1,,,,,,,,,,,,,
null,,color_black1,779811,,,,,,,,black_plus_sign,,,null,,,,,,,,,,,,,,,,,,,,,,,
null,,learn_phase(without_color)1,783313,,,,,,,,black_plus_sign,,,null,object_13c.png,object_12c.png,,,,,,,,,,,,,,,,,,,,,
null,,black_cross(without_color)1,783940,,,,,,,,blue,,,null,object_13c.png,object_12c.png,,,,,,,,,,,,,,,,,,,,,
null,,rt_plussign_withcolor1,784443,,,,,,,,blue,,,null,object_13c.png,object_12c.png,,,,,,,,,,,,,,,,,,,,,
1491,,rt_thecrossant_black1,785824,,,,,,,,black_plus_sign,,,49,,,1,,,,,,,1,,,,,,,,,,,,,
null,,color_black1,785924,,,,,,,,black_plus_sign,,,null,,,,,,,,,,,,,,,,,,,,,,,
null,,learn_phase(without_color)1,789428,,,,,,,,black_plus_sign,,,null,object_10b.png,object_15c.png,,,,,,,,,,,,,,,,,,,,,
null,,black_cross(without_color)1,790108,,,,,,,,blue,,,null,object_10b.png,object_15c.png,,,,,,,,,,,,,,,,,,,,,
null,,rt_plussign_withcolor1,790612,,,,,,,,blue,,,null,object_10b.png,object_15c.png,,,,,,,,,,,,,,,,,,,,,
1047,,rt_thecrossant_black1,791938,,,,,,,,black_plus_sign,,,49,,,1,,,,,,,1,,,,,,,,,,,,,
null,,color_black1,792040,,,,,,,,black_plus_sign,,,null,,,,,,,,,,,,,,,,,,,,,,,
null,,learn_phase(without_color)1,795543,,,,,,,,black_plus_sign,,,null,object_14c.png,object_09b.png,,,,,,,,,,,,,,,,,,,,,
null,,black_cross(without_color)1,796188,,,,,,,,blue,,,null,object_14c.png,object_09b.png,,,,,,,,,,,,,,,,,,,,,
null,,rt_plussign_withcolor1,796694,,,,,,,,blue,,,null,object_14c.png,object_09b.png,,,,,,,,,,,,,,,,,,,,,
1015,,rt_thecrossant_black1,798057,,,,,,,,black_plus_sign,,,49,,,1,,,,,,,1,,,,,,,,,,,,,
null,,color_black1,798159,,,,,,,,black_plus_sign,,,null,,,,,,,,,,,,,,,,,,,,,,,
null,,learn_phase(without_color)1,801662,,,,,,,,black_plus_sign,,,null,object_06b.png,object_04c.png,,,,,,,,,,,,,,,,,,,,,
null,,black_cross(without_color)1,802082,,,,,,,,blue,,,null,object_06b.png,object_04c.png,,,,,,,,,,,,,,,,,,,,,
null,,rt_plussign_withcolor1,802584,,,,,,,,blue,,,null,object_06b.png,object_04c.png,,,,,,,,,,,,,,,,,,,,,
1003,,rt_thecrossant_black1,804173,,,,,,,,black_plus_sign,,,49,,,1,,,,,,,1,,,,,,,,,,,,,
null,,color_black1,804275,,,,,,,,black_plus_sign,,,null,,,,,,,,,,,,,,,,,,,,,,,
null,,learn_phase(without_color)1,807778,,,,,,,,black_plus_sign,,,null,object_03b.png,object_08c.png,,,,,,,,,,,,,,,,,,,,,
null,,black_cross(without_color)1,808844,,,,,,,,blue,,,null,object_03b.png,object_08c.png,,,,,,,,,,,,,,,,,,,,,
null,,rt_plussign_withcolor1,809349,,,,,,,,blue,,,null,object_03b.png,object_08c.png,,,,,,,,,,,,,,,,,,,,,
899,,rt_thecrossant_black1,810292,,,,,,,,black_plus_sign,,,49,,,1,,,,,,,1,,,,,,,,,,,,,
null,,color_black1,810393,,,,,,,,black_plus_sign,,,null,,,,,,,,,,,,,,,,,,,,,,,
null,,learn_phase(without_color)1,813897,,,,,,,,black_plus_sign,,,null,object_15c.png,object_06c.png,,,,,,,,,,,,,,,,,,,,,
null,,black_cross(without_color)1,814536,,,,,,,,green,,,null,object_15c.png,object_06c.png,,,,,,,,,,,,,,,,,,,,,
null,,rt_plussign_withcolor1,815041,,,,,,,,green,,,null,object_15c.png,object_06c.png,,,,,,,,,,,,,,,,,,,,,
1423,,rt_thecrossant_black1,816409,,,,,,,,black_plus_sign,,,49,,,0,,,,,,,0.9565217391304348,,,,,,,,,,,,,
null,,color_black1,816523,,,,,,,,black_plus_sign,,,null,,,,,,,,,,,,,,,,,,,,,,,
null,,learn_phase(without_color)1,820027,,,,,,,,black_plus_sign,,,null,object_05b.png,object_11c.png,,,,,,,,,,,,,,,,,,,,,
null,,black_cross(without_color)1,820685,,,,,,,,green,,,null,object_05b.png,object_11c.png,,,,,,,,,,,,,,,,,,,,,
null,,rt_plussign_withcolor1,821189,,,,,,,,green,,,null,object_05b.png,object_11c.png,,,,,,,,,,,,,,,,,,,,,
964,,rt_thecrossant_black1,822538,,,,,,,,black_plus_sign,,,50,,,1,,,,,,,0.9583333333333334,,,,,,,,,,,,,
null,,color_black1,822640,,,,,,,,black_plus_sign,,,null,,,,,,,,,,,,,,,,,,,,,,,
null,,learn_phase(without_color)1,826144,,,,,,,,black_plus_sign,,,null,object_01a.png,object_08b.png,,,,,,,,,,,,,,,,,,,,,
null,,black_cross(without_color)1,826927,,,,,,,,green,,,null,object_01a.png,object_08b.png,,,,,,,,,,,,,,,,,,,,,
null,,rt_plussign_withcolor1,827430,,,,,,,,green,,,null,object_01a.png,object_08b.png,,,,,,,,,,,,,,,,,,,,,
1245,,rt_thecrossant_black1,828656,,,,,,,,black_plus_sign,,,50,,,1,,,,,,,0.96,,,,,,,,,,,,,
null,,color_black1,828757,,,,,,,,black_plus_sign,,,null,,,,,,,,,,,,,,,,,,,,,,,
null,,learn_phase(without_color)1,832261,,,,,,,,black_plus_sign,,,null,object_07c.png,object_13b.png,,,,,,,,,,,,,,,,,,,,,
null,,black_cross(without_color)1,833316,,,,,,,,green,,,null,object_07c.png,object_13b.png,,,,,,,,,,,,,,,,,,,,,
null,,rt_plussign_withcolor1,833818,,,,,,,,green,,,null,object_07c.png,object_13b.png,,,,,,,,,,,,,,,,,,,,,
1238,,rt_thecrossant_black1,834772,,,,,,,,black_plus_sign,,,50,,,1,,,,,,,0.9615384615384616,,,,,,,,,,,,,
null,,color_black1,834873,,,,,,,,black_plus_sign,,,null,,,,,,,,,,,,,,,,,,,,,,,
null,,learn_phase(without_color)1,838377,,,,,,,,black_plus_sign,,,null,object_10a.png,object_03c.png,,,,,,,,,,,,,,,,,,,,,
null,,black_cross(without_color)1,838844,,,,,,,,blue,,,null,object_10a.png,object_03c.png,,,,,,,,,,,,,,,,,,,,,
null,,rt_plussign_withcolor1,839347,,,,,,,,blue,,,null,object_10a.png,object_03c.png,,,,,,,,,,,,,,,,,,,,,
1736,,rt_thecrossant_black1,840888,,,,,,,,black_plus_sign,,,49,,,1,,,,,,,0.9629629629629629,,,,,,,,,,,,,
null,,color_black1,840989,,,,,,,,black_plus_sign,,,null,,,,,,,,,,,,,,,,,,,,,,,
null,,learn_phase(without_color)1,844493,,,,,,,,black_plus_sign,,,null,object_02a.png,object_12a.png,,,,,,,,,,,,,,,,,,,,,
null,,black_cross(without_color)1,845305,,,,,,,,green,,,null,object_02a.png,object_12a.png,,,,,,,,,,,,,,,,,,,,,
null,,rt_plussign_withcolor1,845808,,,,,,,,green,,,null,object_02a.png,object_12a.png,,,,,,,,,,,,,,,,,,,,,
1029,,rt_thecrossant_black1,847002,,,,,,,,black_plus_sign,,,50,,,1,,,,,,,0.9642857142857143,,,,,,,,,,,,,
null,,color_black1,847104,,,,,,,,black_plus_sign,,,null,,,,,,,,,,,,,,,,,,,,,,,
null,,learn_phase(without_color)1,850607,,,,,,,,black_plus_sign,,,null,object_02c.png,object_10a.png,,,,,,,,,,,,,,,,,,,,,
null,,black_cross(without_color)1,851477,,,,,,,,blue,,,null,object_02c.png,object_10a.png,,,,,,,,,,,,,,,,,,,,,
null,,rt_plussign_withcolor1,851982,,,,,,,,blue,,,null,object_02c.png,object_10a.png,,,,,,,,,,,,,,,,,,,,,
1305,,rt_thecrossant_black1,853119,,,,,,,,black_plus_sign,,,49,,,1,,,,,,,0.9655172413793104,,,,,,,,,,,,,
null,,color_black1,853221,,,,,,,,black_plus_sign,,,null,,,,,,,,,,,,,,,,,,,,,,,
null,,learn_phase(without_color)1,856725,,,,,,,,black_plus_sign,,,null,object_15a.png,object_05b.png,,,,,,,,,,,,,,,,,,,,,
null,,black_cross(without_color)1,857533,,,,,,,,blue,,,null,object_15a.png,object_05b.png,,,,,,,,,,,,,,,,,,,,,
null,,rt_plussign_withcolor1,858035,,,,,,,,blue,,,null,object_15a.png,object_05b.png,,,,,,,,,,,,,,,,,,,,,
1309,,rt_thecrossant_black1,859236,,,,,,,,black_plus_sign,,,49,,,1,,,,,,,0.9666666666666667,,,,,,,,,,,,,
null,,color_black1,859337,,,,,,,,black_plus_sign,,,null,,,,,,,,,,,,,,,,,,,,,,,
null,,thebreak,859441,,,,,,,,<p></p>,,,null,,,,,,,,,,,,,,,,,,,,,,,
109527,,intro_0,968968,,,,,,,,instruct,,,32,,,,,,,,,,,,,,,,,,,,,,,
null,,directmemory_phase1,983971,,,,,,,,object_03a.png,,,null,,,0,,object_10a.png,object_05b.png,object_13b.png,object_13b.png,,0,,0,,,,,,,,,,,
null,,warning_page,988976,,,,,,,,warning,,,null,,,,,,,,,,,,,,,,,,,,,,,
7917,,directmemory_phase1,996894,,,,,,,,object_15b.png,,,50,,,0,,object_05c.png,object_10b.png,object_05a.png,object_05c.png,,0,,0,,,,,,,,,,,
8447,,directmemory_phase1,1005342,,,,,,,,object_12c.png,,,51,,,1,,object_09b.png,object_13b.png,object_13c.png,object_13c.png,,0.3333333333333333,,1,,,,,,,,,,,
5118,,directmemory_phase1,1010463,,,,,,,,object_09c.png,,,49,,,0,,object_01a.png,object_09b.png,object_13b.png,object_09b.png,,0.25,,0,,,,,,,,,,,
10701,,directmemory_phase1,1021165,,,,,,,,object_13b.png,,,50,,,1,,object_14b.png,object_07c.png,object_03b.png,object_07c.png,,0.4,,1,,,,,,,,,,,
13283,,directmemory_phase1,1034451,,,,,,,,object_02b.png,,,51,,,0,,object_07c.png,object_09a.png,object_10b.png,object_09a.png,,0.3333333333333333,,0,,,,,,,,,,,
7779,,directmemory_phase1,1042231,,,,,,,,object_12a.png,,,49,,,1,,object_02a.png,object_09b.png,object_04c.png,object_02a.png,,0.42857142857142855,,1,,,,,,,,,,,
10102,,directmemory_phase1,1052335,,,,,,,,object_05b.png,,,49,,,1,,object_15a.png,object_03b.png,object_10b.png,object_15a.png,,0.5,,1,,,,,,,,,,,
7748,,directmemory_phase1,1060086,,,,,,,,object_11c.png,,,50,,,1,,object_08a.png,object_05b.png,object_15b.png,object_05b.png,,0.5555555555555556,,1,,,,,,,,,,,
5984,,directmemory_phase1,1066071,,,,,,,,object_08c.png,,,51,,,0,,object_14b.png,object_03b.png,object_05c.png,object_03b.png,,0.5,,0,,,,,,,,,,,
8943,,directmemory_phase1,1075015,,,,,,,,object_08a.png,,,50,,,0,,object_11b.png,object_14c.png,object_10b.png,object_11b.png,,0.45454545454545453,,0,,,,,,,,,,,
9218,,directmemory_phase1,1084235,,,,,,,,object_02a.png,,,50,,,1,,object_14c.png,object_04b.png,object_10b.png,object_04b.png,,0.5,,1,,,,,,,,,,,
8863,,directmemory_phase1,1093101,,,,,,,,object_07a.png,,,51,,,0,,object_11a.png,object_05b.png,object_09b.png,object_11a.png,,0.46153846153846156,,0,,,,,,,,,,,
10288,,directmemory_phase1,1103391,,,,,,,,object_06a.png,,,51,,,0,,object_05a.png,object_09a.png,object_07c.png,object_05a.png,,0.42857142857142855,,0,,,,,,,,,,,
7978,,directmemory_phase1,1111371,,,,,,,,object_04c.png,,,50,,,1,,object_14c.png,object_06b.png,object_14b.png,object_06b.png,,0.4666666666666667,,1,,,,,,,,,,,
3370,,directmemory_phase1,1114742,,,,,,,,object_08b.png,,,51,,,0,,object_09b.png,object_01a.png,object_08a.png,object_01a.png,,0.4375,,0,,,,,,,,,,,
3954,,directmemory_phase1,1118697,,,,,,,,object_10a.png,,,51,,,1,,object_14c.png,object_05c.png,object_02c.png,object_02c.png,,0.47058823529411764,,1,,,,,,,,,,,
2893,,directmemory_phase1,1121592,,,,,,,,object_09b.png,,,49,,,1,,object_14c.png,object_05c.png,object_05a.png,object_14c.png,,0.5,,1,,,,,,,,,,,
4503,,directmemory_phase1,1126096,,,,,,,,object_01b.png,,,50,,,1,,object_13b.png,object_08c.png,object_09b.png,object_08c.png,,0.5263157894736842,,1,,,,,,,,,,,
3979,,directmemory_phase1,1130076,,,,,,,,object_01c.png,,,51,,,0,,object_05b.png,object_08a.png,object_13b.png,object_08a.png,,0.5,,0,,,,,,,,,,,
8755,,directmemory_phase1,1138832,,,,,,,,object_13a.png,,,51,,,0,,object_06a.png,object_04c.png,object_15c.png,object_06a.png,,0.47619047619047616,,0,,,,,,,,,,,
7369,,directmemory_phase1,1146202,,,,,,,,object_11a.png,,,49,,,1,,object_12b.png,object_02c.png,object_11b.png,object_12b.png,,0.5,,1,,,,,,,,,,,
2069,,directmemory_phase1,1148272,,,,,,,,object_06c.png,,,50,,,0,,object_01a.png,object_13c.png,object_15c.png,object_15c.png,,0.4782608695652174,,0,,,,,,,,,,,
2449,,directmemory_phase1,1150724,,,,,,,,object_03c.png,,,50,,,1,,object_13c.png,object_10a.png,object_05b.png,object_10a.png,,0.5,,1,,,,,,,,,,,
1346,,directmemory_phase1,1152072,,,,,,,,object_04a.png,,,51,,,0,,object_15b.png,object_05b.png,object_04c.png,object_15b.png,,0.48,,0,,,,,,,,,,,
1774,,directmemory_phase1,1153847,,,,,,,,object_07b.png,,,49,,,0,,object_13b.png,object_04c.png,object_05b.png,object_04c.png,,0.46153846153846156,,0,,,,,,,,,,,
6584,,directmemory_phase1,1160432,,,,,,,,object_01a.png,,,49,,,0,,object_10b.png,object_07c.png,object_14b.png,object_14b.png,,0.4444444444444444,,0,,,,,,,,,,,
2973,,directmemory_phase1,1163407,,,,,,,,object_14a.png,,,50,,,0,,object_04c.png,object_08c.png,object_02b.png,object_02b.png,,0.42857142857142855,,0,,,,,,,,,,,
3092,,directmemory_phase1,1166502,,,,,,,,object_13c.png,,,51,,,1,,object_05c.png,object_02c.png,object_10c.png,object_10c.png,,0.4482758620689655,,1,,,,,,,,,,,
2533,,directmemory_phase1,1169036,,,,,,,,object_15c.png,,,49,,,1,,object_10b.png,object_10c.png,object_02c.png,object_10b.png,,0.4666666666666667,,1,,,,,,,,,,,
null,,thebreak,1169139,,,,,,,,<p></p>,,,null,,,,,,,,,,,,,,,,,,,,,,,
2547,,intro_0,1171687,,,,,,,,instruct,,,32,,,,,,,,,,,,,,,,,,,,,,,
null,,learn_phase(without_color)2,1175188,,,,,,,,black_plus_sign,,,null,object_15c.png,object_06c.png,,,,,,,,,,,,,,,,,,,,,
null,,black_cross(without_color)2,1176036,,,,,,,,blue,,,null,object_15c.png,object_06c.png,,,,,,,,,,,,,,,,,,,,,
null,,rt_plussign_withcolor2,1176538,,,,,,,,blue,,,null,object_15c.png,object_06c.png,,,,,,,,,,,,,,,,,,,,,
1220,,rt_thecrossant_black2,1177692,,,,,,,,black_plus_sign,,,49,,,1,,,,,,,1,,,,,,,,,,,,,
null,,color_black2,1177793,,,,,,,,black_plus_sign,,,null,,,,,,,,,,,,,,,,,,,,,,,
null,,learn_phase(without_color)2,1181297,,,,,,,,black_plus_sign,,,null,object_13c.png,object_12c.png,,,,,,,,,,,,,,,,,,,,,
null,,black_cross(without_color)2,1182313,,,,,,,,blue,,,null,object_13c.png,object_12c.png,,,,,,,,,,,,,,,,,,,,,
null,,rt_plussign_withcolor2,1182817,,,,,,,,blue,,,null,object_13c.png,object_12c.png,,,,,,,,,,,,,,,,,,,,,
1267,,rt_thecrossant_black2,1183809,,,,,,,,black_plus_sign,,,49,,,1,,,,,,,1,,,,,,,,,,,,,
null,,color_black2,1183910,,,,,,,,black_plus_sign,,,null,,,,,,,,,,,,,,,,,,,,,,,
null,,learn_phase(without_color)2,1187415,,,,,,,,black_plus_sign,,,null,object_10b.png,object_15c.png,,,,,,,,,,,,,,,,,,,,,
null,,black_cross(without_color)2,1188434,,,,,,,,blue,,,null,object_10b.png,object_15c.png,,,,,,,,,,,,,,,,,,,,,
null,,rt_plussign_withcolor2,1188938,,,,,,,,blue,,,null,object_10b.png,object_15c.png,,,,,,,,,,,,,,,,,,,,,
1589,,rt_thecrossant_black2,1189927,,,,,,,,black_plus_sign,,,49,,,1,,,,,,,1,,,,,,,,,,,,,
null,,color_black2,1190029,,,,,,,,black_plus_sign,,,null,,,,,,,,,,,,,,,,,,,,,,,
null,,learn_phase(without_color)2,1193533,,,,,,,,black_plus_sign,,,null,object_15b.png,object_04a.png,,,,,,,,,,,,,,,,,,,,,
null,,black_cross(without_color)2,1194370,,,,,,,,blue,,,null,object_15b.png,object_04a.png,,,,,,,,,,,,,,,,,,,,,
null,,rt_plussign_withcolor2,1194874,,,,,,,,blue,,,null,object_15b.png,object_04a.png,,,,,,,,,,,,,,,,,,,,,
1491,,rt_thecrossant_black2,1196043,,,,,,,,black_plus_sign,,,49,,,1,,,,,,,1,,,,,,,,,,,,,
null,,color_black2,1196145,,,,,,,,black_plus_sign,,,null,,,,,,,,,,,,,,,,,,,,,,,
null,,learn_phase(without_color)2,1199649,,,,,,,,black_plus_sign,,,null,object_08c.png,object_01b.png,,,,,,,,,,,,,,,,,,,,,
null,,black_cross(without_color)2,1200676,,,,,,,,blue,,,null,object_08c.png,object_01b.png,,,,,,,,,,,,,,,,,,,,,
null,,rt_plussign_withcolor2,1201179,,,,,,,,blue,,,null,object_08c.png,object_01b.png,,,,,,,,,,,,,,,,,,,,,
1176,,rt_thecrossant_black2,1202160,,,,,,,,black_plus_sign,,,49,,,1,,,,,,,1,,,,,,,,,,,,,
null,,color_black2,1202277,,,,,,,,black_plus_sign,,,null,,,,,,,,,,,,,,,,,,,,,,,
null,,learn_phase(without_color)2,1205782,,,,,,,,black_plus_sign,,,null,object_05b.png,object_11c.png,,,,,,,,,,,,,,,,,,,,,
null,,black_cross(without_color)2,1206206,,,,,,,,green,,,null,object_05b.png,object_11c.png,,,,,,,,,,,,,,,,,,,,,
null,,rt_plussign_withcolor2,1206709,,,,,,,,green,,,null,object_05b.png,object_11c.png,,,,,,,,,,,,,,,,,,,,,
1699,,rt_thecrossant_black2,1208292,,,,,,,,black_plus_sign,,,50,,,1,,,,,,,1,,,,,,,,,,,,,
null,,color_black2,1208394,,,,,,,,black_plus_sign,,,null,,,,,,,,,,,,,,,,,,,,,,,
null,,learn_phase(without_color)2,1211897,,,,,,,,black_plus_sign,,,null,object_15a.png,object_05b.png,,,,,,,,,,,,,,,,,,,,,
null,,black_cross(without_color)2,1212825,,,,,,,,blue,,,null,object_15a.png,object_05b.png,,,,,,,,,,,,,,,,,,,,,
null,,rt_plussign_withcolor2,1213328,,,,,,,,blue,,,null,object_15a.png,object_05b.png,,,,,,,,,,,,,,,,,,,,,
859,,rt_thecrossant_black2,1214407,,,,,,,,black_plus_sign,,,49,,,1,,,,,,,1,,,,,,,,,,,,,
null,,color_black2,1214508,,,,,,,,black_plus_sign,,,null,,,,,,,,,,,,,,,,,,,,,,,
null,,learn_phase(without_color)2,1218012,,,,,,,,black_plus_sign,,,null,object_02b.png,object_14a.png,,,,,,,,,,,,,,,,,,,,,
null,,black_cross(without_color)2,1218506,,,,,,,,blue,,,null,object_02b.png,object_14a.png,,,,,,,,,,,,,,,,,,,,,
null,,rt_plussign_withcolor2,1219009,,,,,,,,blue,,,null,object_02b.png,object_14a.png,,,,,,,,,,,,,,,,,,,,,
1591,,rt_thecrossant_black2,1220524,,,,,,,,black_plus_sign,,,49,,,1,,,,,,,1,,,,,,,,,,,,,
null,,color_black2,1220624,,,,,,,,black_plus_sign,,,null,,,,,,,,,,,,,,,,,,,,,,,
null,,learn_phase(without_color)2,1224128,,,,,,,,black_plus_sign,,,null,object_13b.png,object_03a.png,,,,,,,,,,,,,,,,,,,,,
null,,black_cross(without_color)2,1224636,,,,,,,,blue,,,null,object_13b.png,object_03a.png,,,,,,,,,,,,,,,,,,,,,
null,,rt_plussign_withcolor2,1225138,,,,,,,,blue,,,null,object_13b.png,object_03a.png,,,,,,,,,,,,,,,,,,,,,
918,,rt_thecrossant_black2,1226636,,,,,,,,black_plus_sign,,,49,,,1,,,,,,,1,,,,,,,,,,,,,
null,,color_black2,1226737,,,,,,,,black_plus_sign,,,null,,,,,,,,,,,,,,,,,,,,,,,
null,,learn_phase(without_color)2,1230242,,,,,,,,black_plus_sign,,,null,object_07c.png,object_13b.png,,,,,,,,,,,,,,,,,,,,,
null,,black_cross(without_color)2,1231004,,,,,,,,green,,,null,object_07c.png,object_13b.png,,,,,,,,,,,,,,,,,,,,,
null,,rt_plussign_withcolor2,1231506,,,,,,,,green,,,null,object_07c.png,object_13b.png,,,,,,,,,,,,,,,,,,,,,
1129,,rt_thecrossant_black2,1232752,,,,,,,,black_plus_sign,,,49,,,0,,,,,,,0.9,,,,,,,,,,,,,
null,,color_black2,1232853,,,,,,,,black_plus_sign,,,null,,,,,,,,,,,,,,,,,,,,,,,
null,,learn_phase(without_color)2,1236356,,,,,,,,black_plus_sign,,,null,object_11a.png,object_07a.png,,,,,,,,,,,,,,,,,,,,,
null,,black_cross(without_color)2,1236819,,,,,,,,blue,,,null,object_11a.png,object_07a.png,,,,,,,,,,,,,,,,,,,,,
null,,rt_plussign_withcolor2,1237323,,,,,,,,blue,,,null,object_11a.png,object_07a.png,,,,,,,,,,,,,,,,,,,,,
1161,,rt_thecrossant_black2,1238865,,,,,,,,black_plus_sign,,,49,,,1,,,,,,,0.9090909090909091,,,,,,,,,,,,,
null,,color_black2,1238970,,,,,,,,black_plus_sign,,,null,,,,,,,,,,,,,,,,,,,,,,,
null,,learn_phase(without_color)2,1242474,,,,,,,,black_plus_sign,,,null,object_01a.png,object_08b.png,,,,,,,,,,,,,,,,,,,,,
null,,black_cross(without_color)2,1242937,,,,,,,,green,,,null,object_01a.png,object_08b.png,,,,,,,,,,,,,,,,,,,,,
null,,rt_plussign_withcolor2,1243441,,,,,,,,green,,,null,object_01a.png,object_08b.png,,,,,,,,,,,,,,,,,,,,,
764,,rt_thecrossant_black2,1244985,,,,,,,,black_plus_sign,,,50,,,1,,,,,,,0.9166666666666666,,,,,,,,,,,,,
null,,color_black2,1245086,,,,,,,,black_plus_sign,,,null,,,,,,,,,,,,,,,,,,,,,,,
null,,learn_phase(without_color)2,1248589,,,,,,,,black_plus_sign,,,null,object_04c.png,object_07b.png,,,,,,,,,,,,,,,,,,,,,
null,,black_cross(without_color)2,1249598,,,,,,,,green,,,null,object_04c.png,object_07b.png,,,,,,,,,,,,,,,,,,,,,
null,,rt_plussign_withcolor2,1250100,,,,,,,,green,,,null,object_04c.png,object_07b.png,,,,,,,,,,,,,,,,,,,,,
1091,,rt_thecrossant_black2,1251099,,,,,,,,black_plus_sign,,,50,,,1,,,,,,,0.9230769230769231,,,,,,,,,,,,,
null,,color_black2,1251202,,,,,,,,black_plus_sign,,,null,,,,,,,,,,,,,,,,,,,,,,,
null,,learn_phase(without_color)2,1254705,,,,,,,,black_plus_sign,,,null,object_09a.png,object_02b.png,,,,,,,,,,,,,,,,,,,,,
null,,black_cross(without_color)2,1255632,,,,,,,,blue,,,null,object_09a.png,object_02b.png,,,,,,,,,,,,,,,,,,,,,
null,,rt_plussign_withcolor2,1256136,,,,,,,,blue,,,null,object_09a.png,object_02b.png,,,,,,,,,,,,,,,,,,,,,
1674,,rt_thecrossant_black2,1257216,,,,,,,,black_plus_sign,,,49,,,1,,,,,,,0.9285714285714286,,,,,,,,,,,,,
null,,color_black2,1257317,,,,,,,,black_plus_sign,,,null,,,,,,,,,,,,,,,,,,,,,,,
null,,learn_phase(without_color)2,1260820,,,,,,,,black_plus_sign,,,null,object_09b.png,object_09c.png,,,,,,,,,,,,,,,,,,,,,
null,,black_cross(without_color)2,1261344,,,,,,,,blue,,,null,object_09b.png,object_09c.png,,,,,,,,,,,,,,,,,,,,,
null,,rt_plussign_withcolor2,1261848,,,,,,,,blue,,,null,object_09b.png,object_09c.png,,,,,,,,,,,,,,,,,,,,,
1397,,rt_thecrossant_black2,1263330,,,,,,,,black_plus_sign,,,49,,,1,,,,,,,0.9333333333333333,,,,,,,,,,,,,
null,,color_black2,1263431,,,,,,,,black_plus_sign,,,null,,,,,,,,,,,,,,,,,,,,,,,
null,,learn_phase(without_color)2,1266934,,,,,,,,black_plus_sign,,,null,object_08a.png,object_01c.png,,,,,,,,,,,,,,,,,,,,,
null,,black_cross(without_color)2,1267639,,,,,,,,green,,,null,object_08a.png,object_01c.png,,,,,,,,,,,,,,,,,,,,,
null,,rt_plussign_withcolor2,1268143,,,,,,,,green,,,null,object_08a.png,object_01c.png,,,,,,,,,,,,,,,,,,,,,
1109,,rt_thecrossant_black2,1269447,,,,,,,,black_plus_sign,,,50,,,1,,,,,,,0.9375,,,,,,,,,,,,,
null,,color_black2,1269547,,,,,,,,black_plus_sign,,,null,,,,,,,,,,,,,,,,,,,,,,,
null,,learn_phase(without_color)2,1273050,,,,,,,,black_plus_sign,,,null,object_10a.png,object_03c.png,,,,,,,,,,,,,,,,,,,,,
null,,black_cross(without_color)2,1273928,,,,,,,,green,,,null,object_10a.png,object_03c.png,,,,,,,,,,,,,,,,,,,,,
null,,rt_plussign_withcolor2,1274430,,,,,,,,green,,,null,object_10a.png,object_03c.png,,,,,,,,,,,,,,,,,,,,,
1250,,rt_thecrossant_black2,1275573,,,,,,,,black_plus_sign,,,50,,,1,,,,,,,0.9411764705882353,,,,,,,,,,,,,
null,,color_black2,1275674,,,,,,,,black_plus_sign,,,null,,,,,,,,,,,,,,,,,,,,,,,
null,,learn_phase(without_color)2,1279177,,,,,,,,black_plus_sign,,,null,object_10c.png,object_13c.png,,,,,,,,,,,,,,,,,,,,,
null,,black_cross(without_color)2,1279631,,,,,,,,blue,,,null,object_10c.png,object_13c.png,,,,,,,,,,,,,,,,,,,,,
null,,rt_plussign_withcolor2,1280135,,,,,,,,blue,,,null,object_10c.png,object_13c.png,,,,,,,,,,,,,,,,,,,,,
1555,,rt_thecrossant_black2,1281688,,,,,,,,black_plus_sign,,,49,,,1,,,,,,,0.9444444444444444,,,,,,,,,,,,,
null,,color_black2,1281790,,,,,,,,black_plus_sign,,,null,,,,,,,,,,,,,,,,,,,,,,,
null,,learn_phase(without_color)2,1285292,,,,,,,,black_plus_sign,,,null,object_06b.png,object_04c.png,,,,,,,,,,,,,,,,,,,,,
null,,black_cross(without_color)2,1286147,,,,,,,,green,,,null,object_06b.png,object_04c.png,,,,,,,,,,,,,,,,,,,,,
null,,rt_plussign_withcolor2,1286650,,,,,,,,green,,,null,object_06b.png,object_04c.png,,,,,,,,,,,,,,,,,,,,,
null,,rt_thecrossant_black2,1287803,,,,,,,,black_plus_sign,,,null,,,,,,,,,,0.9444444444444444,,,,,,,,,,,,,
null,,color_black2,1287905,,,,,,,,black_plus_sign,,,null,,,,,,,,,,,,,,,,,,,,,,,
null,,learn_phase(without_color)2,1291408,,,,,,,,black_plus_sign,,,null,object_02a.png,object_12a.png,,,,,,,,,,,,,,,,,,,,,
null,,black_cross(without_color)2,1292218,,,,,,,,blue,,,null,object_02a.png,object_12a.png,,,,,,,,,,,,,,,,,,,,,
null,,rt_plussign_withcolor2,1292721,,,,,,,,blue,,,null,object_02a.png,object_12a.png,,,,,,,,,,,,,,,,,,,,,
1372,,rt_thecrossant_black2,1293918,,,,,,,,black_plus_sign,,,49,,,1,,,,,,,0.9473684210526315,,,,,,,,,,,,,
null,,color_black2,1294019,,,,,,,,black_plus_sign,,,null,,,,,,,,,,,,,,,,,,,,,,,
null,,learn_phase(without_color)2,1297524,,,,,,,,black_plus_sign,,,null,object_03b.png,object_08c.png,,,,,,,,,,,,,,,,,,,,,
null,,black_cross(without_color)2,1298342,,,,,,,,green,,,null,object_03b.png,object_08c.png,,,,,,,,,,,,,,,,,,,,,
null,,rt_plussign_withcolor2,1298845,,,,,,,,green,,,null,object_03b.png,object_08c.png,,,,,,,,,,,,,,,,,,,,,
1343,,rt_thecrossant_black2,1300032,,,,,,,,black_plus_sign,,,50,,,1,,,,,,,0.95,,,,,,,,,,,,,
null,,color_black2,1300134,,,,,,,,black_plus_sign,,,null,,,,,,,,,,,,,,,,,,,,,,,
null,,learn_phase(without_color)2,1303637,,,,,,,,black_plus_sign,,,null,object_14c.png,object_09b.png,,,,,,,,,,,,,,,,,,,,,
null,,black_cross(without_color)2,1304164,,,,,,,,green,,,null,object_14c.png,object_09b.png,,,,,,,,,,,,,,,,,,,,,
null,,rt_plussign_withcolor2,1304667,,,,,,,,green,,,null,object_14c.png,object_09b.png,,,,,,,,,,,,,,,,,,,,,
1454,,rt_thecrossant_black2,1306149,,,,,,,,black_plus_sign,,,50,,,1,,,,,,,0.9523809523809523,,,,,,,,,,,,,
null,,color_black2,1306249,,,,,,,,black_plus_sign,,,null,,,,,,,,,,,,,,,,,,,,,,,
null,,learn_phase(without_color)2,1309752,,,,,,,,black_plus_sign,,,null,object_14b.png,object_01a.png,,,,,,,,,,,,,,,,,,,,,
null,,black_cross(without_color)2,1310416,,,,,,,,blue,,,null,object_14b.png,object_01a.png,,,,,,,,,,,,,,,,,,,,,
null,,rt_plussign_withcolor2,1310919,,,,,,,,blue,,,null,object_14b.png,object_01a.png,,,,,,,,,,,,,,,,,,,,,
1212,,rt_thecrossant_black2,1312274,,,,,,,,black_plus_sign,,,49,,,1,,,,,,,0.9545454545454546,,,,,,,,,,,,,
null,,color_black2,1312375,,,,,,,,black_plus_sign,,,null,,,,,,,,,,,,,,,,,,,,,,,
null,,learn_phase(without_color)2,1315879,,,,,,,,black_plus_sign,,,null,object_02c.png,object_10a.png,,,,,,,,,,,,,,,,,,,,,
null,,black_cross(without_color)2,1316413,,,,,,,,green,,,null,object_02c.png,object_10a.png,,,,,,,,,,,,,,,,,,,,,
null,,rt_plussign_withcolor2,1316917,,,,,,,,green,,,null,object_02c.png,object_10a.png,,,,,,,,,,,,,,,,,,,,,
1234,,rt_thecrossant_black2,1318390,,,,,,,,black_plus_sign,,,50,,,1,,,,,,,0.9565217391304348,,,,,,,,,,,,,
null,,color_black2,1318491,,,,,,,,black_plus_sign,,,null,,,,,,,,,,,,,,,,,,,,,,,
null,,learn_phase(without_color)2,1321994,,,,,,,,black_plus_sign,,,null,object_05c.png,object_15b.png,,,,,,,,,,,,,,,,,,,,,
null,,black_cross(without_color)2,1322873,,,,,,,,blue,,,null,object_05c.png,object_15b.png,,,,,,,,,,,,,,,,,,,,,
null,,rt_plussign_withcolor2,1323376,,,,,,,,blue,,,null,object_05c.png,object_15b.png,,,,,,,,,,,,,,,,,,,,,
1131,,rt_thecrossant_black2,1324504,,,,,,,,black_plus_sign,,,49,,,1,,,,,,,0.9583333333333334,,,,,,,,,,,,,
null,,color_black2,1324607,,,,,,,,black_plus_sign,,,null,,,,,,,,,,,,,,,,,,,,,,,
null,,learn_phase(without_color)2,1328112,,,,,,,,black_plus_sign,,,null,object_12b.png,object_11a.png,,,,,,,,,,,,,,,,,,,,,
null,,black_cross(without_color)2,1329022,,,,,,,,blue,,,null,object_12b.png,object_11a.png,,,,,,,,,,,,,,,,,,,,,
null,,rt_plussign_withcolor2,1329524,,,,,,,,blue,,,null,object_12b.png,object_11a.png,,,,,,,,,,,,,,,,,,,,,
1504,,rt_thecrossant_black2,1330621,,,,,,,,black_plus_sign,,,49,,,1,,,,,,,0.96,,,,,,,,,,,,,
null,,color_black2,1330722,,,,,,,,black_plus_sign,,,null,,,,,,,,,,,,,,,,,,,,,,,
null,,learn_phase(without_color)2,1334226,,,,,,,,black_plus_sign,,,null,object_06a.png,object_13a.png,,,,,,,,,,,,,,,,,,,,,
null,,black_cross(without_color)2,1335116,,,,,,,,blue,,,null,object_06a.png,object_13a.png,,,,,,,,,,,,,,,,,,,,,
null,,rt_plussign_withcolor2,1335619,,,,,,,,blue,,,null,object_06a.png,object_13a.png,,,,,,,,,,,,,,,,,,,,,
1573,,rt_thecrossant_black2,1336737,,,,,,,,black_plus_sign,,,49,,,1,,,,,,,0.9615384615384616,,,,,,,,,,,,,
null,,color_black2,1336837,,,,,,,,black_plus_sign,,,null,,,,,,,,,,,,,,,,,,,,,,,
null,,learn_phase(without_color)2,1340340,,,,,,,,black_plus_sign,,,null,object_11b.png,object_08a.png,,,,,,,,,,,,,,,,,,,,,
null,,black_cross(without_color)2,1341427,,,,,,,,green,,,null,object_11b.png,object_08a.png,,,,,,,,,,,,,,,,,,,,,
null,,rt_plussign_withcolor2,1341929,,,,,,,,green,,,null,object_11b.png,object_08a.png,,,,,,,,,,,,,,,,,,,,,
1599,,rt_thecrossant_black2,1342850,,,,,,,,black_plus_sign,,,50,,,1,,,,,,,0.9629629629629629,,,,,,,,,,,,,
null,,color_black2,1342951,,,,,,,,black_plus_sign,,,null,,,,,,,,,,,,,,,,,,,,,,,
null,,learn_phase(without_color)2,1346454,,,,,,,,black_plus_sign,,,null,object_04b.png,object_02a.png,,,,,,,,,,,,,,,,,,,,,
null,,black_cross(without_color)2,1346952,,,,,,,,blue,,,null,object_04b.png,object_02a.png,,,,,,,,,,,,,,,,,,,,,
null,,rt_plussign_withcolor2,1347456,,,,,,,,blue,,,null,object_04b.png,object_02a.png,,,,,,,,,,,,,,,,,,,,,
2158,,rt_thecrossant_black2,1348964,,,,,,,,black_plus_sign,,,49,,,1,,,,,,,0.9642857142857143,,,,,,,,,,,,,
null,,color_black2,1349065,,,,,,,,black_plus_sign,,,null,,,,,,,,,,,,,,,,,,,,,,,
null,,learn_phase(without_color)2,1352568,,,,,,,,black_plus_sign,,,null,object_05a.png,object_06a.png,,,,,,,,,,,,,,,,,,,,,
null,,black_cross(without_color)2,1353418,,,,,,,,green,,,null,object_05a.png,object_06a.png,,,,,,,,,,,,,,,,,,,,,
null,,rt_plussign_withcolor2,1353920,,,,,,,,green,,,null,object_05a.png,object_06a.png,,,,,,,,,,,,,,,,,,,,,
947,,rt_thecrossant_black2,1355078,,,,,,,,black_plus_sign,,,50,,,1,,,,,,,0.9655172413793104,,,,,,,,,,,,,
null,,color_black2,1355178,,,,,,,,black_plus_sign,,,null,,,,,,,,,,,,,,,,,,,,,,,
null,,thebreak,1355281,,,,,,,,<p></p>,,,null,,,,,,,,,,,,,,,,,,,,,,,
1339,,intro_0,1356622,,,,,,,,instruct,,,32,,,,,,,,,,,,,,,,,,,,,,,
3549,,directmemory_phase2,1360172,,,,,,,,object_12a.png,,,49,,,1,,object_02a.png,object_10a.png,object_06a.png,object_02a.png,,0.4838709677419355,,1,,,,,,,,,,,
4219,,directmemory_phase2,1364393,,,,,,,,object_13b.png,,,49,,,1,,object_07c.png,object_05a.png,object_10b.png,object_07c.png,,0.5,,1,,,,,,,,,,,
3418,,directmemory_phase2,1367812,,,,,,,,object_05b.png,,,50,,,0,,object_15a.png,object_04b.png,object_06b.png,object_15a.png,,0.48484848484848486,,0,,,,,,,,,,,
3838,,directmemory_phase2,1371652,,,,,,,,object_02a.png,,,49,,,0,,object_11b.png,object_14b.png,object_04b.png,object_04b.png,,0.47058823529411764,,0,,,,,,,,,,,
3579,,directmemory_phase2,1375233,,,,,,,,object_07b.png,,,49,,,0,,object_09b.png,object_04c.png,object_05b.png,object_04c.png,,0.45714285714285713,,0,,,,,,,,,,,
3674,,directmemory_phase2,1378908,,,,,,,,object_03c.png,,,51,,,1,,object_02a.png,object_08a.png,object_10a.png,object_10a.png,,0.4722222222222222,,1,,,,,,,,,,,
3529,,directmemory_phase2,1382437,,,,,,,,object_09b.png,,,51,,,1,,object_11b.png,object_05a.png,object_14c.png,object_14c.png,,0.4864864864864865,,1,,,,,,,,,,,
2134,,directmemory_phase2,1384573,,,,,,,,object_04a.png,,,50,,,0,,object_08c.png,object_01a.png,object_15b.png,object_15b.png,,0.47368421052631576,,0,,,,,,,,,,,
4138,,directmemory_phase2,1388712,,,,,,,,object_01a.png,,,50,,,0,,object_14b.png,object_14c.png,object_10b.png,object_14b.png,,0.46153846153846156,,0,,,,,,,,,,,
4558,,directmemory_phase2,1393273,,,,,,,,object_07a.png,,,50,,,1,,object_15c.png,object_11a.png,object_04c.png,object_11a.png,,0.475,,1,,,,,,,,,,,
4213,,directmemory_phase2,1397487,,,,,,,,object_08c.png,,,50,,,0,,object_03b.png,object_02c.png,object_11b.png,object_03b.png,,0.4634146341463415,,0,,,,,,,,,,,
3448,,directmemory_phase2,1400938,,,,,,,,object_15b.png,,,50,,,0,,object_05c.png,object_10b.png,object_02c.png,object_05c.png,,0.4523809523809524,,0,,,,,,,,,,,
4153,,directmemory_phase2,1405092,,,,,,,,object_06c.png,,,49,,,0,,object_04c.png,object_02b.png,object_15c.png,object_15c.png,,0.4418604651162791,,0,,,,,,,,,,,
3938,,directmemory_phase2,1409031,,,,,,,,object_08b.png,,,51,,,0,,object_01a.png,object_09b.png,object_06a.png,object_01a.png,,0.4318181818181818,,0,,,,,,,,,,,
2749,,directmemory_phase2,1411782,,,,,,,,object_01c.png,,,51,,,1,,object_13b.png,object_02a.png,object_08a.png,object_08a.png,,0.4444444444444444,,1,,,,,,,,,,,
2973,,directmemory_phase2,1414756,,,,,,,,object_10a.png,,,51,,,1,,object_09a.png,object_04b.png,object_02c.png,object_02c.png,,0.45652173913043476,,1,,,,,,,,,,,
2380,,directmemory_phase2,1417137,,,,,,,,object_14a.png,,,50,,,1,,object_02a.png,object_02b.png,object_15c.png,object_02b.png,,0.46808510638297873,,1,,,,,,,,,,,
3467,,directmemory_phase2,1420606,,,,,,,,object_02b.png,,,49,,,0,,object_14b.png,object_10b.png,object_09a.png,object_09a.png,,0.4583333333333333,,0,,,,,,,,,,,
2548,,directmemory_phase2,1423156,,,,,,,,object_15c.png,,,49,,,0,,object_05c.png,object_10b.png,object_11b.png,object_10b.png,,0.4489795918367347,,0,,,,,,,,,,,
2768,,directmemory_phase2,1425925,,,,,,,,object_03a.png,,,50,,,1,,object_06a.png,object_13b.png,object_10a.png,object_13b.png,,0.46,,1,,,,,,,,,,,
2920,,directmemory_phase2,1428846,,,,,,,,object_04c.png,,,50,,,0,,object_14c.png,object_10c.png,object_06b.png,object_06b.png,,0.45098039215686275,,0,,,,,,,,,,,
3907,,directmemory_phase2,1432756,,,,,,,,object_01b.png,,,50,,,0,,object_02a.png,object_09b.png,object_08c.png,object_08c.png,,0.4423076923076923,,0,,,,,,,,,,,
3174,,directmemory_phase2,1435932,,,,,,,,object_06a.png,,,49,,,0,,object_14b.png,object_04b.png,object_05a.png,object_05a.png,,0.4339622641509434,,0,,,,,,,,,,,
2993,,directmemory_phase2,1438926,,,,,,,,object_08a.png,,,51,,,1,,object_10c.png,object_05c.png,object_11b.png,object_11b.png,,0.4444444444444444,,1,,,,,,,,,,,
3293,,directmemory_phase2,1442221,,,,,,,,object_11a.png,,,50,,,0,,object_09a.png,object_03b.png,object_12b.png,object_12b.png,,0.43636363636363634,,0,,,,,,,,,,,
2888,,directmemory_phase2,1445111,,,,,,,,object_13a.png,,,51,,,0,,object_06a.png,object_08c.png,object_09b.png,object_06a.png,,0.42857142857142855,,0,,,,,,,,,,,
3234,,directmemory_phase2,1448347,,,,,,,,object_13c.png,,,50,,,0,,object_05c.png,object_09a.png,object_10c.png,object_10c.png,,0.42105263157894735,,0,,,,,,,,,,,
2938,,directmemory_phase2,1451286,,,,,,,,object_11c.png,,,49,,,0,,object_01a.png,object_05b.png,object_02a.png,object_05b.png,,0.41379310344827586,,0,,,,,,,,,,,
2705,,directmemory_phase2,1453992,,,,,,,,object_09c.png,,,51,,,0,,object_09b.png,object_13b.png,object_04c.png,object_09b.png,,0.4067796610169492,,0,,,,,,,,,,,
2238,,directmemory_phase2,1456232,,,,,,,,object_12c.png,,,51,,,0,,object_13c.png,object_08c.png,object_06a.png,object_13c.png,,0.4,,0,,,,,,,,,,,
null,,thebreak,1456334,,,,,,,,<p></p>,,,null,,,,,,,,,,,,,,,,,,,,,,,
1186,,intro_0,1457521,,,,,,,,instruct,,,32,,,,,,,,,,,,,,,,,,,,,,,
null,,learn_phase(without_color)3,1461025,,,,,,,,black_plus_sign,,,null,object_15c.png,object_06c.png,,,,,,,,,,,,,,,,,,,,,
null,,black_cross(without_color)3,1461438,,,,,,,,green,,,null,object_15c.png,object_06c.png,,,,,,,,,,,,,,,,,,,,,
null,,rt_plussign_withcolor3,1461941,,,,,,,,green,,,null,object_15c.png,object_06c.png,,,,,,,,,,,,,,,,,,,,,
983,,rt_thecrossant_black3,1463536,,,,,,,,black_plus_sign,,,50,,,1,,,,,,,1,,,,,,,,,,,,,
null,,color_black3,1463639,,,,,,,,black_plus_sign,,,null,,,,,,,,,,,,,,,,,,,,,,,
null,,learn_phase(without_color)3,1467144,,,,,,,,black_plus_sign,,,null,object_14c.png,object_09b.png,,,,,,,,,,,,,,,,,,,,,
null,,black_cross(without_color)3,1467588,,,,,,,,green,,,null,object_14c.png,object_09b.png,,,,,,,,,,,,,,,,,,,,,
null,,rt_plussign_withcolor3,1468091,,,,,,,,green,,,null,object_14c.png,object_09b.png,,,,,,,,,,,,,,,,,,,,,
822,,rt_thecrossant_black3,1469653,,,,,,,,black_plus_sign,,,50,,,1,,,,,,,1,,,,,,,,,,,,,
null,,color_black3,1469755,,,,,,,,black_plus_sign,,,null,,,,,,,,,,,,,,,,,,,,,,,
null,,learn_phase(without_color)3,1473271,,,,,,,,black_plus_sign,,,null,object_06a.png,object_13a.png,,,,,,,,,,,,,,,,,,,,,
null,,black_cross(without_color)3,1474366,,,,,,,,green,,,null,object_06a.png,object_13a.png,,,,,,,,,,,,,,,,,,,,,
null,,rt_plussign_withcolor3,1474869,,,,,,,,green,,,null,object_06a.png,object_13a.png,,,,,,,,,,,,,,,,,,,,,
679,,rt_thecrossant_black3,1475784,,,,,,,,black_plus_sign,,,50,,,1,,,,,,,1,,,,,,,,,,,,,
null,,color_black3,1475885,,,,,,,,black_plus_sign,,,null,,,,,,,,,,,,,,,,,,,,,,,
null,,learn_phase(without_color)3,1479390,,,,,,,,black_plus_sign,,,null,object_15a.png,object_05b.png,,,,,,,,,,,,,,,,,,,,,
null,,black_cross(without_color)3,1480327,,,,,,,,blue,,,null,object_15a.png,object_05b.png,,,,,,,,,,,,,,,,,,,,,
null,,rt_plussign_withcolor3,1480829,,,,,,,,blue,,,null,object_15a.png,object_05b.png,,,,,,,,,,,,,,,,,,,,,
1374,,rt_thecrossant_black3,1481899,,,,,,,,black_plus_sign,,,49,,,1,,,,,,,1,,,,,,,,,,,,,
null,,color_black3,1482001,,,,,,,,black_plus_sign,,,null,,,,,,,,,,,,,,,,,,,,,,,
null,,learn_phase(without_color)3,1485502,,,,,,,,black_plus_sign,,,null,object_02b.png,object_14a.png,,,,,,,,,,,,,,,,,,,,,
null,,black_cross(without_color)3,1486320,,,,,,,,green,,,null,object_02b.png,object_14a.png,,,,,,,,,,,,,,,,,,,,,
null,,rt_plussign_withcolor3,1486824,,,,,,,,green,,,null,object_02b.png,object_14a.png,,,,,,,,,,,,,,,,,,,,,
1466,,rt_thecrossant_black3,1488011,,,,,,,,black_plus_sign,,,50,,,1,,,,,,,1,,,,,,,,,,,,,
null,,color_black3,1488112,,,,,,,,black_plus_sign,,,null,,,,,,,,,,,,,,,,,,,,,,,
null,,learn_phase(without_color)3,1491616,,,,,,,,black_plus_sign,,,null,object_15b.png,object_04a.png,,,,,,,,,,,,,,,,,,,,,
null,,black_cross(without_color)3,1492292,,,,,,,,blue,,,null,object_15b.png,object_04a.png,,,,,,,,,,,,,,,,,,,,,
null,,rt_plussign_withcolor3,1492795,,,,,,,,blue,,,null,object_15b.png,object_04a.png,,,,,,,,,,,,,,,,,,,,,
1327,,rt_thecrossant_black3,1494125,,,,,,,,black_plus_sign,,,49,,,1,,,,,,,1,,,,,,,,,,,,,
null,,color_black3,1494227,,,,,,,,black_plus_sign,,,null,,,,,,,,,,,,,,,,,,,,,,,
null,,learn_phase(without_color)3,1497730,,,,,,,,black_plus_sign,,,null,object_06b.png,object_04c.png,,,,,,,,,,,,,,,,,,,,,
null,,black_cross(without_color)3,1498462,,,,,,,,green,,,null,object_06b.png,object_04c.png,,,,,,,,,,,,,,,,,,,,,
null,,rt_plussign_withcolor3,1498965,,,,,,,,green,,,null,object_06b.png,object_04c.png,,,,,,,,,,,,,,,,,,,,,
1105,,rt_thecrossant_black3,1500240,,,,,,,,black_plus_sign,,,50,,,1,,,,,,,1,,,,,,,,,,,,,
null,,color_black3,1500340,,,,,,,,black_plus_sign,,,null,,,,,,,,,,,,,,,,,,,,,,,
null,,learn_phase(without_color)3,1503844,,,,,,,,black_plus_sign,,,null,object_10c.png,object_13c.png,,,,,,,,,,,,,,,,,,,,,
null,,black_cross(without_color)3,1504631,,,,,,,,blue,,,null,object_10c.png,object_13c.png,,,,,,,,,,,,,,,,,,,,,
null,,rt_plussign_withcolor3,1505136,,,,,,,,blue,,,null,object_10c.png,object_13c.png,,,,,,,,,,,,,,,,,,,,,
1568,,rt_thecrossant_black3,1506355,,,,,,,,black_plus_sign,,,49,,,1,,,,,,,1,,,,,,,,,,,,,
null,,color_black3,1506456,,,,,,,,black_plus_sign,,,null,,,,,,,,,,,,,,,,,,,,,,,
null,,learn_phase(without_color)3,1509961,,,,,,,,black_plus_sign,,,null,object_10a.png,object_03c.png,,,,,,,,,,,,,,,,,,,,,
null,,black_cross(without_color)3,1510734,,,,,,,,blue,,,null,object_10a.png,object_03c.png,,,,,,,,,,,,,,,,,,,,,
null,,rt_plussign_withcolor3,1511237,,,,,,,,blue,,,null,object_10a.png,object_03c.png,,,,,,,,,,,,,,,,,,,,,
1186,,rt_thecrossant_black3,1512484,,,,,,,,black_plus_sign,,,49,,,1,,,,,,,1,,,,,,,,,,,,,
null,,color_black3,1512585,,,,,,,,black_plus_sign,,,null,,,,,,,,,,,,,,,,,,,,,,,
null,,learn_phase(without_color)3,1516088,,,,,,,,black_plus_sign,,,null,object_05b.png,object_11c.png,,,,,,,,,,,,,,,,,,,,,
null,,black_cross(without_color)3,1516693,,,,,,,,green,,,null,object_05b.png,object_11c.png,,,,,,,,,,,,,,,,,,,,,
null,,rt_plussign_withcolor3,1517196,,,,,,,,green,,,null,object_05b.png,object_11c.png,,,,,,,,,,,,,,,,,,,,,
1308,,rt_thecrossant_black3,1518599,,,,,,,,black_plus_sign,,,50,,,1,,,,,,,1,,,,,,,,,,,,,
null,,color_black3,1518700,,,,,,,,black_plus_sign,,,null,,,,,,,,,,,,,,,,,,,,,,,
null,,learn_phase(without_color)3,1522204,,,,,,,,black_plus_sign,,,null,object_04c.png,object_07b.png,,,,,,,,,,,,,,,,,,,,,
null,,black_cross(without_color)3,1522690,,,,,,,,blue,,,null,object_04c.png,object_07b.png,,,,,,,,,,,,,,,,,,,,,
null,,rt_plussign_withcolor3,1523193,,,,,,,,blue,,,null,object_04c.png,object_07b.png,,,,,,,,,,,,,,,,,,,,,
1743,,rt_thecrossant_black3,1524714,,,,,,,,black_plus_sign,,,49,,,1,,,,,,,1,,,,,,,,,,,,,
null,,color_black3,1524814,,,,,,,,black_plus_sign,,,null,,,,,,,,,,,,,,,,,,,,,,,
null,,learn_phase(without_color)3,1528319,,,,,,,,black_plus_sign,,,null,object_11b.png,object_08a.png,,,,,,,,,,,,,,,,,,,,,
null,,black_cross(without_color)3,1529295,,,,,,,,blue,,,null,object_11b.png,object_08a.png,,,,,,,,,,,,,,,,,,,,,
null,,rt_plussign_withcolor3,1529800,,,,,,,,blue,,,null,object_11b.png,object_08a.png,,,,,,,,,,,,,,,,,,,,,
1163,,rt_thecrossant_black3,1530833,,,,,,,,black_plus_sign,,,49,,,1,,,,,,,1,,,,,,,,,,,,,
null,,color_black3,1530933,,,,,,,,black_plus_sign,,,null,,,,,,,,,,,,,,,,,,,,,,,
null,,learn_phase(without_color)3,1534438,,,,,,,,black_plus_sign,,,null,object_13b.png,object_03a.png,,,,,,,,,,,,,,,,,,,,,
null,,black_cross(without_color)3,1535473,,,,,,,,green,,,null,object_13b.png,object_03a.png,,,,,,,,,,,,,,,,,,,,,
null,,rt_plussign_withcolor3,1535976,,,,,,,,green,,,null,object_13b.png,object_03a.png,,,,,,,,,,,,,,,,,,,,,
1716,,rt_thecrossant_black3,1536949,,,,,,,,black_plus_sign,,,50,,,1,,,,,,,1,,,,,,,,,,,,,
null,,color_black3,1537050,,,,,,,,black_plus_sign,,,null,,,,,,,,,,,,,,,,,,,,,,,
null,,learn_phase(without_color)3,1540555,,,,,,,,black_plus_sign,,,null,object_02a.png,object_12a.png,,,,,,,,,,,,,,,,,,,,,
null,,black_cross(without_color)3,1541470,,,,,,,,green,,,null,object_02a.png,object_12a.png,,,,,,,,,,,,,,,,,,,,,
null,,rt_plussign_withcolor3,1541974,,,,,,,,green,,,null,object_02a.png,object_12a.png,,,,,,,,,,,,,,,,,,,,,
1763,,rt_thecrossant_black3,1543067,,,,,,,,black_plus_sign,,,50,,,1,,,,,,,1,,,,,,,,,,,,,
null,,color_black3,1543170,,,,,,,,black_plus_sign,,,null,,,,,,,,,,,,,,,,,,,,,,,
null,,learn_phase(without_color)3,1546674,,,,,,,,black_plus_sign,,,null,object_04b.png,object_02a.png,,,,,,,,,,,,,,,,,,,,,
null,,black_cross(without_color)3,1547147,,,,,,,,blue,,,null,object_04b.png,object_02a.png,,,,,,,,,,,,,,,,,,,,,
null,,rt_plussign_withcolor3,1547650,,,,,,,,blue,,,null,object_04b.png,object_02a.png,,,,,,,,,,,,,,,,,,,,,
1488,,rt_thecrossant_black3,1549187,,,,,,,,black_plus_sign,,,49,,,1,,,,,,,1,,,,,,,,,,,,,
null,,color_black3,1549303,,,,,,,,black_plus_sign,,,null,,,,,,,,,,,,,,,,,,,,,,,
null,,learn_phase(without_color)3,1552813,,,,,,,,black_plus_sign,,,null,object_03b.png,object_08c.png,,,,,,,,,,,,,,,,,,,,,
null,,black_cross(without_color)3,1553631,,,,,,,,blue,,,null,object_03b.png,object_08c.png,,,,,,,,,,,,,,,,,,,,,
null,,rt_plussign_withcolor3,1554134,,,,,,,,blue,,,null,object_03b.png,object_08c.png,,,,,,,,,,,,,,,,,,,,,
1134,,rt_thecrossant_black3,1555324,,,,,,,,black_plus_sign,,,49,,,1,,,,,,,1,,,,,,,,,,,,,
null,,color_black3,1555424,,,,,,,,black_plus_sign,,,null,,,,,,,,,,,,,,,,,,,,,,,
null,,learn_phase(without_color)3,1558929,,,,,,,,black_plus_sign,,,null,object_01a.png,object_08b.png,,,,,,,,,,,,,,,,,,,,,
null,,black_cross(without_color)3,1560028,,,,,,,,blue,,,null,object_01a.png,object_08b.png,,,,,,,,,,,,,,,,,,,,,
null,,rt_plussign_withcolor3,1560532,,,,,,,,blue,,,null,object_01a.png,object_08b.png,,,,,,,,,,,,,,,,,,,,,
1438,,rt_thecrossant_black3,1561440,,,,,,,,black_plus_sign,,,49,,,1,,,,,,,1,,,,,,,,,,,,,
null,,color_black3,1561542,,,,,,,,black_plus_sign,,,null,,,,,,,,,,,,,,,,,,,,,,,
null,,learn_phase(without_color)3,1565047,,,,,,,,black_plus_sign,,,null,object_14b.png,object_01a.png,,,,,,,,,,,,,,,,,,,,,
null,,black_cross(without_color)3,1565634,,,,,,,,green,,,null,object_14b.png,object_01a.png,,,,,,,,,,,,,,,,,,,,,
null,,rt_plussign_withcolor3,1566138,,,,,,,,green,,,null,object_14b.png,object_01a.png,,,,,,,,,,,,,,,,,,,,,
1813,,rt_thecrossant_black3,1567559,,,,,,,,black_plus_sign,,,50,,,1,,,,,,,1,,,,,,,,,,,,,
null,,color_black3,1567660,,,,,,,,black_plus_sign,,,null,,,,,,,,,,,,,,,,,,,,,,,
null,,learn_phase(without_color)3,1571163,,,,,,,,black_plus_sign,,,null,object_05a.png,object_06a.png,,,,,,,,,,,,,,,,,,,,,
null,,black_cross(without_color)3,1571657,,,,,,,,blue,,,null,object_05a.png,object_06a.png,,,,,,,,,,,,,,,,,,,,,
null,,rt_plussign_withcolor3,1572160,,,,,,,,blue,,,null,object_05a.png,object_06a.png,,,,,,,,,,,,,,,,,,,,,
1250,,rt_thecrossant_black3,1573674,,,,,,,,black_plus_sign,,,49,,,1,,,,,,,1,,,,,,,,,,,,,
null,,color_black3,1573775,,,,,,,,black_plus_sign,,,null,,,,,,,,,,,,,,,,,,,,,,,
null,,learn_phase(without_color)3,1577279,,,,,,,,black_plus_sign,,,null,object_08c.png,object_01b.png,,,,,,,,,,,,,,,,,,,,,
null,,black_cross(without_color)3,1577738,,,,,,,,blue,,,null,object_08c.png,object_01b.png,,,,,,,,,,,,,,,,,,,,,
null,,rt_plussign_withcolor3,1578242,,,,,,,,blue,,,null,object_08c.png,object_01b.png,,,,,,,,,,,,,,,,,,,,,
1424,,rt_thecrossant_black3,1579792,,,,,,,,black_plus_sign,,,49,,,1,,,,,,,1,,,,,,,,,,,,,
null,,color_black3,1579894,,,,,,,,black_plus_sign,,,null,,,,,,,,,,,,,,,,,,,,,,,
null,,learn_phase(without_color)3,1583400,,,,,,,,black_plus_sign,,,null,object_08a.png,object_01c.png,,,,,,,,,,,,,,,,,,,,,
null,,black_cross(without_color)3,1584319,,,,,,,,blue,,,null,object_08a.png,object_01c.png,,,,,,,,,,,,,,,,,,,,,
null,,rt_plussign_withcolor3,1584824,,,,,,,,blue,,,null,object_08a.png,object_01c.png,,,,,,,,,,,,,,,,,,,,,
931,,rt_thecrossant_black3,1585913,,,,,,,,black_plus_sign,,,49,,,1,,,,,,,1,,,,,,,,,,,,,
null,,color_black3,1586017,,,,,,,,black_plus_sign,,,null,,,,,,,,,,,,,,,,,,,,,,,
null,,learn_phase(without_color)3,1589523,,,,,,,,black_plus_sign,,,null,object_09b.png,object_09c.png,,,,,,,,,,,,,,,,,,,,,
null,,black_cross(without_color)3,1590524,,,,,,,,blue,,,null,object_09b.png,object_09c.png,,,,,,,,,,,,,,,,,,,,,
null,,rt_plussign_withcolor3,1591029,,,,,,,,blue,,,null,object_09b.png,object_09c.png,,,,,,,,,,,,,,,,,,,,,
1379,,rt_thecrossant_black3,1592047,,,,,,,,black_plus_sign,,,49,,,1,,,,,,,1,,,,,,,,,,,,,
null,,color_black3,1592149,,,,,,,,black_plus_sign,,,null,,,,,,,,,,,,,,,,,,,,,,,
null,,learn_phase(without_color)3,1595654,,,,,,,,black_plus_sign,,,null,object_02c.png,object_10a.png,,,,,,,,,,,,,,,,,,,,,
null,,black_cross(without_color)3,1596623,,,,,,,,blue,,,null,object_02c.png,object_10a.png,,,,,,,,,,,,,,,,,,,,,
null,,rt_plussign_withcolor3,1597126,,,,,,,,blue,,,null,object_02c.png,object_10a.png,,,,,,,,,,,,,,,,,,,,,
1522,,rt_thecrossant_black3,1598164,,,,,,,,black_plus_sign,,,49,,,1,,,,,,,1,,,,,,,,,,,,,
null,,color_black3,1598265,,,,,,,,black_plus_sign,,,null,,,,,,,,,,,,,,,,,,,,,,,
null,,learn_phase(without_color)3,1601770,,,,,,,,black_plus_sign,,,null,object_09a.png,object_02b.png,,,,,,,,,,,,,,,,,,,,,
null,,black_cross(without_color)3,1602558,,,,,,,,blue,,,null,object_09a.png,object_02b.png,,,,,,,,,,,,,,,,,,,,,
null,,rt_plussign_withcolor3,1603061,,,,,,,,blue,,,null,object_09a.png,object_02b.png,,,,,,,,,,,,,,,,,,,,,
1454,,rt_thecrossant_black3,1604280,,,,,,,,black_plus_sign,,,49,,,1,,,,,,,1,,,,,,,,,,,,,
null,,color_black3,1604382,,,,,,,,black_plus_sign,,,null,,,,,,,,,,,,,,,,,,,,,,,
null,,learn_phase(without_color)3,1607886,,,,,,,,black_plus_sign,,,null,object_11a.png,object_07a.png,,,,,,,,,,,,,,,,,,,,,
null,,black_cross(without_color)3,1608774,,,,,,,,blue,,,null,object_11a.png,object_07a.png,,,,,,,,,,,,,,,,,,,,,
null,,rt_plussign_withcolor3,1609278,,,,,,,,blue,,,null,object_11a.png,object_07a.png,,,,,,,,,,,,,,,,,,,,,
1277,,rt_thecrossant_black3,1610400,,,,,,,,black_plus_sign,,,49,,,1,,,,,,,1,,,,,,,,,,,,,
null,,color_black3,1610500,,,,,,,,black_plus_sign,,,null,,,,,,,,,,,,,,,,,,,,,,,
null,,learn_phase(without_color)3,1614005,,,,,,,,black_plus_sign,,,null,object_13c.png,object_12c.png,,,,,,,,,,,,,,,,,,,,,
null,,black_cross(without_color)3,1615061,,,,,,,,green,,,null,object_13c.png,object_12c.png,,,,,,,,,,,,,,,,,,,,,
null,,rt_plussign_withcolor3,1615563,,,,,,,,green,,,null,object_13c.png,object_12c.png,,,,,,,,,,,,,,,,,,,,,
1285,,rt_thecrossant_black3,1616515,,,,,,,,black_plus_sign,,,50,,,1,,,,,,,1,,,,,,,,,,,,,
null,,color_black3,1616616,,,,,,,,black_plus_sign,,,null,,,,,,,,,,,,,,,,,,,,,,,
null,,learn_phase(without_color)3,1620122,,,,,,,,black_plus_sign,,,null,object_10b.png,object_15c.png,,,,,,,,,,,,,,,,,,,,,
null,,black_cross(without_color)3,1620552,,,,,,,,green,,,null,object_10b.png,object_15c.png,,,,,,,,,,,,,,,,,,,,,
null,,rt_plussign_withcolor3,1621054,,,,,,,,green,,,null,object_10b.png,object_15c.png,,,,,,,,,,,,,,,,,,,,,
1642,,rt_thecrossant_black3,1622632,,,,,,,,black_plus_sign,,,50,,,1,,,,,,,1,,,,,,,,,,,,,
null,,color_black3,1622733,,,,,,,,black_plus_sign,,,null,,,,,,,,,,,,,,,,,,,,,,,
null,,learn_phase(without_color)3,1626238,,,,,,,,black_plus_sign,,,null,object_12b.png,object_11a.png,,,,,,,,,,,,,,,,,,,,,
null,,black_cross(without_color)3,1627312,,,,,,,,blue,,,null,object_12b.png,object_11a.png,,,,,,,,,,,,,,,,,,,,,
null,,rt_plussign_withcolor3,1627815,,,,,,,,blue,,,null,object_12b.png,object_11a.png,,,,,,,,,,,,,,,,,,,,,
866,,rt_thecrossant_black3,1628760,,,,,,,,black_plus_sign,,,50,,,0,,,,,,,0.9642857142857143,,,,,,,,,,,,,
null,,color_black3,1628862,,,,,,,,black_plus_sign,,,null,,,,,,,,,,,,,,,,,,,,,,,
null,,learn_phase(without_color)3,1632367,,,,,,,,black_plus_sign,,,null,object_05c.png,object_15b.png,,,,,,,,,,,,,,,,,,,,,
null,,black_cross(without_color)3,1633213,,,,,,,,blue,,,null,object_05c.png,object_15b.png,,,,,,,,,,,,,,,,,,,,,
null,,rt_plussign_withcolor3,1633715,,,,,,,,blue,,,null,object_05c.png,object_15b.png,,,,,,,,,,,,,,,,,,,,,
1598,,rt_thecrossant_black3,1634878,,,,,,,,black_plus_sign,,,49,,,1,,,,,,,0.9655172413793104,,,,,,,,,,,,,
null,,color_black3,1634979,,,,,,,,black_plus_sign,,,null,,,,,,,,,,,,,,,,,,,,,,,
null,,learn_phase(without_color)3,1638484,,,,,,,,black_plus_sign,,,null,object_07c.png,object_13b.png,,,,,,,,,,,,,,,,,,,,,
null,,black_cross(without_color)3,1639099,,,,,,,,green,,,null,object_07c.png,object_13b.png,,,,,,,,,,,,,,,,,,,,,
null,,rt_plussign_withcolor3,1639603,,,,,,,,green,,,null,object_07c.png,object_13b.png,,,,,,,,,,,,,,,,,,,,,
1548,,rt_thecrossant_black3,1640996,,,,,,,,black_plus_sign,,,50,,,1,,,,,,,0.9666666666666667,,,,,,,,,,,,,
null,,color_black3,1641098,,,,,,,,black_plus_sign,,,null,,,,,,,,,,,,,,,,,,,,,,,
null,,thebreak,1641200,,,,,,,,<p></p>,,,null,,,,,,,,,,,,,,,,,,,,,,,
1155,,intro_0,1642356,,,,,,,,instruct,,,32,,,,,,,,,,,,,,,,,,,,,,,
3124,,directmemory_phase3,1645482,,,,,,,,object_04c.png,,,50,,,0,,object_15a.png,object_10c.png,object_06b.png,object_06b.png,,0.39344262295081966,,0,,,,,,,,,,,
2538,,directmemory_phase3,1648021,,,,,,,,object_08b.png,,,49,,,0,,object_13c.png,object_04c.png,object_01a.png,object_01a.png,,0.3870967741935484,,0,,,,,,,,,,,
1903,,directmemory_phase3,1649926,,,,,,,,object_09c.png,,,49,,,1,,object_09b.png,object_01a.png,object_13b.png,object_09b.png,,0.3968253968253968,,1,,,,,,,,,,,
3589,,directmemory_phase3,1653516,,,,,,,,object_13a.png,,,49,,,1,,object_06a.png,object_13b.png,object_08c.png,object_06a.png,,0.40625,,1,,,,,,,,,,,
3853,,directmemory_phase3,1657372,,,,,,,,object_01b.png,,,51,,,1,,object_02a.png,object_06a.png,object_08c.png,object_08c.png,,0.4153846153846154,,1,,,,,,,,,,,
4042,,directmemory_phase3,1661416,,,,,,,,object_12c.png,,,49,,,0,,object_09b.png,object_13c.png,object_02b.png,object_13c.png,,0.4090909090909091,,0,,,,,,,,,,,
4453,,directmemory_phase3,1665871,,,,,,,,object_10a.png,,,50,,,1,,object_05c.png,object_02c.png,object_06b.png,object_02c.png,,0.417910447761194,,1,,,,,,,,,,,
4668,,directmemory_phase3,1670541,,,,,,,,object_03a.png,,,50,,,1,,object_15c.png,object_13b.png,object_08a.png,object_13b.png,,0.4264705882352941,,1,,,,,,,,,,,
4759,,directmemory_phase3,1675301,,,,,,,,object_13c.png,,,50,,,0,,object_10c.png,object_14b.png,object_14c.png,object_10c.png,,0.42028985507246375,,0,,,,,,,,,,,
4013,,directmemory_phase3,1679316,,,,,,,,object_06a.png,,,51,,,0,,object_05a.png,object_06b.png,object_09a.png,object_05a.png,,0.4142857142857143,,0,,,,,,,,,,,
2668,,directmemory_phase3,1681986,,,,,,,,object_02a.png,,,50,,,1,,object_14b.png,object_04b.png,object_10b.png,object_04b.png,,0.4225352112676056,,1,,,,,,,,,,,
4146,,directmemory_phase3,1686146,,,,,,,,object_03c.png,,,51,,,0,,object_10a.png,object_13c.png,object_02b.png,object_10a.png,,0.4166666666666667,,0,,,,,,,,,,,
4218,,directmemory_phase3,1690366,,,,,,,,object_12a.png,,,49,,,0,,object_13b.png,object_02a.png,object_10a.png,object_02a.png,,0.410958904109589,,0,,,,,,,,,,,
2878,,directmemory_phase3,1693246,,,,,,,,object_11a.png,,,50,,,1,,object_14c.png,object_12b.png,object_03b.png,object_12b.png,,0.4189189189189189,,1,,,,,,,,,,,
3200,,directmemory_phase3,1696447,,,,,,,,object_07a.png,,,51,,,1,,object_06a.png,object_08a.png,object_11a.png,object_11a.png,,0.4266666666666667,,1,,,,,,,,,,,
2313,,directmemory_phase3,1698761,,,,,,,,object_14a.png,,,51,,,1,,object_06a.png,object_15c.png,object_02b.png,object_02b.png,,0.4342105263157895,,1,,,,,,,,,,,
2878,,directmemory_phase3,1701641,,,,,,,,object_08a.png,,,51,,,1,,object_10c.png,object_10b.png,object_11b.png,object_11b.png,,0.44155844155844154,,1,,,,,,,,,,,
3267,,directmemory_phase3,1704911,,,,,,,,object_08c.png,,,49,,,1,,object_03b.png,object_14b.png,object_15a.png,object_03b.png,,0.44871794871794873,,1,,,,,,,,,,,
4604,,directmemory_phase3,1709516,,,,,,,,object_06c.png,,,49,,,1,,object_15c.png,object_13c.png,object_06a.png,object_15c.png,,0.45569620253164556,,1,,,,,,,,,,,
2419,,directmemory_phase3,1711936,,,,,,,,object_13b.png,,,51,,,1,,object_11b.png,object_06b.png,object_07c.png,object_07c.png,,0.4625,,1,,,,,,,,,,,
3778,,directmemory_phase3,1715716,,,,,,,,object_01c.png,,,49,,,1,,object_08a.png,object_01a.png,object_09b.png,object_08a.png,,0.4691358024691358,,1,,,,,,,,,,,
4439,,directmemory_phase3,1720157,,,,,,,,object_09b.png,,,51,,,0,,object_11b.png,object_14c.png,object_05a.png,object_14c.png,,0.4634146341463415,,0,,,,,,,,,,,
3269,,directmemory_phase3,1723426,,,,,,,,object_05b.png,,,49,,,0,,object_07c.png,object_04b.png,object_15a.png,object_15a.png,,0.4578313253012048,,0,,,,,,,,,,,
4413,,directmemory_phase3,1727841,,,,,,,,object_15c.png,,,51,,,0,,object_14b.png,object_10b.png,object_07c.png,object_10b.png,,0.4523809523809524,,0,,,,,,,,,,,
5593,,directmemory_phase3,1733436,,,,,,,,object_02b.png,,,49,,,1,,object_09a.png,object_05a.png,object_14b.png,object_09a.png,,0.4588235294117647,,1,,,,,,,,,,,
3158,,directmemory_phase3,1736597,,,,,,,,object_07b.png,,,50,,,1,,object_13b.png,object_04c.png,object_09b.png,object_04c.png,,0.46511627906976744,,1,,,,,,,,,,,
3988,,directmemory_phase3,1740586,,,,,,,,object_01a.png,,,50,,,0,,object_15a.png,object_03b.png,object_14b.png,object_14b.png,,0.45977011494252873,,0,,,,,,,,,,,
4318,,directmemory_phase3,1744906,,,,,,,,object_11c.png,,,49,,,1,,object_05b.png,object_08c.png,object_13c.png,object_05b.png,,0.4659090909090909,,1,,,,,,,,,,,
4099,,directmemory_phase3,1749006,,,,,,,,object_15b.png,,,51,,,0,,object_10c.png,object_05c.png,object_02c.png,object_05c.png,,0.4606741573033708,,0,,,,,,,,,,,
3099,,directmemory_phase3,1752106,,,,,,,,object_04a.png,,,50,,,0,,object_15b.png,object_13b.png,object_02b.png,object_15b.png,,0.45555555555555555,,0,,,,,,,,,,,
null,,thebreak,1752220,,,,,,,,<p></p>,,,null,,,,,,,,,,,,,,,,,,,,,,,
16074,,intro_0,1768296,,,,,,,,instruct,,,32,,,,,,,,,,,,,,,,,,,,,,,
null,,learn_phase(without_color)4,1771799,,,,,,,,black_plus_sign,,,null,object_14c.png,object_09b.png,,,,,,,,,,,,,,,,,,,,,
null,,black_cross(without_color)4,1772410,,,,,,,,green,,,null,object_14c.png,object_09b.png,,,,,,,,,,,,,,,,,,,,,
null,,rt_plussign_withcolor4,1772912,,,,,,,,green,,,null,object_14c.png,object_09b.png,,,,,,,,,,,,,,,,,,,,,
1019,,rt_thecrossant_black4,1774310,,,,,,,,black_plus_sign,,,50,,,1,,,,,,,1,,,,,,,,,,,,,
null,,color_black4,1774411,,,,,,,,black_plus_sign,,,null,,,,,,,,,,,,,,,,,,,,,,,
null,,learn_phase(without_color)4,1777916,,,,,,,,black_plus_sign,,,null,object_10a.png,object_03c.png,,,,,,,,,,,,,,,,,,,,,
null,,black_cross(without_color)4,1778922,,,,,,,,blue,,,null,object_10a.png,object_03c.png,,,,,,,,,,,,,,,,,,,,,
null,,rt_plussign_withcolor4,1779423,,,,,,,,blue,,,null,object_10a.png,object_03c.png,,,,,,,,,,,,,,,,,,,,,
1429,,rt_thecrossant_black4,1780425,,,,,,,,black_plus_sign,,,49,,,1,,,,,,,1,,,,,,,,,,,,,
null,,color_black4,1780526,,,,,,,,black_plus_sign,,,null,,,,,,,,,,,,,,,,,,,,,,,
null,,learn_phase(without_color)4,1784031,,,,,,,,black_plus_sign,,,null,object_14b.png,object_01a.png,,,,,,,,,,,,,,,,,,,,,
null,,black_cross(without_color)4,1784866,,,,,,,,blue,,,null,object_14b.png,object_01a.png,,,,,,,,,,,,,,,,,,,,,
null,,rt_plussign_withcolor4,1785368,,,,,,,,blue,,,null,object_14b.png,object_01a.png,,,,,,,,,,,,,,,,,,,,,
1920,,rt_thecrossant_black4,1786539,,,,,,,,black_plus_sign,,,49,,,1,,,,,,,1,,,,,,,,,,,,,
null,,color_black4,1786640,,,,,,,,black_plus_sign,,,null,,,,,,,,,,,,,,,,,,,,,,,
null,,learn_phase(without_color)4,1790144,,,,,,,,black_plus_sign,,,null,object_03b.png,object_08c.png,,,,,,,,,,,,,,,,,,,,,
null,,black_cross(without_color)4,1790844,,,,,,,,blue,,,null,object_03b.png,object_08c.png,,,,,,,,,,,,,,,,,,,,,
null,,rt_plussign_withcolor4,1791348,,,,,,,,blue,,,null,object_03b.png,object_08c.png,,,,,,,,,,,,,,,,,,,,,
1285,,rt_thecrossant_black4,1792657,,,,,,,,black_plus_sign,,,49,,,1,,,,,,,1,,,,,,,,,,,,,
null,,color_black4,1792758,,,,,,,,black_plus_sign,,,null,,,,,,,,,,,,,,,,,,,,,,,
null,,learn_phase(without_color)4,1796261,,,,,,,,black_plus_sign,,,null,object_04b.png,object_02a.png,,,,,,,,,,,,,,,,,,,,,
null,,black_cross(without_color)4,1797341,,,,,,,,blue,,,null,object_04b.png,object_02a.png,,,,,,,,,,,,,,,,,,,,,
null,,rt_plussign_withcolor4,1797843,,,,,,,,blue,,,null,object_04b.png,object_02a.png,,,,,,,,,,,,,,,,,,,,,
1237,,rt_thecrossant_black4,1798773,,,,,,,,black_plus_sign,,,49,,,1,,,,,,,1,,,,,,,,,,,,,
null,,color_black4,1798874,,,,,,,,black_plus_sign,,,null,,,,,,,,,,,,,,,,,,,,,,,
null,,learn_phase(without_color)4,1802378,,,,,,,,black_plus_sign,,,null,object_02c.png,object_10a.png,,,,,,,,,,,,,,,,,,,,,
null,,black_cross(without_color)4,1803081,,,,,,,,green,,,null,object_02c.png,object_10a.png,,,,,,,,,,,,,,,,,,,,,
null,,rt_plussign_withcolor4,1803584,,,,,,,,green,,,null,object_02c.png,object_10a.png,,,,,,,,,,,,,,,,,,,,,
1677,,rt_thecrossant_black4,1804888,,,,,,,,black_plus_sign,,,50,,,1,,,,,,,1,,,,,,,,,,,,,
null,,color_black4,1804996,,,,,,,,black_plus_sign,,,null,,,,,,,,,,,,,,,,,,,,,,,
null,,learn_phase(without_color)4,1808505,,,,,,,,black_plus_sign,,,null,object_08a.png,object_01c.png,,,,,,,,,,,,,,,,,,,,,
null,,black_cross(without_color)4,1809601,,,,,,,,blue,,,null,object_08a.png,object_01c.png,,,,,,,,,,,,,,,,,,,,,
null,,rt_plussign_withcolor4,1810105,,,,,,,,blue,,,null,object_08a.png,object_01c.png,,,,,,,,,,,,,,,,,,,,,
1396,,rt_thecrossant_black4,1811017,,,,,,,,black_plus_sign,,,49,,,1,,,,,,,1,,,,,,,,,,,,,
null,,color_black4,1811117,,,,,,,,black_plus_sign,,,null,,,,,,,,,,,,,,,,,,,,,,,
null,,learn_phase(without_color)4,1814621,,,,,,,,black_plus_sign,,,null,object_10b.png,object_15c.png,,,,,,,,,,,,,,,,,,,,,
null,,black_cross(without_color)4,1815330,,,,,,,,blue,,,null,object_10b.png,object_15c.png,,,,,,,,,,,,,,,,,,,,,
null,,rt_plussign_withcolor4,1815834,,,,,,,,blue,,,null,object_10b.png,object_15c.png,,,,,,,,,,,,,,,,,,,,,
1523,,rt_thecrossant_black4,1817131,,,,,,,,black_plus_sign,,,49,,,1,,,,,,,1,,,,,,,,,,,,,
null,,color_black4,1817232,,,,,,,,black_plus_sign,,,null,,,,,,,,,,,,,,,,,,,,,,,
null,,learn_phase(without_color)4,1820738,,,,,,,,black_plus_sign,,,null,object_06a.png,object_13a.png,,,,,,,,,,,,,,,,,,,,,
null,,black_cross(without_color)4,1821633,,,,,,,,blue,,,null,object_06a.png,object_13a.png,,,,,,,,,,,,,,,,,,,,,
null,,rt_plussign_withcolor4,1822137,,,,,,,,blue,,,null,object_06a.png,object_13a.png,,,,,,,,,,,,,,,,,,,,,
1310,,rt_thecrossant_black4,1823249,,,,,,,,black_plus_sign,,,49,,,1,,,,,,,1,,,,,,,,,,,,,
null,,color_black4,1823351,,,,,,,,black_plus_sign,,,null,,,,,,,,,,,,,,,,,,,,,,,
null,,learn_phase(without_color)4,1826854,,,,,,,,black_plus_sign,,,null,object_04c.png,object_07b.png,,,,,,,,,,,,,,,,,,,,,
null,,black_cross(without_color)4,1827670,,,,,,,,green,,,null,object_04c.png,object_07b.png,,,,,,,,,,,,,,,,,,,,,
null,,rt_plussign_withcolor4,1828175,,,,,,,,green,,,null,object_04c.png,object_07b.png,,,,,,,,,,,,,,,,,,,,,
1638,,rt_thecrossant_black4,1829366,,,,,,,,black_plus_sign,,,50,,,1,,,,,,,1,,,,,,,,,,,,,
null,,color_black4,1829466,,,,,,,,black_plus_sign,,,null,,,,,,,,,,,,,,,,,,,,,,,
null,,learn_phase(without_color)4,1832971,,,,,,,,black_plus_sign,,,null,object_05a.png,object_06a.png,,,,,,,,,,,,,,,,,,,,,
null,,black_cross(without_color)4,1833642,,,,,,,,green,,,null,object_05a.png,object_06a.png,,,,,,,,,,,,,,,,,,,,,
null,,rt_plussign_withcolor4,1834146,,,,,,,,green,,,null,object_05a.png,object_06a.png,,,,,,,,,,,,,,,,,,,,,
1418,,rt_thecrossant_black4,1835481,,,,,,,,black_plus_sign,,,50,,,1,,,,,,,1,,,,,,,,,,,,,
null,,color_black4,1835581,,,,,,,,black_plus_sign,,,null,,,,,,,,,,,,,,,,,,,,,,,
null,,learn_phase(without_color)4,1839085,,,,,,,,black_plus_sign,,,null,object_02a.png,object_12a.png,,,,,,,,,,,,,,,,,,,,,
null,,black_cross(without_color)4,1839560,,,,,,,,blue,,,null,object_02a.png,object_12a.png,,,,,,,,,,,,,,,,,,,,,
null,,rt_plussign_withcolor4,1840063,,,,,,,,blue,,,null,object_02a.png,object_12a.png,,,,,,,,,,,,,,,,,,,,,
1237,,rt_thecrossant_black4,1841595,,,,,,,,black_plus_sign,,,49,,,1,,,,,,,1,,,,,,,,,,,,,
null,,color_black4,1841696,,,,,,,,black_plus_sign,,,null,,,,,,,,,,,,,,,,,,,,,,,
null,,learn_phase(without_color)4,1845200,,,,,,,,black_plus_sign,,,null,object_10c.png,object_13c.png,,,,,,,,,,,,,,,,,,,,,
null,,black_cross(without_color)4,1846188,,,,,,,,blue,,,null,object_10c.png,object_13c.png,,,,,,,,,,,,,,,,,,,,,
null,,rt_plussign_withcolor4,1846693,,,,,,,,blue,,,null,object_10c.png,object_13c.png,,,,,,,,,,,,,,,,,,,,,
982,,rt_thecrossant_black4,1847725,,,,,,,,black_plus_sign,,,49,,,1,,,,,,,1,,,,,,,,,,,,,
null,,color_black4,1847826,,,,,,,,black_plus_sign,,,null,,,,,,,,,,,,,,,,,,,,,,,
null,,learn_phase(without_color)4,1851332,,,,,,,,black_plus_sign,,,null,object_06b.png,object_04c.png,,,,,,,,,,,,,,,,,,,,,
null,,black_cross(without_color)4,1851819,,,,,,,,green,,,null,object_06b.png,object_04c.png,,,,,,,,,,,,,,,,,,,,,
null,,rt_plussign_withcolor4,1852323,,,,,,,,green,,,null,object_06b.png,object_04c.png,,,,,,,,,,,,,,,,,,,,,
1543,,rt_thecrossant_black4,1853843,,,,,,,,black_plus_sign,,,50,,,1,,,,,,,1,,,,,,,,,,,,,
null,,color_black4,1853943,,,,,,,,black_plus_sign,,,null,,,,,,,,,,,,,,,,,,,,,,,
null,,learn_phase(without_color)4,1857449,,,,,,,,black_plus_sign,,,null,object_12b.png,object_11a.png,,,,,,,,,,,,,,,,,,,,,
null,,black_cross(without_color)4,1858445,,,,,,,,blue,,,null,object_12b.png,object_11a.png,,,,,,,,,,,,,,,,,,,,,
null,,rt_plussign_withcolor4,1858948,,,,,,,,blue,,,null,object_12b.png,object_11a.png,,,,,,,,,,,,,,,,,,,,,
1267,,rt_thecrossant_black4,1859959,,,,,,,,black_plus_sign,,,49,,,1,,,,,,,1,,,,,,,,,,,,,
null,,color_black4,1860060,,,,,,,,black_plus_sign,,,null,,,,,,,,,,,,,,,,,,,,,,,
null,,learn_phase(without_color)4,1863564,,,,,,,,black_plus_sign,,,null,object_07c.png,object_13b.png,,,,,,,,,,,,,,,,,,,,,
null,,black_cross(without_color)4,1864254,,,,,,,,blue,,,null,object_07c.png,object_13b.png,,,,,,,,,,,,,,,,,,,,,
null,,rt_plussign_withcolor4,1864757,,,,,,,,blue,,,null,object_07c.png,object_13b.png,,,,,,,,,,,,,,,,,,,,,
1346,,rt_thecrossant_black4,1866074,,,,,,,,black_plus_sign,,,49,,,1,,,,,,,1,,,,,,,,,,,,,
null,,color_black4,1866174,,,,,,,,black_plus_sign,,,null,,,,,,,,,,,,,,,,,,,,,,,
null,,learn_phase(without_color)4,1869678,,,,,,,,black_plus_sign,,,null,object_01a.png,object_08b.png,,,,,,,,,,,,,,,,,,,,,
null,,black_cross(without_color)4,1870333,,,,,,,,green,,,null,object_01a.png,object_08b.png,,,,,,,,,,,,,,,,,,,,,
null,,rt_plussign_withcolor4,1870836,,,,,,,,green,,,null,object_01a.png,object_08b.png,,,,,,,,,,,,,,,,,,,,,
1343,,rt_thecrossant_black4,1872188,,,,,,,,black_plus_sign,,,50,,,1,,,,,,,1,,,,,,,,,,,,,
null,,color_black4,1872290,,,,,,,,black_plus_sign,,,null,,,,,,,,,,,,,,,,,,,,,,,
null,,learn_phase(without_color)4,1875794,,,,,,,,black_plus_sign,,,null,object_05c.png,object_15b.png,,,,,,,,,,,,,,,,,,,,,
null,,black_cross(without_color)4,1876898,,,,,,,,green,,,null,object_05c.png,object_15b.png,,,,,,,,,,,,,,,,,,,,,
null,,rt_plussign_withcolor4,1877402,,,,,,,,green,,,null,object_05c.png,object_15b.png,,,,,,,,,,,,,,,,,,,,,
1215,,rt_thecrossant_black4,1878307,,,,,,,,black_plus_sign,,,50,,,1,,,,,,,1,,,,,,,,,,,,,
null,,color_black4,1878408,,,,,,,,black_plus_sign,,,null,,,,,,,,,,,,,,,,,,,,,,,
null,,learn_phase(without_color)4,1881911,,,,,,,,black_plus_sign,,,null,object_11b.png,object_08a.png,,,,,,,,,,,,,,,,,,,,,
null,,black_cross(without_color)4,1882415,,,,,,,,green,,,null,object_11b.png,object_08a.png,,,,,,,,,,,,,,,,,,,,,
null,,rt_plussign_withcolor4,1882916,,,,,,,,green,,,null,object_11b.png,object_08a.png,,,,,,,,,,,,,,,,,,,,,
1528,,rt_thecrossant_black4,1884419,,,,,,,,black_plus_sign,,,50,,,1,,,,,,,1,,,,,,,,,,,,,
null,,color_black4,1884520,,,,,,,,black_plus_sign,,,null,,,,,,,,,,,,,,,,,,,,,,,
null,,learn_phase(without_color)4,1888024,,,,,,,,black_plus_sign,,,null,object_08c.png,object_01b.png,,,,,,,,,,,,,,,,,,,,,
null,,black_cross(without_color)4,1888578,,,,,,,,green,,,null,object_08c.png,object_01b.png,,,,,,,,,,,,,,,,,,,,,
null,,rt_plussign_withcolor4,1889080,,,,,,,,green,,,null,object_08c.png,object_01b.png,,,,,,,,,,,,,,,,,,,,,
1026,,rt_thecrossant_black4,1890535,,,,,,,,black_plus_sign,,,50,,,1,,,,,,,1,,,,,,,,,,,,,
null,,color_black4,1890639,,,,,,,,black_plus_sign,,,null,,,,,,,,,,,,,,,,,,,,,,,
null,,learn_phase(without_color)4,1894144,,,,,,,,black_plus_sign,,,null,object_15b.png,object_04a.png,,,,,,,,,,,,,,,,,,,,,
null,,black_cross(without_color)4,1895069,,,,,,,,green,,,null,object_15b.png,object_04a.png,,,,,,,,,,,,,,,,,,,,,
null,,rt_plussign_withcolor4,1895573,,,,,,,,green,,,null,object_15b.png,object_04a.png,,,,,,,,,,,,,,,,,,,,,
1149,,rt_thecrossant_black4,1896656,,,,,,,,black_plus_sign,,,50,,,1,,,,,,,1,,,,,,,,,,,,,
null,,color_black4,1896758,,,,,,,,black_plus_sign,,,null,,,,,,,,,,,,,,,,,,,,,,,
null,,learn_phase(without_color)4,1900262,,,,,,,,black_plus_sign,,,null,object_05b.png,object_11c.png,,,,,,,,,,,,,,,,,,,,,
null,,black_cross(without_color)4,1901090,,,,,,,,blue,,,null,object_05b.png,object_11c.png,,,,,,,,,,,,,,,,,,,,,
null,,rt_plussign_withcolor4,1901593,,,,,,,,blue,,,null,object_05b.png,object_11c.png,,,,,,,,,,,,,,,,,,,,,
1353,,rt_thecrossant_black4,1902773,,,,,,,,black_plus_sign,,,49,,,1,,,,,,,1,,,,,,,,,,,,,
null,,color_black4,1902873,,,,,,,,black_plus_sign,,,null,,,,,,,,,,,,,,,,,,,,,,,
null,,learn_phase(without_color)4,1906377,,,,,,,,black_plus_sign,,,null,object_02b.png,object_14a.png,,,,,,,,,,,,,,,,,,,,,
null,,black_cross(without_color)4,1906952,,,,,,,,green,,,null,object_02b.png,object_14a.png,,,,,,,,,,,,,,,,,,,,,
null,,rt_plussign_withcolor4,1907454,,,,,,,,green,,,null,object_02b.png,object_14a.png,,,,,,,,,,,,,,,,,,,,,
1359,,rt_thecrossant_black4,1908886,,,,,,,,black_plus_sign,,,50,,,1,,,,,,,1,,,,,,,,,,,,,
null,,color_black4,1908988,,,,,,,,black_plus_sign,,,null,,,,,,,,,,,,,,,,,,,,,,,
null,,learn_phase(without_color)4,1912490,,,,,,,,black_plus_sign,,,null,object_15c.png,object_06c.png,,,,,,,,,,,,,,,,,,,,,
null,,black_cross(without_color)4,1913397,,,,,,,,green,,,null,object_15c.png,object_06c.png,,,,,,,,,,,,,,,,,,,,,
null,,rt_plussign_withcolor4,1913901,,,,,,,,green,,,null,object_15c.png,object_06c.png,,,,,,,,,,,,,,,,,,,,,
1151,,rt_thecrossant_black4,1915001,,,,,,,,black_plus_sign,,,50,,,1,,,,,,,1,,,,,,,,,,,,,
null,,color_black4,1915102,,,,,,,,black_plus_sign,,,null,,,,,,,,,,,,,,,,,,,,,,,
null,,learn_phase(without_color)4,1918607,,,,,,,,black_plus_sign,,,null,object_13b.png,object_03a.png,,,,,,,,,,,,,,,,,,,,,
null,,black_cross(without_color)4,1919383,,,,,,,,blue,,,null,object_13b.png,object_03a.png,,,,,,,,,,,,,,,,,,,,,
null,,rt_plussign_withcolor4,1919888,,,,,,,,blue,,,null,object_13b.png,object_03a.png,,,,,,,,,,,,,,,,,,,,,
1780,,rt_thecrossant_black4,1921118,,,,,,,,black_plus_sign,,,49,,,1,,,,,,,1,,,,,,,,,,,,,
null,,color_black4,1921219,,,,,,,,black_plus_sign,,,null,,,,,,,,,,,,,,,,,,,,,,,
null,,learn_phase(without_color)4,1924724,,,,,,,,black_plus_sign,,,null,object_11a.png,object_07a.png,,,,,,,,,,,,,,,,,,,,,
null,,black_cross(without_color)4,1925354,,,,,,,,blue,,,null,object_11a.png,object_07a.png,,,,,,,,,,,,,,,,,,,,,
null,,rt_plussign_withcolor4,1925857,,,,,,,,blue,,,null,object_11a.png,object_07a.png,,,,,,,,,,,,,,,,,,,,,
1156,,rt_thecrossant_black4,1927237,,,,,,,,black_plus_sign,,,49,,,1,,,,,,,1,,,,,,,,,,,,,
null,,color_black4,1927338,,,,,,,,black_plus_sign,,,null,,,,,,,,,,,,,,,,,,,,,,,
null,,learn_phase(without_color)4,1930843,,,,,,,,black_plus_sign,,,null,object_09a.png,object_02b.png,,,,,,,,,,,,,,,,,,,,,
null,,black_cross(without_color)4,1931736,,,,,,,,blue,,,null,object_09a.png,object_02b.png,,,,,,,,,,,,,,,,,,,,,
null,,rt_plussign_withcolor4,1932240,,,,,,,,blue,,,null,object_09a.png,object_02b.png,,,,,,,,,,,,,,,,,,,,,
1092,,rt_thecrossant_black4,1933355,,,,,,,,black_plus_sign,,,49,,,1,,,,,,,1,,,,,,,,,,,,,
null,,color_black4,1933455,,,,,,,,black_plus_sign,,,null,,,,,,,,,,,,,,,,,,,,,,,
null,,learn_phase(without_color)4,1936958,,,,,,,,black_plus_sign,,,null,object_09b.png,object_09c.png,,,,,,,,,,,,,,,,,,,,,
null,,black_cross(without_color)4,1937590,,,,,,,,blue,,,null,object_09b.png,object_09c.png,,,,,,,,,,,,,,,,,,,,,
null,,rt_plussign_withcolor4,1938092,,,,,,,,blue,,,null,object_09b.png,object_09c.png,,,,,,,,,,,,,,,,,,,,,
1831,,rt_thecrossant_black4,1939468,,,,,,,,black_plus_sign,,,49,,,1,,,,,,,1,,,,,,,,,,,,,
null,,color_black4,1939569,,,,,,,,black_plus_sign,,,null,,,,,,,,,,,,,,,,,,,,,,,
null,,learn_phase(without_color)4,1943074,,,,,,,,black_plus_sign,,,null,object_15a.png,object_05b.png,,,,,,,,,,,,,,,,,,,,,
null,,black_cross(without_color)4,1943650,,,,,,,,blue,,,null,object_15a.png,object_05b.png,,,,,,,,,,,,,,,,,,,,,
null,,rt_plussign_withcolor4,1944154,,,,,,,,blue,,,null,object_15a.png,object_05b.png,,,,,,,,,,,,,,,,,,,,,
1238,,rt_thecrossant_black4,1945584,,,,,,,,black_plus_sign,,,49,,,1,,,,,,,1,,,,,,,,,,,,,
null,,color_black4,1945684,,,,,,,,black_plus_sign,,,null,,,,,,,,,,,,,,,,,,,,,,,
null,,learn_phase(without_color)4,1949188,,,,,,,,black_plus_sign,,,null,object_13c.png,object_12c.png,,,,,,,,,,,,,,,,,,,,,
null,,black_cross(without_color)4,1949674,,,,,,,,blue,,,null,object_13c.png,object_12c.png,,,,,,,,,,,,,,,,,,,,,
null,,rt_plussign_withcolor4,1950177,,,,,,,,blue,,,null,object_13c.png,object_12c.png,,,,,,,,,,,,,,,,,,,,,
977,,rt_thecrossant_black4,1951698,,,,,,,,black_plus_sign,,,49,,,1,,,,,,,1,,,,,,,,,,,,,
null,,color_black4,1951798,,,,,,,,black_plus_sign,,,null,,,,,,,,,,,,,,,,,,,,,,,
null,,thebreak,1951901,,,,,,,,<p></p>,,,null,,,,,,,,,,,,,,,,,,,,,,,
939,,intro_0,1952841,,,,,,,,instruct,,,32,,,,,,,,,,,,,,,,,,,,,,,
3184,,directmemory_phase4,1956026,,,,,,,,object_12a.png,,,49,,,1,,object_02a.png,object_13c.png,object_15c.png,object_02a.png,,0.46153846153846156,,1,,,,,,,,,,,
6303,,directmemory_phase4,1962332,,,,,,,,object_13c.png,,,51,,,1,,object_03b.png,object_11b.png,object_10c.png,object_10c.png,,0.4673913043478261,,1,,,,,,,,,,,
5400,,directmemory_phase4,1967746,,,,,,,,object_15b.png,,,51,,,1,,object_10c.png,object_05a.png,object_05c.png,object_05c.png,,0.4731182795698925,,1,,,,,,,,,,,
2000,,directmemory_phase4,1969749,,,,,,,,object_01c.png,,,50,,,1,,object_13b.png,object_08a.png,object_02a.png,object_08a.png,,0.4787234042553192,,1,,,,,,,,,,,
3969,,directmemory_phase4,1973721,,,,,,,,object_11a.png,,,51,,,0,,object_12b.png,object_07c.png,object_15a.png,object_12b.png,,0.47368421052631576,,0,,,,,,,,,,,
3062,,directmemory_phase4,1976786,,,,,,,,object_07a.png,,,51,,,1,,object_08a.png,object_08c.png,object_11a.png,object_11a.png,,0.4791666666666667,,1,,,,,,,,,,,
2788,,directmemory_phase4,1979576,,,,,,,,object_14a.png,,,51,,,1,,object_15b.png,object_08a.png,object_02b.png,object_02b.png,,0.4845360824742268,,1,,,,,,,,,,,
4828,,directmemory_phase4,1984407,,,,,,,,object_06c.png,,,50,,,1,,object_10a.png,object_15c.png,object_06a.png,object_15c.png,,0.4897959183673469,,1,,,,,,,,,,,
4011,,directmemory_phase4,1988421,,,,,,,,object_02a.png,,,49,,,0,,object_14c.png,object_06b.png,object_04b.png,object_04b.png,,0.48484848484848486,,0,,,,,,,,,,,
2584,,directmemory_phase4,1991006,,,,,,,,object_09c.png,,,50,,,1,,object_08c.png,object_09b.png,object_15b.png,object_09b.png,,0.49,,1,,,,,,,,,,,
2708,,directmemory_phase4,1993716,,,,,,,,object_03c.png,,,50,,,1,,object_08a.png,object_10a.png,object_06a.png,object_10a.png,,0.49504950495049505,,1,,,,,,,,,,,
3763,,directmemory_phase4,1997481,,,,,,,,object_05b.png,,,50,,,1,,object_05c.png,object_15a.png,object_14b.png,object_15a.png,,0.5,,1,,,,,,,,,,,
3713,,directmemory_phase4,2001197,,,,,,,,object_13b.png,,,49,,,1,,object_07c.png,object_02c.png,object_09a.png,object_07c.png,,0.5048543689320388,,1,,,,,,,,,,,
3778,,directmemory_phase4,2004976,,,,,,,,object_13a.png,,,51,,,1,,object_08a.png,object_02a.png,object_06a.png,object_06a.png,,0.5096153846153846,,1,,,,,,,,,,,
4593,,directmemory_phase4,2009572,,,,,,,,object_08c.png,,,51,,,0,,object_03b.png,object_06b.png,object_02c.png,object_03b.png,,0.5047619047619047,,0,,,,,,,,,,,
4333,,directmemory_phase4,2013907,,,,,,,,object_10a.png,,,49,,,1,,object_02c.png,object_06b.png,object_14b.png,object_02c.png,,0.5094339622641509,,1,,,,,,,,,,,
3594,,directmemory_phase4,2017501,,,,,,,,object_01a.png,,,50,,,0,,object_14b.png,object_07c.png,object_10c.png,object_14b.png,,0.5046728971962616,,0,,,,,,,,,,,
3888,,directmemory_phase4,2021391,,,,,,,,object_12c.png,,,51,,,1,,object_09b.png,object_04c.png,object_13c.png,object_13c.png,,0.5092592592592593,,1,,,,,,,,,,,
3908,,directmemory_phase4,2025301,,,,,,,,object_11c.png,,,51,,,1,,object_15b.png,object_08a.png,object_05b.png,object_05b.png,,0.5137614678899083,,1,,,,,,,,,,,
3308,,directmemory_phase4,2028611,,,,,,,,object_01b.png,,,50,,,1,,object_01a.png,object_08c.png,object_13c.png,object_08c.png,,0.5181818181818182,,1,,,,,,,,,,,
3243,,directmemory_phase4,2031856,,,,,,,,object_07b.png,,,50,,,0,,object_06a.png,object_15b.png,object_04c.png,object_04c.png,,0.5135135135135135,,0,,,,,,,,,,,
4493,,directmemory_phase4,2036352,,,,,,,,object_02b.png,,,51,,,0,,object_09a.png,object_10b.png,object_03b.png,object_09a.png,,0.5089285714285714,,0,,,,,,,,,,,
5783,,directmemory_phase4,2042136,,,,,,,,object_09b.png,,,49,,,0,,object_15a.png,object_14b.png,object_14c.png,object_14c.png,,0.504424778761062,,0,,,,,,,,,,,
4083,,directmemory_phase4,2046222,,,,,,,,object_04a.png,,,49,,,1,,object_15b.png,object_01a.png,object_05b.png,object_15b.png,,0.5087719298245614,,1,,,,,,,,,,,
4871,,directmemory_phase4,2051095,,,,,,,,object_06a.png,,,51,,,0,,object_05a.png,object_14b.png,object_10c.png,object_05a.png,,0.5043478260869565,,0,,,,,,,,,,,
3489,,directmemory_phase4,2054586,,,,,,,,object_04c.png,,,49,,,1,,object_06b.png,object_10b.png,object_04b.png,object_06b.png,,0.5086206896551724,,1,,,,,,,,,,,
3188,,directmemory_phase4,2057777,,,,,,,,object_15c.png,,,51,,,1,,object_11b.png,object_14c.png,object_10b.png,object_10b.png,,0.5128205128205128,,1,,,,,,,,,,,
3962,,directmemory_phase4,2061741,,,,,,,,object_08b.png,,,50,,,1,,object_04c.png,object_01a.png,object_13c.png,object_01a.png,,0.5169491525423728,,1,,,,,,,,,,,
2164,,directmemory_phase4,2063907,,,,,,,,object_08a.png,,,51,,,1,,object_14c.png,object_05c.png,object_11b.png,object_11b.png,,0.5210084033613446,,1,,,,,,,,,,,
2809,,directmemory_phase4,2066716,,,,,,,,object_03a.png,,,49,,,1,,object_13b.png,object_02b.png,object_04c.png,object_13b.png,,0.525,,1,,,,,,,,,,,
null,,thebreak,2066820,,,,,,,,<p></p>,,,null,,,,,,,,,,,,,,,,,,,,,,,
12844,,intro_0,2079665,,,,,,,,instruct,,,32,,,,,,,,,,,,,,,,,,,,,,,
15844,,intro_1,2095511,,,,,,,,instruct,,,32,,,,,,,,,,,,,,,,,,,,,,,
6340,,intro_2,2101851,,,,,,,,instruct,,,32,,,,,,,,,,,,,,,,,,,,,,,
,,intro_3,2136111,,,,,,,,instruct,,,,,,,,,,,,,,,,,,,,,,,,,,
2210,,intro_4,2138321,,,,,,,,instruct,,,32,,,,,,,,,,,,,,,,,,,,,,,
3392,,inference_phase,2141720,,,,,,,,object_09c.png,,,49,object_14c.png,object_15a.png,1,,,,,object_14c.png,,1,,,object_09a.png,,,,,,,,,,
3708,,inference_phase,2145431,,,,,,,,object_12c.png,,,50,object_10c.png,object_07c.png,0,,,,,object_10c.png,,0.5,,,object_14b.png,,,,,,,,,,
3061,,inference_phase,2148494,,,,,,,,object_08b.png,,,51,object_10c.png,object_05a.png,0,,,,,object_14b.png,,0.3333333333333333,,,object_14b.png,,,,,,,,,,
3789,,inference_phase,2152286,,,,,,,,object_12a.png,,,50,object_11b.png,object_10c.png,1,,,,,object_04b.png,,0.5,,,object_04b.png,,,,,,,,,,
3563,,inference_phase,2155851,,,,,,,,object_11c.png,,,50,object_10b.png,object_15a.png,0,,,,,object_15a.png,,0.4,,,object_10c.png,,,,,,,,,,
3653,,inference_phase,2159506,,,,,,,,object_06c.png,,,49,object_14c.png,object_10b.png,0,,,,,object_10b.png,,0.3333333333333333,,,object_04b.png,,,,,,,,,,
2468,,inference_phase,2161976,,,,,,,,object_07a.png,,,49,object_12b.png,object_10b.png,1,,,,,object_12b.png,,0.42857142857142855,,,object_14c.png,,,,,,,,,,
5533,,inference_phase,2167511,,,,,,,,object_13a.png,,,50,object_05a.png,object_04b.png,0,,,,,object_05a.png,,0.375,,,object_14c.png,,,,,,,,,,
5698,,inference_phase,2173212,,,,,,,,object_07b.png,,,50,object_05a.png,object_06b.png,0,,,,,object_06b.png,,0.3333333333333333,,,object_02c.png,,,,,,,,,,
4919,,inference_phase,2178132,,,,,,,,object_01c.png,,,49,object_04b.png,object_09a.png,0,,,,,object_11b.png,,0.3,,,object_11b.png,,,,,,,,,,
