rt,responses,trial_type,time_elapsed,identifier_a,identifier_b,identifier_c,tasktype,browser_type,local_time,UTC_time,stimulus,button_pressed,response,key_press,stimulus_left,stimulus_right,accuracy,practice_cumulative_accuracy,stimulus_down_left,stimulus_down_mid,stimulus_down_right,stimulus_correct,prac_weighted_accuracy,cumulative_accuracy,weighted_accuracy,stimulus_middle,problems,smooth,distraction,strategies,easier,similar,comments,detectfocus,breakfocus,completion_code
9697.300000011921,{worker_id:6667627ba6d0d6f7b08686ab},id_enter,9698,object_06a.png; object_09b.png; object_04b.png; object_05b.png; object_05c.png; object_13b.png; object_15c.png; object_13c.png; object_07c.png; object_09c.png; object_13a.png; object_05a.png; object_14b.png; object_11c.png; object_02b.png,object_08c.png; object_11b.png; object_08b.png; object_08a.png; object_14c.png; object_07b.png; object_03c.png; object_01b.png; object_07a.png; object_15a.png; object_12c.png; object_09a.png; object_14a.png; object_06b.png; object_02a.png,object_15b.png; object_01a.png; object_03b.png; object_04a.png; object_12b.png; object_11a.png; object_12a.png; object_10c.png; object_02c.png; object_03a.png; object_01c.png; object_10a.png; object_04c.png; object_06c.png; object_10b.png,interleaved,Mozilla/5.0 (Windows NT 10.0; Win64; x64) AppleWebKit/537.36 (KHTML, like Gecko) Chrome/136.0.0.0 Safari/537.36,5/8/2025, 3:41:21 PM,2025-05-08 19:41:21.260,,,,,,,,,,,,,,,,,,,,,,,,,,
29046.30000001192,,make_fullscreen,38773,,,,,,,,fullscreen,0,,,,,,,,,,,,,,,,,,,,,,,,
4506.600000023842,,instruct_1,43281,,,,,,,,instruct,0,Next,,,,,,,,,,,,,,,,,,,,,,,
10445.299999952316,,instruct_2,53745,,,,,,,,instruct,1,Next,,,,,,,,,,,,,,,,,,,,,,,
6711.099999964237,,instruct_3,60457,,,,,,,,instruct,1,Next,,,,,,,,,,,,,,,,,,,,,,,
20736.899999976158,,instruct_4,81195,,,,,,,,instruct,1,Next,,,,,,,,,,,,,,,,,,,,,,,
14687.399999976158,,instruct_5,95883,,,,,,,,instruct,1,Next,,,,,,,,,,,,,,,,,,,,,,,
3772.199999988079,,instruct_6,99657,,,,,,,,instruct,1,Next,,,,,,,,,,,,,,,,,,,,,,,
26227.299999952316,,instruct_7,125886,,,,,,,,instruct,1,Next,,,,,,,,,,,,,,,,,,,,,,,
null,,prac_atten_color_black,126667,,,,,,,,black_plus_sign,,,null,,,,,,,,,,,,,,,,,,,,,,
null,,prac_atten_color,127291,,,,,,,,<p style='position:absolute;top: 50%;right: 50%;transform: translate(50%, -50%);font-size: 125px;color: blue;'>+</p>,,,null,,,,,,,,,,,,,,,,,,,,,,
118.30000001192093,,prac_atten_color_black,129293,,,,,,,,black_plus_sign,,,49,,,,,,,,,,,,,,,,,,,,,,
null,,prac_atten_color_black,130074,,,,,,,,black_plus_sign,,,null,,,,,,,,,,,,,,,,,,,,,,
555.7000000476837,,prac_atten_color,131058,,,,,,,,<p style='position:absolute;top: 50%;right: 50%;transform: translate(50%, -50%);font-size: 125px;color: green;'>+</p>,,,50,,,,,,,,,,,,,,,,,,,,,,
null,,prac_atten_color_black,133059,,,,,,,,black_plus_sign,,,null,,,,,,,,,,,,,,,,,,,,,,
null,,prac_atten_color_black,133478,,,,,,,,black_plus_sign,,,null,,,,,,,,,,,,,,,,,,,,,,
575.1000000238419,,prac_atten_color,134441,,,,,,,,<p style='position:absolute;top: 50%;right: 50%;transform: translate(50%, -50%);font-size: 125px;color: green;'>+</p>,,,50,,,,,,,,,,,,,,,,,,,,,,
null,,prac_atten_color_black,136443,,,,,,,,black_plus_sign,,,null,,,,,,,,,,,,,,,,,,,,,,
null,,prac_atten_color_black,136885,,,,,,,,black_plus_sign,,,null,,,,,,,,,,,,,,,,,,,,,,
477.60000002384186,,prac_atten_color,137554,,,,,,,,<p style='position:absolute;top: 50%;right: 50%;transform: translate(50%, -50%);font-size: 125px;color: blue;'>+</p>,,,49,,,,,,,,,,,,,,,,,,,,,,
null,,prac_atten_color_black,139555,,,,,,,,black_plus_sign,,,null,,,,,,,,,,,,,,,,,,,,,,
null,,prac_atten_color_black,140290,,,,,,,,black_plus_sign,,,null,,,,,,,,,,,,,,,,,,,,,,
386,,prac_atten_color,140730,,,,,,,,<p style='position:absolute;top: 50%;right: 50%;transform: translate(50%, -50%);font-size: 125px;color: green;'>+</p>,,,50,,,,,,,,,,,,,,,,,,,,,,
null,,prac_atten_color_black,142731,,,,,,,,black_plus_sign,,,null,,,,,,,,,,,,,,,,,,,,,,
null,,prac_atten_color_black,143696,,,,,,,,black_plus_sign,,,null,,,,,,,,,,,,,,,,,,,,,,
null,,prac_atten_color,144113,,,,,,,,<p style='position:absolute;top: 50%;right: 50%;transform: translate(50%, -50%);font-size: 125px;color: green;'>+</p>,,,null,,,,,,,,,,,,,,,,,,,,,,
178,,prac_atten_color_black,146115,,,,,,,,black_plus_sign,,,50,,,,,,,,,,,,,,,,,,,,,,
null,,prac_atten_color_black,147102,,,,,,,,black_plus_sign,,,null,,,,,,,,,,,,,,,,,,,,,,
567,,prac_atten_color,147682,,,,,,,,<p style='position:absolute;top: 50%;right: 50%;transform: translate(50%, -50%);font-size: 125px;color: blue;'>+</p>,,,49,,,,,,,,,,,,,,,,,,,,,,
null,,prac_atten_color_black,149684,,,,,,,,black_plus_sign,,,null,,,,,,,,,,,,,,,,,,,,,,
null,,prac_atten_color_black,150507,,,,,,,,black_plus_sign,,,null,,,,,,,,,,,,,,,,,,,,,,
460.5999999642372,,prac_atten_color,151305,,,,,,,,<p style='position:absolute;top: 50%;right: 50%;transform: translate(50%, -50%);font-size: 125px;color: green;'>+</p>,,,50,,,,,,,,,,,,,,,,,,,,,,
null,,prac_atten_color_black,153306,,,,,,,,black_plus_sign,,,null,,,,,,,,,,,,,,,,,,,,,,
null,,prac_atten_color_black,153913,,,,,,,,black_plus_sign,,,null,,,,,,,,,,,,,,,,,,,,,,
null,,prac_atten_color,154422,,,,,,,,<p style='position:absolute;top: 50%;right: 50%;transform: translate(50%, -50%);font-size: 125px;color: blue;'>+</p>,,,null,,,,,,,,,,,,,,,,,,,,,,
63.10000002384186,,prac_atten_color_black,156423,,,,,,,,black_plus_sign,,,49,,,,,,,,,,,,,,,,,,,,,,
null,,prac_atten_color_black,157317,,,,,,,,black_plus_sign,,,null,,,,,,,,,,,,,,,,,,,,,,
672.0999999642372,,prac_atten_color,158028,,,,,,,,<p style='position:absolute;top: 50%;right: 50%;transform: translate(50%, -50%);font-size: 125px;color: blue;'>+</p>,,,49,,,,,,,,,,,,,,,,,,,,,,
null,,prac_atten_color_black,160030,,,,,,,,black_plus_sign,,,null,,,,,,,,,,,,,,,,,,,,,,
7201.599999964237,,attentioncheck_feedback,167233,,,,,,,,cross_check_feedback,0,,,,,,,,,,,,,,,,,,,,,,,,
10730.5,,last_instruct,177964,,,,,,,,instruct,,,32,,,,,,,,,,,,,,,,,,,,,,
null,,prac_learn_phase(without_color),181465,,,,,,,,black_plus_sign,,,null,object_08b.png,object_03b.png,,,,,,,,,,,,,,,,,,,,
null,,prac_black_cross(without_color),181975,,,,,,,,blue,,,null,object_08b.png,object_03b.png,,,,,,,,,,,,,,,,,,,,
null,,prac_rt_plussign_withcolor,182477,,,,,,,,blue,,,null,object_08b.png,object_03b.png,,,,,,,,,,,,,,,,,,,,
910.8000000119209,,prac_rt_thecrossant_black,183971,,,,,,,,black_plus_sign,,,49,,,1,1,,,,,,,,,,,,,,,,,,
null,,prac_color_black,184074,,,,,,,,black_plus_sign,,,null,,,,,,,,,,,,,,,,,,,,,,
null,,prac_learn_phase(without_color),187576,,,,,,,,black_plus_sign,,,null,object_09b.png,object_11b.png,,,,,,,,,,,,,,,,,,,,
null,,black_cross(without_color)1,188175,,,,,,,,blue,,,null,object_08b.png,object_03b.png,,,,,,,,,,,,,,,,,,,,
null,,prac_rt_plussign_withcolor,188677,,,,,,,,green,,,null,object_09b.png,object_11b.png,,,,,,,,,,,,,,,,,,,,
693.2999999523163,,prac_rt_thecrossant_black,189638,,,,,,,,black_plus_sign,,,50,,,1,1,,,,,,,,,,,,,,,,,,
null,,prac_color_black,189741,,,,,,,,black_plus_sign,,,null,,,,,,,,,,,,,,,,,,,,,,
null,,prac_learn_phase(without_color),193243,,,,,,,,black_plus_sign,,,null,object_08a.png,object_04a.png,,,,,,,,,,,,,,,,,,,,
null,,black_cross(without_color)1,193844,,,,,,,,blue,,,null,object_08b.png,object_03b.png,,,,,,,,,,,,,,,,,,,,
null,,prac_rt_plussign_withcolor,194345,,,,,,,,blue,,,null,object_08a.png,object_04a.png,,,,,,,,,,,,,,,,,,,,
1196,,prac_rt_thecrossant_black,195515,,,,,,,,black_plus_sign,,,49,,,1,1,,,,,,,,,,,,,,,,,,
null,,prac_color_black,195617,,,,,,,,black_plus_sign,,,null,,,,,,,,,,,,,,,,,,,,,,
null,,prac_learn_phase(without_color),199120,,,,,,,,black_plus_sign,,,null,object_05b.png,object_08a.png,,,,,,,,,,,,,,,,,,,,
null,,black_cross(without_color)1,199718,,,,,,,,blue,,,null,object_08b.png,object_03b.png,,,,,,,,,,,,,,,,,,,,
null,,prac_rt_plussign_withcolor,200221,,,,,,,,blue,,,null,object_05b.png,object_08a.png,,,,,,,,,,,,,,,,,,,,
1004.1999999880791,,prac_rt_thecrossant_black,201802,,,,,,,,black_plus_sign,,,49,,,1,1,,,,,,,,,,,,,,,,,,
null,,prac_color_black,201904,,,,,,,,black_plus_sign,,,null,,,,,,,,,,,,,,,,,,,,,,
10095.899999976158,,instruct_dir_01,212001,,,,,,,,instruct,0,Next,,,,,,,,,,,,,,,,,,,,,,,
7724.100000023842,,instruct_dir_2,219726,,,,,,,,instruct,1,Next,,,,,,,,,,,,,,,,,,,,,,,
6865,,instruct_dir_3,226592,,,,,,,,instruct,1,Next,,,,,,,,,,,,,,,,,,,,,,,
9849.5,,instruct_dir_4,236442,,,,,,,,instruct,1,Start,,,,,,,,,,,,,,,,,,,,,,,
null,,thebreak,236543,,,,,,,,<p></p>,,,null,,,,,,,,,,,,,,,,,,,,,,
2263.600000023842,,intro_0,238808,,,,,,,,instruct,,,32,,,,,,,,,,,,,,,,,,,,,,
6074,,prac_directmemory_phase,244882,,,,,,,,practice/object_01b.png,,,50,,,1,,practice/object_03a.png,practice/object_01a.png,practice/object_02a.png,practice/object_01a.png,1,1,,,,,,,,,,,,
5074,,prac_directmemory_phase,249958,,,,,,,,practice/object_02b.png,,,49,,,1,,practice/object_02a.png,practice/object_01a.png,practice/object_04a.png,practice/object_02a.png,1,1,,,,,,,,,,,,
3557.5,,prac_directmemory_phase,253516,,,,,,,,practice/object_03b.png,,,51,,,1,,practice/object_01a.png,practice/object_02a.png,practice/object_03a.png,practice/object_03a.png,1,1,,,,,,,,,,,,
2880.5,,prac_directmemory_phase,256397,,,,,,,,practice/object_04b.png,,,50,,,0,,practice/object_04a.png,practice/object_01a.png,practice/object_02a.png,practice/object_04a.png,0,0.75,,,,,,,,,,,,
8231.300000011921,,practice_feedback,264630,,,,,,,,practice_feedback,1,,,,,,,,,,,,,,,,,,,,,,,,
12057.699999988079,,proceed_actualTask,276689,,,,,,,,proceed_actualTask,1,Continue,,,,,,,,,,,,,,,,,,,,,,,
20298.69999998808,,last_inst,296988,,,,,,,,last_inst,,,32,,,,,,,,,,,,,,,,,,,,,,
null,,learn_phase(without_color)1,300490,,,,,,,,black_plus_sign,,,null,object_08b.png,object_03b.png,,,,,,,,,,,,,,,,,,,,
null,,black_cross(without_color)1,301089,,,,,,,,blue,,,null,object_08b.png,object_03b.png,,,,,,,,,,,,,,,,,,,,
null,,rt_plussign_withcolor1,301592,,,,,,,,blue,,,null,object_08b.png,object_03b.png,,,,,,,,,,,,,,,,,,,,
633.8000000119209,,rt_thecrossant_black1,302997,,,,,,,,black_plus_sign,,,49,,,1,,,,,,,1,,,,,,,,,,,,
null,,color_black1,303098,,,,,,,,black_plus_sign,,,null,,,,,,,,,,,,,,,,,,,,,,
null,,learn_phase(without_color)1,306601,,,,,,,,black_plus_sign,,,null,object_09b.png,object_11b.png,,,,,,,,,,,,,,,,,,,,
null,,black_cross(without_color)1,307421,,,,,,,,blue,,,null,object_09b.png,object_11b.png,,,,,,,,,,,,,,,,,,,,
null,,rt_plussign_withcolor1,307923,,,,,,,,blue,,,null,object_09b.png,object_11b.png,,,,,,,,,,,,,,,,,,,,
648.8999999761581,,rt_thecrossant_black1,309107,,,,,,,,black_plus_sign,,,49,,,1,,,,,,,1,,,,,,,,,,,,
null,,color_black1,309209,,,,,,,,black_plus_sign,,,null,,,,,,,,,,,,,,,,,,,,,,
null,,learn_phase(without_color)1,312715,,,,,,,,black_plus_sign,,,null,object_08a.png,object_04a.png,,,,,,,,,,,,,,,,,,,,
null,,black_cross(without_color)1,313738,,,,,,,,blue,,,null,object_08a.png,object_04a.png,,,,,,,,,,,,,,,,,,,,
399.80000001192093,,rt_plussign_withcolor1,314240,,,,,,,,blue,,,49,object_08a.png,object_04a.png,,,,,,,,,,,,,,,,,,,,
null,,rt_thecrossant_black1,315221,,,,,,,,black_plus_sign,,,null,,,1,,,,,,,1,,,,,,,,,,,,
null,,color_black1,315323,,,,,,,,black_plus_sign,,,null,,,,,,,,,,,,,,,,,,,,,,
null,,learn_phase(without_color)1,318825,,,,,,,,black_plus_sign,,,null,object_05b.png,object_08a.png,,,,,,,,,,,,,,,,,,,,
null,,black_cross(without_color)1,319471,,,,,,,,green,,,null,object_05b.png,object_08a.png,,,,,,,,,,,,,,,,,,,,
null,,rt_plussign_withcolor1,319973,,,,,,,,green,,,null,object_05b.png,object_08a.png,,,,,,,,,,,,,,,,,,,,
1145.300000011921,,rt_thecrossant_black1,321329,,,,,,,,black_plus_sign,,,50,,,1,,,,,,,1,,,,,,,,,,,,
null,,color_black1,321431,,,,,,,,black_plus_sign,,,null,,,,,,,,,,,,,,,,,,,,,,
null,,learn_phase(without_color)1,324933,,,,,,,,black_plus_sign,,,null,object_01b.png,object_10c.png,,,,,,,,,,,,,,,,,,,,
null,,black_cross(without_color)1,325671,,,,,,,,blue,,,null,object_01b.png,object_10c.png,,,,,,,,,,,,,,,,,,,,
null,,rt_plussign_withcolor1,326173,,,,,,,,blue,,,null,object_01b.png,object_10c.png,,,,,,,,,,,,,,,,,,,,
763.5,,rt_thecrossant_black1,327446,,,,,,,,black_plus_sign,,,49,,,1,,,,,,,1,,,,,,,,,,,,
null,,color_black1,327547,,,,,,,,black_plus_sign,,,null,,,,,,,,,,,,,,,,,,,,,,
null,,learn_phase(without_color)1,331048,,,,,,,,black_plus_sign,,,null,object_02b.png,object_02a.png,,,,,,,,,,,,,,,,,,,,
null,,black_cross(without_color)1,331750,,,,,,,,green,,,null,object_02b.png,object_02a.png,,,,,,,,,,,,,,,,,,,,
null,,rt_plussign_withcolor1,332252,,,,,,,,green,,,null,object_02b.png,object_02a.png,,,,,,,,,,,,,,,,,,,,
886.1000000238419,,rt_thecrossant_black1,333553,,,,,,,,black_plus_sign,,,50,,,1,,,,,,,1,,,,,,,,,,,,
null,,color_black1,333654,,,,,,,,black_plus_sign,,,null,,,,,,,,,,,,,,,,,,,,,,
null,,learn_phase(without_color)1,337156,,,,,,,,black_plus_sign,,,null,object_06b.png,object_06c.png,,,,,,,,,,,,,,,,,,,,
null,,black_cross(without_color)1,338206,,,,,,,,blue,,,null,object_06b.png,object_06c.png,,,,,,,,,,,,,,,,,,,,
492.10000002384186,,rt_plussign_withcolor1,338707,,,,,,,,blue,,,49,object_06b.png,object_06c.png,,,,,,,,,,,,,,,,,,,,
null,,rt_thecrossant_black1,339661,,,,,,,,black_plus_sign,,,null,,,1,,,,,,,1,,,,,,,,,,,,
null,,color_black1,339763,,,,,,,,black_plus_sign,,,null,,,,,,,,,,,,,,,,,,,,,,
null,,learn_phase(without_color)1,343265,,,,,,,,black_plus_sign,,,null,object_15c.png,object_03c.png,,,,,,,,,,,,,,,,,,,,
null,,black_cross(without_color)1,343975,,,,,,,,blue,,,null,object_15c.png,object_03c.png,,,,,,,,,,,,,,,,,,,,
410.7999999523163,,rt_plussign_withcolor1,344478,,,,,,,,blue,,,50,object_15c.png,object_03c.png,,,,,,,,,,,,,,,,,,,,
null,,rt_thecrossant_black1,345770,,,,,,,,black_plus_sign,,,null,,,0,,,,,,,0.875,,,,,,,,,,,,
null,,color_black1,345888,,,,,,,,black_plus_sign,,,null,,,,,,,,,,,,,,,,,,,,,,
null,,learn_phase(without_color)1,349389,,,,,,,,black_plus_sign,,,null,object_02a.png,object_10b.png,,,,,,,,,,,,,,,,,,,,
null,,black_cross(without_color)1,350286,,,,,,,,green,,,null,object_02a.png,object_10b.png,,,,,,,,,,,,,,,,,,,,
null,,rt_plussign_withcolor1,350788,,,,,,,,green,,,null,object_02a.png,object_10b.png,,,,,,,,,,,,,,,,,,,,
1058.5999999642372,,rt_thecrossant_black1,351900,,,,,,,,black_plus_sign,,,50,,,1,,,,,,,0.8888888888888888,,,,,,,,,,,,
null,,color_black1,352002,,,,,,,,black_plus_sign,,,null,,,,,,,,,,,,,,,,,,,,,,
null,,learn_phase(without_color)1,355503,,,,,,,,black_plus_sign,,,null,object_12c.png,object_01c.png,,,,,,,,,,,,,,,,,,,,
null,,black_cross(without_color)1,356390,,,,,,,,green,,,null,object_12c.png,object_01c.png,,,,,,,,,,,,,,,,,,,,
null,,rt_plussign_withcolor1,356892,,,,,,,,green,,,null,object_12c.png,object_01c.png,,,,,,,,,,,,,,,,,,,,
1098.0999999642372,,rt_thecrossant_black1,358010,,,,,,,,black_plus_sign,,,50,,,1,,,,,,,0.9,,,,,,,,,,,,
null,,color_black1,358112,,,,,,,,black_plus_sign,,,null,,,,,,,,,,,,,,,,,,,,,,
null,,learn_phase(without_color)1,361613,,,,,,,,black_plus_sign,,,null,object_07a.png,object_02c.png,,,,,,,,,,,,,,,,,,,,
null,,black_cross(without_color)1,362052,,,,,,,,blue,,,null,object_07a.png,object_02c.png,,,,,,,,,,,,,,,,,,,,
null,,rt_plussign_withcolor1,362553,,,,,,,,blue,,,null,object_07a.png,object_02c.png,,,,,,,,,,,,,,,,,,,,
1226.7000000476837,,rt_thecrossant_black1,364119,,,,,,,,black_plus_sign,,,49,,,1,,,,,,,0.9090909090909091,,,,,,,,,,,,
null,,color_black1,364220,,,,,,,,black_plus_sign,,,null,,,,,,,,,,,,,,,,,,,,,,
null,,learn_phase(without_color)1,367722,,,,,,,,black_plus_sign,,,null,object_14c.png,object_12b.png,,,,,,,,,,,,,,,,,,,,
null,,black_cross(without_color)1,368471,,,,,,,,green,,,null,object_14c.png,object_12b.png,,,,,,,,,,,,,,,,,,,,
425.4000000357628,,rt_plussign_withcolor1,368973,,,,,,,,green,,,50,object_14c.png,object_12b.png,,,,,,,,,,,,,,,,,,,,
null,,rt_thecrossant_black1,370226,,,,,,,,black_plus_sign,,,null,,,1,,,,,,,0.9166666666666666,,,,,,,,,,,,
null,,color_black1,370327,,,,,,,,black_plus_sign,,,null,,,,,,,,,,,,,,,,,,,,,,
null,,learn_phase(without_color)1,373829,,,,,,,,black_plus_sign,,,null,object_14b.png,object_14a.png,,,,,,,,,,,,,,,,,,,,
null,,black_cross(without_color)1,374789,,,,,,,,blue,,,null,object_14b.png,object_14a.png,,,,,,,,,,,,,,,,,,,,
null,,rt_plussign_withcolor1,375292,,,,,,,,blue,,,null,object_14b.png,object_14a.png,,,,,,,,,,,,,,,,,,,,
1083.300000011921,,rt_thecrossant_black1,376336,,,,,,,,black_plus_sign,,,49,,,1,,,,,,,0.9230769230769231,,,,,,,,,,,,
null,,color_black1,376439,,,,,,,,black_plus_sign,,,null,,,,,,,,,,,,,,,,,,,,,,
null,,learn_phase(without_color)1,379940,,,,,,,,black_plus_sign,,,null,object_05a.png,object_09a.png,,,,,,,,,,,,,,,,,,,,
null,,black_cross(without_color)1,380816,,,,,,,,green,,,null,object_05a.png,object_09a.png,,,,,,,,,,,,,,,,,,,,
null,,rt_plussign_withcolor1,381317,,,,,,,,green,,,null,object_05a.png,object_09a.png,,,,,,,,,,,,,,,,,,,,
1308.800000011921,,rt_thecrossant_black1,382447,,,,,,,,black_plus_sign,,,50,,,1,,,,,,,0.9285714285714286,,,,,,,,,,,,
null,,color_black1,382549,,,,,,,,black_plus_sign,,,null,,,,,,,,,,,,,,,,,,,,,,
null,,learn_phase(without_color)1,386051,,,,,,,,black_plus_sign,,,null,object_07c.png,object_07a.png,,,,,,,,,,,,,,,,,,,,
null,,black_cross(without_color)1,387056,,,,,,,,blue,,,null,object_07c.png,object_07a.png,,,,,,,,,,,,,,,,,,,,
null,,rt_plussign_withcolor1,387559,,,,,,,,blue,,,null,object_07c.png,object_07a.png,,,,,,,,,,,,,,,,,,,,
null,,rt_thecrossant_black1,388569,,,,,,,,black_plus_sign,,,null,,,,,,,,,,0.9285714285714286,,,,,,,,,,,,
null,,color_black1,388671,,,,,,,,black_plus_sign,,,null,,,,,,,,,,,,,,,,,,,,,,
null,,learn_phase(without_color)1,392173,,,,,,,,black_plus_sign,,,null,object_07b.png,object_11a.png,,,,,,,,,,,,,,,,,,,,
null,,black_cross(without_color)1,392969,,,,,,,,green,,,null,object_07b.png,object_11a.png,,,,,,,,,,,,,,,,,,,,
null,,rt_plussign_withcolor1,393472,,,,,,,,green,,,null,object_07b.png,object_11a.png,,,,,,,,,,,,,,,,,,,,
1423.5,,rt_thecrossant_black1,394679,,,,,,,,black_plus_sign,,,50,,,1,,,,,,,0.9333333333333333,,,,,,,,,,,,
null,,color_black1,394780,,,,,,,,black_plus_sign,,,null,,,,,,,,,,,,,,,,,,,,,,
null,,learn_phase(without_color)1,398281,,,,,,,,black_plus_sign,,,null,object_05c.png,object_14c.png,,,,,,,,,,,,,,,,,,,,
null,,black_cross(without_color)1,399293,,,,,,,,blue,,,null,object_05c.png,object_14c.png,,,,,,,,,,,,,,,,,,,,
null,,rt_plussign_withcolor1,399794,,,,,,,,blue,,,null,object_05c.png,object_14c.png,,,,,,,,,,,,,,,,,,,,
1211.5,,rt_thecrossant_black1,400794,,,,,,,,black_plus_sign,,,49,,,1,,,,,,,0.9375,,,,,,,,,,,,
null,,color_black1,400896,,,,,,,,black_plus_sign,,,null,,,,,,,,,,,,,,,,,,,,,,
null,,learn_phase(without_color)1,404398,,,,,,,,black_plus_sign,,,null,object_04b.png,object_08b.png,,,,,,,,,,,,,,,,,,,,
null,,black_cross(without_color)1,405394,,,,,,,,blue,,,null,object_04b.png,object_08b.png,,,,,,,,,,,,,,,,,,,,
null,,rt_plussign_withcolor1,405896,,,,,,,,blue,,,null,object_04b.png,object_08b.png,,,,,,,,,,,,,,,,,,,,
1195.199999988079,,rt_thecrossant_black1,406904,,,,,,,,black_plus_sign,,,49,,,1,,,,,,,0.9411764705882353,,,,,,,,,,,,
null,,color_black1,407007,,,,,,,,black_plus_sign,,,null,,,,,,,,,,,,,,,,,,,,,,
null,,learn_phase(without_color)1,410509,,,,,,,,black_plus_sign,,,null,object_11c.png,object_06b.png,,,,,,,,,,,,,,,,,,,,
null,,black_cross(without_color)1,411255,,,,,,,,green,,,null,object_11c.png,object_06b.png,,,,,,,,,,,,,,,,,,,,
466.5999999642372,,rt_plussign_withcolor1,411756,,,,,,,,green,,,50,object_11c.png,object_06b.png,,,,,,,,,,,,,,,,,,,,
null,,rt_thecrossant_black1,413014,,,,,,,,black_plus_sign,,,null,,,1,,,,,,,0.9444444444444444,,,,,,,,,,,,
null,,color_black1,413117,,,,,,,,black_plus_sign,,,null,,,,,,,,,,,,,,,,,,,,,,
null,,learn_phase(without_color)1,416629,,,,,,,,black_plus_sign,,,null,object_13a.png,object_12c.png,,,,,,,,,,,,,,,,,,,,
null,,black_cross(without_color)1,417039,,,,,,,,green,,,null,object_13a.png,object_12c.png,,,,,,,,,,,,,,,,,,,,
null,,rt_plussign_withcolor1,417541,,,,,,,,green,,,null,object_13a.png,object_12c.png,,,,,,,,,,,,,,,,,,,,
1085.699999988079,,rt_thecrossant_black1,419134,,,,,,,,black_plus_sign,,,50,,,1,,,,,,,0.9473684210526315,,,,,,,,,,,,
null,,color_black1,419236,,,,,,,,black_plus_sign,,,null,,,,,,,,,,,,,,,,,,,,,,
null,,learn_phase(without_color)1,422739,,,,,,,,black_plus_sign,,,null,object_14a.png,object_04c.png,,,,,,,,,,,,,,,,,,,,
null,,black_cross(without_color)1,423364,,,,,,,,green,,,null,object_14a.png,object_04c.png,,,,,,,,,,,,,,,,,,,,
null,,rt_plussign_withcolor1,423865,,,,,,,,green,,,null,object_14a.png,object_04c.png,,,,,,,,,,,,,,,,,,,,
610.3000000119209,,rt_thecrossant_black1,425244,,,,,,,,black_plus_sign,,,50,,,1,,,,,,,0.95,,,,,,,,,,,,
null,,color_black1,425346,,,,,,,,black_plus_sign,,,null,,,,,,,,,,,,,,,,,,,,,,
null,,learn_phase(without_color)1,428848,,,,,,,,black_plus_sign,,,null,object_09a.png,object_10a.png,,,,,,,,,,,,,,,,,,,,
null,,black_cross(without_color)1,429324,,,,,,,,green,,,null,object_09a.png,object_10a.png,,,,,,,,,,,,,,,,,,,,
null,,rt_plussign_withcolor1,429829,,,,,,,,green,,,null,object_09a.png,object_10a.png,,,,,,,,,,,,,,,,,,,,
931.7000000476837,,rt_thecrossant_black1,431358,,,,,,,,black_plus_sign,,,50,,,1,,,,,,,0.9523809523809523,,,,,,,,,,,,
null,,color_black1,431460,,,,,,,,black_plus_sign,,,null,,,,,,,,,,,,,,,,,,,,,,
null,,learn_phase(without_color)1,434963,,,,,,,,black_plus_sign,,,null,object_03c.png,object_12a.png,,,,,,,,,,,,,,,,,,,,
null,,black_cross(without_color)1,435422,,,,,,,,green,,,null,object_03c.png,object_12a.png,,,,,,,,,,,,,,,,,,,,
null,,rt_plussign_withcolor1,435923,,,,,,,,green,,,null,object_03c.png,object_12a.png,,,,,,,,,,,,,,,,,,,,
808.8000000119209,,rt_thecrossant_black1,437467,,,,,,,,black_plus_sign,,,50,,,1,,,,,,,0.9545454545454546,,,,,,,,,,,,
null,,color_black1,437570,,,,,,,,black_plus_sign,,,null,,,,,,,,,,,,,,,,,,,,,,
null,,learn_phase(without_color)1,441087,,,,,,,,black_plus_sign,,,null,object_13c.png,object_01b.png,,,,,,,,,,,,,,,,,,,,
null,,black_cross(without_color)1,441883,,,,,,,,blue,,,null,object_13c.png,object_01b.png,,,,,,,,,,,,,,,,,,,,
null,,rt_plussign_withcolor1,442385,,,,,,,,blue,,,null,object_13c.png,object_01b.png,,,,,,,,,,,,,,,,,,,,
718.5,,rt_thecrossant_black1,443592,,,,,,,,black_plus_sign,,,49,,,1,,,,,,,0.9565217391304348,,,,,,,,,,,,
null,,color_black1,443694,,,,,,,,black_plus_sign,,,null,,,,,,,,,,,,,,,,,,,,,,
null,,learn_phase(without_color)1,447196,,,,,,,,black_plus_sign,,,null,object_11b.png,object_01a.png,,,,,,,,,,,,,,,,,,,,
null,,black_cross(without_color)1,447984,,,,,,,,blue,,,null,object_11b.png,object_01a.png,,,,,,,,,,,,,,,,,,,,
null,,rt_plussign_withcolor1,448486,,,,,,,,blue,,,null,object_11b.png,object_01a.png,,,,,,,,,,,,,,,,,,,,
944.6000000238419,,rt_thecrossant_black1,449703,,,,,,,,black_plus_sign,,,49,,,1,,,,,,,0.9583333333333334,,,,,,,,,,,,
null,,color_black1,449805,,,,,,,,black_plus_sign,,,null,,,,,,,,,,,,,,,,,,,,,,
null,,learn_phase(without_color)1,453308,,,,,,,,black_plus_sign,,,null,object_06a.png,object_08c.png,,,,,,,,,,,,,,,,,,,,
null,,black_cross(without_color)1,453781,,,,,,,,blue,,,null,object_06a.png,object_08c.png,,,,,,,,,,,,,,,,,,,,
null,,rt_plussign_withcolor1,454284,,,,,,,,blue,,,null,object_06a.png,object_08c.png,,,,,,,,,,,,,,,,,,,,
1313.3999999761581,,rt_thecrossant_black1,455815,,,,,,,,black_plus_sign,,,49,,,1,,,,,,,0.96,,,,,,,,,,,,
null,,color_black1,455917,,,,,,,,black_plus_sign,,,null,,,,,,,,,,,,,,,,,,,,,,
null,,learn_phase(without_color)1,459419,,,,,,,,black_plus_sign,,,null,object_13b.png,object_07b.png,,,,,,,,,,,,,,,,,,,,
null,,black_cross(without_color)1,460496,,,,,,,,green,,,null,object_13b.png,object_07b.png,,,,,,,,,,,,,,,,,,,,
null,,rt_plussign_withcolor1,460999,,,,,,,,green,,,null,object_13b.png,object_07b.png,,,,,,,,,,,,,,,,,,,,
731.6000000238419,,rt_thecrossant_black1,461924,,,,,,,,black_plus_sign,,,50,,,1,,,,,,,0.9615384615384616,,,,,,,,,,,,
null,,color_black1,462026,,,,,,,,black_plus_sign,,,null,,,,,,,,,,,,,,,,,,,,,,
null,,learn_phase(without_color)1,465528,,,,,,,,black_plus_sign,,,null,object_08c.png,object_15b.png,,,,,,,,,,,,,,,,,,,,
null,,black_cross(without_color)1,466478,,,,,,,,blue,,,null,object_08c.png,object_15b.png,,,,,,,,,,,,,,,,,,,,
null,,rt_plussign_withcolor1,466980,,,,,,,,blue,,,null,object_08c.png,object_15b.png,,,,,,,,,,,,,,,,,,,,
1295.199999988079,,rt_thecrossant_black1,468046,,,,,,,,black_plus_sign,,,49,,,1,,,,,,,0.9629629629629629,,,,,,,,,,,,
null,,color_black1,468149,,,,,,,,black_plus_sign,,,null,,,,,,,,,,,,,,,,,,,,,,
null,,learn_phase(without_color)1,471652,,,,,,,,black_plus_sign,,,null,object_09c.png,object_15a.png,,,,,,,,,,,,,,,,,,,,
null,,black_cross(without_color)1,472090,,,,,,,,blue,,,null,object_09c.png,object_15a.png,,,,,,,,,,,,,,,,,,,,
null,,rt_plussign_withcolor1,472592,,,,,,,,blue,,,null,object_09c.png,object_15a.png,,,,,,,,,,,,,,,,,,,,
1097.300000011921,,rt_thecrossant_black1,474159,,,,,,,,black_plus_sign,,,49,,,1,,,,,,,0.9642857142857143,,,,,,,,,,,,
null,,color_black1,474262,,,,,,,,black_plus_sign,,,null,,,,,,,,,,,,,,,,,,,,,,
null,,learn_phase(without_color)1,477764,,,,,,,,black_plus_sign,,,null,object_15a.png,object_03a.png,,,,,,,,,,,,,,,,,,,,
null,,black_cross(without_color)1,478437,,,,,,,,blue,,,null,object_15a.png,object_03a.png,,,,,,,,,,,,,,,,,,,,
null,,rt_plussign_withcolor1,478939,,,,,,,,blue,,,null,object_15a.png,object_03a.png,,,,,,,,,,,,,,,,,,,,
792.1999999880791,,rt_thecrossant_black1,480270,,,,,,,,black_plus_sign,,,49,,,1,,,,,,,0.9655172413793104,,,,,,,,,,,,
null,,color_black1,480376,,,,,,,,black_plus_sign,,,null,,,,,,,,,,,,,,,,,,,,,,
null,,thebreak,480478,,,,,,,,<p></p>,,,null,,,,,,,,,,,,,,,,,,,,,,
1820.4000000357628,,intro_0,482299,,,,,,,,instruct,,,32,,,,,,,,,,,,,,,,,,,,,,
5550.600000023842,,directmemory_phase1,487851,,,,,,,,object_08b.png,,,51,,,1,,object_13c.png,object_15c.png,object_04b.png,object_04b.png,,1,1,,,,,,,,,,,
5760.100000023842,,directmemory_phase1,493612,,,,,,,,object_03c.png,,,49,,,0,,object_09b.png,object_13b.png,object_15c.png,object_15c.png,,0.5,0,,,,,,,,,,,
4896,,directmemory_phase1,498510,,,,,,,,object_04a.png,,,51,,,1,,object_07b.png,object_08c.png,object_08a.png,object_08a.png,,0.6666666666666666,1,,,,,,,,,,,
4184.099999964237,,directmemory_phase1,502695,,,,,,,,object_07b.png,,,49,,,1,,object_13b.png,object_05a.png,object_15c.png,object_13b.png,,0.75,1,,,,,,,,,,,
3818.800000011921,,directmemory_phase1,506514,,,,,,,,object_03b.png,,,50,,,1,,object_06b.png,object_08b.png,object_07b.png,object_08b.png,,0.8,1,,,,,,,,,,,
3475.600000023842,,directmemory_phase1,509991,,,,,,,,object_15a.png,,,49,,,1,,object_09c.png,object_13c.png,object_13b.png,object_09c.png,,0.8333333333333334,1,,,,,,,,,,,
3826.7000000476837,,directmemory_phase1,513819,,,,,,,,object_03a.png,,,51,,,1,,object_08a.png,object_14c.png,object_15a.png,object_15a.png,,0.8571428571428571,1,,,,,,,,,,,
3826.5,,directmemory_phase1,517647,,,,,,,,object_10b.png,,,50,,,1,,object_15a.png,object_02a.png,object_08b.png,object_02a.png,,0.875,1,,,,,,,,,,,
2970.300000011921,,directmemory_phase1,520618,,,,,,,,object_12c.png,,,50,,,1,,object_04b.png,object_13a.png,object_05c.png,object_13a.png,,0.8888888888888888,1,,,,,,,,,,,
2945.400000035763,,directmemory_phase1,523565,,,,,,,,object_08c.png,,,49,,,1,,object_06a.png,object_15c.png,object_09b.png,object_06a.png,,0.9,1,,,,,,,,,,,
2279,,directmemory_phase1,525845,,,,,,,,object_01b.png,,,50,,,1,,object_07c.png,object_13c.png,object_05c.png,object_13c.png,,0.9090909090909091,1,,,,,,,,,,,
2795.800000011921,,directmemory_phase1,528642,,,,,,,,object_11b.png,,,50,,,1,,object_13c.png,object_09b.png,object_11c.png,object_09b.png,,0.9166666666666666,1,,,,,,,,,,,
3319.400000035763,,directmemory_phase1,531962,,,,,,,,object_10a.png,,,51,,,0,,object_09a.png,object_06b.png,object_14c.png,object_09a.png,,0.8461538461538461,0,,,,,,,,,,,
2781.099999964237,,directmemory_phase1,534744,,,,,,,,object_12b.png,,,50,,,0,,object_14c.png,object_07a.png,object_15a.png,object_14c.png,,0.7857142857142857,0,,,,,,,,,,,
3774.899999976158,,directmemory_phase1,538520,,,,,,,,object_09a.png,,,50,,,1,,object_13b.png,object_05a.png,object_06a.png,object_05a.png,,0.8,1,,,,,,,,,,,
3182.5,,directmemory_phase1,541704,,,,,,,,object_10c.png,,,50,,,0,,object_01b.png,object_14a.png,object_12c.png,object_01b.png,,0.75,0,,,,,,,,,,,
2185.100000023842,,directmemory_phase1,543890,,,,,,,,object_01a.png,,,50,,,1,,object_03c.png,object_11b.png,object_06b.png,object_11b.png,,0.7647058823529411,1,,,,,,,,,,,
3622.100000023842,,directmemory_phase1,547513,,,,,,,,object_08a.png,,,49,,,0,,object_13c.png,object_05a.png,object_05b.png,object_05b.png,,0.7222222222222222,0,,,,,,,,,,,
2910,,directmemory_phase1,550424,,,,,,,,object_06c.png,,,50,,,0,,object_08c.png,object_11b.png,object_06b.png,object_06b.png,,0.6842105263157895,0,,,,,,,,,,,
3202,,directmemory_phase1,553627,,,,,,,,object_02c.png,,,49,,,1,,object_07a.png,object_08a.png,object_08b.png,object_07a.png,,0.7,1,,,,,,,,,,,
3105.199999988079,,directmemory_phase1,556733,,,,,,,,object_15b.png,,,49,,,1,,object_08c.png,object_11b.png,object_03c.png,object_08c.png,,0.7142857142857143,1,,,,,,,,,,,
3452,,directmemory_phase1,560186,,,,,,,,object_14c.png,,,50,,,0,,object_14b.png,object_15c.png,object_05c.png,object_05c.png,,0.6818181818181818,0,,,,,,,,,,,
3806.199999988079,,directmemory_phase1,563993,,,,,,,,object_06b.png,,,50,,,1,,object_13b.png,object_11c.png,object_13c.png,object_11c.png,,0.6956521739130435,1,,,,,,,,,,,
3634,,directmemory_phase1,567629,,,,,,,,object_14a.png,,,50,,,1,,object_05b.png,object_14b.png,object_09c.png,object_14b.png,,0.7083333333333334,1,,,,,,,,,,,
4047.899999976158,,directmemory_phase1,571678,,,,,,,,object_04c.png,,,50,,,0,,object_14a.png,object_14c.png,object_11b.png,object_14a.png,,0.68,0,,,,,,,,,,,
3661.699999988079,,directmemory_phase1,575341,,,,,,,,object_02a.png,,,50,,,1,,object_13a.png,object_02b.png,object_09c.png,object_02b.png,,0.6923076923076923,1,,,,,,,,,,,
3528.900000035763,,directmemory_phase1,578871,,,,,,,,object_01c.png,,,50,,,0,,object_12c.png,object_08a.png,object_15a.png,object_12c.png,,0.6666666666666666,0,,,,,,,,,,,
3699,,directmemory_phase1,582571,,,,,,,,object_07a.png,,,51,,,0,,object_06a.png,object_07c.png,object_09c.png,object_07c.png,,0.6428571428571429,0,,,,,,,,,,,
4103.699999988079,,directmemory_phase1,586676,,,,,,,,object_12a.png,,,49,,,0,,object_07b.png,object_03c.png,object_11b.png,object_03c.png,,0.6206896551724138,0,,,,,,,,,,,
3071.600000023842,,directmemory_phase1,589749,,,,,,,,object_11a.png,,,50,,,0,,object_08c.png,object_11b.png,object_07b.png,object_07b.png,,0.6,0,,,,,,,,,,,
null,,thebreak,589859,,,,,,,,<p></p>,,,null,,,,,,,,,,,,,,,,,,,,,,
1757.199999988079,,intro_0,591616,,,,,,,,instruct,,,32,,,,,,,,,,,,,,,,,,,,,,
null,,learn_phase(without_color)2,595118,,,,,,,,black_plus_sign,,,null,object_07b.png,object_11a.png,,,,,,,,,,,,,,,,,,,,
null,,black_cross(without_color)2,595792,,,,,,,,green,,,null,object_07b.png,object_11a.png,,,,,,,,,,,,,,,,,,,,
null,,rt_plussign_withcolor2,596293,,,,,,,,green,,,null,object_07b.png,object_11a.png,,,,,,,,,,,,,,,,,,,,
1320.7000000476837,,rt_thecrossant_black2,597624,,,,,,,,black_plus_sign,,,50,,,1,,,,,,,1,,,,,,,,,,,,
null,,color_black2,597725,,,,,,,,black_plus_sign,,,null,,,,,,,,,,,,,,,,,,,,,,
null,,learn_phase(without_color)2,601228,,,,,,,,black_plus_sign,,,null,object_02a.png,object_10b.png,,,,,,,,,,,,,,,,,,,,
null,,black_cross(without_color)2,602119,,,,,,,,blue,,,null,object_02a.png,object_10b.png,,,,,,,,,,,,,,,,,,,,
null,,rt_plussign_withcolor2,602621,,,,,,,,blue,,,null,object_02a.png,object_10b.png,,,,,,,,,,,,,,,,,,,,
1177.300000011921,,rt_thecrossant_black2,603733,,,,,,,,black_plus_sign,,,50,,,0,,,,,,,0.5,,,,,,,,,,,,
null,,color_black2,603836,,,,,,,,black_plus_sign,,,null,,,,,,,,,,,,,,,,,,,,,,
null,,learn_phase(without_color)2,607339,,,,,,,,black_plus_sign,,,null,object_14a.png,object_04c.png,,,,,,,,,,,,,,,,,,,,
null,,black_cross(without_color)2,608036,,,,,,,,green,,,null,object_14a.png,object_04c.png,,,,,,,,,,,,,,,,,,,,
null,,rt_plussign_withcolor2,608539,,,,,,,,green,,,null,object_14a.png,object_04c.png,,,,,,,,,,,,,,,,,,,,
1093.4000000357628,,rt_thecrossant_black2,609846,,,,,,,,black_plus_sign,,,50,,,1,,,,,,,0.6666666666666666,,,,,,,,,,,,
null,,color_black2,609947,,,,,,,,black_plus_sign,,,null,,,,,,,,,,,,,,,,,,,,,,
null,,learn_phase(without_color)2,613449,,,,,,,,black_plus_sign,,,null,object_14b.png,object_14a.png,,,,,,,,,,,,,,,,,,,,
null,,black_cross(without_color)2,614058,,,,,,,,green,,,null,object_14b.png,object_14a.png,,,,,,,,,,,,,,,,,,,,
null,,rt_plussign_withcolor2,614560,,,,,,,,green,,,null,object_14b.png,object_14a.png,,,,,,,,,,,,,,,,,,,,
834.2999999523163,,rt_thecrossant_black2,615955,,,,,,,,black_plus_sign,,,50,,,1,,,,,,,0.75,,,,,,,,,,,,
null,,color_black2,616057,,,,,,,,black_plus_sign,,,null,,,,,,,,,,,,,,,,,,,,,,
null,,learn_phase(without_color)2,619559,,,,,,,,black_plus_sign,,,null,object_09c.png,object_15a.png,,,,,,,,,,,,,,,,,,,,
null,,black_cross(without_color)2,620594,,,,,,,,blue,,,null,object_09c.png,object_15a.png,,,,,,,,,,,,,,,,,,,,
null,,rt_plussign_withcolor2,621096,,,,,,,,blue,,,null,object_09c.png,object_15a.png,,,,,,,,,,,,,,,,,,,,
746.1999999880791,,rt_thecrossant_black2,622077,,,,,,,,black_plus_sign,,,50,,,0,,,,,,,0.6,,,,,,,,,,,,
null,,color_black2,622179,,,,,,,,black_plus_sign,,,null,,,,,,,,,,,,,,,,,,,,,,
null,,learn_phase(without_color)2,625681,,,,,,,,black_plus_sign,,,null,object_08c.png,object_15b.png,,,,,,,,,,,,,,,,,,,,
null,,black_cross(without_color)2,626125,,,,,,,,green,,,null,object_08c.png,object_15b.png,,,,,,,,,,,,,,,,,,,,
null,,rt_plussign_withcolor2,626627,,,,,,,,green,,,null,object_08c.png,object_15b.png,,,,,,,,,,,,,,,,,,,,
1294.1000000238419,,rt_thecrossant_black2,628188,,,,,,,,black_plus_sign,,,50,,,1,,,,,,,0.6666666666666666,,,,,,,,,,,,
null,,color_black2,628291,,,,,,,,black_plus_sign,,,null,,,,,,,,,,,,,,,,,,,,,,
null,,learn_phase(without_color)2,631793,,,,,,,,black_plus_sign,,,null,object_08b.png,object_03b.png,,,,,,,,,,,,,,,,,,,,
null,,black_cross(without_color)2,632336,,,,,,,,blue,,,null,object_08b.png,object_03b.png,,,,,,,,,,,,,,,,,,,,
null,,rt_plussign_withcolor2,632838,,,,,,,,blue,,,null,object_08b.png,object_03b.png,,,,,,,,,,,,,,,,,,,,
1014.7000000476837,,rt_thecrossant_black2,634299,,,,,,,,black_plus_sign,,,49,,,1,,,,,,,0.7142857142857143,,,,,,,,,,,,
null,,color_black2,634402,,,,,,,,black_plus_sign,,,null,,,,,,,,,,,,,,,,,,,,,,
null,,learn_phase(without_color)2,637904,,,,,,,,black_plus_sign,,,null,object_13c.png,object_01b.png,,,,,,,,,,,,,,,,,,,,
null,,black_cross(without_color)2,638411,,,,,,,,green,,,null,object_13c.png,object_01b.png,,,,,,,,,,,,,,,,,,,,
null,,rt_plussign_withcolor2,638913,,,,,,,,green,,,null,object_13c.png,object_01b.png,,,,,,,,,,,,,,,,,,,,
920,,rt_thecrossant_black2,640410,,,,,,,,black_plus_sign,,,50,,,1,,,,,,,0.75,,,,,,,,,,,,
null,,color_black2,640513,,,,,,,,black_plus_sign,,,null,,,,,,,,,,,,,,,,,,,,,,
null,,learn_phase(without_color)2,644015,,,,,,,,black_plus_sign,,,null,object_15c.png,object_03c.png,,,,,,,,,,,,,,,,,,,,
null,,black_cross(without_color)2,644451,,,,,,,,green,,,null,object_15c.png,object_03c.png,,,,,,,,,,,,,,,,,,,,
null,,rt_plussign_withcolor2,644964,,,,,,,,green,,,null,object_15c.png,object_03c.png,,,,,,,,,,,,,,,,,,,,
987.1999999880791,,rt_thecrossant_black2,646532,,,,,,,,black_plus_sign,,,50,,,1,,,,,,,0.7777777777777778,,,,,,,,,,,,
null,,color_black2,646634,,,,,,,,black_plus_sign,,,null,,,,,,,,,,,,,,,,,,,,,,
null,,learn_phase(without_color)2,650135,,,,,,,,black_plus_sign,,,null,object_07a.png,object_02c.png,,,,,,,,,,,,,,,,,,,,
null,,black_cross(without_color)2,650715,,,,,,,,green,,,null,object_07a.png,object_02c.png,,,,,,,,,,,,,,,,,,,,
null,,rt_plussign_withcolor2,651217,,,,,,,,green,,,null,object_07a.png,object_02c.png,,,,,,,,,,,,,,,,,,,,
832.7000000476837,,rt_thecrossant_black2,652641,,,,,,,,black_plus_sign,,,50,,,1,,,,,,,0.8,,,,,,,,,,,,
null,,color_black2,652744,,,,,,,,black_plus_sign,,,null,,,,,,,,,,,,,,,,,,,,,,
null,,learn_phase(without_color)2,656246,,,,,,,,black_plus_sign,,,null,object_15a.png,object_03a.png,,,,,,,,,,,,,,,,,,,,
null,,black_cross(without_color)2,657133,,,,,,,,green,,,null,object_15a.png,object_03a.png,,,,,,,,,,,,,,,,,,,,
null,,rt_plussign_withcolor2,657634,,,,,,,,green,,,null,object_15a.png,object_03a.png,,,,,,,,,,,,,,,,,,,,
779.1999999880791,,rt_thecrossant_black2,658752,,,,,,,,black_plus_sign,,,50,,,1,,,,,,,0.8181818181818182,,,,,,,,,,,,
null,,color_black2,658854,,,,,,,,black_plus_sign,,,null,,,,,,,,,,,,,,,,,,,,,,
null,,learn_phase(without_color)2,662357,,,,,,,,black_plus_sign,,,null,object_02b.png,object_02a.png,,,,,,,,,,,,,,,,,,,,
null,,black_cross(without_color)2,663245,,,,,,,,blue,,,null,object_02b.png,object_02a.png,,,,,,,,,,,,,,,,,,,,
null,,rt_plussign_withcolor2,663746,,,,,,,,blue,,,null,object_02b.png,object_02a.png,,,,,,,,,,,,,,,,,,,,
1028.3999999761581,,rt_thecrossant_black2,664862,,,,,,,,black_plus_sign,,,49,,,1,,,,,,,0.8333333333333334,,,,,,,,,,,,
null,,color_black2,664964,,,,,,,,black_plus_sign,,,null,,,,,,,,,,,,,,,,,,,,,,
null,,learn_phase(without_color)2,668466,,,,,,,,black_plus_sign,,,null,object_11c.png,object_06b.png,,,,,,,,,,,,,,,,,,,,
null,,black_cross(without_color)2,669517,,,,,,,,blue,,,null,object_11c.png,object_06b.png,,,,,,,,,,,,,,,,,,,,
null,,rt_plussign_withcolor2,670018,,,,,,,,blue,,,null,object_11c.png,object_06b.png,,,,,,,,,,,,,,,,,,,,
1081.5,,rt_thecrossant_black2,670972,,,,,,,,black_plus_sign,,,49,,,1,,,,,,,0.8461538461538461,,,,,,,,,,,,
null,,color_black2,671073,,,,,,,,black_plus_sign,,,null,,,,,,,,,,,,,,,,,,,,,,
null,,learn_phase(without_color)2,674576,,,,,,,,black_plus_sign,,,null,object_06a.png,object_08c.png,,,,,,,,,,,,,,,,,,,,
null,,black_cross(without_color)2,675547,,,,,,,,green,,,null,object_06a.png,object_08c.png,,,,,,,,,,,,,,,,,,,,
441.5,,rt_plussign_withcolor2,676049,,,,,,,,green,,,50,object_06a.png,object_08c.png,,,,,,,,,,,,,,,,,,,,
null,,rt_thecrossant_black2,677083,,,,,,,,black_plus_sign,,,null,,,1,,,,,,,0.8571428571428571,,,,,,,,,,,,
null,,color_black2,677184,,,,,,,,black_plus_sign,,,null,,,,,,,,,,,,,,,,,,,,,,
null,,learn_phase(without_color)2,680686,,,,,,,,black_plus_sign,,,null,object_05a.png,object_09a.png,,,,,,,,,,,,,,,,,,,,
null,,black_cross(without_color)2,681363,,,,,,,,blue,,,null,object_05a.png,object_09a.png,,,,,,,,,,,,,,,,,,,,
null,,rt_plussign_withcolor2,681866,,,,,,,,blue,,,null,object_05a.png,object_09a.png,,,,,,,,,,,,,,,,,,,,
1132.8999999761581,,rt_thecrossant_black2,683192,,,,,,,,black_plus_sign,,,49,,,1,,,,,,,0.8666666666666667,,,,,,,,,,,,
null,,color_black2,683295,,,,,,,,black_plus_sign,,,null,,,,,,,,,,,,,,,,,,,,,,
null,,learn_phase(without_color)2,686797,,,,,,,,black_plus_sign,,,null,object_13b.png,object_07b.png,,,,,,,,,,,,,,,,,,,,
null,,black_cross(without_color)2,687221,,,,,,,,blue,,,null,object_13b.png,object_07b.png,,,,,,,,,,,,,,,,,,,,
null,,rt_plussign_withcolor2,687725,,,,,,,,blue,,,null,object_13b.png,object_07b.png,,,,,,,,,,,,,,,,,,,,
1050.9000000357628,,rt_thecrossant_black2,689313,,,,,,,,black_plus_sign,,,49,,,1,,,,,,,0.875,,,,,,,,,,,,
null,,color_black2,689415,,,,,,,,black_plus_sign,,,null,,,,,,,,,,,,,,,,,,,,,,
null,,learn_phase(without_color)2,692917,,,,,,,,black_plus_sign,,,null,object_06b.png,object_06c.png,,,,,,,,,,,,,,,,,,,,
null,,black_cross(without_color)2,693480,,,,,,,,blue,,,null,object_06b.png,object_06c.png,,,,,,,,,,,,,,,,,,,,
null,,rt_plussign_withcolor2,693982,,,,,,,,blue,,,null,object_06b.png,object_06c.png,,,,,,,,,,,,,,,,,,,,
1297.0999999642372,,rt_thecrossant_black2,695422,,,,,,,,black_plus_sign,,,49,,,1,,,,,,,0.8823529411764706,,,,,,,,,,,,
null,,color_black2,695525,,,,,,,,black_plus_sign,,,null,,,,,,,,,,,,,,,,,,,,,,
null,,learn_phase(without_color)2,699028,,,,,,,,black_plus_sign,,,null,object_05c.png,object_14c.png,,,,,,,,,,,,,,,,,,,,
null,,black_cross(without_color)2,699797,,,,,,,,green,,,null,object_05c.png,object_14c.png,,,,,,,,,,,,,,,,,,,,
null,,rt_plussign_withcolor2,700299,,,,,,,,green,,,null,object_05c.png,object_14c.png,,,,,,,,,,,,,,,,,,,,
939.6999999880791,,rt_thecrossant_black2,701534,,,,,,,,black_plus_sign,,,50,,,1,,,,,,,0.8888888888888888,,,,,,,,,,,,
null,,color_black2,701636,,,,,,,,black_plus_sign,,,null,,,,,,,,,,,,,,,,,,,,,,
null,,learn_phase(without_color)2,705139,,,,,,,,black_plus_sign,,,null,object_07c.png,object_07a.png,,,,,,,,,,,,,,,,,,,,
null,,black_cross(without_color)2,705661,,,,,,,,green,,,null,object_07c.png,object_07a.png,,,,,,,,,,,,,,,,,,,,
null,,rt_plussign_withcolor2,706163,,,,,,,,green,,,null,object_07c.png,object_07a.png,,,,,,,,,,,,,,,,,,,,
1222.6000000238419,,rt_thecrossant_black2,707647,,,,,,,,black_plus_sign,,,50,,,1,,,,,,,0.8947368421052632,,,,,,,,,,,,
null,,color_black2,707749,,,,,,,,black_plus_sign,,,null,,,,,,,,,,,,,,,,,,,,,,
null,,learn_phase(without_color)2,711252,,,,,,,,black_plus_sign,,,null,object_14c.png,object_12b.png,,,,,,,,,,,,,,,,,,,,
null,,black_cross(without_color)2,712183,,,,,,,,green,,,null,object_14c.png,object_12b.png,,,,,,,,,,,,,,,,,,,,
null,,rt_plussign_withcolor2,712685,,,,,,,,green,,,null,object_14c.png,object_12b.png,,,,,,,,,,,,,,,,,,,,
656.5999999642372,,rt_thecrossant_black2,713759,,,,,,,,black_plus_sign,,,50,,,1,,,,,,,0.9,,,,,,,,,,,,
null,,color_black2,713871,,,,,,,,black_plus_sign,,,null,,,,,,,,,,,,,,,,,,,,,,
null,,learn_phase(without_color)2,717372,,,,,,,,black_plus_sign,,,null,object_12c.png,object_01c.png,,,,,,,,,,,,,,,,,,,,
null,,black_cross(without_color)2,718188,,,,,,,,green,,,null,object_12c.png,object_01c.png,,,,,,,,,,,,,,,,,,,,
null,,rt_plussign_withcolor2,718690,,,,,,,,green,,,null,object_12c.png,object_01c.png,,,,,,,,,,,,,,,,,,,,
1110.7999999523163,,rt_thecrossant_black2,719878,,,,,,,,black_plus_sign,,,50,,,1,,,,,,,0.9047619047619048,,,,,,,,,,,,
null,,color_black2,719980,,,,,,,,black_plus_sign,,,null,,,,,,,,,,,,,,,,,,,,,,
null,,learn_phase(without_color)2,723495,,,,,,,,black_plus_sign,,,null,object_08a.png,object_04a.png,,,,,,,,,,,,,,,,,,,,
null,,black_cross(without_color)2,724430,,,,,,,,green,,,null,object_08a.png,object_04a.png,,,,,,,,,,,,,,,,,,,,
null,,rt_plussign_withcolor2,724932,,,,,,,,green,,,null,object_08a.png,object_04a.png,,,,,,,,,,,,,,,,,,,,
1124.199999988079,,rt_thecrossant_black2,726001,,,,,,,,black_plus_sign,,,50,,,1,,,,,,,0.9090909090909091,,,,,,,,,,,,
null,,color_black2,726103,,,,,,,,black_plus_sign,,,null,,,,,,,,,,,,,,,,,,,,,,
null,,learn_phase(without_color)2,729605,,,,,,,,black_plus_sign,,,null,object_03c.png,object_12a.png,,,,,,,,,,,,,,,,,,,,
null,,black_cross(without_color)2,730691,,,,,,,,blue,,,null,object_03c.png,object_12a.png,,,,,,,,,,,,,,,,,,,,
null,,rt_plussign_withcolor2,731193,,,,,,,,blue,,,null,object_03c.png,object_12a.png,,,,,,,,,,,,,,,,,,,,
1099.199999988079,,rt_thecrossant_black2,732111,,,,,,,,black_plus_sign,,,49,,,1,,,,,,,0.9130434782608695,,,,,,,,,,,,
null,,color_black2,732223,,,,,,,,black_plus_sign,,,null,,,,,,,,,,,,,,,,,,,,,,
null,,learn_phase(without_color)2,735726,,,,,,,,black_plus_sign,,,null,object_01b.png,object_10c.png,,,,,,,,,,,,,,,,,,,,
null,,black_cross(without_color)2,736707,,,,,,,,green,,,null,object_01b.png,object_10c.png,,,,,,,,,,,,,,,,,,,,
null,,rt_plussign_withcolor2,737224,,,,,,,,green,,,null,object_01b.png,object_10c.png,,,,,,,,,,,,,,,,,,,,
1436.199999988079,,rt_thecrossant_black2,738258,,,,,,,,black_plus_sign,,,50,,,1,,,,,,,0.9166666666666666,,,,,,,,,,,,
null,,color_black2,738361,,,,,,,,black_plus_sign,,,null,,,,,,,,,,,,,,,,,,,,,,
null,,learn_phase(without_color)2,741863,,,,,,,,black_plus_sign,,,null,object_04b.png,object_08b.png,,,,,,,,,,,,,,,,,,,,
null,,black_cross(without_color)2,742359,,,,,,,,blue,,,null,object_04b.png,object_08b.png,,,,,,,,,,,,,,,,,,,,
null,,rt_plussign_withcolor2,742861,,,,,,,,blue,,,null,object_04b.png,object_08b.png,,,,,,,,,,,,,,,,,,,,
1102.6000000238419,,rt_thecrossant_black2,744370,,,,,,,,black_plus_sign,,,49,,,1,,,,,,,0.92,,,,,,,,,,,,
null,,color_black2,744472,,,,,,,,black_plus_sign,,,null,,,,,,,,,,,,,,,,,,,,,,
null,,learn_phase(without_color)2,747974,,,,,,,,black_plus_sign,,,null,object_09a.png,object_10a.png,,,,,,,,,,,,,,,,,,,,
null,,black_cross(without_color)2,748957,,,,,,,,green,,,null,object_09a.png,object_10a.png,,,,,,,,,,,,,,,,,,,,
null,,rt_plussign_withcolor2,749459,,,,,,,,green,,,null,object_09a.png,object_10a.png,,,,,,,,,,,,,,,,,,,,
902.5999999642372,,rt_thecrossant_black2,750480,,,,,,,,black_plus_sign,,,50,,,1,,,,,,,0.9230769230769231,,,,,,,,,,,,
null,,color_black2,750586,,,,,,,,black_plus_sign,,,null,,,,,,,,,,,,,,,,,,,,,,
null,,learn_phase(without_color)2,754089,,,,,,,,black_plus_sign,,,null,object_13a.png,object_12c.png,,,,,,,,,,,,,,,,,,,,
null,,black_cross(without_color)2,754980,,,,,,,,blue,,,null,object_13a.png,object_12c.png,,,,,,,,,,,,,,,,,,,,
null,,rt_plussign_withcolor2,755481,,,,,,,,blue,,,null,object_13a.png,object_12c.png,,,,,,,,,,,,,,,,,,,,
1148.3999999761581,,rt_thecrossant_black2,756593,,,,,,,,black_plus_sign,,,49,,,1,,,,,,,0.9259259259259259,,,,,,,,,,,,
null,,color_black2,756694,,,,,,,,black_plus_sign,,,null,,,,,,,,,,,,,,,,,,,,,,
null,,learn_phase(without_color)2,760197,,,,,,,,black_plus_sign,,,null,object_09b.png,object_11b.png,,,,,,,,,,,,,,,,,,,,
null,,black_cross(without_color)2,760661,,,,,,,,blue,,,null,object_09b.png,object_11b.png,,,,,,,,,,,,,,,,,,,,
null,,rt_plussign_withcolor2,761163,,,,,,,,blue,,,null,object_09b.png,object_11b.png,,,,,,,,,,,,,,,,,,,,
1117.5,,rt_thecrossant_black2,762704,,,,,,,,black_plus_sign,,,49,,,1,,,,,,,0.9285714285714286,,,,,,,,,,,,
null,,color_black2,762807,,,,,,,,black_plus_sign,,,null,,,,,,,,,,,,,,,,,,,,,,
null,,learn_phase(without_color)2,766310,,,,,,,,black_plus_sign,,,null,object_05b.png,object_08a.png,,,,,,,,,,,,,,,,,,,,
null,,black_cross(without_color)2,766954,,,,,,,,green,,,null,object_05b.png,object_08a.png,,,,,,,,,,,,,,,,,,,,
null,,rt_plussign_withcolor2,767455,,,,,,,,green,,,null,object_05b.png,object_08a.png,,,,,,,,,,,,,,,,,,,,
826.6999999880791,,rt_thecrossant_black2,768816,,,,,,,,black_plus_sign,,,50,,,1,,,,,,,0.9310344827586207,,,,,,,,,,,,
null,,color_black2,768918,,,,,,,,black_plus_sign,,,null,,,,,,,,,,,,,,,,,,,,,,
null,,learn_phase(without_color)2,772420,,,,,,,,black_plus_sign,,,null,object_11b.png,object_01a.png,,,,,,,,,,,,,,,,,,,,
null,,black_cross(without_color)2,773463,,,,,,,,blue,,,null,object_11b.png,object_01a.png,,,,,,,,,,,,,,,,,,,,
496.89999997615814,,rt_plussign_withcolor2,773965,,,,,,,,blue,,,49,object_11b.png,object_01a.png,,,,,,,,,,,,,,,,,,,,
null,,rt_thecrossant_black2,774925,,,,,,,,black_plus_sign,,,null,,,1,,,,,,,0.9333333333333333,,,,,,,,,,,,
null,,color_black2,775028,,,,,,,,black_plus_sign,,,null,,,,,,,,,,,,,,,,,,,,,,
null,,thebreak,775130,,,,,,,,<p></p>,,,null,,,,,,,,,,,,,,,,,,,,,,
1572.699999988079,,intro_0,776703,,,,,,,,instruct,,,32,,,,,,,,,,,,,,,,,,,,,,
3807.5,,directmemory_phase2,780512,,,,,,,,object_10a.png,,,50,,,0,,object_08b.png,object_03c.png,object_09a.png,object_09a.png,,0.5806451612903226,0,,,,,,,,,,,
3048.899999976158,,directmemory_phase2,783562,,,,,,,,object_08a.png,,,49,,,1,,object_05b.png,object_09b.png,object_09c.png,object_05b.png,,0.59375,1,,,,,,,,,,,
1504,,directmemory_phase2,785067,,,,,,,,object_02c.png,,,51,,,1,,object_09a.png,object_11b.png,object_07a.png,object_07a.png,,0.6060606060606061,1,,,,,,,,,,,
2052.699999988079,,directmemory_phase2,787121,,,,,,,,object_15a.png,,,50,,,1,,object_06a.png,object_09c.png,object_13a.png,object_09c.png,,0.6176470588235294,1,,,,,,,,,,,
4381.199999988079,,directmemory_phase2,791503,,,,,,,,object_10c.png,,,50,,,0,,object_15a.png,object_14a.png,object_01b.png,object_01b.png,,0.6,0,,,,,,,,,,,
3468.100000023842,,directmemory_phase2,794972,,,,,,,,object_12a.png,,,50,,,0,,object_11b.png,object_15a.png,object_03c.png,object_03c.png,,0.5833333333333334,0,,,,,,,,,,,
3075.800000011921,,directmemory_phase2,798049,,,,,,,,object_07b.png,,,49,,,1,,object_13b.png,object_09c.png,object_06a.png,object_13b.png,,0.5945945945945946,1,,,,,,,,,,,
3310.599999964237,,directmemory_phase2,801361,,,,,,,,object_03a.png,,,51,,,0,,object_15a.png,object_01b.png,object_03c.png,object_15a.png,,0.5789473684210527,0,,,,,,,,,,,
1630.6000000238419,,directmemory_phase2,802992,,,,,,,,object_10b.png,,,51,,,1,,object_07b.png,object_11b.png,object_02a.png,object_02a.png,,0.5897435897435898,1,,,,,,,,,,,
3413.100000023842,,directmemory_phase2,806406,,,,,,,,object_02a.png,,,51,,,1,,object_13b.png,object_13c.png,object_02b.png,object_02b.png,,0.6,1,,,,,,,,,,,
2573.699999988079,,directmemory_phase2,808981,,,,,,,,object_09a.png,,,51,,,1,,object_09b.png,object_14b.png,object_05a.png,object_05a.png,,0.6097560975609756,1,,,,,,,,,,,
2131.300000011921,,directmemory_phase2,811114,,,,,,,,object_12b.png,,,49,,,1,,object_14c.png,object_08b.png,object_07a.png,object_14c.png,,0.6190476190476191,1,,,,,,,,,,,
3321.600000023842,,directmemory_phase2,814437,,,,,,,,object_15b.png,,,50,,,1,,object_12c.png,object_08c.png,object_15a.png,object_08c.png,,0.627906976744186,1,,,,,,,,,,,
4590.600000023842,,directmemory_phase2,819028,,,,,,,,object_04c.png,,,51,,,1,,object_06b.png,object_07b.png,object_14a.png,object_14a.png,,0.6363636363636364,1,,,,,,,,,,,
3186.300000011921,,directmemory_phase2,822216,,,,,,,,object_01a.png,,,49,,,0,,object_14a.png,object_01b.png,object_11b.png,object_11b.png,,0.6222222222222222,0,,,,,,,,,,,
1939.699999988079,,directmemory_phase2,824157,,,,,,,,object_04a.png,,,49,,,1,,object_08a.png,object_07b.png,object_09a.png,object_08a.png,,0.6304347826086957,1,,,,,,,,,,,
1999.199999988079,,directmemory_phase2,826157,,,,,,,,object_08b.png,,,49,,,1,,object_04b.png,object_15c.png,object_09b.png,object_04b.png,,0.6382978723404256,1,,,,,,,,,,,
3673.5,,directmemory_phase2,829832,,,,,,,,object_11a.png,,,51,,,0,,object_07a.png,object_07b.png,object_12c.png,object_07b.png,,0.625,0,,,,,,,,,,,
2248.399999976158,,directmemory_phase2,832082,,,,,,,,object_03c.png,,,51,,,0,,object_15c.png,object_13c.png,object_05a.png,object_15c.png,,0.6122448979591837,0,,,,,,,,,,,
3782.399999976158,,directmemory_phase2,835866,,,,,,,,object_11b.png,,,49,,,0,,object_15c.png,object_06a.png,object_09b.png,object_09b.png,,0.6,0,,,,,,,,,,,
2351,,directmemory_phase2,838218,,,,,,,,object_12c.png,,,49,,,1,,object_13a.png,object_06a.png,object_05b.png,object_13a.png,,0.6078431372549019,1,,,,,,,,,,,
3266.2999999523163,,directmemory_phase2,841486,,,,,,,,object_08c.png,,,50,,,0,,object_04b.png,object_14b.png,object_06a.png,object_06a.png,,0.5961538461538461,0,,,,,,,,,,,
2692.699999988079,,directmemory_phase2,844180,,,,,,,,object_07a.png,,,51,,,0,,object_07c.png,object_04b.png,object_05b.png,object_07c.png,,0.5849056603773585,0,,,,,,,,,,,
2329.899999976158,,directmemory_phase2,846511,,,,,,,,object_06b.png,,,50,,,1,,object_07c.png,object_11c.png,object_14b.png,object_11c.png,,0.5925925925925926,1,,,,,,,,,,,
5927.300000011921,,directmemory_phase2,852439,,,,,,,,object_14c.png,,,49,,,1,,object_05c.png,object_05a.png,object_11c.png,object_05c.png,,0.6,1,,,,,,,,,,,
4983.799999952316,,directmemory_phase2,857424,,,,,,,,object_14a.png,,,50,,,0,,object_13a.png,object_05c.png,object_14b.png,object_14b.png,,0.5892857142857143,0,,,,,,,,,,,
4276.100000023842,,directmemory_phase2,861701,,,,,,,,object_06c.png,,,49,,,0,,object_03c.png,object_15a.png,object_06b.png,object_06b.png,,0.5789473684210527,0,,,,,,,,,,,
3160.400000035763,,directmemory_phase2,864863,,,,,,,,object_01c.png,,,49,,,1,,object_12c.png,object_15a.png,object_08a.png,object_12c.png,,0.5862068965517241,1,,,,,,,,,,,
1804,,directmemory_phase2,866669,,,,,,,,object_01b.png,,,49,,,1,,object_13c.png,object_11c.png,object_09c.png,object_13c.png,,0.5932203389830508,1,,,,,,,,,,,
2977.399999976158,,directmemory_phase2,869648,,,,,,,,object_03b.png,,,51,,,0,,object_08b.png,object_07a.png,object_12c.png,object_08b.png,,0.5833333333333334,0,,,,,,,,,,,
null,,thebreak,869750,,,,,,,,<p></p>,,,null,,,,,,,,,,,,,,,,,,,,,,
1560.5,,intro_0,871311,,,,,,,,instruct,,,32,,,,,,,,,,,,,,,,,,,,,,
null,,learn_phase(without_color)3,874813,,,,,,,,black_plus_sign,,,null,object_09b.png,object_11b.png,,,,,,,,,,,,,,,,,,,,
null,,black_cross(without_color)3,875713,,,,,,,,green,,,null,object_09b.png,object_11b.png,,,,,,,,,,,,,,,,,,,,
null,,rt_plussign_withcolor3,876215,,,,,,,,green,,,null,object_09b.png,object_11b.png,,,,,,,,,,,,,,,,,,,,
null,,rt_thecrossant_black3,877319,,,,,,,,black_plus_sign,,,null,,,,,,,,,,NaN,,,,,,,,,,,,
null,,color_black3,877421,,,,,,,,black_plus_sign,,,null,,,,,,,,,,,,,,,,,,,,,,
null,,learn_phase(without_color)3,880922,,,,,,,,black_plus_sign,,,null,object_08c.png,object_15b.png,,,,,,,,,,,,,,,,,,,,
null,,black_cross(without_color)3,881656,,,,,,,,green,,,null,object_08c.png,object_15b.png,,,,,,,,,,,,,,,,,,,,
null,,rt_plussign_withcolor3,882157,,,,,,,,green,,,null,object_08c.png,object_15b.png,,,,,,,,,,,,,,,,,,,,
1523,,rt_thecrossant_black3,883428,,,,,,,,black_plus_sign,,,50,,,1,,,,,,,1,,,,,,,,,,,,
null,,color_black3,883530,,,,,,,,black_plus_sign,,,null,,,,,,,,,,,,,,,,,,,,,,
null,,learn_phase(without_color)3,887033,,,,,,,,black_plus_sign,,,null,object_11c.png,object_06b.png,,,,,,,,,,,,,,,,,,,,
null,,black_cross(without_color)3,887678,,,,,,,,green,,,null,object_11c.png,object_06b.png,,,,,,,,,,,,,,,,,,,,
null,,rt_plussign_withcolor3,888179,,,,,,,,green,,,null,object_11c.png,object_06b.png,,,,,,,,,,,,,,,,,,,,
924.6000000238419,,rt_thecrossant_black3,889537,,,,,,,,black_plus_sign,,,50,,,1,,,,,,,1,,,,,,,,,,,,
null,,color_black3,889640,,,,,,,,black_plus_sign,,,null,,,,,,,,,,,,,,,,,,,,,,
null,,learn_phase(without_color)3,893142,,,,,,,,black_plus_sign,,,null,object_09a.png,object_10a.png,,,,,,,,,,,,,,,,,,,,
null,,black_cross(without_color)3,893965,,,,,,,,blue,,,null,object_09a.png,object_10a.png,,,,,,,,,,,,,,,,,,,,
null,,rt_plussign_withcolor3,894466,,,,,,,,blue,,,null,object_09a.png,object_10a.png,,,,,,,,,,,,,,,,,,,,
772.8000000119209,,rt_thecrossant_black3,895658,,,,,,,,black_plus_sign,,,49,,,1,,,,,,,1,,,,,,,,,,,,
null,,color_black3,895760,,,,,,,,black_plus_sign,,,null,,,,,,,,,,,,,,,,,,,,,,
null,,learn_phase(without_color)3,899263,,,,,,,,black_plus_sign,,,null,object_14b.png,object_14a.png,,,,,,,,,,,,,,,,,,,,
null,,black_cross(without_color)3,900239,,,,,,,,green,,,null,object_14b.png,object_14a.png,,,,,,,,,,,,,,,,,,,,
null,,rt_plussign_withcolor3,900741,,,,,,,,green,,,null,object_14b.png,object_14a.png,,,,,,,,,,,,,,,,,,,,
1014.5999999642372,,rt_thecrossant_black3,901769,,,,,,,,black_plus_sign,,,50,,,1,,,,,,,1,,,,,,,,,,,,
null,,color_black3,901870,,,,,,,,black_plus_sign,,,null,,,,,,,,,,,,,,,,,,,,,,
null,,learn_phase(without_color)3,905372,,,,,,,,black_plus_sign,,,null,object_15c.png,object_03c.png,,,,,,,,,,,,,,,,,,,,
null,,black_cross(without_color)3,906396,,,,,,,,blue,,,null,object_15c.png,object_03c.png,,,,,,,,,,,,,,,,,,,,
null,,rt_plussign_withcolor3,906898,,,,,,,,blue,,,null,object_15c.png,object_03c.png,,,,,,,,,,,,,,,,,,,,
1302.199999988079,,rt_thecrossant_black3,907879,,,,,,,,black_plus_sign,,,49,,,1,,,,,,,1,,,,,,,,,,,,
null,,color_black3,907981,,,,,,,,black_plus_sign,,,null,,,,,,,,,,,,,,,,,,,,,,
null,,learn_phase(without_color)3,911484,,,,,,,,black_plus_sign,,,null,object_13c.png,object_01b.png,,,,,,,,,,,,,,,,,,,,
null,,black_cross(without_color)3,912411,,,,,,,,blue,,,null,object_13c.png,object_01b.png,,,,,,,,,,,,,,,,,,,,
null,,rt_plussign_withcolor3,912912,,,,,,,,blue,,,null,object_13c.png,object_01b.png,,,,,,,,,,,,,,,,,,,,
1196.9000000357628,,rt_thecrossant_black3,913989,,,,,,,,black_plus_sign,,,49,,,1,,,,,,,1,,,,,,,,,,,,
null,,color_black3,914104,,,,,,,,black_plus_sign,,,null,,,,,,,,,,,,,,,,,,,,,,
null,,learn_phase(without_color)3,917606,,,,,,,,black_plus_sign,,,null,object_09c.png,object_15a.png,,,,,,,,,,,,,,,,,,,,
null,,black_cross(without_color)3,918356,,,,,,,,green,,,null,object_09c.png,object_15a.png,,,,,,,,,,,,,,,,,,,,
null,,rt_plussign_withcolor3,918858,,,,,,,,green,,,null,object_09c.png,object_15a.png,,,,,,,,,,,,,,,,,,,,
1416.300000011921,,rt_thecrossant_black3,920112,,,,,,,,black_plus_sign,,,50,,,1,,,,,,,1,,,,,,,,,,,,
null,,color_black3,920214,,,,,,,,black_plus_sign,,,null,,,,,,,,,,,,,,,,,,,,,,
null,,learn_phase(without_color)3,923716,,,,,,,,black_plus_sign,,,null,object_12c.png,object_01c.png,,,,,,,,,,,,,,,,,,,,
null,,black_cross(without_color)3,924467,,,,,,,,green,,,null,object_12c.png,object_01c.png,,,,,,,,,,,,,,,,,,,,
null,,rt_plussign_withcolor3,924967,,,,,,,,green,,,null,object_12c.png,object_01c.png,,,,,,,,,,,,,,,,,,,,
1187.8999999761581,,rt_thecrossant_black3,926220,,,,,,,,black_plus_sign,,,50,,,1,,,,,,,1,,,,,,,,,,,,
null,,color_black3,926337,,,,,,,,black_plus_sign,,,null,,,,,,,,,,,,,,,,,,,,,,
null,,learn_phase(without_color)3,929840,,,,,,,,black_plus_sign,,,null,object_01b.png,object_10c.png,,,,,,,,,,,,,,,,,,,,
null,,black_cross(without_color)3,930511,,,,,,,,green,,,null,object_01b.png,object_10c.png,,,,,,,,,,,,,,,,,,,,
null,,rt_plussign_withcolor3,931013,,,,,,,,green,,,null,object_01b.png,object_10c.png,,,,,,,,,,,,,,,,,,,,
1215.300000011921,,rt_thecrossant_black3,932350,,,,,,,,black_plus_sign,,,50,,,1,,,,,,,1,,,,,,,,,,,,
null,,color_black3,932452,,,,,,,,black_plus_sign,,,null,,,,,,,,,,,,,,,,,,,,,,
null,,learn_phase(without_color)3,935954,,,,,,,,black_plus_sign,,,null,object_08a.png,object_04a.png,,,,,,,,,,,,,,,,,,,,
null,,black_cross(without_color)3,936585,,,,,,,,blue,,,null,object_08a.png,object_04a.png,,,,,,,,,,,,,,,,,,,,
null,,rt_plussign_withcolor3,937087,,,,,,,,blue,,,null,object_08a.png,object_04a.png,,,,,,,,,,,,,,,,,,,,
1072.699999988079,,rt_thecrossant_black3,938461,,,,,,,,black_plus_sign,,,49,,,1,,,,,,,1,,,,,,,,,,,,
null,,color_black3,938563,,,,,,,,black_plus_sign,,,null,,,,,,,,,,,,,,,,,,,,,,
null,,learn_phase(without_color)3,942065,,,,,,,,black_plus_sign,,,null,object_06a.png,object_08c.png,,,,,,,,,,,,,,,,,,,,
null,,black_cross(without_color)3,942919,,,,,,,,blue,,,null,object_06a.png,object_08c.png,,,,,,,,,,,,,,,,,,,,
null,,rt_plussign_withcolor3,943422,,,,,,,,blue,,,null,object_06a.png,object_08c.png,,,,,,,,,,,,,,,,,,,,
954.8000000119209,,rt_thecrossant_black3,944571,,,,,,,,black_plus_sign,,,50,,,0,,,,,,,0.9090909090909091,,,,,,,,,,,,
null,,color_black3,944673,,,,,,,,black_plus_sign,,,null,,,,,,,,,,,,,,,,,,,,,,
null,,learn_phase(without_color)3,948176,,,,,,,,black_plus_sign,,,null,object_07c.png,object_07a.png,,,,,,,,,,,,,,,,,,,,
null,,black_cross(without_color)3,948952,,,,,,,,green,,,null,object_07c.png,object_07a.png,,,,,,,,,,,,,,,,,,,,
null,,rt_plussign_withcolor3,949454,,,,,,,,green,,,null,object_07c.png,object_07a.png,,,,,,,,,,,,,,,,,,,,
1123.800000011921,,rt_thecrossant_black3,950683,,,,,,,,black_plus_sign,,,50,,,1,,,,,,,0.9166666666666666,,,,,,,,,,,,
null,,color_black3,950785,,,,,,,,black_plus_sign,,,null,,,,,,,,,,,,,,,,,,,,,,
null,,learn_phase(without_color)3,954288,,,,,,,,black_plus_sign,,,null,object_05b.png,object_08a.png,,,,,,,,,,,,,,,,,,,,
null,,black_cross(without_color)3,955149,,,,,,,,green,,,null,object_05b.png,object_08a.png,,,,,,,,,,,,,,,,,,,,
null,,rt_plussign_withcolor3,955651,,,,,,,,green,,,null,object_05b.png,object_08a.png,,,,,,,,,,,,,,,,,,,,
1025.699999988079,,rt_thecrossant_black3,956792,,,,,,,,black_plus_sign,,,50,,,1,,,,,,,0.9230769230769231,,,,,,,,,,,,
null,,color_black3,956895,,,,,,,,black_plus_sign,,,null,,,,,,,,,,,,,,,,,,,,,,
null,,learn_phase(without_color)3,960397,,,,,,,,black_plus_sign,,,null,object_02b.png,object_02a.png,,,,,,,,,,,,,,,,,,,,
null,,black_cross(without_color)3,961098,,,,,,,,blue,,,null,object_02b.png,object_02a.png,,,,,,,,,,,,,,,,,,,,
null,,rt_plussign_withcolor3,961599,,,,,,,,blue,,,null,object_02b.png,object_02a.png,,,,,,,,,,,,,,,,,,,,
1478.5,,rt_thecrossant_black3,962903,,,,,,,,black_plus_sign,,,49,,,1,,,,,,,0.9285714285714286,,,,,,,,,,,,
null,,color_black3,963004,,,,,,,,black_plus_sign,,,null,,,,,,,,,,,,,,,,,,,,,,
null,,learn_phase(without_color)3,966508,,,,,,,,black_plus_sign,,,null,object_05a.png,object_09a.png,,,,,,,,,,,,,,,,,,,,
null,,black_cross(without_color)3,967471,,,,,,,,green,,,null,object_05a.png,object_09a.png,,,,,,,,,,,,,,,,,,,,
null,,rt_plussign_withcolor3,967973,,,,,,,,green,,,null,object_05a.png,object_09a.png,,,,,,,,,,,,,,,,,,,,
1148.300000011921,,rt_thecrossant_black3,969014,,,,,,,,black_plus_sign,,,50,,,1,,,,,,,0.9333333333333333,,,,,,,,,,,,
null,,color_black3,969117,,,,,,,,black_plus_sign,,,null,,,,,,,,,,,,,,,,,,,,,,
null,,learn_phase(without_color)3,972620,,,,,,,,black_plus_sign,,,null,object_03c.png,object_12a.png,,,,,,,,,,,,,,,,,,,,
null,,black_cross(without_color)3,973291,,,,,,,,blue,,,null,object_03c.png,object_12a.png,,,,,,,,,,,,,,,,,,,,
null,,rt_plussign_withcolor3,973793,,,,,,,,blue,,,null,object_03c.png,object_12a.png,,,,,,,,,,,,,,,,,,,,
1484.1000000238419,,rt_thecrossant_black3,975127,,,,,,,,black_plus_sign,,,49,,,1,,,,,,,0.9375,,,,,,,,,,,,
null,,color_black3,975228,,,,,,,,black_plus_sign,,,null,,,,,,,,,,,,,,,,,,,,,,
null,,learn_phase(without_color)3,978730,,,,,,,,black_plus_sign,,,null,object_05c.png,object_14c.png,,,,,,,,,,,,,,,,,,,,
null,,black_cross(without_color)3,979798,,,,,,,,green,,,null,object_05c.png,object_14c.png,,,,,,,,,,,,,,,,,,,,
null,,rt_plussign_withcolor3,980299,,,,,,,,green,,,null,object_05c.png,object_14c.png,,,,,,,,,,,,,,,,,,,,
791.6999999880791,,rt_thecrossant_black3,981236,,,,,,,,black_plus_sign,,,50,,,1,,,,,,,0.9411764705882353,,,,,,,,,,,,
null,,color_black3,981338,,,,,,,,black_plus_sign,,,null,,,,,,,,,,,,,,,,,,,,,,
null,,learn_phase(without_color)3,984840,,,,,,,,black_plus_sign,,,null,object_04b.png,object_08b.png,,,,,,,,,,,,,,,,,,,,
null,,black_cross(without_color)3,985320,,,,,,,,green,,,null,object_04b.png,object_08b.png,,,,,,,,,,,,,,,,,,,,
null,,rt_plussign_withcolor3,985821,,,,,,,,green,,,null,object_04b.png,object_08b.png,,,,,,,,,,,,,,,,,,,,
1340.5,,rt_thecrossant_black3,987346,,,,,,,,black_plus_sign,,,50,,,1,,,,,,,0.9444444444444444,,,,,,,,,,,,
null,,color_black3,987447,,,,,,,,black_plus_sign,,,null,,,,,,,,,,,,,,,,,,,,,,
null,,learn_phase(without_color)3,990949,,,,,,,,black_plus_sign,,,null,object_13b.png,object_07b.png,,,,,,,,,,,,,,,,,,,,
null,,black_cross(without_color)3,991570,,,,,,,,blue,,,null,object_13b.png,object_07b.png,,,,,,,,,,,,,,,,,,,,
null,,rt_plussign_withcolor3,992072,,,,,,,,blue,,,null,object_13b.png,object_07b.png,,,,,,,,,,,,,,,,,,,,
993.1999999880791,,rt_thecrossant_black3,993455,,,,,,,,black_plus_sign,,,49,,,1,,,,,,,0.9473684210526315,,,,,,,,,,,,
null,,color_black3,993557,,,,,,,,black_plus_sign,,,null,,,,,,,,,,,,,,,,,,,,,,
null,,learn_phase(without_color)3,997059,,,,,,,,black_plus_sign,,,null,object_08b.png,object_03b.png,,,,,,,,,,,,,,,,,,,,
null,,black_cross(without_color)3,997747,,,,,,,,blue,,,null,object_08b.png,object_03b.png,,,,,,,,,,,,,,,,,,,,
null,,rt_plussign_withcolor3,998261,,,,,,,,blue,,,null,object_08b.png,object_03b.png,,,,,,,,,,,,,,,,,,,,
1007.8999999761581,,rt_thecrossant_black3,999578,,,,,,,,black_plus_sign,,,49,,,1,,,,,,,0.95,,,,,,,,,,,,
null,,color_black3,999680,,,,,,,,black_plus_sign,,,null,,,,,,,,,,,,,,,,,,,,,,
null,,learn_phase(without_color)3,1003181,,,,,,,,black_plus_sign,,,null,object_07b.png,object_11a.png,,,,,,,,,,,,,,,,,,,,
null,,black_cross(without_color)3,1004171,,,,,,,,green,,,null,object_07b.png,object_11a.png,,,,,,,,,,,,,,,,,,,,
null,,rt_plussign_withcolor3,1004673,,,,,,,,green,,,null,object_07b.png,object_11a.png,,,,,,,,,,,,,,,,,,,,
1034.1000000238419,,rt_thecrossant_black3,1005686,,,,,,,,black_plus_sign,,,50,,,1,,,,,,,0.9523809523809523,,,,,,,,,,,,
null,,color_black3,1005788,,,,,,,,black_plus_sign,,,null,,,,,,,,,,,,,,,,,,,,,,
null,,learn_phase(without_color)3,1009291,,,,,,,,black_plus_sign,,,null,object_06b.png,object_06c.png,,,,,,,,,,,,,,,,,,,,
null,,black_cross(without_color)3,1009791,,,,,,,,green,,,null,object_06b.png,object_06c.png,,,,,,,,,,,,,,,,,,,,
null,,rt_plussign_withcolor3,1010293,,,,,,,,green,,,null,object_06b.png,object_06c.png,,,,,,,,,,,,,,,,,,,,
1479.5999999642372,,rt_thecrossant_black3,1011798,,,,,,,,black_plus_sign,,,50,,,1,,,,,,,0.9545454545454546,,,,,,,,,,,,
null,,color_black3,1011900,,,,,,,,black_plus_sign,,,null,,,,,,,,,,,,,,,,,,,,,,
null,,learn_phase(without_color)3,1015402,,,,,,,,black_plus_sign,,,null,object_15a.png,object_03a.png,,,,,,,,,,,,,,,,,,,,
null,,black_cross(without_color)3,1016069,,,,,,,,blue,,,null,object_15a.png,object_03a.png,,,,,,,,,,,,,,,,,,,,
null,,rt_plussign_withcolor3,1016570,,,,,,,,blue,,,null,object_15a.png,object_03a.png,,,,,,,,,,,,,,,,,,,,
687.3999999761581,,rt_thecrossant_black3,1017909,,,,,,,,black_plus_sign,,,49,,,1,,,,,,,0.9565217391304348,,,,,,,,,,,,
null,,color_black3,1018010,,,,,,,,black_plus_sign,,,null,,,,,,,,,,,,,,,,,,,,,,
null,,learn_phase(without_color)3,1021513,,,,,,,,black_plus_sign,,,null,object_14c.png,object_12b.png,,,,,,,,,,,,,,,,,,,,
null,,black_cross(without_color)3,1022304,,,,,,,,green,,,null,object_14c.png,object_12b.png,,,,,,,,,,,,,,,,,,,,
null,,rt_plussign_withcolor3,1022806,,,,,,,,green,,,null,object_14c.png,object_12b.png,,,,,,,,,,,,,,,,,,,,
1028.6000000238419,,rt_thecrossant_black3,1024018,,,,,,,,black_plus_sign,,,50,,,1,,,,,,,0.9583333333333334,,,,,,,,,,,,
null,,color_black3,1024121,,,,,,,,black_plus_sign,,,null,,,,,,,,,,,,,,,,,,,,,,
null,,learn_phase(without_color)3,1027624,,,,,,,,black_plus_sign,,,null,object_02a.png,object_10b.png,,,,,,,,,,,,,,,,,,,,
null,,black_cross(without_color)3,1028491,,,,,,,,blue,,,null,object_02a.png,object_10b.png,,,,,,,,,,,,,,,,,,,,
null,,rt_plussign_withcolor3,1028993,,,,,,,,blue,,,null,object_02a.png,object_10b.png,,,,,,,,,,,,,,,,,,,,
1397.1000000238419,,rt_thecrossant_black3,1030134,,,,,,,,black_plus_sign,,,49,,,1,,,,,,,0.96,,,,,,,,,,,,
null,,color_black3,1030237,,,,,,,,black_plus_sign,,,null,,,,,,,,,,,,,,,,,,,,,,
null,,learn_phase(without_color)3,1033740,,,,,,,,black_plus_sign,,,null,object_11b.png,object_01a.png,,,,,,,,,,,,,,,,,,,,
null,,black_cross(without_color)3,1034302,,,,,,,,green,,,null,object_11b.png,object_01a.png,,,,,,,,,,,,,,,,,,,,
null,,rt_plussign_withcolor3,1034803,,,,,,,,green,,,null,object_11b.png,object_01a.png,,,,,,,,,,,,,,,,,,,,
1233.699999988079,,rt_thecrossant_black3,1036245,,,,,,,,black_plus_sign,,,50,,,1,,,,,,,0.9615384615384616,,,,,,,,,,,,
null,,color_black3,1036346,,,,,,,,black_plus_sign,,,null,,,,,,,,,,,,,,,,,,,,,,
null,,learn_phase(without_color)3,1039848,,,,,,,,black_plus_sign,,,null,object_07a.png,object_02c.png,,,,,,,,,,,,,,,,,,,,
null,,black_cross(without_color)3,1040818,,,,,,,,blue,,,null,object_07a.png,object_02c.png,,,,,,,,,,,,,,,,,,,,
null,,rt_plussign_withcolor3,1041319,,,,,,,,blue,,,null,object_07a.png,object_02c.png,,,,,,,,,,,,,,,,,,,,
1038.9000000357628,,rt_thecrossant_black3,1042353,,,,,,,,black_plus_sign,,,49,,,1,,,,,,,0.9629629629629629,,,,,,,,,,,,
null,,color_black3,1042455,,,,,,,,black_plus_sign,,,null,,,,,,,,,,,,,,,,,,,,,,
null,,learn_phase(without_color)3,1045957,,,,,,,,black_plus_sign,,,null,object_14a.png,object_04c.png,,,,,,,,,,,,,,,,,,,,
null,,black_cross(without_color)3,1046364,,,,,,,,green,,,null,object_14a.png,object_04c.png,,,,,,,,,,,,,,,,,,,,
null,,rt_plussign_withcolor3,1046866,,,,,,,,green,,,null,object_14a.png,object_04c.png,,,,,,,,,,,,,,,,,,,,
1263.3999999761581,,rt_thecrossant_black3,1048462,,,,,,,,black_plus_sign,,,50,,,1,,,,,,,0.9642857142857143,,,,,,,,,,,,
null,,color_black3,1048563,,,,,,,,black_plus_sign,,,null,,,,,,,,,,,,,,,,,,,,,,
null,,learn_phase(without_color)3,1052065,,,,,,,,black_plus_sign,,,null,object_13a.png,object_12c.png,,,,,,,,,,,,,,,,,,,,
null,,black_cross(without_color)3,1052666,,,,,,,,green,,,null,object_13a.png,object_12c.png,,,,,,,,,,,,,,,,,,,,
null,,rt_plussign_withcolor3,1053167,,,,,,,,green,,,null,object_13a.png,object_12c.png,,,,,,,,,,,,,,,,,,,,
958.6999999880791,,rt_thecrossant_black3,1054582,,,,,,,,black_plus_sign,,,50,,,1,,,,,,,0.9655172413793104,,,,,,,,,,,,
null,,color_black3,1054683,,,,,,,,black_plus_sign,,,null,,,,,,,,,,,,,,,,,,,,,,
null,,thebreak,1054785,,,,,,,,<p></p>,,,null,,,,,,,,,,,,,,,,,,,,,,
4436.899999976158,,intro_0,1059223,,,,,,,,instruct,,,32,,,,,,,,,,,,,,,,,,,,,,
2499.600000023842,,directmemory_phase3,1061723,,,,,,,,object_10b.png,,,51,,,1,,object_08c.png,object_12c.png,object_02a.png,object_02a.png,,0.5901639344262295,1,,,,,,,,,,,
3049.5,,directmemory_phase3,1064774,,,,,,,,object_07a.png,,,51,,,0,,object_09b.png,object_07c.png,object_06a.png,object_07c.png,,0.5806451612903226,0,,,,,,,,,,,
4355.699999988079,,directmemory_phase3,1069131,,,,,,,,object_15b.png,,,49,,,0,,object_09a.png,object_08c.png,object_12c.png,object_08c.png,,0.5714285714285714,0,,,,,,,,,,,
1972.199999988079,,directmemory_phase3,1071104,,,,,,,,object_15a.png,,,50,,,1,,object_14b.png,object_09c.png,object_05c.png,object_09c.png,,0.578125,1,,,,,,,,,,,
1965.8999999761581,,directmemory_phase3,1073073,,,,,,,,object_09a.png,,,50,,,1,,object_05b.png,object_05a.png,object_04b.png,object_05a.png,,0.5846153846153846,1,,,,,,,,,,,
8802.5,,directmemory_phase3,1081877,,,,,,,,object_14c.png,,,49,,,0,,object_05a.png,object_05c.png,object_15c.png,object_05c.png,,0.5757575757575758,0,,,,,,,,,,,
6002,,directmemory_phase3,1087880,,,,,,,,object_11a.png,,,49,,,0,,object_03c.png,object_07b.png,object_11b.png,object_07b.png,,0.5671641791044776,0,,,,,,,,,,,
1656.800000011921,,directmemory_phase3,1089538,,,,,,,,object_12b.png,,,50,,,1,,object_14a.png,object_14c.png,object_08a.png,object_14c.png,,0.5735294117647058,1,,,,,,,,,,,
1974.199999988079,,directmemory_phase3,1091513,,,,,,,,object_11b.png,,,50,,,1,,object_07c.png,object_09b.png,object_11c.png,object_09b.png,,0.5797101449275363,1,,,,,,,,,,,
5836.599999964237,,directmemory_phase3,1097351,,,,,,,,object_10a.png,,,49,,,0,,object_14a.png,object_09a.png,object_11b.png,object_09a.png,,0.5714285714285714,0,,,,,,,,,,,
3063.300000011921,,directmemory_phase3,1100417,,,,,,,,object_01c.png,,,51,,,1,,object_07a.png,object_08a.png,object_12c.png,object_12c.png,,0.5774647887323944,1,,,,,,,,,,,
5174.699999988079,,directmemory_phase3,1105594,,,,,,,,object_01a.png,,,51,,,0,,object_11b.png,object_08c.png,object_08a.png,object_11b.png,,0.5694444444444444,0,,,,,,,,,,,
1664.7000000476837,,directmemory_phase3,1107260,,,,,,,,object_04a.png,,,51,,,1,,object_07b.png,object_15a.png,object_08a.png,object_08a.png,,0.5753424657534246,1,,,,,,,,,,,
2702.400000035763,,directmemory_phase3,1109963,,,,,,,,object_12a.png,,,49,,,1,,object_03c.png,object_14a.png,object_08b.png,object_03c.png,,0.581081081081081,1,,,,,,,,,,,
1735.8999999761581,,directmemory_phase3,1111701,,,,,,,,object_12c.png,,,50,,,1,,object_13b.png,object_13a.png,object_05b.png,object_13a.png,,0.5866666666666667,1,,,,,,,,,,,
4166.5,,directmemory_phase3,1115869,,,,,,,,object_07b.png,,,51,,,0,,object_09c.png,object_13b.png,object_09b.png,object_13b.png,,0.5789473684210527,0,,,,,,,,,,,
4298.5,,directmemory_phase3,1120169,,,,,,,,object_14a.png,,,50,,,1,,object_13b.png,object_14b.png,object_06a.png,object_14b.png,,0.5844155844155844,1,,,,,,,,,,,
5184.399999976158,,directmemory_phase3,1125354,,,,,,,,object_08c.png,,,51,,,1,,object_04b.png,object_15c.png,object_06a.png,object_06a.png,,0.5897435897435898,1,,,,,,,,,,,
2717.300000011921,,directmemory_phase3,1128073,,,,,,,,object_06c.png,,,50,,,0,,object_09a.png,object_14c.png,object_06b.png,object_06b.png,,0.5822784810126582,0,,,,,,,,,,,
5344.199999988079,,directmemory_phase3,1133419,,,,,,,,object_03a.png,,,51,,,1,,object_07b.png,object_12c.png,object_15a.png,object_15a.png,,0.5875,1,,,,,,,,,,,
1186.9000000357628,,directmemory_phase3,1134608,,,,,,,,object_02c.png,,,49,,,1,,object_07a.png,object_15a.png,object_01b.png,object_07a.png,,0.5925925925925926,1,,,,,,,,,,,
1622.300000011921,,directmemory_phase3,1136231,,,,,,,,object_08b.png,,,50,,,1,,object_05a.png,object_04b.png,object_05b.png,object_04b.png,,0.5975609756097561,1,,,,,,,,,,,
2982.699999988079,,directmemory_phase3,1139215,,,,,,,,object_04c.png,,,50,,,1,,object_01b.png,object_14a.png,object_08a.png,object_14a.png,,0.6024096385542169,1,,,,,,,,,,,
2323.800000011921,,directmemory_phase3,1141540,,,,,,,,object_06b.png,,,49,,,0,,object_05b.png,object_11c.png,object_05c.png,object_11c.png,,0.5952380952380952,0,,,,,,,,,,,
2697.400000035763,,directmemory_phase3,1144239,,,,,,,,object_08a.png,,,49,,,1,,object_05b.png,object_09c.png,object_15c.png,object_05b.png,,0.6,1,,,,,,,,,,,
3179.300000011921,,directmemory_phase3,1147419,,,,,,,,object_03c.png,,,49,,,1,,object_15c.png,object_09b.png,object_05a.png,object_15c.png,,0.6046511627906976,1,,,,,,,,,,,
4823.599999964237,,directmemory_phase3,1152244,,,,,,,,object_02a.png,,,50,,,1,,object_11c.png,object_02b.png,object_09c.png,object_02b.png,,0.6091954022988506,1,,,,,,,,,,,
2758.2000000476837,,directmemory_phase3,1155003,,,,,,,,object_10c.png,,,49,,,0,,object_08c.png,object_07b.png,object_01b.png,object_01b.png,,0.6022727272727273,0,,,,,,,,,,,
2066.400000035763,,directmemory_phase3,1157071,,,,,,,,object_01b.png,,,50,,,1,,object_07c.png,object_13c.png,object_09b.png,object_13c.png,,0.6067415730337079,1,,,,,,,,,,,
1451.5,,directmemory_phase3,1158523,,,,,,,,object_03b.png,,,49,,,1,,object_08b.png,object_07b.png,object_09a.png,object_08b.png,,0.6111111111111112,1,,,,,,,,,,,
null,,thebreak,1158625,,,,,,,,<p></p>,,,null,,,,,,,,,,,,,,,,,,,,,,
1672.199999988079,,intro_0,1160298,,,,,,,,instruct,,,32,,,,,,,,,,,,,,,,,,,,,,
null,,learn_phase(without_color)4,1163799,,,,,,,,black_plus_sign,,,null,object_11b.png,object_01a.png,,,,,,,,,,,,,,,,,,,,
null,,black_cross(without_color)4,1164896,,,,,,,,green,,,null,object_11b.png,object_01a.png,,,,,,,,,,,,,,,,,,,,
null,,rt_plussign_withcolor4,1165398,,,,,,,,green,,,null,object_11b.png,object_01a.png,,,,,,,,,,,,,,,,,,,,
null,,rt_thecrossant_black4,1166304,,,,,,,,black_plus_sign,,,null,,,,,,,,,,NaN,,,,,,,,,,,,
null,,color_black4,1166406,,,,,,,,black_plus_sign,,,null,,,,,,,,,,,,,,,,,,,,,,
null,,learn_phase(without_color)4,1169910,,,,,,,,black_plus_sign,,,null,object_14c.png,object_12b.png,,,,,,,,,,,,,,,,,,,,
null,,black_cross(without_color)4,1170490,,,,,,,,blue,,,null,object_14c.png,object_12b.png,,,,,,,,,,,,,,,,,,,,
null,,rt_plussign_withcolor4,1170992,,,,,,,,blue,,,null,object_14c.png,object_12b.png,,,,,,,,,,,,,,,,,,,,
2082.300000011921,,rt_thecrossant_black4,1172417,,,,,,,,black_plus_sign,,,49,,,1,,,,,,,1,,,,,,,,,,,,
null,,color_black4,1172519,,,,,,,,black_plus_sign,,,null,,,,,,,,,,,,,,,,,,,,,,
null,,learn_phase(without_color)4,1176021,,,,,,,,black_plus_sign,,,null,object_11c.png,object_06b.png,,,,,,,,,,,,,,,,,,,,
null,,black_cross(without_color)4,1176459,,,,,,,,blue,,,null,object_11c.png,object_06b.png,,,,,,,,,,,,,,,,,,,,
null,,rt_plussign_withcolor4,1176961,,,,,,,,blue,,,null,object_11c.png,object_06b.png,,,,,,,,,,,,,,,,,,,,
1059.7999999523163,,rt_thecrossant_black4,1178528,,,,,,,,black_plus_sign,,,49,,,1,,,,,,,1,,,,,,,,,,,,
null,,color_black4,1178630,,,,,,,,black_plus_sign,,,null,,,,,,,,,,,,,,,,,,,,,,
null,,learn_phase(without_color)4,1182132,,,,,,,,black_plus_sign,,,null,object_15c.png,object_03c.png,,,,,,,,,,,,,,,,,,,,
null,,black_cross(without_color)4,1182725,,,,,,,,blue,,,null,object_15c.png,object_03c.png,,,,,,,,,,,,,,,,,,,,
null,,rt_plussign_withcolor4,1183226,,,,,,,,blue,,,null,object_15c.png,object_03c.png,,,,,,,,,,,,,,,,,,,,
826.8000000119209,,rt_thecrossant_black4,1184637,,,,,,,,black_plus_sign,,,49,,,1,,,,,,,1,,,,,,,,,,,,
null,,color_black4,1184739,,,,,,,,black_plus_sign,,,null,,,,,,,,,,,,,,,,,,,,,,
null,,learn_phase(without_color)4,1188242,,,,,,,,black_plus_sign,,,null,object_09b.png,object_11b.png,,,,,,,,,,,,,,,,,,,,
null,,black_cross(without_color)4,1189041,,,,,,,,blue,,,null,object_09b.png,object_11b.png,,,,,,,,,,,,,,,,,,,,
null,,rt_plussign_withcolor4,1189542,,,,,,,,blue,,,null,object_09b.png,object_11b.png,,,,,,,,,,,,,,,,,,,,
1097.1000000238419,,rt_thecrossant_black4,1190751,,,,,,,,black_plus_sign,,,49,,,1,,,,,,,1,,,,,,,,,,,,
null,,color_black4,1190853,,,,,,,,black_plus_sign,,,null,,,,,,,,,,,,,,,,,,,,,,
null,,learn_phase(without_color)4,1194354,,,,,,,,black_plus_sign,,,null,object_06b.png,object_06c.png,,,,,,,,,,,,,,,,,,,,
null,,black_cross(without_color)4,1195370,,,,,,,,green,,,null,object_06b.png,object_06c.png,,,,,,,,,,,,,,,,,,,,
null,,rt_plussign_withcolor4,1195872,,,,,,,,green,,,null,object_06b.png,object_06c.png,,,,,,,,,,,,,,,,,,,,
903.8000000119209,,rt_thecrossant_black4,1196863,,,,,,,,black_plus_sign,,,50,,,1,,,,,,,1,,,,,,,,,,,,
null,,color_black4,1196965,,,,,,,,black_plus_sign,,,null,,,,,,,,,,,,,,,,,,,,,,
null,,learn_phase(without_color)4,1200468,,,,,,,,black_plus_sign,,,null,object_15a.png,object_03a.png,,,,,,,,,,,,,,,,,,,,
null,,black_cross(without_color)4,1200915,,,,,,,,green,,,null,object_15a.png,object_03a.png,,,,,,,,,,,,,,,,,,,,
null,,rt_plussign_withcolor4,1201417,,,,,,,,green,,,null,object_15a.png,object_03a.png,,,,,,,,,,,,,,,,,,,,
1165.800000011921,,rt_thecrossant_black4,1202975,,,,,,,,black_plus_sign,,,50,,,1,,,,,,,1,,,,,,,,,,,,
null,,color_black4,1203078,,,,,,,,black_plus_sign,,,null,,,,,,,,,,,,,,,,,,,,,,
null,,learn_phase(without_color)4,1206580,,,,,,,,black_plus_sign,,,null,object_14a.png,object_04c.png,,,,,,,,,,,,,,,,,,,,
null,,black_cross(without_color)4,1207630,,,,,,,,blue,,,null,object_14a.png,object_04c.png,,,,,,,,,,,,,,,,,,,,
null,,rt_plussign_withcolor4,1208132,,,,,,,,blue,,,null,object_14a.png,object_04c.png,,,,,,,,,,,,,,,,,,,,
650.5,,rt_thecrossant_black4,1209086,,,,,,,,black_plus_sign,,,49,,,1,,,,,,,1,,,,,,,,,,,,
null,,color_black4,1209188,,,,,,,,black_plus_sign,,,null,,,,,,,,,,,,,,,,,,,,,,
null,,learn_phase(without_color)4,1212691,,,,,,,,black_plus_sign,,,null,object_13b.png,object_07b.png,,,,,,,,,,,,,,,,,,,,
null,,black_cross(without_color)4,1213301,,,,,,,,blue,,,null,object_13b.png,object_07b.png,,,,,,,,,,,,,,,,,,,,
null,,rt_plussign_withcolor4,1213803,,,,,,,,blue,,,null,object_13b.png,object_07b.png,,,,,,,,,,,,,,,,,,,,
1433.7999999523163,,rt_thecrossant_black4,1215197,,,,,,,,black_plus_sign,,,49,,,1,,,,,,,1,,,,,,,,,,,,
null,,color_black4,1215299,,,,,,,,black_plus_sign,,,null,,,,,,,,,,,,,,,,,,,,,,
null,,learn_phase(without_color)4,1218800,,,,,,,,black_plus_sign,,,null,object_13c.png,object_01b.png,,,,,,,,,,,,,,,,,,,,
null,,black_cross(without_color)4,1219618,,,,,,,,green,,,null,object_13c.png,object_01b.png,,,,,,,,,,,,,,,,,,,,
null,,rt_plussign_withcolor4,1220120,,,,,,,,green,,,null,object_13c.png,object_01b.png,,,,,,,,,,,,,,,,,,,,
965.5,,rt_thecrossant_black4,1221308,,,,,,,,black_plus_sign,,,50,,,1,,,,,,,1,,,,,,,,,,,,
null,,color_black4,1221411,,,,,,,,black_plus_sign,,,null,,,,,,,,,,,,,,,,,,,,,,
null,,learn_phase(without_color)4,1224915,,,,,,,,black_plus_sign,,,null,object_07c.png,object_07a.png,,,,,,,,,,,,,,,,,,,,
null,,black_cross(without_color)4,1225677,,,,,,,,green,,,null,object_07c.png,object_07a.png,,,,,,,,,,,,,,,,,,,,
null,,rt_plussign_withcolor4,1226179,,,,,,,,green,,,null,object_07c.png,object_07a.png,,,,,,,,,,,,,,,,,,,,
1106.0999999642372,,rt_thecrossant_black4,1227422,,,,,,,,black_plus_sign,,,50,,,1,,,,,,,1,,,,,,,,,,,,
null,,color_black4,1227525,,,,,,,,black_plus_sign,,,null,,,,,,,,,,,,,,,,,,,,,,
null,,learn_phase(without_color)4,1231027,,,,,,,,black_plus_sign,,,null,object_07a.png,object_02c.png,,,,,,,,,,,,,,,,,,,,
null,,black_cross(without_color)4,1231840,,,,,,,,green,,,null,object_07a.png,object_02c.png,,,,,,,,,,,,,,,,,,,,
496.69999998807907,,rt_plussign_withcolor4,1232342,,,,,,,,green,,,50,object_07a.png,object_02c.png,,,,,,,,,,,,,,,,,,,,
null,,rt_thecrossant_black4,1233534,,,,,,,,black_plus_sign,,,null,,,1,,,,,,,1,,,,,,,,,,,,
null,,color_black4,1233635,,,,,,,,black_plus_sign,,,null,,,,,,,,,,,,,,,,,,,,,,
null,,learn_phase(without_color)4,1237137,,,,,,,,black_plus_sign,,,null,object_14b.png,object_14a.png,,,,,,,,,,,,,,,,,,,,
null,,black_cross(without_color)4,1237982,,,,,,,,green,,,null,object_14b.png,object_14a.png,,,,,,,,,,,,,,,,,,,,
null,,rt_plussign_withcolor4,1238484,,,,,,,,green,,,null,object_14b.png,object_14a.png,,,,,,,,,,,,,,,,,,,,
1208.5,,rt_thecrossant_black4,1239642,,,,,,,,black_plus_sign,,,50,,,1,,,,,,,1,,,,,,,,,,,,
null,,color_black4,1239744,,,,,,,,black_plus_sign,,,null,,,,,,,,,,,,,,,,,,,,,,
null,,learn_phase(without_color)4,1243248,,,,,,,,black_plus_sign,,,null,object_02b.png,object_02a.png,,,,,,,,,,,,,,,,,,,,
null,,black_cross(without_color)4,1243677,,,,,,,,blue,,,null,object_02b.png,object_02a.png,,,,,,,,,,,,,,,,,,,,
null,,rt_plussign_withcolor4,1244182,,,,,,,,blue,,,null,object_02b.png,object_02a.png,,,,,,,,,,,,,,,,,,,,
1555.699999988079,,rt_thecrossant_black4,1245757,,,,,,,,black_plus_sign,,,49,,,1,,,,,,,1,,,,,,,,,,,,
null,,color_black4,1245859,,,,,,,,black_plus_sign,,,null,,,,,,,,,,,,,,,,,,,,,,
null,,learn_phase(without_color)4,1249362,,,,,,,,black_plus_sign,,,null,object_13a.png,object_12c.png,,,,,,,,,,,,,,,,,,,,
null,,black_cross(without_color)4,1250057,,,,,,,,blue,,,null,object_13a.png,object_12c.png,,,,,,,,,,,,,,,,,,,,
null,,rt_plussign_withcolor4,1250560,,,,,,,,blue,,,null,object_13a.png,object_12c.png,,,,,,,,,,,,,,,,,,,,
663.6999999880791,,rt_thecrossant_black4,1251877,,,,,,,,black_plus_sign,,,49,,,1,,,,,,,1,,,,,,,,,,,,
null,,color_black4,1251979,,,,,,,,black_plus_sign,,,null,,,,,,,,,,,,,,,,,,,,,,
null,,learn_phase(without_color)4,1255485,,,,,,,,black_plus_sign,,,null,object_03c.png,object_12a.png,,,,,,,,,,,,,,,,,,,,
null,,black_cross(without_color)4,1255938,,,,,,,,green,,,null,object_03c.png,object_12a.png,,,,,,,,,,,,,,,,,,,,
null,,rt_plussign_withcolor4,1256440,,,,,,,,green,,,null,object_03c.png,object_12a.png,,,,,,,,,,,,,,,,,,,,
1097.5999999642372,,rt_thecrossant_black4,1257995,,,,,,,,black_plus_sign,,,50,,,1,,,,,,,1,,,,,,,,,,,,
null,,color_black4,1258098,,,,,,,,black_plus_sign,,,null,,,,,,,,,,,,,,,,,,,,,,
null,,learn_phase(without_color)4,1261600,,,,,,,,black_plus_sign,,,null,object_08b.png,object_03b.png,,,,,,,,,,,,,,,,,,,,
null,,black_cross(without_color)4,1262329,,,,,,,,blue,,,null,object_08b.png,object_03b.png,,,,,,,,,,,,,,,,,,,,
null,,rt_plussign_withcolor4,1262832,,,,,,,,blue,,,null,object_08b.png,object_03b.png,,,,,,,,,,,,,,,,,,,,
716.6000000238419,,rt_thecrossant_black4,1264109,,,,,,,,black_plus_sign,,,49,,,1,,,,,,,1,,,,,,,,,,,,
null,,color_black4,1264212,,,,,,,,black_plus_sign,,,null,,,,,,,,,,,,,,,,,,,,,,
null,,learn_phase(without_color)4,1267715,,,,,,,,black_plus_sign,,,null,object_06a.png,object_08c.png,,,,,,,,,,,,,,,,,,,,
null,,black_cross(without_color)4,1268409,,,,,,,,green,,,null,object_06a.png,object_08c.png,,,,,,,,,,,,,,,,,,,,
null,,rt_plussign_withcolor4,1268911,,,,,,,,green,,,null,object_06a.png,object_08c.png,,,,,,,,,,,,,,,,,,,,
1061.4000000357628,,rt_thecrossant_black4,1270223,,,,,,,,black_plus_sign,,,50,,,1,,,,,,,1,,,,,,,,,,,,
null,,color_black4,1270324,,,,,,,,black_plus_sign,,,null,,,,,,,,,,,,,,,,,,,,,,
null,,learn_phase(without_color)4,1273826,,,,,,,,black_plus_sign,,,null,object_04b.png,object_08b.png,,,,,,,,,,,,,,,,,,,,
null,,black_cross(without_color)4,1274809,,,,,,,,green,,,null,object_04b.png,object_08b.png,,,,,,,,,,,,,,,,,,,,
null,,rt_plussign_withcolor4,1275310,,,,,,,,green,,,null,object_04b.png,object_08b.png,,,,,,,,,,,,,,,,,,,,
1059.199999988079,,rt_thecrossant_black4,1276332,,,,,,,,black_plus_sign,,,50,,,1,,,,,,,1,,,,,,,,,,,,
null,,color_black4,1276434,,,,,,,,black_plus_sign,,,null,,,,,,,,,,,,,,,,,,,,,,
null,,learn_phase(without_color)4,1279936,,,,,,,,black_plus_sign,,,null,object_05b.png,object_08a.png,,,,,,,,,,,,,,,,,,,,
null,,black_cross(without_color)4,1280912,,,,,,,,blue,,,null,object_05b.png,object_08a.png,,,,,,,,,,,,,,,,,,,,
null,,rt_plussign_withcolor4,1281414,,,,,,,,blue,,,null,object_05b.png,object_08a.png,,,,,,,,,,,,,,,,,,,,
1483.199999988079,,rt_thecrossant_black4,1282441,,,,,,,,black_plus_sign,,,49,,,1,,,,,,,1,,,,,,,,,,,,
null,,color_black4,1282542,,,,,,,,black_plus_sign,,,null,,,,,,,,,,,,,,,,,,,,,,
null,,learn_phase(without_color)4,1286045,,,,,,,,black_plus_sign,,,null,object_09c.png,object_15a.png,,,,,,,,,,,,,,,,,,,,
null,,black_cross(without_color)4,1286938,,,,,,,,blue,,,null,object_09c.png,object_15a.png,,,,,,,,,,,,,,,,,,,,
null,,rt_plussign_withcolor4,1287454,,,,,,,,blue,,,null,object_09c.png,object_15a.png,,,,,,,,,,,,,,,,,,,,
1320.6000000238419,,rt_thecrossant_black4,1288567,,,,,,,,black_plus_sign,,,49,,,1,,,,,,,1,,,,,,,,,,,,
null,,color_black4,1288669,,,,,,,,black_plus_sign,,,null,,,,,,,,,,,,,,,,,,,,,,
null,,learn_phase(without_color)4,1292171,,,,,,,,black_plus_sign,,,null,object_05c.png,object_14c.png,,,,,,,,,,,,,,,,,,,,
null,,black_cross(without_color)4,1293173,,,,,,,,green,,,null,object_05c.png,object_14c.png,,,,,,,,,,,,,,,,,,,,
null,,rt_plussign_withcolor4,1293674,,,,,,,,green,,,null,object_05c.png,object_14c.png,,,,,,,,,,,,,,,,,,,,
1324.5,,rt_thecrossant_black4,1294680,,,,,,,,black_plus_sign,,,50,,,1,,,,,,,1,,,,,,,,,,,,
null,,color_black4,1294783,,,,,,,,black_plus_sign,,,null,,,,,,,,,,,,,,,,,,,,,,
null,,learn_phase(without_color)4,1298285,,,,,,,,black_plus_sign,,,null,object_01b.png,object_10c.png,,,,,,,,,,,,,,,,,,,,
null,,black_cross(without_color)4,1298798,,,,,,,,green,,,null,object_01b.png,object_10c.png,,,,,,,,,,,,,,,,,,,,
null,,rt_plussign_withcolor4,1299300,,,,,,,,green,,,null,object_01b.png,object_10c.png,,,,,,,,,,,,,,,,,,,,
1339.8999999761581,,rt_thecrossant_black4,1300791,,,,,,,,black_plus_sign,,,50,,,1,,,,,,,1,,,,,,,,,,,,
null,,color_black4,1300893,,,,,,,,black_plus_sign,,,null,,,,,,,,,,,,,,,,,,,,,,
null,,learn_phase(without_color)4,1304395,,,,,,,,black_plus_sign,,,null,object_12c.png,object_01c.png,,,,,,,,,,,,,,,,,,,,
null,,black_cross(without_color)4,1305239,,,,,,,,blue,,,null,object_12c.png,object_01c.png,,,,,,,,,,,,,,,,,,,,
null,,rt_plussign_withcolor4,1305740,,,,,,,,blue,,,null,object_12c.png,object_01c.png,,,,,,,,,,,,,,,,,,,,
766.3999999761581,,rt_thecrossant_black4,1306900,,,,,,,,black_plus_sign,,,49,,,1,,,,,,,1,,,,,,,,,,,,
null,,color_black4,1307008,,,,,,,,black_plus_sign,,,null,,,,,,,,,,,,,,,,,,,,,,
null,,learn_phase(without_color)4,1310510,,,,,,,,black_plus_sign,,,null,object_08c.png,object_15b.png,,,,,,,,,,,,,,,,,,,,
null,,black_cross(without_color)4,1310992,,,,,,,,green,,,null,object_08c.png,object_15b.png,,,,,,,,,,,,,,,,,,,,
null,,rt_plussign_withcolor4,1311494,,,,,,,,green,,,null,object_08c.png,object_15b.png,,,,,,,,,,,,,,,,,,,,
1155.199999988079,,rt_thecrossant_black4,1313016,,,,,,,,black_plus_sign,,,50,,,1,,,,,,,1,,,,,,,,,,,,
null,,color_black4,1313117,,,,,,,,black_plus_sign,,,null,,,,,,,,,,,,,,,,,,,,,,
null,,learn_phase(without_color)4,1316620,,,,,,,,black_plus_sign,,,null,object_07b.png,object_11a.png,,,,,,,,,,,,,,,,,,,,
null,,black_cross(without_color)4,1317483,,,,,,,,blue,,,null,object_07b.png,object_11a.png,,,,,,,,,,,,,,,,,,,,
null,,rt_plussign_withcolor4,1317984,,,,,,,,blue,,,null,object_07b.png,object_11a.png,,,,,,,,,,,,,,,,,,,,
747.3999999761581,,rt_thecrossant_black4,1319126,,,,,,,,black_plus_sign,,,49,,,1,,,,,,,1,,,,,,,,,,,,
null,,color_black4,1319228,,,,,,,,black_plus_sign,,,null,,,,,,,,,,,,,,,,,,,,,,
null,,learn_phase(without_color)4,1322731,,,,,,,,black_plus_sign,,,null,object_08a.png,object_04a.png,,,,,,,,,,,,,,,,,,,,
null,,black_cross(without_color)4,1323182,,,,,,,,blue,,,null,object_08a.png,object_04a.png,,,,,,,,,,,,,,,,,,,,
null,,rt_plussign_withcolor4,1323683,,,,,,,,blue,,,null,object_08a.png,object_04a.png,,,,,,,,,,,,,,,,,,,,
1449.3999999761581,,rt_thecrossant_black4,1325236,,,,,,,,black_plus_sign,,,50,,,0,,,,,,,0.9615384615384616,,,,,,,,,,,,
null,,color_black4,1325339,,,,,,,,black_plus_sign,,,null,,,,,,,,,,,,,,,,,,,,,,
null,,learn_phase(without_color)4,1328843,,,,,,,,black_plus_sign,,,null,object_09a.png,object_10a.png,,,,,,,,,,,,,,,,,,,,
null,,black_cross(without_color)4,1329771,,,,,,,,green,,,null,object_09a.png,object_10a.png,,,,,,,,,,,,,,,,,,,,
null,,rt_plussign_withcolor4,1330272,,,,,,,,green,,,null,object_09a.png,object_10a.png,,,,,,,,,,,,,,,,,,,,
1235.300000011921,,rt_thecrossant_black4,1331348,,,,,,,,black_plus_sign,,,49,,,0,,,,,,,0.9259259259259259,,,,,,,,,,,,
null,,warning_page,1336350,,,,,,,,warning,,,null,,,,,,,,,,,,,,,,,,,,,,
null,,color_black4,1336453,,,,,,,,black_plus_sign,,,null,,,,,,,,,,,,,,,,,,,,,,
null,,learn_phase(without_color)4,1339954,,,,,,,,black_plus_sign,,,null,object_02a.png,object_10b.png,,,,,,,,,,,,,,,,,,,,
null,,black_cross(without_color)4,1340945,,,,,,,,blue,,,null,object_02a.png,object_10b.png,,,,,,,,,,,,,,,,,,,,
null,,rt_plussign_withcolor4,1341448,,,,,,,,blue,,,null,object_02a.png,object_10b.png,,,,,,,,,,,,,,,,,,,,
1615.1000000238419,,rt_thecrossant_black4,1342460,,,,,,,,black_plus_sign,,,50,,,0,,,,,,,0.8928571428571429,,,,,,,,,,,,
null,,warning_page,1347462,,,,,,,,warning,,,null,,,,,,,,,,,,,,,,,,,,,,
null,,color_black4,1347565,,,,,,,,black_plus_sign,,,null,,,,,,,,,,,,,,,,,,,,,,
null,,learn_phase(without_color)4,1351067,,,,,,,,black_plus_sign,,,null,object_05a.png,object_09a.png,,,,,,,,,,,,,,,,,,,,
null,,black_cross(without_color)4,1351710,,,,,,,,blue,,,null,object_05a.png,object_09a.png,,,,,,,,,,,,,,,,,,,,
445.10000002384186,,rt_plussign_withcolor4,1352211,,,,,,,,blue,,,49,object_05a.png,object_09a.png,,,,,,,,,,,,,,,,,,,,
null,,rt_thecrossant_black4,1353572,,,,,,,,black_plus_sign,,,null,,,1,,,,,,,0.896551724137931,,,,,,,,,,,,
null,,color_black4,1353675,,,,,,,,black_plus_sign,,,null,,,,,,,,,,,,,,,,,,,,,,
null,,thebreak,1353776,,,,,,,,<p></p>,,,null,,,,,,,,,,,,,,,,,,,,,,
1482.300000011921,,intro_0,1355260,,,,,,,,instruct,,,32,,,,,,,,,,,,,,,,,,,,,,
2094.600000023842,,directmemory_phase4,1357355,,,,,,,,object_01c.png,,,49,,,1,,object_12c.png,object_15a.png,object_14c.png,object_12c.png,,0.6153846153846154,1,,,,,,,,,,,
2212.800000011921,,directmemory_phase4,1359569,,,,,,,,object_12b.png,,,49,,,1,,object_14c.png,object_14a.png,object_12c.png,object_14c.png,,0.6195652173913043,1,,,,,,,,,,,
1487.300000011921,,directmemory_phase4,1361057,,,,,,,,object_11b.png,,,50,,,1,,object_05b.png,object_09b.png,object_14b.png,object_09b.png,,0.6236559139784946,1,,,,,,,,,,,
1332.9000000357628,,directmemory_phase4,1362392,,,,,,,,object_03b.png,,,51,,,1,,object_01b.png,object_14c.png,object_08b.png,object_08b.png,,0.6276595744680851,1,,,,,,,,,,,
1901.800000011921,,directmemory_phase4,1364295,,,,,,,,object_01a.png,,,50,,,1,,object_06b.png,object_11b.png,object_07b.png,object_11b.png,,0.631578947368421,1,,,,,,,,,,,
1520.9000000357628,,directmemory_phase4,1365817,,,,,,,,object_12c.png,,,51,,,1,,object_04b.png,object_13c.png,object_13a.png,object_13a.png,,0.6354166666666666,1,,,,,,,,,,,
2117.400000035763,,directmemory_phase4,1367936,,,,,,,,object_12a.png,,,49,,,0,,object_08b.png,object_11b.png,object_03c.png,object_03c.png,,0.6288659793814433,0,,,,,,,,,,,
3289,,directmemory_phase4,1371226,,,,,,,,object_07b.png,,,49,,,1,,object_13b.png,object_09c.png,object_05c.png,object_13b.png,,0.6326530612244898,1,,,,,,,,,,,
1283.199999988079,,directmemory_phase4,1372510,,,,,,,,object_02c.png,,,50,,,1,,object_08a.png,object_07a.png,object_12c.png,object_07a.png,,0.6363636363636364,1,,,,,,,,,,,
2110.100000023842,,directmemory_phase4,1374622,,,,,,,,object_15a.png,,,49,,,1,,object_09c.png,object_13a.png,object_14b.png,object_09c.png,,0.64,1,,,,,,,,,,,
1961.1000000238419,,directmemory_phase4,1376585,,,,,,,,object_15b.png,,,49,,,1,,object_08c.png,object_08a.png,object_06b.png,object_08c.png,,0.6435643564356436,1,,,,,,,,,,,
2871.899999976158,,directmemory_phase4,1379458,,,,,,,,object_03a.png,,,49,,,1,,object_15a.png,object_01b.png,object_14c.png,object_15a.png,,0.6470588235294118,1,,,,,,,,,,,
4370,,directmemory_phase4,1383829,,,,,,,,object_10c.png,,,50,,,1,,object_08a.png,object_01b.png,object_07a.png,object_01b.png,,0.6504854368932039,1,,,,,,,,,,,
2544.2000000476837,,directmemory_phase4,1386375,,,,,,,,object_04a.png,,,49,,,1,,object_08a.png,object_09a.png,object_03c.png,object_08a.png,,0.6538461538461539,1,,,,,,,,,,,
3610.899999976158,,directmemory_phase4,1389987,,,,,,,,object_14c.png,,,51,,,1,,object_13a.png,object_14b.png,object_05c.png,object_05c.png,,0.6571428571428571,1,,,,,,,,,,,
2953.199999988079,,directmemory_phase4,1392942,,,,,,,,object_11a.png,,,50,,,0,,object_07b.png,object_08c.png,object_15a.png,object_07b.png,,0.6509433962264151,0,,,,,,,,,,,
3836.5,,directmemory_phase4,1396779,,,,,,,,object_10a.png,,,49,,,0,,object_01b.png,object_08c.png,object_09a.png,object_09a.png,,0.6448598130841121,0,,,,,,,,,,,
2992.899999976158,,directmemory_phase4,1399774,,,,,,,,object_02a.png,,,49,,,1,,object_02b.png,object_05b.png,object_15c.png,object_02b.png,,0.6481481481481481,1,,,,,,,,,,,
2860.800000011921,,directmemory_phase4,1402636,,,,,,,,object_07a.png,,,51,,,1,,object_05c.png,object_13a.png,object_07c.png,object_07c.png,,0.6513761467889908,1,,,,,,,,,,,
2768.399999976158,,directmemory_phase4,1405407,,,,,,,,object_04c.png,,,50,,,1,,object_14c.png,object_14a.png,object_09a.png,object_14a.png,,0.6545454545454545,1,,,,,,,,,,,
2109.699999988079,,directmemory_phase4,1407518,,,,,,,,object_08a.png,,,51,,,1,,object_15c.png,object_05c.png,object_05b.png,object_05b.png,,0.6576576576576577,1,,,,,,,,,,,
3728.100000023842,,directmemory_phase4,1411247,,,,,,,,object_08c.png,,,50,,,0,,object_14b.png,object_15c.png,object_06a.png,object_06a.png,,0.6517857142857143,0,,,,,,,,,,,
1884.6000000238419,,directmemory_phase4,1413133,,,,,,,,object_06b.png,,,50,,,1,,object_09b.png,object_11c.png,object_05c.png,object_11c.png,,0.6548672566371682,1,,,,,,,,,,,
2302.699999988079,,directmemory_phase4,1415437,,,,,,,,object_01b.png,,,51,,,1,,object_07c.png,object_13b.png,object_13c.png,object_13c.png,,0.6578947368421053,1,,,,,,,,,,,
3720.600000023842,,directmemory_phase4,1419159,,,,,,,,object_10b.png,,,50,,,1,,object_03c.png,object_02a.png,object_08b.png,object_02a.png,,0.6608695652173913,1,,,,,,,,,,,
5269.099999964237,,directmemory_phase4,1424429,,,,,,,,object_03c.png,,,51,,,0,,object_15c.png,object_07c.png,object_13b.png,object_15c.png,,0.6551724137931034,0,,,,,,,,,,,
1784.0999999642372,,directmemory_phase4,1426214,,,,,,,,object_09a.png,,,50,,,1,,object_13c.png,object_05a.png,object_09b.png,object_05a.png,,0.6581196581196581,1,,,,,,,,,,,
3815.199999988079,,directmemory_phase4,1430031,,,,,,,,object_14a.png,,,50,,,1,,object_15c.png,object_14b.png,object_05c.png,object_14b.png,,0.6610169491525424,1,,,,,,,,,,,
2264.100000023842,,directmemory_phase4,1432297,,,,,,,,object_08b.png,,,51,,,1,,object_13b.png,object_11c.png,object_04b.png,object_04b.png,,0.6638655462184874,1,,,,,,,,,,,
2868.099999964237,,directmemory_phase4,1435166,,,,,,,,object_06c.png,,,50,,,1,,object_08c.png,object_06b.png,object_11b.png,object_06b.png,,0.6666666666666666,1,,,,,,,,,,,
null,,thebreak,1435269,,,,,,,,<p></p>,,,null,,,,,,,,,,,,,,,,,,,,,,
3112.300000011921,,intro_0,1438383,,,,,,,,instruct,,,32,,,,,,,,,,,,,,,,,,,,,,
38006.30000001192,,intro_1,1476390,,,,,,,,instruct,,,32,,,,,,,,,,,,,,,,,,,,,,
7323.699999988079,,intro_2,1483714,,,,,,,,instruct,,,32,,,,,,,,,,,,,,,,,,,,,,
,,intro_3,1531936,,,,,,,,instruct,,,,,,,,,,,,,,,,,,,,,,,,,
6619.899999976158,,intro_4,1538558,,,,,,,,instruct,,,32,,,,,,,,,,,,,,,,,,,,,,
null,,thebreak,1538660,,,,,,,,<p></p>,,,null,,,,,,,,,,,,,,,,,,,,,,
2110.699999988079,,intro_0,1540772,,,,,,,,instruct,,,32,,,,,,,,,,,,,,,,,,,,,,
10798.899999976158,,intro_1,1551571,,,,,,,,instruct,,,32,,,,,,,,,,,,,,,,,,,,,,
4020.399999976158,,intro_2,1555592,,,,,,,,instruct,,,32,,,,,,,,,,,,,,,,,,,,,,
,,intro_3,1563053,,,,,,,,instruct,,,,,,,,,,,,,,,,,,,,,,,,,
2301.100000023842,,intro_4,1565355,,,,,,,,instruct,,,32,,,,,,,,,,,,,,,,,,,,,,
6069.299999952316,,inference_phase,1571425,,,,,,,,object_11a.png,,,51,object_07c.png,object_13b.png,1,,,,,object_13b.png,,1,,object_04b.png,,,,,,,,,,
4337.900000035763,,inference_phase,1575765,,,,,,,,object_10b.png,,,51,object_05a.png,object_02b.png,1,,,,,object_02b.png,,1,,object_07c.png,,,,,,,,,,
4685.200000047684,,inference_phase,1580452,,,,,,,,object_15b.png,,,51,object_13a.png,object_05a.png,0,,,,,object_06a.png,,0.6666666666666666,,object_06a.png,,,,,,,,,,
2899.5,,inference_phase,1583353,,,,,,,,object_03b.png,,,50,object_04b.png,object_05a.png,0,,,,,object_04b.png,,0.5,,object_05b.png,,,,,,,,,,
4632.5,,inference_phase,1587987,,,,,,,,object_01a.png,,,50,object_05c.png,object_09b.png,0,,,,,object_09b.png,,0.4,,object_09c.png,,,,,,,,,,
1955.4000000357628,,inference_phase,1589944,,,,,,,,object_12b.png,,,50,object_05c.png,object_13a.png,0,,,,,object_05c.png,,0.3333333333333333,,object_09c.png,,,,,,,,,,
3528.5,,inference_phase,1593475,,,,,,,,object_06c.png,,,50,object_13c.png,object_11c.png,0,,,,,object_11c.png,,0.2857142857142857,,object_14b.png,,,,,,,,,,
5062.900000035763,,inference_phase,1598539,,,,,,,,object_01c.png,,,50,object_05a.png,object_07c.png,1,,,,,object_13a.png,,0.375,,object_13a.png,,,,,,,,,,
2837.199999988079,,inference_phase,1601377,,,,,,,,object_10a.png,,,49,object_05a.png,object_07c.png,1,,,,,object_05a.png,,0.4444444444444444,,object_13a.png,,,,,,,,,,
5084.5,,inference_phase,1606464,,,,,,,,object_03a.png,,,50,object_09c.png,object_06a.png,0,,,,,object_09c.png,,0.4,,object_13a.png,,,,,,,,,,
3574.399999976158,,inference_phase,1610039,,,,,,,,object_04c.png,,,51,object_14b.png,object_13c.png,0,,,,,object_14b.png,,0.36363636363636365,,object_06a.png,,,,,,,,,,
4460.600000023842,,inference_phase,1614501,,,,,,,,object_02c.png,,,51,object_05b.png,object_07c.png,1,,,,,object_07c.png,,0.4166666666666667,,object_11c.png,,,,,,,,,,
2084.900000035763,,inference_phase,1616587,,,,,,,,object_12a.png,,,49,object_05a.png,object_09b.png,0,,,,,object_15c.png,,0.38461538461538464,,object_15c.png,,,,,,,,,,
4459,,inference_phase,1621047,,,,,,,,object_10c.png,,,51,object_13c.png,object_05c.png,0,,,,,object_13c.png,,0.35714285714285715,,object_09b.png,,,,,,,,,,
2524.300000011921,,inference_phase,1623573,,,,,,,,object_04a.png,,,51,object_04b.png,object_14b.png,0,,,,,object_05b.png,,0.3333333333333333,,object_05b.png,,,,,,,,,,
,,survey,1736557,,,,,,,,survey-questions,,,,,,,,,,,,,,,,none,high,no,I tried to remember color pairimgs and shape pairings,It just got easier after I remembered some pairings,no,no,,,
3845.100000023842,,thank_you,1740442,,,,,,,,<p> Congratulations, you are all done!</p><p> <strong>Please click space on your keyboard to end the experiment!</strong> The secret code to enter at the beginning screen is: <strong>CIMBPENS</strong></p><p> Please make sure to submit the HIT and email uciccnl@gmail.com if you had any issues! </p><br><p>Please remember to submit this data by clicking space after copying the code. Failure of submission will lead to in-complete payment</p>,,,32,,,,,,,,,,,,,,,,,,,,6,0,C78LSMTN
