rt,responses,trial_type,time_elapsed,identifier_a,identifier_b,identifier_c,tasktype,browser_type,local_time,UTC_time,stimulus,button_pressed,response,key_press,stimulus_left,stimulus_right,practice_cumulative_accuracy,accuracy,stimulus_down_left,stimulus_down_mid,stimulus_down_right,stimulus_correct,prac_weighted_accuracy,cumulative_accuracy,failed_practice,weighted_accuracy,stimulus_middle,problems,smooth,distraction,strategies,easier,similar,comments,detectfocus,breakfocus,completion_code
11159.599999999627,{worker_id:6151e479b4ee16668948c7f2},id_enter,11162,object_11a.png; object_12c.png; object_05b.png; object_06b.png; object_14a.png; object_11c.png; object_03b.png; object_04a.png; object_02b.png; object_01b.png; object_05a.png; object_01c.png; object_06c.png; object_07b.png; object_07a.png,object_09a.png; object_10b.png; object_06a.png; object_05c.png; object_12a.png; object_04c.png; object_12b.png; object_08b.png; object_15b.png; object_14b.png; object_10c.png; object_03a.png; object_13c.png; object_09c.png; object_09b.png,object_11b.png; object_02c.png; object_13b.png; object_01a.png; object_14c.png; object_02a.png; object_07c.png; object_13a.png; object_15a.png; object_15c.png; object_03c.png; object_08c.png; object_08a.png; object_04b.png; object_10a.png,interleaved,Mozilla/5.0 (Macintosh; Intel Mac OS X 10_15_7) AppleWebKit/537.36 (KHTML, like Gecko) Chrome/135.0.0.0 Safari/537.36,5/8/2025, 1:32:17 PM,2025-05-08 20:32:17.539,,,,,,,,,,,,,,,,,,,,,,,,,,,
90426.59999999963,,make_fullscreen,101611,,,,,,,,fullscreen,0,,,,,,,,,,,,,,,,,,,,,,,,,
8096,,instruct_1,109710,,,,,,,,instruct,0,Next,,,,,,,,,,,,,,,,,,,,,,,,
14325,,instruct_2,124038,,,,,,,,instruct,1,Next,,,,,,,,,,,,,,,,,,,,,,,,
12251,,instruct_3,136291,,,,,,,,instruct,1,Next,,,,,,,,,,,,,,,,,,,,,,,,
25319.400000000373,,instruct_4,161612,,,,,,,,instruct,1,Next,,,,,,,,,,,,,,,,,,,,,,,,
17474.10000000149,,instruct_5,179088,,,,,,,,instruct,1,Next,,,,,,,,,,,,,,,,,,,,,,,,
8515.400000000373,,instruct_6,187605,,,,,,,,instruct,1,Next,,,,,,,,,,,,,,,,,,,,,,,,
37287.70000000112,,instruct_7,224894,,,,,,,,instruct,1,Next,,,,,,,,,,,,,,,,,,,,,,,,
null,,prac_atten_color_black,225285,,,,,,,,black_plus_sign,,,null,,,,,,,,,,,,,,,,,,,,,,,
null,,prac_atten_color,226302,,,,,,,,<p style='position:absolute;top: 50%;right: 50%;transform: translate(50%, -50%);font-size: 125px;color: blue;'>+</p>,,,null,,,,,,,,,,,,,,,,,,,,,,,
1345.5,,prac_atten_color_black,228305,,,,,,,,black_plus_sign,,,49,,,,,,,,,,,,,,,,,,,,,,,
null,,prac_atten_color_black,228697,,,,,,,,black_plus_sign,,,null,,,,,,,,,,,,,,,,,,,,,,,
468.59999999962747,,prac_atten_color,229693,,,,,,,,<p style='position:absolute;top: 50%;right: 50%;transform: translate(50%, -50%);font-size: 125px;color: green;'>+</p>,,,50,,,,,,,,,,,,,,,,,,,,,,,
null,,prac_atten_color_black,231696,,,,,,,,black_plus_sign,,,null,,,,,,,,,,,,,,,,,,,,,,,
null,,prac_atten_color_black,232107,,,,,,,,black_plus_sign,,,null,,,,,,,,,,,,,,,,,,,,,,,
null,,prac_atten_color,232801,,,,,,,,<p style='position:absolute;top: 50%;right: 50%;transform: translate(50%, -50%);font-size: 125px;color: green;'>+</p>,,,null,,,,,,,,,,,,,,,,,,,,,,,
615.1000000014901,,prac_atten_color_black,234804,,,,,,,,black_plus_sign,,,50,,,,,,,,,,,,,,,,,,,,,,,
null,,prac_atten_color_black,235516,,,,,,,,black_plus_sign,,,null,,,,,,,,,,,,,,,,,,,,,,,
747.1999999992549,,prac_atten_color,236381,,,,,,,,<p style='position:absolute;top: 50%;right: 50%;transform: translate(50%, -50%);font-size: 125px;color: blue;'>+</p>,,,49,,,,,,,,,,,,,,,,,,,,,,,
null,,prac_atten_color_black,238383,,,,,,,,black_plus_sign,,,null,,,,,,,,,,,,,,,,,,,,,,,
null,,prac_atten_color_black,238926,,,,,,,,black_plus_sign,,,null,,,,,,,,,,,,,,,,,,,,,,,
569.5,,prac_atten_color,239788,,,,,,,,<p style='position:absolute;top: 50%;right: 50%;transform: translate(50%, -50%);font-size: 125px;color: green;'>+</p>,,,50,,,,,,,,,,,,,,,,,,,,,,,
null,,prac_atten_color_black,241792,,,,,,,,black_plus_sign,,,null,,,,,,,,,,,,,,,,,,,,,,,
null,,prac_atten_color_black,242336,,,,,,,,black_plus_sign,,,null,,,,,,,,,,,,,,,,,,,,,,,
559.1999999992549,,prac_atten_color,242951,,,,,,,,<p style='position:absolute;top: 50%;right: 50%;transform: translate(50%, -50%);font-size: 125px;color: green;'>+</p>,,,50,,,,,,,,,,,,,,,,,,,,,,,
null,,prac_atten_color_black,244954,,,,,,,,black_plus_sign,,,null,,,,,,,,,,,,,,,,,,,,,,,
null,,prac_atten_color_black,245745,,,,,,,,black_plus_sign,,,null,,,,,,,,,,,,,,,,,,,,,,,
525.7999999988824,,prac_atten_color,246701,,,,,,,,<p style='position:absolute;top: 50%;right: 50%;transform: translate(50%, -50%);font-size: 125px;color: blue;'>+</p>,,,49,,,,,,,,,,,,,,,,,,,,,,,
null,,prac_atten_color_black,248704,,,,,,,,black_plus_sign,,,null,,,,,,,,,,,,,,,,,,,,,,,
null,,prac_atten_color_black,249155,,,,,,,,black_plus_sign,,,null,,,,,,,,,,,,,,,,,,,,,,,
507.59999999962747,,prac_atten_color,250155,,,,,,,,<p style='position:absolute;top: 50%;right: 50%;transform: translate(50%, -50%);font-size: 125px;color: green;'>+</p>,,,50,,,,,,,,,,,,,,,,,,,,,,,
null,,prac_atten_color_black,252157,,,,,,,,black_plus_sign,,,null,,,,,,,,,,,,,,,,,,,,,,,
null,,prac_atten_color_black,252565,,,,,,,,black_plus_sign,,,null,,,,,,,,,,,,,,,,,,,,,,,
655.3000000007451,,prac_atten_color,253401,,,,,,,,<p style='position:absolute;top: 50%;right: 50%;transform: translate(50%, -50%);font-size: 125px;color: blue;'>+</p>,,,49,,,,,,,,,,,,,,,,,,,,,,,
null,,prac_atten_color_black,255404,,,,,,,,black_plus_sign,,,null,,,,,,,,,,,,,,,,,,,,,,,
null,,prac_atten_color_black,255974,,,,,,,,black_plus_sign,,,null,,,,,,,,,,,,,,,,,,,,,,,
625.4000000003725,,prac_atten_color,256863,,,,,,,,<p style='position:absolute;top: 50%;right: 50%;transform: translate(50%, -50%);font-size: 125px;color: blue;'>+</p>,,,49,,,,,,,,,,,,,,,,,,,,,,,
null,,prac_atten_color_black,258867,,,,,,,,black_plus_sign,,,null,,,,,,,,,,,,,,,,,,,,,,,
43904.09999999963,,attentioncheck_feedback,302772,,,,,,,,cross_check_feedback,0,,,,,,,,,,,,,,,,,,,,,,,,,
14860.400000000373,,last_instruct,317633,,,,,,,,instruct,,,32,,,,,,,,,,,,,,,,,,,,,,,
null,,prac_learn_phase(without_color),321137,,,,,,,,black_plus_sign,,,null,object_06a.png,object_13b.png,,,,,,,,,,,,,,,,,,,,,
null,,prac_black_cross(without_color),321928,,,,,,,,blue,,,null,object_06a.png,object_13b.png,,,,,,,,,,,,,,,,,,,,,
null,,prac_rt_plussign_withcolor,322431,,,,,,,,blue,,,null,object_06a.png,object_13b.png,,,,,,,,,,,,,,,,,,,,,
null,,prac_rt_thecrossant_black,323649,,,,,,,,black_plus_sign,,,null,,,NaN,,,,,,,,,,,,,,,,,,,,
null,,prac_color_black,323752,,,,,,,,black_plus_sign,,,null,,,,,,,,,,,,,,,,,,,,,,,
null,,prac_learn_phase(without_color),327257,,,,,,,,black_plus_sign,,,null,object_01b.png,object_14b.png,,,,,,,,,,,,,,,,,,,,,
null,,black_cross(without_color)1,328015,,,,,,,,green,,,null,object_06a.png,object_13b.png,,,,,,,,,,,,,,,,,,,,,
null,,prac_rt_plussign_withcolor,328518,,,,,,,,blue,,,null,object_01b.png,object_14b.png,,,,,,,,,,,,,,,,,,,,,
1506,,prac_rt_thecrossant_black,330096,,,,,,,,black_plus_sign,,,49,,,1,1,,,,,,,,,,,,,,,,,,,
null,,prac_color_black,330199,,,,,,,,black_plus_sign,,,null,,,,,,,,,,,,,,,,,,,,,,,
null,,prac_learn_phase(without_color),333703,,,,,,,,black_plus_sign,,,null,object_14b.png,object_15c.png,,,,,,,,,,,,,,,,,,,,,
null,,black_cross(without_color)1,334462,,,,,,,,green,,,null,object_06a.png,object_13b.png,,,,,,,,,,,,,,,,,,,,,
null,,prac_rt_plussign_withcolor,334965,,,,,,,,blue,,,null,object_14b.png,object_15c.png,,,,,,,,,,,,,,,,,,,,,
712.8999999985099,,prac_rt_thecrossant_black,336046,,,,,,,,black_plus_sign,,,49,,,1,1,,,,,,,,,,,,,,,,,,,
null,,prac_color_black,336150,,,,,,,,black_plus_sign,,,null,,,,,,,,,,,,,,,,,,,,,,,
null,,prac_learn_phase(without_color),339654,,,,,,,,black_plus_sign,,,null,object_10c.png,object_03c.png,,,,,,,,,,,,,,,,,,,,,
null,,black_cross(without_color)1,340413,,,,,,,,green,,,null,object_06a.png,object_13b.png,,,,,,,,,,,,,,,,,,,,,
null,,prac_rt_plussign_withcolor,340916,,,,,,,,blue,,,null,object_10c.png,object_03c.png,,,,,,,,,,,,,,,,,,,,,
1242.5999999996275,,prac_rt_thecrossant_black,342150,,,,,,,,black_plus_sign,,,49,,,1,1,,,,,,,,,,,,,,,,,,,
null,,prac_color_black,342254,,,,,,,,black_plus_sign,,,null,,,,,,,,,,,,,,,,,,,,,,,
3703.2000000011176,,instruct_dir_01,345961,,,,,,,,instruct,0,Next,,,,,,,,,,,,,,,,,,,,,,,,
16527.400000000373,,instruct_dir_2,362490,,,,,,,,instruct,1,Next,,,,,,,,,,,,,,,,,,,,,,,,
11667.299999998882,,instruct_dir_3,374160,,,,,,,,instruct,1,Next,,,,,,,,,,,,,,,,,,,,,,,,
19784.89999999851,,instruct_dir_4,393948,,,,,,,,instruct,1,Start,,,,,,,,,,,,,,,,,,,,,,,,
null,,thebreak,394051,,,,,,,,<p></p>,,,null,,,,,,,,,,,,,,,,,,,,,,,
2150.199999999255,,intro_0,396203,,,,,,,,instruct,,,32,,,,,,,,,,,,,,,,,,,,,,,
5069.699999999255,,prac_directmemory_phase,401275,,,,,,,,practice/object_01b.png,,,51,,,,0,practice/object_01a.png,practice/object_04a.png,practice/object_02a.png,practice/object_01a.png,0,0,,,,,,,,,,,,,
3581.300000000745,,prac_directmemory_phase,404859,,,,,,,,practice/object_04b.png,,,49,,,,0,practice/object_03a.png,practice/object_04a.png,practice/object_02a.png,practice/object_04a.png,0,0,,,,,,,,,,,,,
4291.89999999851,,prac_directmemory_phase,409154,,,,,,,,practice/object_02b.png,,,51,,,,1,practice/object_01a.png,practice/object_03a.png,practice/object_02a.png,practice/object_02a.png,1,0.3333333333333333,,,,,,,,,,,,,
3775.0999999996275,,prac_directmemory_phase,412931,,,,,,,,practice/object_03b.png,,,50,,,,0,practice/object_01a.png,practice/object_04a.png,practice/object_03a.png,practice/object_03a.png,0,0.25,,,,,,,,,,,,,
16157.900000000373,,practice_feedback_force_restart,429091,,,,,,,,practice_feedback,0,,,,,,,,,,,,,1,,,,,,,,,,,,
1525.5999999996275,,last_instruct,430618,,,,,,,,instruct,,,32,,,,,,,,,,,,,,,,,,,,,,,
null,,prac_learn_phase(without_color),434121,,,,,,,,black_plus_sign,,,null,object_06a.png,object_13b.png,,,,,,,,,,,,,,,,,,,,,
null,,prac_black_cross(without_color),434853,,,,,,,,blue,,,null,object_06a.png,object_13b.png,,,,,,,,,,,,,,,,,,,,,
null,,prac_rt_plussign_withcolor,435355,,,,,,,,blue,,,null,object_06a.png,object_13b.png,,,,,,,,,,,,,,,,,,,,,
1409.3999999985099,,prac_rt_thecrossant_black,436631,,,,,,,,black_plus_sign,,,49,,,1,1,,,,,,,,,,,,,,,,,,,
null,,prac_color_black,436734,,,,,,,,black_plus_sign,,,null,,,,,,,,,,,,,,,,,,,,,,,
null,,prac_learn_phase(without_color),440238,,,,,,,,black_plus_sign,,,null,object_01b.png,object_14b.png,,,,,,,,,,,,,,,,,,,,,
null,,black_cross(without_color)1,440997,,,,,,,,green,,,null,object_06a.png,object_13b.png,,,,,,,,,,,,,,,,,,,,,
null,,prac_rt_plussign_withcolor,441500,,,,,,,,blue,,,null,object_01b.png,object_14b.png,,,,,,,,,,,,,,,,,,,,,
1129.9000000003725,,prac_rt_thecrossant_black,442790,,,,,,,,black_plus_sign,,,49,,,1,1,,,,,,,,,,,,,,,,,,,
null,,prac_color_black,442894,,,,,,,,black_plus_sign,,,null,,,,,,,,,,,,,,,,,,,,,,,
null,,prac_learn_phase(without_color),446398,,,,,,,,black_plus_sign,,,null,object_14b.png,object_15c.png,,,,,,,,,,,,,,,,,,,,,
null,,black_cross(without_color)1,447155,,,,,,,,green,,,null,object_06a.png,object_13b.png,,,,,,,,,,,,,,,,,,,,,
null,,prac_rt_plussign_withcolor,447658,,,,,,,,blue,,,null,object_14b.png,object_15c.png,,,,,,,,,,,,,,,,,,,,,
1267.199999999255,,prac_rt_thecrossant_black,448857,,,,,,,,black_plus_sign,,,49,,,1,1,,,,,,,,,,,,,,,,,,,
null,,prac_color_black,448961,,,,,,,,black_plus_sign,,,null,,,,,,,,,,,,,,,,,,,,,,,
null,,prac_learn_phase(without_color),452465,,,,,,,,black_plus_sign,,,null,object_10c.png,object_03c.png,,,,,,,,,,,,,,,,,,,,,
null,,black_cross(without_color)1,453224,,,,,,,,green,,,null,object_06a.png,object_13b.png,,,,,,,,,,,,,,,,,,,,,
null,,prac_rt_plussign_withcolor,453727,,,,,,,,blue,,,null,object_10c.png,object_03c.png,,,,,,,,,,,,,,,,,,,,,
1259.3999999985099,,prac_rt_thecrossant_black,454953,,,,,,,,black_plus_sign,,,49,,,1,1,,,,,,,,,,,,,,,,,,,
null,,prac_color_black,455056,,,,,,,,black_plus_sign,,,null,,,,,,,,,,,,,,,,,,,,,,,
2756.2999999988824,,instruct_dir_01,457815,,,,,,,,instruct,0,Next,,,,,,,,,,,,,,,,,,,,,,,,
4049.4000000003725,,instruct_dir_2,461867,,,,,,,,instruct,1,Next,,,,,,,,,,,,,,,,,,,,,,,,
4005.699999999255,,instruct_dir_3,465875,,,,,,,,instruct,1,Next,,,,,,,,,,,,,,,,,,,,,,,,
1285.199999999255,,instruct_dir_4,467162,,,,,,,,instruct,1,Start,,,,,,,,,,,,,,,,,,,,,,,,
null,,thebreak,467266,,,,,,,,<p></p>,,,null,,,,,,,,,,,,,,,,,,,,,,,
3336,,intro_0,470603,,,,,,,,instruct,,,32,,,,,,,,,,,,,,,,,,,,,,,
5182.299999998882,,prac_directmemory_phase,475788,,,,,,,,practice/object_01b.png,,,49,,,,1,practice/object_01a.png,practice/object_04a.png,practice/object_02a.png,practice/object_01a.png,1,1,,,,,,,,,,,,,
2796.5999999996275,,prac_directmemory_phase,478587,,,,,,,,practice/object_04b.png,,,50,,,,1,practice/object_03a.png,practice/object_04a.png,practice/object_02a.png,practice/object_04a.png,1,1,,,,,,,,,,,,,
3077,,prac_directmemory_phase,481667,,,,,,,,practice/object_02b.png,,,51,,,,1,practice/object_01a.png,practice/object_03a.png,practice/object_02a.png,practice/object_02a.png,1,1,,,,,,,,,,,,,
4958.5999999996275,,prac_directmemory_phase,486628,,,,,,,,practice/object_03b.png,,,51,,,,1,practice/object_01a.png,practice/object_04a.png,practice/object_03a.png,practice/object_03a.png,1,1,,,,,,,,,,,,,
6900.800000000745,,practice_feedback,493531,,,,,,,,practice_feedback,1,,,,,,,,,,,,,,,,,,,,,,,,,
34143.20000000112,,proceed_actualTask,527676,,,,,,,,proceed_actualTask,1,Continue,,,,,,,,,,,,,,,,,,,,,,,,
18390.699999999255,,last_inst,546068,,,,,,,,last_inst,,,32,,,,,,,,,,,,,,,,,,,,,,,
null,,learn_phase(without_color)1,549571,,,,,,,,black_plus_sign,,,null,object_06a.png,object_13b.png,,,,,,,,,,,,,,,,,,,,,
null,,black_cross(without_color)1,550330,,,,,,,,green,,,null,object_06a.png,object_13b.png,,,,,,,,,,,,,,,,,,,,,
null,,rt_plussign_withcolor1,550833,,,,,,,,green,,,null,object_06a.png,object_13b.png,,,,,,,,,,,,,,,,,,,,,
null,,rt_thecrossant_black1,552083,,,,,,,,black_plus_sign,,,null,,,,,,,,,,NaN,,,,,,,,,,,,,
null,,color_black1,552187,,,,,,,,black_plus_sign,,,null,,,,,,,,,,,,,,,,,,,,,,,
null,,learn_phase(without_color)1,555692,,,,,,,,black_plus_sign,,,null,object_01b.png,object_14b.png,,,,,,,,,,,,,,,,,,,,,
null,,black_cross(without_color)1,556159,,,,,,,,green,,,null,object_01b.png,object_14b.png,,,,,,,,,,,,,,,,,,,,,
null,,rt_plussign_withcolor1,556662,,,,,,,,green,,,null,object_01b.png,object_14b.png,,,,,,,,,,,,,,,,,,,,,
1144,,rt_thecrossant_black1,558201,,,,,,,,black_plus_sign,,,50,,,,1,,,,,,1,,,,,,,,,,,,,
null,,color_black1,558305,,,,,,,,black_plus_sign,,,null,,,,,,,,,,,,,,,,,,,,,,,
null,,learn_phase(without_color)1,561809,,,,,,,,black_plus_sign,,,null,object_14b.png,object_15c.png,,,,,,,,,,,,,,,,,,,,,
null,,black_cross(without_color)1,562270,,,,,,,,blue,,,null,object_14b.png,object_15c.png,,,,,,,,,,,,,,,,,,,,,
null,,rt_plussign_withcolor1,562774,,,,,,,,blue,,,null,object_14b.png,object_15c.png,,,,,,,,,,,,,,,,,,,,,
848.1000000014901,,rt_thecrossant_black1,564318,,,,,,,,black_plus_sign,,,49,,,,1,,,,,,1,,,,,,,,,,,,,
null,,color_black1,564423,,,,,,,,black_plus_sign,,,null,,,,,,,,,,,,,,,,,,,,,,,
null,,learn_phase(without_color)1,567927,,,,,,,,black_plus_sign,,,null,object_10c.png,object_03c.png,,,,,,,,,,,,,,,,,,,,,
null,,black_cross(without_color)1,568345,,,,,,,,green,,,null,object_10c.png,object_03c.png,,,,,,,,,,,,,,,,,,,,,
null,,rt_plussign_withcolor1,568848,,,,,,,,green,,,null,object_10c.png,object_03c.png,,,,,,,,,,,,,,,,,,,,,
633.1999999992549,,rt_thecrossant_black1,570437,,,,,,,,black_plus_sign,,,50,,,,1,,,,,,1,,,,,,,,,,,,,
null,,color_black1,570540,,,,,,,,black_plus_sign,,,null,,,,,,,,,,,,,,,,,,,,,,,
null,,learn_phase(without_color)1,574044,,,,,,,,black_plus_sign,,,null,object_10b.png,object_02c.png,,,,,,,,,,,,,,,,,,,,,
null,,black_cross(without_color)1,574455,,,,,,,,blue,,,null,object_10b.png,object_02c.png,,,,,,,,,,,,,,,,,,,,,
null,,rt_plussign_withcolor1,574958,,,,,,,,blue,,,null,object_10b.png,object_02c.png,,,,,,,,,,,,,,,,,,,,,
678.6999999992549,,rt_thecrossant_black1,576553,,,,,,,,black_plus_sign,,,49,,,,1,,,,,,1,,,,,,,,,,,,,
null,,color_black1,576657,,,,,,,,black_plus_sign,,,null,,,,,,,,,,,,,,,,,,,,,,,
null,,learn_phase(without_color)1,580161,,,,,,,,black_plus_sign,,,null,object_12b.png,object_07c.png,,,,,,,,,,,,,,,,,,,,,
null,,black_cross(without_color)1,581189,,,,,,,,green,,,null,object_12b.png,object_07c.png,,,,,,,,,,,,,,,,,,,,,
null,,rt_plussign_withcolor1,581692,,,,,,,,green,,,null,object_12b.png,object_07c.png,,,,,,,,,,,,,,,,,,,,,
570.9000000003725,,rt_thecrossant_black1,582672,,,,,,,,black_plus_sign,,,50,,,,1,,,,,,1,,,,,,,,,,,,,
null,,color_black1,582775,,,,,,,,black_plus_sign,,,null,,,,,,,,,,,,,,,,,,,,,,,
null,,learn_phase(without_color)1,586279,,,,,,,,black_plus_sign,,,null,object_05a.png,object_10c.png,,,,,,,,,,,,,,,,,,,,,
null,,black_cross(without_color)1,587260,,,,,,,,blue,,,null,object_05a.png,object_10c.png,,,,,,,,,,,,,,,,,,,,,
null,,rt_plussign_withcolor1,587763,,,,,,,,blue,,,null,object_05a.png,object_10c.png,,,,,,,,,,,,,,,,,,,,,
1227,,rt_thecrossant_black1,588789,,,,,,,,black_plus_sign,,,49,,,,1,,,,,,1,,,,,,,,,,,,,
null,,color_black1,588893,,,,,,,,black_plus_sign,,,null,,,,,,,,,,,,,,,,,,,,,,,
null,,learn_phase(without_color)1,592398,,,,,,,,black_plus_sign,,,null,object_06c.png,object_13c.png,,,,,,,,,,,,,,,,,,,,,
null,,black_cross(without_color)1,593367,,,,,,,,green,,,null,object_06c.png,object_13c.png,,,,,,,,,,,,,,,,,,,,,
null,,rt_plussign_withcolor1,593869,,,,,,,,green,,,null,object_06c.png,object_13c.png,,,,,,,,,,,,,,,,,,,,,
1081.3999999985099,,rt_thecrossant_black1,594907,,,,,,,,black_plus_sign,,,50,,,,1,,,,,,1,,,,,,,,,,,,,
null,,color_black1,595011,,,,,,,,black_plus_sign,,,null,,,,,,,,,,,,,,,,,,,,,,,
null,,learn_phase(without_color)1,598515,,,,,,,,black_plus_sign,,,null,object_03b.png,object_12b.png,,,,,,,,,,,,,,,,,,,,,
null,,black_cross(without_color)1,599332,,,,,,,,blue,,,null,object_03b.png,object_12b.png,,,,,,,,,,,,,,,,,,,,,
null,,rt_plussign_withcolor1,599835,,,,,,,,blue,,,null,object_03b.png,object_12b.png,,,,,,,,,,,,,,,,,,,,,
1345.1000000014901,,rt_thecrossant_black1,601025,,,,,,,,black_plus_sign,,,49,,,,1,,,,,,1,,,,,,,,,,,,,
null,,color_black1,601128,,,,,,,,black_plus_sign,,,null,,,,,,,,,,,,,,,,,,,,,,,
null,,learn_phase(without_color)1,604633,,,,,,,,black_plus_sign,,,null,object_05b.png,object_06a.png,,,,,,,,,,,,,,,,,,,,,
null,,black_cross(without_color)1,605480,,,,,,,,blue,,,null,object_05b.png,object_06a.png,,,,,,,,,,,,,,,,,,,,,
null,,rt_plussign_withcolor1,605983,,,,,,,,blue,,,null,object_05b.png,object_06a.png,,,,,,,,,,,,,,,,,,,,,
1158.199999999255,,rt_thecrossant_black1,607143,,,,,,,,black_plus_sign,,,49,,,,1,,,,,,1,,,,,,,,,,,,,
null,,color_black1,607246,,,,,,,,black_plus_sign,,,null,,,,,,,,,,,,,,,,,,,,,,,
null,,learn_phase(without_color)1,610751,,,,,,,,black_plus_sign,,,null,object_09b.png,object_10a.png,,,,,,,,,,,,,,,,,,,,,
null,,black_cross(without_color)1,611660,,,,,,,,blue,,,null,object_09b.png,object_10a.png,,,,,,,,,,,,,,,,,,,,,
null,,rt_plussign_withcolor1,612162,,,,,,,,blue,,,null,object_09b.png,object_10a.png,,,,,,,,,,,,,,,,,,,,,
1144,,rt_thecrossant_black1,613261,,,,,,,,black_plus_sign,,,49,,,,1,,,,,,1,,,,,,,,,,,,,
null,,color_black1,613364,,,,,,,,black_plus_sign,,,null,,,,,,,,,,,,,,,,,,,,,,,
null,,learn_phase(without_color)1,616869,,,,,,,,black_plus_sign,,,null,object_07a.png,object_09b.png,,,,,,,,,,,,,,,,,,,,,
null,,black_cross(without_color)1,617555,,,,,,,,green,,,null,object_07a.png,object_09b.png,,,,,,,,,,,,,,,,,,,,,
null,,rt_plussign_withcolor1,618058,,,,,,,,green,,,null,object_07a.png,object_09b.png,,,,,,,,,,,,,,,,,,,,,
1213.199999999255,,rt_thecrossant_black1,619380,,,,,,,,black_plus_sign,,,50,,,,1,,,,,,1,,,,,,,,,,,,,
null,,color_black1,619483,,,,,,,,black_plus_sign,,,null,,,,,,,,,,,,,,,,,,,,,,,
null,,learn_phase(without_color)1,622987,,,,,,,,black_plus_sign,,,null,object_07b.png,object_09c.png,,,,,,,,,,,,,,,,,,,,,
null,,black_cross(without_color)1,623802,,,,,,,,blue,,,null,object_07b.png,object_09c.png,,,,,,,,,,,,,,,,,,,,,
null,,rt_plussign_withcolor1,624305,,,,,,,,blue,,,null,object_07b.png,object_09c.png,,,,,,,,,,,,,,,,,,,,,
1080.5,,rt_thecrossant_black1,625498,,,,,,,,black_plus_sign,,,49,,,,1,,,,,,1,,,,,,,,,,,,,
null,,color_black1,625601,,,,,,,,black_plus_sign,,,null,,,,,,,,,,,,,,,,,,,,,,,
null,,learn_phase(without_color)1,629105,,,,,,,,black_plus_sign,,,null,object_01c.png,object_03a.png,,,,,,,,,,,,,,,,,,,,,
null,,black_cross(without_color)1,629597,,,,,,,,blue,,,null,object_01c.png,object_03a.png,,,,,,,,,,,,,,,,,,,,,
null,,rt_plussign_withcolor1,630100,,,,,,,,blue,,,null,object_01c.png,object_03a.png,,,,,,,,,,,,,,,,,,,,,
1445.5,,rt_thecrossant_black1,631615,,,,,,,,black_plus_sign,,,49,,,,1,,,,,,1,,,,,,,,,,,,,
null,,color_black1,631719,,,,,,,,black_plus_sign,,,null,,,,,,,,,,,,,,,,,,,,,,,
null,,learn_phase(without_color)1,635224,,,,,,,,black_plus_sign,,,null,object_04a.png,object_08b.png,,,,,,,,,,,,,,,,,,,,,
null,,black_cross(without_color)1,635818,,,,,,,,blue,,,null,object_04a.png,object_08b.png,,,,,,,,,,,,,,,,,,,,,
null,,rt_plussign_withcolor1,636321,,,,,,,,blue,,,null,object_04a.png,object_08b.png,,,,,,,,,,,,,,,,,,,,,
1014,,rt_thecrossant_black1,637736,,,,,,,,black_plus_sign,,,49,,,,1,,,,,,1,,,,,,,,,,,,,
null,,color_black1,637839,,,,,,,,black_plus_sign,,,null,,,,,,,,,,,,,,,,,,,,,,,
null,,learn_phase(without_color)1,641344,,,,,,,,black_plus_sign,,,null,object_13c.png,object_08a.png,,,,,,,,,,,,,,,,,,,,,
null,,black_cross(without_color)1,642037,,,,,,,,green,,,null,object_13c.png,object_08a.png,,,,,,,,,,,,,,,,,,,,,
null,,rt_plussign_withcolor1,642541,,,,,,,,green,,,null,object_13c.png,object_08a.png,,,,,,,,,,,,,,,,,,,,,
968,,rt_thecrossant_black1,643855,,,,,,,,black_plus_sign,,,50,,,,1,,,,,,1,,,,,,,,,,,,,
null,,color_black1,643959,,,,,,,,black_plus_sign,,,null,,,,,,,,,,,,,,,,,,,,,,,
null,,learn_phase(without_color)1,647463,,,,,,,,black_plus_sign,,,null,object_03a.png,object_08c.png,,,,,,,,,,,,,,,,,,,,,
null,,black_cross(without_color)1,648227,,,,,,,,blue,,,null,object_03a.png,object_08c.png,,,,,,,,,,,,,,,,,,,,,
null,,rt_plussign_withcolor1,648730,,,,,,,,blue,,,null,object_03a.png,object_08c.png,,,,,,,,,,,,,,,,,,,,,
1158.5,,rt_thecrossant_black1,649974,,,,,,,,black_plus_sign,,,49,,,,1,,,,,,1,,,,,,,,,,,,,
null,,color_black1,650078,,,,,,,,black_plus_sign,,,null,,,,,,,,,,,,,,,,,,,,,,,
null,,learn_phase(without_color)1,653582,,,,,,,,black_plus_sign,,,null,object_12a.png,object_14c.png,,,,,,,,,,,,,,,,,,,,,
null,,black_cross(without_color)1,654049,,,,,,,,blue,,,null,object_12a.png,object_14c.png,,,,,,,,,,,,,,,,,,,,,
null,,rt_plussign_withcolor1,654552,,,,,,,,blue,,,null,object_12a.png,object_14c.png,,,,,,,,,,,,,,,,,,,,,
1071,,rt_thecrossant_black1,656093,,,,,,,,black_plus_sign,,,49,,,,1,,,,,,1,,,,,,,,,,,,,
null,,color_black1,656196,,,,,,,,black_plus_sign,,,null,,,,,,,,,,,,,,,,,,,,,,,
null,,learn_phase(without_color)1,659701,,,,,,,,black_plus_sign,,,null,object_11a.png,object_09a.png,,,,,,,,,,,,,,,,,,,,,
null,,black_cross(without_color)1,660183,,,,,,,,green,,,null,object_11a.png,object_09a.png,,,,,,,,,,,,,,,,,,,,,
null,,rt_plussign_withcolor1,660686,,,,,,,,green,,,null,object_11a.png,object_09a.png,,,,,,,,,,,,,,,,,,,,,
720.8000000007451,,rt_thecrossant_black1,662212,,,,,,,,black_plus_sign,,,50,,,,1,,,,,,1,,,,,,,,,,,,,
null,,color_black1,662316,,,,,,,,black_plus_sign,,,null,,,,,,,,,,,,,,,,,,,,,,,
null,,learn_phase(without_color)1,665820,,,,,,,,black_plus_sign,,,null,object_04c.png,object_02a.png,,,,,,,,,,,,,,,,,,,,,
null,,black_cross(without_color)1,666740,,,,,,,,blue,,,null,object_04c.png,object_02a.png,,,,,,,,,,,,,,,,,,,,,
null,,rt_plussign_withcolor1,667243,,,,,,,,blue,,,null,object_04c.png,object_02a.png,,,,,,,,,,,,,,,,,,,,,
778.3000000007451,,rt_thecrossant_black1,668331,,,,,,,,black_plus_sign,,,49,,,,1,,,,,,1,,,,,,,,,,,,,
null,,color_black1,668435,,,,,,,,black_plus_sign,,,null,,,,,,,,,,,,,,,,,,,,,,,
null,,learn_phase(without_color)1,671939,,,,,,,,black_plus_sign,,,null,object_02b.png,object_15b.png,,,,,,,,,,,,,,,,,,,,,
null,,black_cross(without_color)1,672620,,,,,,,,blue,,,null,object_02b.png,object_15b.png,,,,,,,,,,,,,,,,,,,,,
null,,rt_plussign_withcolor1,673123,,,,,,,,blue,,,null,object_02b.png,object_15b.png,,,,,,,,,,,,,,,,,,,,,
1255.800000000745,,rt_thecrossant_black1,674451,,,,,,,,black_plus_sign,,,49,,,,1,,,,,,1,,,,,,,,,,,,,
null,,color_black1,674555,,,,,,,,black_plus_sign,,,null,,,,,,,,,,,,,,,,,,,,,,,
null,,learn_phase(without_color)1,678060,,,,,,,,black_plus_sign,,,null,object_15b.png,object_15a.png,,,,,,,,,,,,,,,,,,,,,
null,,black_cross(without_color)1,678882,,,,,,,,green,,,null,object_15b.png,object_15a.png,,,,,,,,,,,,,,,,,,,,,
null,,rt_plussign_withcolor1,679385,,,,,,,,green,,,null,object_15b.png,object_15a.png,,,,,,,,,,,,,,,,,,,,,
843.5999999996275,,rt_thecrossant_black1,680570,,,,,,,,black_plus_sign,,,50,,,,1,,,,,,1,,,,,,,,,,,,,
null,,color_black1,680674,,,,,,,,black_plus_sign,,,null,,,,,,,,,,,,,,,,,,,,,,,
null,,learn_phase(without_color)1,684179,,,,,,,,black_plus_sign,,,null,object_08b.png,object_13a.png,,,,,,,,,,,,,,,,,,,,,
null,,black_cross(without_color)1,685128,,,,,,,,green,,,null,object_08b.png,object_13a.png,,,,,,,,,,,,,,,,,,,,,
null,,rt_plussign_withcolor1,685631,,,,,,,,green,,,null,object_08b.png,object_13a.png,,,,,,,,,,,,,,,,,,,,,
1025.2999999988824,,rt_thecrossant_black1,686690,,,,,,,,black_plus_sign,,,50,,,,1,,,,,,1,,,,,,,,,,,,,
null,,color_black1,686793,,,,,,,,black_plus_sign,,,null,,,,,,,,,,,,,,,,,,,,,,,
null,,learn_phase(without_color)1,690298,,,,,,,,black_plus_sign,,,null,object_11c.png,object_04c.png,,,,,,,,,,,,,,,,,,,,,
null,,black_cross(without_color)1,690955,,,,,,,,green,,,null,object_11c.png,object_04c.png,,,,,,,,,,,,,,,,,,,,,
null,,rt_plussign_withcolor1,691458,,,,,,,,green,,,null,object_11c.png,object_04c.png,,,,,,,,,,,,,,,,,,,,,
1381.5,,rt_thecrossant_black1,692808,,,,,,,,black_plus_sign,,,50,,,,1,,,,,,1,,,,,,,,,,,,,
null,,color_black1,692912,,,,,,,,black_plus_sign,,,null,,,,,,,,,,,,,,,,,,,,,,,
null,,learn_phase(without_color)1,696416,,,,,,,,black_plus_sign,,,null,object_14a.png,object_12a.png,,,,,,,,,,,,,,,,,,,,,
null,,black_cross(without_color)1,696879,,,,,,,,green,,,null,object_14a.png,object_12a.png,,,,,,,,,,,,,,,,,,,,,
null,,rt_plussign_withcolor1,697383,,,,,,,,green,,,null,object_14a.png,object_12a.png,,,,,,,,,,,,,,,,,,,,,
1094,,rt_thecrossant_black1,698926,,,,,,,,black_plus_sign,,,50,,,,1,,,,,,1,,,,,,,,,,,,,
null,,color_black1,699030,,,,,,,,black_plus_sign,,,null,,,,,,,,,,,,,,,,,,,,,,,
null,,learn_phase(without_color)1,702534,,,,,,,,black_plus_sign,,,null,object_09a.png,object_11b.png,,,,,,,,,,,,,,,,,,,,,
null,,black_cross(without_color)1,703159,,,,,,,,green,,,null,object_09a.png,object_11b.png,,,,,,,,,,,,,,,,,,,,,
null,,rt_plussign_withcolor1,703662,,,,,,,,green,,,null,object_09a.png,object_11b.png,,,,,,,,,,,,,,,,,,,,,
645.7000000011176,,rt_thecrossant_black1,705046,,,,,,,,black_plus_sign,,,50,,,,1,,,,,,1,,,,,,,,,,,,,
null,,color_black1,705148,,,,,,,,black_plus_sign,,,null,,,,,,,,,,,,,,,,,,,,,,,
null,,learn_phase(without_color)1,708652,,,,,,,,black_plus_sign,,,null,object_05c.png,object_01a.png,,,,,,,,,,,,,,,,,,,,,
null,,black_cross(without_color)1,709547,,,,,,,,blue,,,null,object_05c.png,object_01a.png,,,,,,,,,,,,,,,,,,,,,
null,,rt_plussign_withcolor1,710049,,,,,,,,blue,,,null,object_05c.png,object_01a.png,,,,,,,,,,,,,,,,,,,,,
866.5,,rt_thecrossant_black1,711163,,,,,,,,black_plus_sign,,,49,,,,1,,,,,,1,,,,,,,,,,,,,
null,,color_black1,711267,,,,,,,,black_plus_sign,,,null,,,,,,,,,,,,,,,,,,,,,,,
null,,learn_phase(without_color)1,714772,,,,,,,,black_plus_sign,,,null,object_06b.png,object_05c.png,,,,,,,,,,,,,,,,,,,,,
null,,black_cross(without_color)1,715360,,,,,,,,green,,,null,object_06b.png,object_05c.png,,,,,,,,,,,,,,,,,,,,,
null,,rt_plussign_withcolor1,715862,,,,,,,,green,,,null,object_06b.png,object_05c.png,,,,,,,,,,,,,,,,,,,,,
1107,,rt_thecrossant_black1,717282,,,,,,,,black_plus_sign,,,50,,,,1,,,,,,1,,,,,,,,,,,,,
null,,color_black1,717385,,,,,,,,black_plus_sign,,,null,,,,,,,,,,,,,,,,,,,,,,,
null,,learn_phase(without_color)1,720890,,,,,,,,black_plus_sign,,,null,object_12c.png,object_10b.png,,,,,,,,,,,,,,,,,,,,,
null,,black_cross(without_color)1,721639,,,,,,,,blue,,,null,object_12c.png,object_10b.png,,,,,,,,,,,,,,,,,,,,,
null,,rt_plussign_withcolor1,722142,,,,,,,,blue,,,null,object_12c.png,object_10b.png,,,,,,,,,,,,,,,,,,,,,
905.6999999992549,,rt_thecrossant_black1,723401,,,,,,,,black_plus_sign,,,49,,,,1,,,,,,1,,,,,,,,,,,,,
null,,color_black1,723505,,,,,,,,black_plus_sign,,,null,,,,,,,,,,,,,,,,,,,,,,,
null,,learn_phase(without_color)1,727009,,,,,,,,black_plus_sign,,,null,object_09c.png,object_04b.png,,,,,,,,,,,,,,,,,,,,,
null,,black_cross(without_color)1,727555,,,,,,,,green,,,null,object_09c.png,object_04b.png,,,,,,,,,,,,,,,,,,,,,
null,,rt_plussign_withcolor1,728058,,,,,,,,green,,,null,object_09c.png,object_04b.png,,,,,,,,,,,,,,,,,,,,,
1366.9000000003725,,rt_thecrossant_black1,729520,,,,,,,,black_plus_sign,,,50,,,,1,,,,,,1,,,,,,,,,,,,,
null,,color_black1,729624,,,,,,,,black_plus_sign,,,null,,,,,,,,,,,,,,,,,,,,,,,
null,,thebreak,729729,,,,,,,,<p></p>,,,null,,,,,,,,,,,,,,,,,,,,,,,
1858.4000000003725,,intro_0,731589,,,,,,,,instruct,,,32,,,,,,,,,,,,,,,,,,,,,,,
3749.2999999988824,,directmemory_phase1,735340,,,,,,,,object_15c.png,,,51,,,,0,object_14b.png,object_03a.png,object_09c.png,object_14b.png,,0,,0,,,,,,,,,,,
3580.300000000745,,directmemory_phase1,738924,,,,,,,,object_09b.png,,,49,,,,1,object_07a.png,object_06c.png,object_11a.png,object_07a.png,,0.5,,1,,,,,,,,,,,
2597.39999999851,,directmemory_phase1,741524,,,,,,,,object_03a.png,,,51,,,,0,object_01c.png,object_07b.png,object_02b.png,object_01c.png,,0.3333333333333333,,0,,,,,,,,,,,
3174.7999999988824,,directmemory_phase1,744702,,,,,,,,object_13a.png,,,49,,,,1,object_08b.png,object_09a.png,object_10b.png,object_08b.png,,0.5,,1,,,,,,,,,,,
5325.0999999996275,,directmemory_phase1,750030,,,,,,,,object_09c.png,,,50,,,,0,object_06c.png,object_11a.png,object_07b.png,object_07b.png,,0.4,,0,,,,,,,,,,,
4364.5999999996275,,directmemory_phase1,754397,,,,,,,,object_02c.png,,,51,,,,0,object_10c.png,object_10b.png,object_03a.png,object_10b.png,,0.3333333333333333,,0,,,,,,,,,,,
2637.10000000149,,directmemory_phase1,757038,,,,,,,,object_10a.png,,,50,,,,1,object_10b.png,object_09b.png,object_04c.png,object_09b.png,,0.42857142857142855,,1,,,,,,,,,,,
3421.4000000003725,,directmemory_phase1,760462,,,,,,,,object_15a.png,,,49,,,,1,object_15b.png,object_09c.png,object_08b.png,object_15b.png,,0.5,,1,,,,,,,,,,,
3268.5999999996275,,directmemory_phase1,763734,,,,,,,,object_05c.png,,,50,,,,0,object_04a.png,object_07b.png,object_06b.png,object_06b.png,,0.4444444444444444,,0,,,,,,,,,,,
3700.0999999996275,,directmemory_phase1,767437,,,,,,,,object_08b.png,,,49,,,,0,object_05b.png,object_04a.png,object_11c.png,object_04a.png,,0.4,,0,,,,,,,,,,,
3861.5999999996275,,directmemory_phase1,771301,,,,,,,,object_12b.png,,,51,,,,1,object_06c.png,object_05b.png,object_03b.png,object_03b.png,,0.45454545454545453,,1,,,,,,,,,,,
3629.4000000003725,,directmemory_phase1,774933,,,,,,,,object_10b.png,,,49,,,,1,object_12c.png,object_03b.png,object_02b.png,object_12c.png,,0.5,,1,,,,,,,,,,,
3525.9000000003725,,directmemory_phase1,778462,,,,,,,,object_03c.png,,,49,,,,0,object_06a.png,object_10c.png,object_09c.png,object_10c.png,,0.46153846153846156,,0,,,,,,,,,,,
2965,,directmemory_phase1,781430,,,,,,,,object_06a.png,,,51,,,,1,object_01b.png,object_04a.png,object_05b.png,object_05b.png,,0.5,,1,,,,,,,,,,,
3780.9000000003725,,directmemory_phase1,785214,,,,,,,,object_10c.png,,,49,,,,1,object_05a.png,object_05b.png,object_06b.png,object_05a.png,,0.5333333333333333,,1,,,,,,,,,,,
3629.199999999255,,directmemory_phase1,788846,,,,,,,,object_13b.png,,,49,,,,0,object_05c.png,object_03a.png,object_06a.png,object_06a.png,,0.5,,0,,,,,,,,,,,
2709.4000000003725,,directmemory_phase1,791558,,,,,,,,object_08a.png,,,49,,,,1,object_13c.png,object_14b.png,object_10c.png,object_13c.png,,0.5294117647058824,,1,,,,,,,,,,,
3860.699999999255,,directmemory_phase1,795422,,,,,,,,object_09a.png,,,50,,,,1,object_11c.png,object_11a.png,object_04a.png,object_11a.png,,0.5555555555555556,,1,,,,,,,,,,,
3124.60000000149,,directmemory_phase1,798550,,,,,,,,object_07c.png,,,50,,,,0,object_14b.png,object_13c.png,object_12b.png,object_12b.png,,0.5263157894736842,,0,,,,,,,,,,,
4533.800000000745,,directmemory_phase1,803086,,,,,,,,object_01a.png,,,50,,,,0,object_13c.png,object_14b.png,object_05c.png,object_05c.png,,0.5,,0,,,,,,,,,,,
2780,,directmemory_phase1,805870,,,,,,,,object_14c.png,,,49,,,,0,object_15b.png,object_12a.png,object_12b.png,object_12a.png,,0.47619047619047616,,0,,,,,,,,,,,
2621.4000000003725,,directmemory_phase1,808494,,,,,,,,object_02a.png,,,50,,,,0,object_05c.png,object_10c.png,object_04c.png,object_04c.png,,0.45454545454545453,,0,,,,,,,,,,,
3445.60000000149,,directmemory_phase1,811942,,,,,,,,object_13c.png,,,49,,,,1,object_06c.png,object_12c.png,object_11c.png,object_06c.png,,0.4782608695652174,,1,,,,,,,,,,,
2660.5,,directmemory_phase1,814605,,,,,,,,object_11b.png,,,51,,,,0,object_09a.png,object_10b.png,object_08b.png,object_09a.png,,0.4583333333333333,,0,,,,,,,,,,,
3038.699999999255,,directmemory_phase1,817646,,,,,,,,object_04c.png,,,51,,,,0,object_12c.png,object_11c.png,object_05a.png,object_11c.png,,0.44,,0,,,,,,,,,,,
3389.5,,directmemory_phase1,821038,,,,,,,,object_08c.png,,,49,,,,0,object_05c.png,object_03a.png,object_14b.png,object_03a.png,,0.4230769230769231,,0,,,,,,,,,,,
3189,,directmemory_phase1,824230,,,,,,,,object_04b.png,,,51,,,,1,object_13c.png,object_10c.png,object_09c.png,object_09c.png,,0.4444444444444444,,1,,,,,,,,,,,
2549.7999999988824,,directmemory_phase1,826783,,,,,,,,object_12a.png,,,51,,,,1,object_06c.png,object_03b.png,object_14a.png,object_14a.png,,0.4642857142857143,,1,,,,,,,,,,,
3140.39999999851,,directmemory_phase1,829926,,,,,,,,object_14b.png,,,50,,,,0,object_03b.png,object_05a.png,object_01b.png,object_01b.png,,0.4482758620689655,,0,,,,,,,,,,,
2485,,directmemory_phase1,832414,,,,,,,,object_15b.png,,,51,,,,1,object_06c.png,object_14a.png,object_02b.png,object_02b.png,,0.4666666666666667,,1,,,,,,,,,,,
null,,thebreak,832518,,,,,,,,<p></p>,,,null,,,,,,,,,,,,,,,,,,,,,,,
1678.5,,intro_0,834198,,,,,,,,instruct,,,32,,,,,,,,,,,,,,,,,,,,,,,
null,,learn_phase(without_color)2,837702,,,,,,,,black_plus_sign,,,null,object_11c.png,object_04c.png,,,,,,,,,,,,,,,,,,,,,
null,,black_cross(without_color)2,838517,,,,,,,,blue,,,null,object_11c.png,object_04c.png,,,,,,,,,,,,,,,,,,,,,
null,,rt_plussign_withcolor2,839020,,,,,,,,blue,,,null,object_11c.png,object_04c.png,,,,,,,,,,,,,,,,,,,,,
null,,rt_thecrossant_black2,840211,,,,,,,,black_plus_sign,,,null,,,,,,,,,,NaN,,,,,,,,,,,,,
null,,color_black2,840315,,,,,,,,black_plus_sign,,,null,,,,,,,,,,,,,,,,,,,,,,,
null,,learn_phase(without_color)2,843819,,,,,,,,black_plus_sign,,,null,object_12c.png,object_10b.png,,,,,,,,,,,,,,,,,,,,,
null,,black_cross(without_color)2,844669,,,,,,,,green,,,null,object_12c.png,object_10b.png,,,,,,,,,,,,,,,,,,,,,
null,,rt_plussign_withcolor2,845172,,,,,,,,green,,,null,object_12c.png,object_10b.png,,,,,,,,,,,,,,,,,,,,,
null,,rt_thecrossant_black2,846329,,,,,,,,black_plus_sign,,,null,,,,,,,,,,NaN,,,,,,,,,,,,,
null,,warning_page,851333,,,,,,,,warning,,,null,,,,,,,,,,,,,,,,,,,,,,,
null,,color_black2,851437,,,,,,,,black_plus_sign,,,null,,,,,,,,,,,,,,,,,,,,,,,
null,,learn_phase(without_color)2,854941,,,,,,,,black_plus_sign,,,null,object_09a.png,object_11b.png,,,,,,,,,,,,,,,,,,,,,
null,,black_cross(without_color)2,855749,,,,,,,,blue,,,null,object_09a.png,object_11b.png,,,,,,,,,,,,,,,,,,,,,
null,,rt_plussign_withcolor2,856252,,,,,,,,blue,,,null,object_09a.png,object_11b.png,,,,,,,,,,,,,,,,,,,,,
1187.300000000745,,rt_thecrossant_black2,857451,,,,,,,,black_plus_sign,,,49,,,,1,,,,,,1,,,,,,,,,,,,,
null,,color_black2,857555,,,,,,,,black_plus_sign,,,null,,,,,,,,,,,,,,,,,,,,,,,
null,,learn_phase(without_color)2,861060,,,,,,,,black_plus_sign,,,null,object_05b.png,object_06a.png,,,,,,,,,,,,,,,,,,,,,
null,,black_cross(without_color)2,862111,,,,,,,,blue,,,null,object_05b.png,object_06a.png,,,,,,,,,,,,,,,,,,,,,
null,,rt_plussign_withcolor2,862614,,,,,,,,blue,,,null,object_05b.png,object_06a.png,,,,,,,,,,,,,,,,,,,,,
1142,,rt_thecrossant_black2,863570,,,,,,,,black_plus_sign,,,49,,,,1,,,,,,1,,,,,,,,,,,,,
null,,color_black2,863673,,,,,,,,black_plus_sign,,,null,,,,,,,,,,,,,,,,,,,,,,,
null,,learn_phase(without_color)2,867178,,,,,,,,black_plus_sign,,,null,object_07a.png,object_09b.png,,,,,,,,,,,,,,,,,,,,,
null,,black_cross(without_color)2,868036,,,,,,,,blue,,,null,object_07a.png,object_09b.png,,,,,,,,,,,,,,,,,,,,,
null,,rt_plussign_withcolor2,868539,,,,,,,,blue,,,null,object_07a.png,object_09b.png,,,,,,,,,,,,,,,,,,,,,
1381.300000000745,,rt_thecrossant_black2,869689,,,,,,,,black_plus_sign,,,49,,,,1,,,,,,1,,,,,,,,,,,,,
null,,color_black2,869793,,,,,,,,black_plus_sign,,,null,,,,,,,,,,,,,,,,,,,,,,,
null,,learn_phase(without_color)2,873297,,,,,,,,black_plus_sign,,,null,object_05a.png,object_10c.png,,,,,,,,,,,,,,,,,,,,,
null,,black_cross(without_color)2,873772,,,,,,,,blue,,,null,object_05a.png,object_10c.png,,,,,,,,,,,,,,,,,,,,,
null,,rt_plussign_withcolor2,874274,,,,,,,,blue,,,null,object_05a.png,object_10c.png,,,,,,,,,,,,,,,,,,,,,
1364.2000000011176,,rt_thecrossant_black2,875807,,,,,,,,black_plus_sign,,,49,,,,1,,,,,,1,,,,,,,,,,,,,
null,,color_black2,875910,,,,,,,,black_plus_sign,,,null,,,,,,,,,,,,,,,,,,,,,,,
null,,learn_phase(without_color)2,879415,,,,,,,,black_plus_sign,,,null,object_06c.png,object_13c.png,,,,,,,,,,,,,,,,,,,,,
null,,black_cross(without_color)2,879925,,,,,,,,blue,,,null,object_06c.png,object_13c.png,,,,,,,,,,,,,,,,,,,,,
null,,rt_plussign_withcolor2,880428,,,,,,,,blue,,,null,object_06c.png,object_13c.png,,,,,,,,,,,,,,,,,,,,,
691,,rt_thecrossant_black2,881926,,,,,,,,black_plus_sign,,,49,,,,1,,,,,,1,,,,,,,,,,,,,
null,,color_black2,882030,,,,,,,,black_plus_sign,,,null,,,,,,,,,,,,,,,,,,,,,,,
null,,learn_phase(without_color)2,885534,,,,,,,,black_plus_sign,,,null,object_12b.png,object_07c.png,,,,,,,,,,,,,,,,,,,,,
null,,black_cross(without_color)2,886484,,,,,,,,green,,,null,object_12b.png,object_07c.png,,,,,,,,,,,,,,,,,,,,,
null,,rt_plussign_withcolor2,886987,,,,,,,,green,,,null,object_12b.png,object_07c.png,,,,,,,,,,,,,,,,,,,,,
726.5,,rt_thecrossant_black2,888045,,,,,,,,black_plus_sign,,,50,,,,1,,,,,,1,,,,,,,,,,,,,
null,,color_black2,888149,,,,,,,,black_plus_sign,,,null,,,,,,,,,,,,,,,,,,,,,,,
null,,learn_phase(without_color)2,891654,,,,,,,,black_plus_sign,,,null,object_12a.png,object_14c.png,,,,,,,,,,,,,,,,,,,,,
null,,black_cross(without_color)2,892702,,,,,,,,blue,,,null,object_12a.png,object_14c.png,,,,,,,,,,,,,,,,,,,,,
null,,rt_plussign_withcolor2,893205,,,,,,,,blue,,,null,object_12a.png,object_14c.png,,,,,,,,,,,,,,,,,,,,,
1477.9000000003725,,rt_thecrossant_black2,894165,,,,,,,,black_plus_sign,,,49,,,,1,,,,,,1,,,,,,,,,,,,,
null,,color_black2,894269,,,,,,,,black_plus_sign,,,null,,,,,,,,,,,,,,,,,,,,,,,
null,,learn_phase(without_color)2,897774,,,,,,,,black_plus_sign,,,null,object_09b.png,object_10a.png,,,,,,,,,,,,,,,,,,,,,
null,,black_cross(without_color)2,898842,,,,,,,,blue,,,null,object_09b.png,object_10a.png,,,,,,,,,,,,,,,,,,,,,
null,,rt_plussign_withcolor2,899346,,,,,,,,blue,,,null,object_09b.png,object_10a.png,,,,,,,,,,,,,,,,,,,,,
1290.0999999996275,,rt_thecrossant_black2,900285,,,,,,,,black_plus_sign,,,49,,,,1,,,,,,1,,,,,,,,,,,,,
null,,color_black2,900389,,,,,,,,black_plus_sign,,,null,,,,,,,,,,,,,,,,,,,,,,,
null,,learn_phase(without_color)2,903893,,,,,,,,black_plus_sign,,,null,object_06b.png,object_05c.png,,,,,,,,,,,,,,,,,,,,,
null,,black_cross(without_color)2,904805,,,,,,,,blue,,,null,object_06b.png,object_05c.png,,,,,,,,,,,,,,,,,,,,,
null,,rt_plussign_withcolor2,905308,,,,,,,,blue,,,null,object_06b.png,object_05c.png,,,,,,,,,,,,,,,,,,,,,
1381.4000000003725,,rt_thecrossant_black2,906403,,,,,,,,black_plus_sign,,,49,,,,1,,,,,,1,,,,,,,,,,,,,
null,,color_black2,906507,,,,,,,,black_plus_sign,,,null,,,,,,,,,,,,,,,,,,,,,,,
null,,learn_phase(without_color)2,910012,,,,,,,,black_plus_sign,,,null,object_14a.png,object_12a.png,,,,,,,,,,,,,,,,,,,,,
null,,black_cross(without_color)2,910992,,,,,,,,blue,,,null,object_14a.png,object_12a.png,,,,,,,,,,,,,,,,,,,,,
null,,rt_plussign_withcolor2,911496,,,,,,,,blue,,,null,object_14a.png,object_12a.png,,,,,,,,,,,,,,,,,,,,,
1116.5,,rt_thecrossant_black2,912523,,,,,,,,black_plus_sign,,,49,,,,1,,,,,,1,,,,,,,,,,,,,
null,,color_black2,912626,,,,,,,,black_plus_sign,,,null,,,,,,,,,,,,,,,,,,,,,,,
null,,learn_phase(without_color)2,916131,,,,,,,,black_plus_sign,,,null,object_07b.png,object_09c.png,,,,,,,,,,,,,,,,,,,,,
null,,black_cross(without_color)2,917205,,,,,,,,green,,,null,object_07b.png,object_09c.png,,,,,,,,,,,,,,,,,,,,,
null,,rt_plussign_withcolor2,917709,,,,,,,,green,,,null,object_07b.png,object_09c.png,,,,,,,,,,,,,,,,,,,,,
1149,,rt_thecrossant_black2,918642,,,,,,,,black_plus_sign,,,50,,,,1,,,,,,1,,,,,,,,,,,,,
null,,color_black2,918746,,,,,,,,black_plus_sign,,,null,,,,,,,,,,,,,,,,,,,,,,,
null,,learn_phase(without_color)2,922250,,,,,,,,black_plus_sign,,,null,object_02b.png,object_15b.png,,,,,,,,,,,,,,,,,,,,,
null,,black_cross(without_color)2,923122,,,,,,,,green,,,null,object_02b.png,object_15b.png,,,,,,,,,,,,,,,,,,,,,
null,,rt_plussign_withcolor2,923625,,,,,,,,green,,,null,object_02b.png,object_15b.png,,,,,,,,,,,,,,,,,,,,,
1414.7000000011176,,rt_thecrossant_black2,924762,,,,,,,,black_plus_sign,,,50,,,,1,,,,,,1,,,,,,,,,,,,,
null,,color_black2,924865,,,,,,,,black_plus_sign,,,null,,,,,,,,,,,,,,,,,,,,,,,
null,,learn_phase(without_color)2,928370,,,,,,,,black_plus_sign,,,null,object_01c.png,object_03a.png,,,,,,,,,,,,,,,,,,,,,
null,,black_cross(without_color)2,928888,,,,,,,,blue,,,null,object_01c.png,object_03a.png,,,,,,,,,,,,,,,,,,,,,
null,,rt_plussign_withcolor2,929391,,,,,,,,blue,,,null,object_01c.png,object_03a.png,,,,,,,,,,,,,,,,,,,,,
1189.699999999255,,rt_thecrossant_black2,930881,,,,,,,,black_plus_sign,,,49,,,,1,,,,,,1,,,,,,,,,,,,,
null,,color_black2,930985,,,,,,,,black_plus_sign,,,null,,,,,,,,,,,,,,,,,,,,,,,
null,,learn_phase(without_color)2,934490,,,,,,,,black_plus_sign,,,null,object_09c.png,object_04b.png,,,,,,,,,,,,,,,,,,,,,
null,,black_cross(without_color)2,935212,,,,,,,,blue,,,null,object_09c.png,object_04b.png,,,,,,,,,,,,,,,,,,,,,
null,,rt_plussign_withcolor2,935715,,,,,,,,blue,,,null,object_09c.png,object_04b.png,,,,,,,,,,,,,,,,,,,,,
711.7000000011176,,rt_thecrossant_black2,937000,,,,,,,,black_plus_sign,,,49,,,,1,,,,,,1,,,,,,,,,,,,,
null,,color_black2,937104,,,,,,,,black_plus_sign,,,null,,,,,,,,,,,,,,,,,,,,,,,
null,,learn_phase(without_color)2,940609,,,,,,,,black_plus_sign,,,null,object_10c.png,object_03c.png,,,,,,,,,,,,,,,,,,,,,
null,,black_cross(without_color)2,941037,,,,,,,,green,,,null,object_10c.png,object_03c.png,,,,,,,,,,,,,,,,,,,,,
null,,rt_plussign_withcolor2,941540,,,,,,,,green,,,null,object_10c.png,object_03c.png,,,,,,,,,,,,,,,,,,,,,
1276.199999999255,,rt_thecrossant_black2,943119,,,,,,,,black_plus_sign,,,50,,,,1,,,,,,1,,,,,,,,,,,,,
null,,color_black2,943223,,,,,,,,black_plus_sign,,,null,,,,,,,,,,,,,,,,,,,,,,,
null,,learn_phase(without_color)2,946727,,,,,,,,black_plus_sign,,,null,object_03b.png,object_12b.png,,,,,,,,,,,,,,,,,,,,,
null,,black_cross(without_color)2,947298,,,,,,,,blue,,,null,object_03b.png,object_12b.png,,,,,,,,,,,,,,,,,,,,,
null,,rt_plussign_withcolor2,947801,,,,,,,,blue,,,null,object_03b.png,object_12b.png,,,,,,,,,,,,,,,,,,,,,
551.7000000011176,,rt_thecrossant_black2,949237,,,,,,,,black_plus_sign,,,49,,,,1,,,,,,1,,,,,,,,,,,,,
null,,color_black2,949340,,,,,,,,black_plus_sign,,,null,,,,,,,,,,,,,,,,,,,,,,,
null,,learn_phase(without_color)2,952845,,,,,,,,black_plus_sign,,,null,object_10b.png,object_02c.png,,,,,,,,,,,,,,,,,,,,,
null,,black_cross(without_color)2,953842,,,,,,,,blue,,,null,object_10b.png,object_02c.png,,,,,,,,,,,,,,,,,,,,,
null,,rt_plussign_withcolor2,954345,,,,,,,,blue,,,null,object_10b.png,object_02c.png,,,,,,,,,,,,,,,,,,,,,
862.5,,rt_thecrossant_black2,955355,,,,,,,,black_plus_sign,,,49,,,,1,,,,,,1,,,,,,,,,,,,,
null,,color_black2,955458,,,,,,,,black_plus_sign,,,null,,,,,,,,,,,,,,,,,,,,,,,
null,,learn_phase(without_color)2,958963,,,,,,,,black_plus_sign,,,null,object_03a.png,object_08c.png,,,,,,,,,,,,,,,,,,,,,
null,,black_cross(without_color)2,959557,,,,,,,,blue,,,null,object_03a.png,object_08c.png,,,,,,,,,,,,,,,,,,,,,
null,,rt_plussign_withcolor2,960061,,,,,,,,blue,,,null,object_03a.png,object_08c.png,,,,,,,,,,,,,,,,,,,,,
1461.9000000003725,,rt_thecrossant_black2,961473,,,,,,,,black_plus_sign,,,49,,,,1,,,,,,1,,,,,,,,,,,,,
null,,color_black2,961576,,,,,,,,black_plus_sign,,,null,,,,,,,,,,,,,,,,,,,,,,,
null,,learn_phase(without_color)2,965080,,,,,,,,black_plus_sign,,,null,object_08b.png,object_13a.png,,,,,,,,,,,,,,,,,,,,,
null,,black_cross(without_color)2,965486,,,,,,,,blue,,,null,object_08b.png,object_13a.png,,,,,,,,,,,,,,,,,,,,,
null,,rt_plussign_withcolor2,965989,,,,,,,,blue,,,null,object_08b.png,object_13a.png,,,,,,,,,,,,,,,,,,,,,
819,,rt_thecrossant_black2,967590,,,,,,,,black_plus_sign,,,49,,,,1,,,,,,1,,,,,,,,,,,,,
null,,color_black2,967694,,,,,,,,black_plus_sign,,,null,,,,,,,,,,,,,,,,,,,,,,,
null,,learn_phase(without_color)2,971199,,,,,,,,black_plus_sign,,,null,object_13c.png,object_08a.png,,,,,,,,,,,,,,,,,,,,,
null,,black_cross(without_color)2,971608,,,,,,,,blue,,,null,object_13c.png,object_08a.png,,,,,,,,,,,,,,,,,,,,,
null,,rt_plussign_withcolor2,972112,,,,,,,,blue,,,null,object_13c.png,object_08a.png,,,,,,,,,,,,,,,,,,,,,
620.3000000007451,,rt_thecrossant_black2,973709,,,,,,,,black_plus_sign,,,49,,,,1,,,,,,1,,,,,,,,,,,,,
null,,color_black2,973813,,,,,,,,black_plus_sign,,,null,,,,,,,,,,,,,,,,,,,,,,,
null,,learn_phase(without_color)2,977318,,,,,,,,black_plus_sign,,,null,object_14b.png,object_15c.png,,,,,,,,,,,,,,,,,,,,,
null,,black_cross(without_color)2,977849,,,,,,,,blue,,,null,object_14b.png,object_15c.png,,,,,,,,,,,,,,,,,,,,,
null,,rt_plussign_withcolor2,978352,,,,,,,,blue,,,null,object_14b.png,object_15c.png,,,,,,,,,,,,,,,,,,,,,
999.0999999996275,,rt_thecrossant_black2,979830,,,,,,,,black_plus_sign,,,49,,,,1,,,,,,1,,,,,,,,,,,,,
null,,color_black2,979933,,,,,,,,black_plus_sign,,,null,,,,,,,,,,,,,,,,,,,,,,,
null,,learn_phase(without_color)2,983438,,,,,,,,black_plus_sign,,,null,object_04c.png,object_02a.png,,,,,,,,,,,,,,,,,,,,,
null,,black_cross(without_color)2,984290,,,,,,,,blue,,,null,object_04c.png,object_02a.png,,,,,,,,,,,,,,,,,,,,,
null,,rt_plussign_withcolor2,984791,,,,,,,,blue,,,null,object_04c.png,object_02a.png,,,,,,,,,,,,,,,,,,,,,
1576.7000000011176,,rt_thecrossant_black2,985947,,,,,,,,black_plus_sign,,,49,,,,1,,,,,,1,,,,,,,,,,,,,
null,,color_black2,986051,,,,,,,,black_plus_sign,,,null,,,,,,,,,,,,,,,,,,,,,,,
null,,learn_phase(without_color)2,989557,,,,,,,,black_plus_sign,,,null,object_01b.png,object_14b.png,,,,,,,,,,,,,,,,,,,,,
null,,black_cross(without_color)2,990651,,,,,,,,blue,,,null,object_01b.png,object_14b.png,,,,,,,,,,,,,,,,,,,,,
null,,rt_plussign_withcolor2,991154,,,,,,,,blue,,,null,object_01b.png,object_14b.png,,,,,,,,,,,,,,,,,,,,,
999,,rt_thecrossant_black2,992068,,,,,,,,black_plus_sign,,,49,,,,1,,,,,,1,,,,,,,,,,,,,
null,,color_black2,992172,,,,,,,,black_plus_sign,,,null,,,,,,,,,,,,,,,,,,,,,,,
null,,learn_phase(without_color)2,995677,,,,,,,,black_plus_sign,,,null,object_05c.png,object_01a.png,,,,,,,,,,,,,,,,,,,,,
null,,black_cross(without_color)2,996424,,,,,,,,green,,,null,object_05c.png,object_01a.png,,,,,,,,,,,,,,,,,,,,,
null,,rt_plussign_withcolor2,996927,,,,,,,,green,,,null,object_05c.png,object_01a.png,,,,,,,,,,,,,,,,,,,,,
1508.5999999996275,,rt_thecrossant_black2,998189,,,,,,,,black_plus_sign,,,50,,,,1,,,,,,1,,,,,,,,,,,,,
null,,color_black2,998293,,,,,,,,black_plus_sign,,,null,,,,,,,,,,,,,,,,,,,,,,,
null,,learn_phase(without_color)2,1001797,,,,,,,,black_plus_sign,,,null,object_11a.png,object_09a.png,,,,,,,,,,,,,,,,,,,,,
null,,black_cross(without_color)2,1002436,,,,,,,,green,,,null,object_11a.png,object_09a.png,,,,,,,,,,,,,,,,,,,,,
null,,rt_plussign_withcolor2,1002939,,,,,,,,green,,,null,object_11a.png,object_09a.png,,,,,,,,,,,,,,,,,,,,,
997.6999999992549,,rt_thecrossant_black2,1004308,,,,,,,,black_plus_sign,,,50,,,,1,,,,,,1,,,,,,,,,,,,,
null,,color_black2,1004412,,,,,,,,black_plus_sign,,,null,,,,,,,,,,,,,,,,,,,,,,,
null,,learn_phase(without_color)2,1007918,,,,,,,,black_plus_sign,,,null,object_06a.png,object_13b.png,,,,,,,,,,,,,,,,,,,,,
null,,black_cross(without_color)2,1008846,,,,,,,,green,,,null,object_06a.png,object_13b.png,,,,,,,,,,,,,,,,,,,,,
null,,rt_plussign_withcolor2,1009350,,,,,,,,green,,,null,object_06a.png,object_13b.png,,,,,,,,,,,,,,,,,,,,,
805.7999999988824,,rt_thecrossant_black2,1010428,,,,,,,,black_plus_sign,,,50,,,,1,,,,,,1,,,,,,,,,,,,,
null,,color_black2,1010533,,,,,,,,black_plus_sign,,,null,,,,,,,,,,,,,,,,,,,,,,,
null,,learn_phase(without_color)2,1014038,,,,,,,,black_plus_sign,,,null,object_15b.png,object_15a.png,,,,,,,,,,,,,,,,,,,,,
null,,black_cross(without_color)2,1014681,,,,,,,,blue,,,null,object_15b.png,object_15a.png,,,,,,,,,,,,,,,,,,,,,
null,,rt_plussign_withcolor2,1015185,,,,,,,,blue,,,null,object_15b.png,object_15a.png,,,,,,,,,,,,,,,,,,,,,
1148.9000000003725,,rt_thecrossant_black2,1016550,,,,,,,,black_plus_sign,,,49,,,,1,,,,,,1,,,,,,,,,,,,,
null,,color_black2,1016654,,,,,,,,black_plus_sign,,,null,,,,,,,,,,,,,,,,,,,,,,,
null,,learn_phase(without_color)2,1020160,,,,,,,,black_plus_sign,,,null,object_04a.png,object_08b.png,,,,,,,,,,,,,,,,,,,,,
null,,black_cross(without_color)2,1020644,,,,,,,,green,,,null,object_04a.png,object_08b.png,,,,,,,,,,,,,,,,,,,,,
null,,rt_plussign_withcolor2,1021148,,,,,,,,green,,,null,object_04a.png,object_08b.png,,,,,,,,,,,,,,,,,,,,,
1003.9000000003725,,rt_thecrossant_black2,1022671,,,,,,,,black_plus_sign,,,50,,,,1,,,,,,1,,,,,,,,,,,,,
null,,color_black2,1022774,,,,,,,,black_plus_sign,,,null,,,,,,,,,,,,,,,,,,,,,,,
null,,thebreak,1022879,,,,,,,,<p></p>,,,null,,,,,,,,,,,,,,,,,,,,,,,
1670.5999999996275,,intro_0,1024552,,,,,,,,instruct,,,32,,,,,,,,,,,,,,,,,,,,,,,
3741.9000000003725,,directmemory_phase2,1028296,,,,,,,,object_11b.png,,,50,,,,1,object_13c.png,object_09a.png,object_12b.png,object_09a.png,,0.4838709677419355,,1,,,,,,,,,,,
3964.9000000003725,,directmemory_phase2,1032264,,,,,,,,object_02c.png,,,51,,,,1,object_08b.png,object_15b.png,object_10b.png,object_10b.png,,0.5,,1,,,,,,,,,,,
2508.9000000003725,,directmemory_phase2,1034776,,,,,,,,object_15a.png,,,49,,,,1,object_15b.png,object_12b.png,object_09a.png,object_15b.png,,0.5151515151515151,,1,,,,,,,,,,,
3709.2999999988824,,directmemory_phase2,1038488,,,,,,,,object_10b.png,,,50,,,,0,object_12c.png,object_01b.png,object_03b.png,object_12c.png,,0.5,,0,,,,,,,,,,,
2268.7000000011176,,directmemory_phase2,1040760,,,,,,,,object_12a.png,,,51,,,,1,object_05b.png,object_03b.png,object_14a.png,object_14a.png,,0.5142857142857142,,1,,,,,,,,,,,
3316.10000000149,,directmemory_phase2,1044080,,,,,,,,object_12b.png,,,51,,,,0,object_03b.png,object_04a.png,object_06c.png,object_03b.png,,0.5,,0,,,,,,,,,,,
2452.4000000003725,,directmemory_phase2,1046536,,,,,,,,object_13b.png,,,49,,,,0,object_12b.png,object_09c.png,object_06a.png,object_06a.png,,0.4864864864864865,,0,,,,,,,,,,,
2620.7999999988824,,directmemory_phase2,1049160,,,,,,,,object_10a.png,,,50,,,,1,object_08b.png,object_09b.png,object_09c.png,object_09b.png,,0.5,,1,,,,,,,,,,,
3740.5999999996275,,directmemory_phase2,1052904,,,,,,,,object_09b.png,,,50,,,,0,object_06c.png,object_07b.png,object_07a.png,object_07a.png,,0.48717948717948717,,0,,,,,,,,,,,
3525.0999999996275,,directmemory_phase2,1056432,,,,,,,,object_06a.png,,,51,,,,0,object_05b.png,object_11a.png,object_12c.png,object_05b.png,,0.475,,0,,,,,,,,,,,
3181.199999999255,,directmemory_phase2,1059617,,,,,,,,object_15c.png,,,51,,,,1,object_10b.png,object_10c.png,object_14b.png,object_14b.png,,0.4878048780487805,,1,,,,,,,,,,,
2563.9000000003725,,directmemory_phase2,1062184,,,,,,,,object_14b.png,,,50,,,,1,object_03b.png,object_01b.png,object_01c.png,object_01b.png,,0.5,,1,,,,,,,,,,,
3316.7999999988824,,directmemory_phase2,1065504,,,,,,,,object_03a.png,,,51,,,,0,object_12c.png,object_01c.png,object_05a.png,object_01c.png,,0.4883720930232558,,0,,,,,,,,,,,
2931.7000000011176,,directmemory_phase2,1068440,,,,,,,,object_08c.png,,,49,,,,0,object_05c.png,object_10b.png,object_03a.png,object_03a.png,,0.4772727272727273,,0,,,,,,,,,,,
3861.5999999996275,,directmemory_phase2,1072305,,,,,,,,object_04b.png,,,50,,,,1,object_10b.png,object_09c.png,object_15b.png,object_09c.png,,0.4888888888888889,,1,,,,,,,,,,,
4019.7999999988824,,directmemory_phase2,1076328,,,,,,,,object_13a.png,,,49,,,,1,object_08b.png,object_03a.png,object_10b.png,object_08b.png,,0.5,,1,,,,,,,,,,,
2668.5,,directmemory_phase2,1079000,,,,,,,,object_09a.png,,,50,,,,0,object_11a.png,object_01c.png,object_06b.png,object_11a.png,,0.48936170212765956,,0,,,,,,,,,,,
3204.5,,directmemory_phase2,1082208,,,,,,,,object_03c.png,,,51,,,,0,object_13c.png,object_10c.png,object_15b.png,object_10c.png,,0.4791666666666667,,0,,,,,,,,,,,
2469.2000000011176,,directmemory_phase2,1084681,,,,,,,,object_05c.png,,,51,,,,0,object_06b.png,object_04a.png,object_01c.png,object_06b.png,,0.46938775510204084,,0,,,,,,,,,,,
3220.0999999996275,,directmemory_phase2,1087904,,,,,,,,object_15b.png,,,50,,,,1,object_05a.png,object_02b.png,object_03b.png,object_02b.png,,0.48,,1,,,,,,,,,,,
2420.5,,directmemory_phase2,1090328,,,,,,,,object_02a.png,,,50,,,,1,object_13c.png,object_04c.png,object_09c.png,object_04c.png,,0.49019607843137253,,1,,,,,,,,,,,
3789.199999999255,,directmemory_phase2,1094120,,,,,,,,object_10c.png,,,51,,,,1,object_12c.png,object_05b.png,object_05a.png,object_05a.png,,0.5,,1,,,,,,,,,,,
3076.89999999851,,directmemory_phase2,1097201,,,,,,,,object_08a.png,,,50,,,,1,object_06a.png,object_13c.png,object_10b.png,object_13c.png,,0.5094339622641509,,1,,,,,,,,,,,
3324,,directmemory_phase2,1100528,,,,,,,,object_13c.png,,,51,,,,0,object_01c.png,object_06c.png,object_11a.png,object_06c.png,,0.5,,0,,,,,,,,,,,
2684,,directmemory_phase2,1103216,,,,,,,,object_07c.png,,,50,,,,1,object_10c.png,object_12b.png,object_04c.png,object_12b.png,,0.509090909090909,,1,,,,,,,,,,,
2740.2000000011176,,directmemory_phase2,1105960,,,,,,,,object_08b.png,,,50,,,,0,object_01c.png,object_12c.png,object_04a.png,object_04a.png,,0.5,,0,,,,,,,,,,,
3764.699999999255,,directmemory_phase2,1109728,,,,,,,,object_14c.png,,,50,,,,0,object_12a.png,object_05c.png,object_13c.png,object_12a.png,,0.49122807017543857,,0,,,,,,,,,,,
2428.0999999996275,,directmemory_phase2,1112160,,,,,,,,object_01a.png,,,49,,,,1,object_05c.png,object_10b.png,object_10c.png,object_05c.png,,0.5,,1,,,,,,,,,,,
3045.0999999996275,,directmemory_phase2,1115208,,,,,,,,object_09c.png,,,50,,,,1,object_11a.png,object_07b.png,object_02b.png,object_07b.png,,0.5084745762711864,,1,,,,,,,,,,,
3301,,directmemory_phase2,1118512,,,,,,,,object_04c.png,,,49,,,,1,object_11c.png,object_05b.png,object_11a.png,object_11c.png,,0.5166666666666667,,1,,,,,,,,,,,
null,,thebreak,1118617,,,,,,,,<p></p>,,,null,,,,,,,,,,,,,,,,,,,,,,,
2005.5999999996275,,intro_0,1120625,,,,,,,,instruct,,,32,,,,,,,,,,,,,,,,,,,,,,,
null,,learn_phase(without_color)3,1124128,,,,,,,,black_plus_sign,,,null,object_05b.png,object_06a.png,,,,,,,,,,,,,,,,,,,,,
null,,black_cross(without_color)3,1125098,,,,,,,,blue,,,null,object_05b.png,object_06a.png,,,,,,,,,,,,,,,,,,,,,
null,,rt_plussign_withcolor3,1125601,,,,,,,,blue,,,null,object_05b.png,object_06a.png,,,,,,,,,,,,,,,,,,,,,
null,,rt_thecrossant_black3,1126639,,,,,,,,black_plus_sign,,,null,,,,,,,,,,NaN,,,,,,,,,,,,,
null,,color_black3,1126743,,,,,,,,black_plus_sign,,,null,,,,,,,,,,,,,,,,,,,,,,,
null,,learn_phase(without_color)3,1130247,,,,,,,,black_plus_sign,,,null,object_03b.png,object_12b.png,,,,,,,,,,,,,,,,,,,,,
null,,black_cross(without_color)3,1131196,,,,,,,,green,,,null,object_03b.png,object_12b.png,,,,,,,,,,,,,,,,,,,,,
null,,rt_plussign_withcolor3,1131699,,,,,,,,green,,,null,object_03b.png,object_12b.png,,,,,,,,,,,,,,,,,,,,,
1284.6000000014901,,rt_thecrossant_black3,1132758,,,,,,,,black_plus_sign,,,50,,,,1,,,,,,1,,,,,,,,,,,,,
null,,color_black3,1132862,,,,,,,,black_plus_sign,,,null,,,,,,,,,,,,,,,,,,,,,,,
null,,learn_phase(without_color)3,1136367,,,,,,,,black_plus_sign,,,null,object_11c.png,object_04c.png,,,,,,,,,,,,,,,,,,,,,
null,,black_cross(without_color)3,1137145,,,,,,,,blue,,,null,object_11c.png,object_04c.png,,,,,,,,,,,,,,,,,,,,,
null,,rt_plussign_withcolor3,1137649,,,,,,,,blue,,,null,object_11c.png,object_04c.png,,,,,,,,,,,,,,,,,,,,,
1218.300000000745,,rt_thecrossant_black3,1138879,,,,,,,,black_plus_sign,,,49,,,,1,,,,,,1,,,,,,,,,,,,,
null,,color_black3,1138983,,,,,,,,black_plus_sign,,,null,,,,,,,,,,,,,,,,,,,,,,,
null,,learn_phase(without_color)3,1142488,,,,,,,,black_plus_sign,,,null,object_07b.png,object_09c.png,,,,,,,,,,,,,,,,,,,,,
null,,black_cross(without_color)3,1143485,,,,,,,,green,,,null,object_07b.png,object_09c.png,,,,,,,,,,,,,,,,,,,,,
null,,rt_plussign_withcolor3,1143989,,,,,,,,green,,,null,object_07b.png,object_09c.png,,,,,,,,,,,,,,,,,,,,,
1020,,rt_thecrossant_black3,1144999,,,,,,,,black_plus_sign,,,50,,,,1,,,,,,1,,,,,,,,,,,,,
null,,color_black3,1145102,,,,,,,,black_plus_sign,,,null,,,,,,,,,,,,,,,,,,,,,,,
null,,learn_phase(without_color)3,1148607,,,,,,,,black_plus_sign,,,null,object_01b.png,object_14b.png,,,,,,,,,,,,,,,,,,,,,
null,,black_cross(without_color)3,1149069,,,,,,,,green,,,null,object_01b.png,object_14b.png,,,,,,,,,,,,,,,,,,,,,
497.5,,rt_plussign_withcolor3,1149572,,,,,,,,green,,,50,object_01b.png,object_14b.png,,,,,,,,,,,,,,,,,,,,,
null,,rt_thecrossant_black3,1151118,,,,,,,,black_plus_sign,,,null,,,,1,,,,,,1,,,,,,,,,,,,,
null,,color_black3,1151221,,,,,,,,black_plus_sign,,,null,,,,,,,,,,,,,,,,,,,,,,,
null,,learn_phase(without_color)3,1154727,,,,,,,,black_plus_sign,,,null,object_09b.png,object_10a.png,,,,,,,,,,,,,,,,,,,,,
null,,black_cross(without_color)3,1155318,,,,,,,,green,,,null,object_09b.png,object_10a.png,,,,,,,,,,,,,,,,,,,,,
null,,rt_plussign_withcolor3,1155821,,,,,,,,green,,,null,object_09b.png,object_10a.png,,,,,,,,,,,,,,,,,,,,,
759.7000000011176,,rt_thecrossant_black3,1157238,,,,,,,,black_plus_sign,,,50,,,,1,,,,,,1,,,,,,,,,,,,,
null,,color_black3,1157343,,,,,,,,black_plus_sign,,,null,,,,,,,,,,,,,,,,,,,,,,,
null,,learn_phase(without_color)3,1160847,,,,,,,,black_plus_sign,,,null,object_09a.png,object_11b.png,,,,,,,,,,,,,,,,,,,,,
null,,black_cross(without_color)3,1161559,,,,,,,,blue,,,null,object_09a.png,object_11b.png,,,,,,,,,,,,,,,,,,,,,
null,,rt_plussign_withcolor3,1162063,,,,,,,,blue,,,null,object_09a.png,object_11b.png,,,,,,,,,,,,,,,,,,,,,
870.2000000011176,,rt_thecrossant_black3,1163359,,,,,,,,black_plus_sign,,,49,,,,1,,,,,,1,,,,,,,,,,,,,
null,,color_black3,1163463,,,,,,,,black_plus_sign,,,null,,,,,,,,,,,,,,,,,,,,,,,
null,,learn_phase(without_color)3,1166968,,,,,,,,black_plus_sign,,,null,object_14a.png,object_12a.png,,,,,,,,,,,,,,,,,,,,,
null,,black_cross(without_color)3,1168051,,,,,,,,green,,,null,object_14a.png,object_12a.png,,,,,,,,,,,,,,,,,,,,,
null,,rt_plussign_withcolor3,1168554,,,,,,,,green,,,null,object_14a.png,object_12a.png,,,,,,,,,,,,,,,,,,,,,
1012.6999999992549,,rt_thecrossant_black3,1169480,,,,,,,,black_plus_sign,,,50,,,,1,,,,,,1,,,,,,,,,,,,,
null,,color_black3,1169584,,,,,,,,black_plus_sign,,,null,,,,,,,,,,,,,,,,,,,,,,,
null,,learn_phase(without_color)3,1173089,,,,,,,,black_plus_sign,,,null,object_06b.png,object_05c.png,,,,,,,,,,,,,,,,,,,,,
null,,black_cross(without_color)3,1173867,,,,,,,,green,,,null,object_06b.png,object_05c.png,,,,,,,,,,,,,,,,,,,,,
null,,rt_plussign_withcolor3,1174370,,,,,,,,green,,,null,object_06b.png,object_05c.png,,,,,,,,,,,,,,,,,,,,,
1375.5999999996275,,rt_thecrossant_black3,1175599,,,,,,,,black_plus_sign,,,50,,,,1,,,,,,1,,,,,,,,,,,,,
null,,color_black3,1175703,,,,,,,,black_plus_sign,,,null,,,,,,,,,,,,,,,,,,,,,,,
null,,learn_phase(without_color)3,1179207,,,,,,,,black_plus_sign,,,null,object_13c.png,object_08a.png,,,,,,,,,,,,,,,,,,,,,
null,,black_cross(without_color)3,1180238,,,,,,,,blue,,,null,object_13c.png,object_08a.png,,,,,,,,,,,,,,,,,,,,,
null,,rt_plussign_withcolor3,1180742,,,,,,,,blue,,,null,object_13c.png,object_08a.png,,,,,,,,,,,,,,,,,,,,,
964.3000000007451,,rt_thecrossant_black3,1181719,,,,,,,,black_plus_sign,,,49,,,,1,,,,,,1,,,,,,,,,,,,,
null,,color_black3,1181824,,,,,,,,black_plus_sign,,,null,,,,,,,,,,,,,,,,,,,,,,,
null,,learn_phase(without_color)3,1185329,,,,,,,,black_plus_sign,,,null,object_10c.png,object_03c.png,,,,,,,,,,,,,,,,,,,,,
null,,black_cross(without_color)3,1185755,,,,,,,,blue,,,null,object_10c.png,object_03c.png,,,,,,,,,,,,,,,,,,,,,
null,,rt_plussign_withcolor3,1186258,,,,,,,,blue,,,null,object_10c.png,object_03c.png,,,,,,,,,,,,,,,,,,,,,
1354.800000000745,,rt_thecrossant_black3,1187841,,,,,,,,black_plus_sign,,,50,,,,0,,,,,,0.9,,,,,,,,,,,,,
null,,color_black3,1187945,,,,,,,,black_plus_sign,,,null,,,,,,,,,,,,,,,,,,,,,,,
null,,learn_phase(without_color)3,1191451,,,,,,,,black_plus_sign,,,null,object_14b.png,object_15c.png,,,,,,,,,,,,,,,,,,,,,
null,,black_cross(without_color)3,1192009,,,,,,,,blue,,,null,object_14b.png,object_15c.png,,,,,,,,,,,,,,,,,,,,,
null,,rt_plussign_withcolor3,1192513,,,,,,,,blue,,,null,object_14b.png,object_15c.png,,,,,,,,,,,,,,,,,,,,,
623.2999999988824,,rt_thecrossant_black3,1193962,,,,,,,,black_plus_sign,,,49,,,,1,,,,,,0.9090909090909091,,,,,,,,,,,,,
null,,color_black3,1194067,,,,,,,,black_plus_sign,,,null,,,,,,,,,,,,,,,,,,,,,,,
null,,learn_phase(without_color)3,1197572,,,,,,,,black_plus_sign,,,null,object_15b.png,object_15a.png,,,,,,,,,,,,,,,,,,,,,
null,,black_cross(without_color)3,1198179,,,,,,,,green,,,null,object_15b.png,object_15a.png,,,,,,,,,,,,,,,,,,,,,
null,,rt_plussign_withcolor3,1198682,,,,,,,,green,,,null,object_15b.png,object_15a.png,,,,,,,,,,,,,,,,,,,,,
1155.4000000003725,,rt_thecrossant_black3,1200083,,,,,,,,black_plus_sign,,,50,,,,1,,,,,,0.9166666666666666,,,,,,,,,,,,,
null,,color_black3,1200187,,,,,,,,black_plus_sign,,,null,,,,,,,,,,,,,,,,,,,,,,,
null,,learn_phase(without_color)3,1203693,,,,,,,,black_plus_sign,,,null,object_05a.png,object_10c.png,,,,,,,,,,,,,,,,,,,,,
null,,black_cross(without_color)3,1204551,,,,,,,,blue,,,null,object_05a.png,object_10c.png,,,,,,,,,,,,,,,,,,,,,
null,,rt_plussign_withcolor3,1205055,,,,,,,,blue,,,null,object_05a.png,object_10c.png,,,,,,,,,,,,,,,,,,,,,
1142.9000000003725,,rt_thecrossant_black3,1206204,,,,,,,,black_plus_sign,,,49,,,,1,,,,,,0.9230769230769231,,,,,,,,,,,,,
null,,color_black3,1206308,,,,,,,,black_plus_sign,,,null,,,,,,,,,,,,,,,,,,,,,,,
null,,learn_phase(without_color)3,1209813,,,,,,,,black_plus_sign,,,null,object_12c.png,object_10b.png,,,,,,,,,,,,,,,,,,,,,
null,,black_cross(without_color)3,1210389,,,,,,,,green,,,null,object_12c.png,object_10b.png,,,,,,,,,,,,,,,,,,,,,
null,,rt_plussign_withcolor3,1210893,,,,,,,,green,,,null,object_12c.png,object_10b.png,,,,,,,,,,,,,,,,,,,,,
1484.800000000745,,rt_thecrossant_black3,1212324,,,,,,,,black_plus_sign,,,50,,,,1,,,,,,0.9285714285714286,,,,,,,,,,,,,
null,,color_black3,1212428,,,,,,,,black_plus_sign,,,null,,,,,,,,,,,,,,,,,,,,,,,
null,,learn_phase(without_color)3,1215933,,,,,,,,black_plus_sign,,,null,object_12a.png,object_14c.png,,,,,,,,,,,,,,,,,,,,,
null,,black_cross(without_color)3,1216858,,,,,,,,blue,,,null,object_12a.png,object_14c.png,,,,,,,,,,,,,,,,,,,,,
null,,rt_plussign_withcolor3,1217361,,,,,,,,blue,,,null,object_12a.png,object_14c.png,,,,,,,,,,,,,,,,,,,,,
774.0999999996275,,rt_thecrossant_black3,1218446,,,,,,,,black_plus_sign,,,49,,,,1,,,,,,0.9333333333333333,,,,,,,,,,,,,
null,,color_black3,1218550,,,,,,,,black_plus_sign,,,null,,,,,,,,,,,,,,,,,,,,,,,
null,,learn_phase(without_color)3,1222055,,,,,,,,black_plus_sign,,,null,object_01c.png,object_03a.png,,,,,,,,,,,,,,,,,,,,,
null,,black_cross(without_color)3,1223149,,,,,,,,green,,,null,object_01c.png,object_03a.png,,,,,,,,,,,,,,,,,,,,,
null,,rt_plussign_withcolor3,1223653,,,,,,,,green,,,null,object_01c.png,object_03a.png,,,,,,,,,,,,,,,,,,,,,
1067.9000000003725,,rt_thecrossant_black3,1224566,,,,,,,,black_plus_sign,,,50,,,,1,,,,,,0.9375,,,,,,,,,,,,,
null,,color_black3,1224670,,,,,,,,black_plus_sign,,,null,,,,,,,,,,,,,,,,,,,,,,,
null,,learn_phase(without_color)3,1228175,,,,,,,,black_plus_sign,,,null,object_04c.png,object_02a.png,,,,,,,,,,,,,,,,,,,,,
null,,black_cross(without_color)3,1228844,,,,,,,,blue,,,null,object_04c.png,object_02a.png,,,,,,,,,,,,,,,,,,,,,
null,,rt_plussign_withcolor3,1229347,,,,,,,,blue,,,null,object_04c.png,object_02a.png,,,,,,,,,,,,,,,,,,,,,
1403,,rt_thecrossant_black3,1230686,,,,,,,,black_plus_sign,,,49,,,,1,,,,,,0.9411764705882353,,,,,,,,,,,,,
null,,color_black3,1230791,,,,,,,,black_plus_sign,,,null,,,,,,,,,,,,,,,,,,,,,,,
null,,learn_phase(without_color)3,1234295,,,,,,,,black_plus_sign,,,null,object_10b.png,object_02c.png,,,,,,,,,,,,,,,,,,,,,
null,,black_cross(without_color)3,1235311,,,,,,,,green,,,null,object_10b.png,object_02c.png,,,,,,,,,,,,,,,,,,,,,
null,,rt_plussign_withcolor3,1235814,,,,,,,,green,,,null,object_10b.png,object_02c.png,,,,,,,,,,,,,,,,,,,,,
770.5999999996275,,rt_thecrossant_black3,1236807,,,,,,,,black_plus_sign,,,50,,,,1,,,,,,0.9444444444444444,,,,,,,,,,,,,
null,,color_black3,1236911,,,,,,,,black_plus_sign,,,null,,,,,,,,,,,,,,,,,,,,,,,
null,,learn_phase(without_color)3,1240416,,,,,,,,black_plus_sign,,,null,object_06a.png,object_13b.png,,,,,,,,,,,,,,,,,,,,,
null,,black_cross(without_color)3,1241020,,,,,,,,blue,,,null,object_06a.png,object_13b.png,,,,,,,,,,,,,,,,,,,,,
null,,rt_plussign_withcolor3,1241524,,,,,,,,blue,,,null,object_06a.png,object_13b.png,,,,,,,,,,,,,,,,,,,,,
1290.4000000003725,,rt_thecrossant_black3,1242929,,,,,,,,black_plus_sign,,,49,,,,1,,,,,,0.9473684210526315,,,,,,,,,,,,,
null,,color_black3,1243033,,,,,,,,black_plus_sign,,,null,,,,,,,,,,,,,,,,,,,,,,,
null,,learn_phase(without_color)3,1246538,,,,,,,,black_plus_sign,,,null,object_07a.png,object_09b.png,,,,,,,,,,,,,,,,,,,,,
null,,black_cross(without_color)3,1246943,,,,,,,,green,,,null,object_07a.png,object_09b.png,,,,,,,,,,,,,,,,,,,,,
null,,rt_plussign_withcolor3,1247446,,,,,,,,green,,,null,object_07a.png,object_09b.png,,,,,,,,,,,,,,,,,,,,,
988.3000000007451,,rt_thecrossant_black3,1249050,,,,,,,,black_plus_sign,,,50,,,,1,,,,,,0.95,,,,,,,,,,,,,
null,,color_black3,1249153,,,,,,,,black_plus_sign,,,null,,,,,,,,,,,,,,,,,,,,,,,
null,,learn_phase(without_color)3,1252659,,,,,,,,black_plus_sign,,,null,object_06c.png,object_13c.png,,,,,,,,,,,,,,,,,,,,,
null,,black_cross(without_color)3,1253117,,,,,,,,green,,,null,object_06c.png,object_13c.png,,,,,,,,,,,,,,,,,,,,,
null,,rt_plussign_withcolor3,1253620,,,,,,,,green,,,null,object_06c.png,object_13c.png,,,,,,,,,,,,,,,,,,,,,
823.8000000007451,,rt_thecrossant_black3,1255170,,,,,,,,black_plus_sign,,,50,,,,1,,,,,,0.9523809523809523,,,,,,,,,,,,,
null,,color_black3,1255275,,,,,,,,black_plus_sign,,,null,,,,,,,,,,,,,,,,,,,,,,,
null,,learn_phase(without_color)3,1258780,,,,,,,,black_plus_sign,,,null,object_09c.png,object_04b.png,,,,,,,,,,,,,,,,,,,,,
null,,black_cross(without_color)3,1259557,,,,,,,,blue,,,null,object_09c.png,object_04b.png,,,,,,,,,,,,,,,,,,,,,
null,,rt_plussign_withcolor3,1260061,,,,,,,,blue,,,null,object_09c.png,object_04b.png,,,,,,,,,,,,,,,,,,,,,
916.0999999996275,,rt_thecrossant_black3,1261292,,,,,,,,black_plus_sign,,,49,,,,1,,,,,,0.9545454545454546,,,,,,,,,,,,,
null,,color_black3,1261396,,,,,,,,black_plus_sign,,,null,,,,,,,,,,,,,,,,,,,,,,,
null,,learn_phase(without_color)3,1264901,,,,,,,,black_plus_sign,,,null,object_05c.png,object_01a.png,,,,,,,,,,,,,,,,,,,,,
null,,black_cross(without_color)3,1265995,,,,,,,,blue,,,null,object_05c.png,object_01a.png,,,,,,,,,,,,,,,,,,,,,
null,,rt_plussign_withcolor3,1266498,,,,,,,,blue,,,null,object_05c.png,object_01a.png,,,,,,,,,,,,,,,,,,,,,
1142.2999999988824,,rt_thecrossant_black3,1267413,,,,,,,,black_plus_sign,,,49,,,,1,,,,,,0.9565217391304348,,,,,,,,,,,,,
null,,color_black3,1267517,,,,,,,,black_plus_sign,,,null,,,,,,,,,,,,,,,,,,,,,,,
null,,learn_phase(without_color)3,1271022,,,,,,,,black_plus_sign,,,null,object_04a.png,object_08b.png,,,,,,,,,,,,,,,,,,,,,
null,,black_cross(without_color)3,1272113,,,,,,,,blue,,,null,object_04a.png,object_08b.png,,,,,,,,,,,,,,,,,,,,,
null,,rt_plussign_withcolor3,1272616,,,,,,,,blue,,,null,object_04a.png,object_08b.png,,,,,,,,,,,,,,,,,,,,,
1493.2000000011176,,rt_thecrossant_black3,1273533,,,,,,,,black_plus_sign,,,49,,,,1,,,,,,0.9583333333333334,,,,,,,,,,,,,
null,,color_black3,1273638,,,,,,,,black_plus_sign,,,null,,,,,,,,,,,,,,,,,,,,,,,
null,,learn_phase(without_color)3,1277143,,,,,,,,black_plus_sign,,,null,object_11a.png,object_09a.png,,,,,,,,,,,,,,,,,,,,,
null,,black_cross(without_color)3,1277858,,,,,,,,green,,,null,object_11a.png,object_09a.png,,,,,,,,,,,,,,,,,,,,,
null,,rt_plussign_withcolor3,1278361,,,,,,,,green,,,null,object_11a.png,object_09a.png,,,,,,,,,,,,,,,,,,,,,
1377,,rt_thecrossant_black3,1279655,,,,,,,,black_plus_sign,,,50,,,,1,,,,,,0.96,,,,,,,,,,,,,
null,,color_black3,1279760,,,,,,,,black_plus_sign,,,null,,,,,,,,,,,,,,,,,,,,,,,
null,,learn_phase(without_color)3,1283264,,,,,,,,black_plus_sign,,,null,object_02b.png,object_15b.png,,,,,,,,,,,,,,,,,,,,,
null,,black_cross(without_color)3,1283761,,,,,,,,blue,,,null,object_02b.png,object_15b.png,,,,,,,,,,,,,,,,,,,,,
null,,rt_plussign_withcolor3,1284264,,,,,,,,blue,,,null,object_02b.png,object_15b.png,,,,,,,,,,,,,,,,,,,,,
null,,rt_thecrossant_black3,1285776,,,,,,,,black_plus_sign,,,null,,,,,,,,,,0.96,,,,,,,,,,,,,
null,,color_black3,1285880,,,,,,,,black_plus_sign,,,null,,,,,,,,,,,,,,,,,,,,,,,
null,,learn_phase(without_color)3,1289386,,,,,,,,black_plus_sign,,,null,object_12b.png,object_07c.png,,,,,,,,,,,,,,,,,,,,,
null,,black_cross(without_color)3,1290346,,,,,,,,blue,,,null,object_12b.png,object_07c.png,,,,,,,,,,,,,,,,,,,,,
null,,rt_plussign_withcolor3,1290850,,,,,,,,blue,,,null,object_12b.png,object_07c.png,,,,,,,,,,,,,,,,,,,,,
685.1999999992549,,rt_thecrossant_black3,1291898,,,,,,,,black_plus_sign,,,49,,,,1,,,,,,0.9615384615384616,,,,,,,,,,,,,
null,,color_black3,1292002,,,,,,,,black_plus_sign,,,null,,,,,,,,,,,,,,,,,,,,,,,
null,,learn_phase(without_color)3,1295506,,,,,,,,black_plus_sign,,,null,object_03a.png,object_08c.png,,,,,,,,,,,,,,,,,,,,,
null,,black_cross(without_color)3,1296042,,,,,,,,green,,,null,object_03a.png,object_08c.png,,,,,,,,,,,,,,,,,,,,,
null,,rt_plussign_withcolor3,1296546,,,,,,,,green,,,null,object_03a.png,object_08c.png,,,,,,,,,,,,,,,,,,,,,
1268.7999999988824,,rt_thecrossant_black3,1298018,,,,,,,,black_plus_sign,,,50,,,,1,,,,,,0.9629629629629629,,,,,,,,,,,,,
null,,color_black3,1298122,,,,,,,,black_plus_sign,,,null,,,,,,,,,,,,,,,,,,,,,,,
null,,learn_phase(without_color)3,1301628,,,,,,,,black_plus_sign,,,null,object_08b.png,object_13a.png,,,,,,,,,,,,,,,,,,,,,
null,,black_cross(without_color)3,1302219,,,,,,,,green,,,null,object_08b.png,object_13a.png,,,,,,,,,,,,,,,,,,,,,
null,,rt_plussign_withcolor3,1302723,,,,,,,,green,,,null,object_08b.png,object_13a.png,,,,,,,,,,,,,,,,,,,,,
893.3000000007451,,rt_thecrossant_black3,1304140,,,,,,,,black_plus_sign,,,50,,,,1,,,,,,0.9642857142857143,,,,,,,,,,,,,
null,,color_black3,1304244,,,,,,,,black_plus_sign,,,null,,,,,,,,,,,,,,,,,,,,,,,
null,,thebreak,1304349,,,,,,,,<p></p>,,,null,,,,,,,,,,,,,,,,,,,,,,,
11322.799999998882,,intro_0,1315674,,,,,,,,instruct,,,32,,,,,,,,,,,,,,,,,,,,,,,
4869.800000000745,,directmemory_phase3,1320546,,,,,,,,object_09a.png,,,49,,,,1,object_11a.png,object_06b.png,object_07b.png,object_11a.png,,0.5245901639344263,,1,,,,,,,,,,,
3380.5,,directmemory_phase3,1323930,,,,,,,,object_14c.png,,,49,,,,0,object_15b.png,object_13c.png,object_12a.png,object_12a.png,,0.5161290322580645,,0,,,,,,,,,,,
3980.60000000149,,directmemory_phase3,1327914,,,,,,,,object_02c.png,,,50,,,,0,object_10b.png,object_14b.png,object_03a.png,object_10b.png,,0.5079365079365079,,0,,,,,,,,,,,
3083.7000000011176,,directmemory_phase3,1331002,,,,,,,,object_08b.png,,,49,,,,0,object_06b.png,object_11a.png,object_04a.png,object_04a.png,,0.5,,0,,,,,,,,,,,
3813.300000000745,,directmemory_phase3,1334819,,,,,,,,object_08c.png,,,49,,,,0,object_09a.png,object_10c.png,object_03a.png,object_03a.png,,0.49230769230769234,,0,,,,,,,,,,,
3316,,directmemory_phase3,1338138,,,,,,,,object_10c.png,,,49,,,,0,object_11c.png,object_05a.png,object_04a.png,object_05a.png,,0.48484848484848486,,0,,,,,,,,,,,
3692.4000000003725,,directmemory_phase3,1341834,,,,,,,,object_13a.png,,,49,,,,0,object_09c.png,object_08b.png,object_12b.png,object_08b.png,,0.47761194029850745,,0,,,,,,,,,,,
2036.7999999988824,,directmemory_phase3,1343874,,,,,,,,object_08a.png,,,49,,,,1,object_13c.png,object_10c.png,object_15b.png,object_13c.png,,0.4852941176470588,,1,,,,,,,,,,,
2540.2000000011176,,directmemory_phase3,1346418,,,,,,,,object_13c.png,,,49,,,,0,object_04a.png,object_06c.png,object_07b.png,object_06c.png,,0.4782608695652174,,0,,,,,,,,,,,
2796.699999999255,,directmemory_phase3,1349219,,,,,,,,object_15a.png,,,50,,,,0,object_08b.png,object_13c.png,object_15b.png,object_15b.png,,0.4714285714285714,,0,,,,,,,,,,,
3884.0999999996275,,directmemory_phase3,1353106,,,,,,,,object_03c.png,,,50,,,,0,object_09c.png,object_14b.png,object_10c.png,object_10c.png,,0.4647887323943662,,0,,,,,,,,,,,
3892.300000000745,,directmemory_phase3,1357002,,,,,,,,object_04c.png,,,49,,,,1,object_11c.png,object_01c.png,object_03b.png,object_11c.png,,0.4722222222222222,,1,,,,,,,,,,,
2900.9000000003725,,directmemory_phase3,1359907,,,,,,,,object_12a.png,,,50,,,,1,object_11a.png,object_14a.png,object_03b.png,object_14a.png,,0.4794520547945205,,1,,,,,,,,,,,
3499.5999999996275,,directmemory_phase3,1363410,,,,,,,,object_14b.png,,,50,,,,1,object_04a.png,object_01b.png,object_14a.png,object_01b.png,,0.4864864864864865,,1,,,,,,,,,,,
3388.2999999988824,,directmemory_phase3,1366802,,,,,,,,object_07c.png,,,50,,,,1,object_10c.png,object_12b.png,object_08b.png,object_12b.png,,0.49333333333333335,,1,,,,,,,,,,,
3452.9000000003725,,directmemory_phase3,1370259,,,,,,,,object_05c.png,,,51,,,,1,object_07b.png,object_03b.png,object_06b.png,object_06b.png,,0.5,,1,,,,,,,,,,,
3748.0999999996275,,directmemory_phase3,1374010,,,,,,,,object_13b.png,,,50,,,,0,object_13c.png,object_12a.png,object_06a.png,object_06a.png,,0.4935064935064935,,0,,,,,,,,,,,
1948.0999999996275,,directmemory_phase3,1375962,,,,,,,,object_01a.png,,,50,,,,0,object_12a.png,object_06a.png,object_05c.png,object_05c.png,,0.48717948717948717,,0,,,,,,,,,,,
3412.199999999255,,directmemory_phase3,1379378,,,,,,,,object_06a.png,,,51,,,,1,object_05a.png,object_11a.png,object_05b.png,object_05b.png,,0.4936708860759494,,1,,,,,,,,,,,
2268.5999999996275,,directmemory_phase3,1381651,,,,,,,,object_02a.png,,,49,,,,1,object_04c.png,object_03a.png,object_14b.png,object_04c.png,,0.5,,1,,,,,,,,,,,
2460.199999999255,,directmemory_phase3,1384114,,,,,,,,object_11b.png,,,51,,,,0,object_09a.png,object_09c.png,object_12b.png,object_09a.png,,0.49382716049382713,,0,,,,,,,,,,,
2260.4000000003725,,directmemory_phase3,1386379,,,,,,,,object_04b.png,,,49,,,,1,object_09c.png,object_06a.png,object_13c.png,object_09c.png,,0.5,,1,,,,,,,,,,,
2931.7000000011176,,directmemory_phase3,1389315,,,,,,,,object_15c.png,,,51,,,,0,object_14b.png,object_12b.png,object_09c.png,object_14b.png,,0.4939759036144578,,0,,,,,,,,,,,
2052.2999999988824,,directmemory_phase3,1391371,,,,,,,,object_10a.png,,,51,,,,1,object_13c.png,object_10c.png,object_09b.png,object_09b.png,,0.5,,1,,,,,,,,,,,
3276.5999999996275,,directmemory_phase3,1394651,,,,,,,,object_10b.png,,,50,,,,0,object_12c.png,object_04a.png,object_07b.png,object_12c.png,,0.49411764705882355,,0,,,,,,,,,,,
3363.5,,directmemory_phase3,1398019,,,,,,,,object_12b.png,,,49,,,,0,object_02b.png,object_11c.png,object_03b.png,object_03b.png,,0.4883720930232558,,0,,,,,,,,,,,
2419.9000000003725,,directmemory_phase3,1400443,,,,,,,,object_09b.png,,,49,,,,1,object_07a.png,object_05a.png,object_05b.png,object_07a.png,,0.4942528735632184,,1,,,,,,,,,,,
2988.300000000745,,directmemory_phase3,1403434,,,,,,,,object_15b.png,,,50,,,,1,object_06b.png,object_02b.png,object_01b.png,object_02b.png,,0.5,,1,,,,,,,,,,,
2165.4000000003725,,directmemory_phase3,1405603,,,,,,,,object_09c.png,,,50,,,,1,object_06c.png,object_07b.png,object_05a.png,object_07b.png,,0.5056179775280899,,1,,,,,,,,,,,
1955.699999999255,,directmemory_phase3,1407563,,,,,,,,object_03a.png,,,50,,,,0,object_06b.png,object_14a.png,object_01c.png,object_01c.png,,0.5,,0,,,,,,,,,,,
null,,thebreak,1407668,,,,,,,,<p></p>,,,null,,,,,,,,,,,,,,,,,,,,,,,
2379.5,,intro_0,1410050,,,,,,,,instruct,,,32,,,,,,,,,,,,,,,,,,,,,,,
null,,learn_phase(without_color)4,1413554,,,,,,,,black_plus_sign,,,null,object_12b.png,object_07c.png,,,,,,,,,,,,,,,,,,,,,
null,,black_cross(without_color)4,1413980,,,,,,,,blue,,,null,object_12b.png,object_07c.png,,,,,,,,,,,,,,,,,,,,,
null,,rt_plussign_withcolor4,1414484,,,,,,,,blue,,,null,object_12b.png,object_07c.png,,,,,,,,,,,,,,,,,,,,,
686.1999999992549,,rt_thecrossant_black4,1416066,,,,,,,,black_plus_sign,,,49,,,,1,,,,,,1,,,,,,,,,,,,,
null,,color_black4,1416170,,,,,,,,black_plus_sign,,,null,,,,,,,,,,,,,,,,,,,,,,,
null,,learn_phase(without_color)4,1419676,,,,,,,,black_plus_sign,,,null,object_04a.png,object_08b.png,,,,,,,,,,,,,,,,,,,,,
null,,black_cross(without_color)4,1420160,,,,,,,,green,,,null,object_04a.png,object_08b.png,,,,,,,,,,,,,,,,,,,,,
null,,rt_plussign_withcolor4,1420664,,,,,,,,green,,,null,object_04a.png,object_08b.png,,,,,,,,,,,,,,,,,,,,,
739.6000000014901,,rt_thecrossant_black4,1422187,,,,,,,,black_plus_sign,,,50,,,,1,,,,,,1,,,,,,,,,,,,,
null,,color_black4,1422292,,,,,,,,black_plus_sign,,,null,,,,,,,,,,,,,,,,,,,,,,,
null,,learn_phase(without_color)4,1425798,,,,,,,,black_plus_sign,,,null,object_07b.png,object_09c.png,,,,,,,,,,,,,,,,,,,,,
null,,black_cross(without_color)4,1426747,,,,,,,,blue,,,null,object_07b.png,object_09c.png,,,,,,,,,,,,,,,,,,,,,
null,,rt_plussign_withcolor4,1427251,,,,,,,,blue,,,null,object_07b.png,object_09c.png,,,,,,,,,,,,,,,,,,,,,
642,,rt_thecrossant_black4,1428309,,,,,,,,black_plus_sign,,,49,,,,1,,,,,,1,,,,,,,,,,,,,
null,,color_black4,1428413,,,,,,,,black_plus_sign,,,null,,,,,,,,,,,,,,,,,,,,,,,
null,,learn_phase(without_color)4,1431918,,,,,,,,black_plus_sign,,,null,object_09a.png,object_11b.png,,,,,,,,,,,,,,,,,,,,,
null,,black_cross(without_color)4,1432905,,,,,,,,blue,,,null,object_09a.png,object_11b.png,,,,,,,,,,,,,,,,,,,,,
null,,rt_plussign_withcolor4,1433409,,,,,,,,blue,,,null,object_09a.png,object_11b.png,,,,,,,,,,,,,,,,,,,,,
1373.2999999988824,,rt_thecrossant_black4,1434431,,,,,,,,black_plus_sign,,,49,,,,1,,,,,,1,,,,,,,,,,,,,
null,,color_black4,1434535,,,,,,,,black_plus_sign,,,null,,,,,,,,,,,,,,,,,,,,,,,
null,,learn_phase(without_color)4,1438041,,,,,,,,black_plus_sign,,,null,object_11a.png,object_09a.png,,,,,,,,,,,,,,,,,,,,,
null,,black_cross(without_color)4,1438621,,,,,,,,blue,,,null,object_11a.png,object_09a.png,,,,,,,,,,,,,,,,,,,,,
null,,rt_plussign_withcolor4,1439125,,,,,,,,blue,,,null,object_11a.png,object_09a.png,,,,,,,,,,,,,,,,,,,,,
1326.5999999996275,,rt_thecrossant_black4,1440553,,,,,,,,black_plus_sign,,,49,,,,1,,,,,,1,,,,,,,,,,,,,
null,,color_black4,1440657,,,,,,,,black_plus_sign,,,null,,,,,,,,,,,,,,,,,,,,,,,
null,,learn_phase(without_color)4,1444163,,,,,,,,black_plus_sign,,,null,object_07a.png,object_09b.png,,,,,,,,,,,,,,,,,,,,,
null,,black_cross(without_color)4,1445020,,,,,,,,green,,,null,object_07a.png,object_09b.png,,,,,,,,,,,,,,,,,,,,,
476.8999999985099,,rt_plussign_withcolor4,1445524,,,,,,,,green,,,50,object_07a.png,object_09b.png,,,,,,,,,,,,,,,,,,,,,
null,,rt_thecrossant_black4,1446675,,,,,,,,black_plus_sign,,,null,,,,1,,,,,,1,,,,,,,,,,,,,
null,,color_black4,1446780,,,,,,,,black_plus_sign,,,null,,,,,,,,,,,,,,,,,,,,,,,
null,,learn_phase(without_color)4,1450285,,,,,,,,black_plus_sign,,,null,object_03a.png,object_08c.png,,,,,,,,,,,,,,,,,,,,,
null,,black_cross(without_color)4,1451147,,,,,,,,green,,,null,object_03a.png,object_08c.png,,,,,,,,,,,,,,,,,,,,,
null,,rt_plussign_withcolor4,1451651,,,,,,,,green,,,null,object_03a.png,object_08c.png,,,,,,,,,,,,,,,,,,,,,
1142.4000000003725,,rt_thecrossant_black4,1452797,,,,,,,,black_plus_sign,,,50,,,,1,,,,,,1,,,,,,,,,,,,,
null,,color_black4,1452901,,,,,,,,black_plus_sign,,,null,,,,,,,,,,,,,,,,,,,,,,,
null,,learn_phase(without_color)4,1456407,,,,,,,,black_plus_sign,,,null,object_06b.png,object_05c.png,,,,,,,,,,,,,,,,,,,,,
null,,black_cross(without_color)4,1457365,,,,,,,,blue,,,null,object_06b.png,object_05c.png,,,,,,,,,,,,,,,,,,,,,
null,,rt_plussign_withcolor4,1457869,,,,,,,,blue,,,null,object_06b.png,object_05c.png,,,,,,,,,,,,,,,,,,,,,
1169.7999999988824,,rt_thecrossant_black4,1458920,,,,,,,,black_plus_sign,,,49,,,,1,,,,,,1,,,,,,,,,,,,,
null,,color_black4,1459023,,,,,,,,black_plus_sign,,,null,,,,,,,,,,,,,,,,,,,,,,,
null,,learn_phase(without_color)4,1462529,,,,,,,,black_plus_sign,,,null,object_05b.png,object_06a.png,,,,,,,,,,,,,,,,,,,,,
null,,black_cross(without_color)4,1463591,,,,,,,,green,,,null,object_05b.png,object_06a.png,,,,,,,,,,,,,,,,,,,,,
null,,rt_plussign_withcolor4,1464095,,,,,,,,green,,,null,object_05b.png,object_06a.png,,,,,,,,,,,,,,,,,,,,,
1319.199999999255,,rt_thecrossant_black4,1465043,,,,,,,,black_plus_sign,,,50,,,,1,,,,,,1,,,,,,,,,,,,,
null,,color_black4,1465146,,,,,,,,black_plus_sign,,,null,,,,,,,,,,,,,,,,,,,,,,,
null,,learn_phase(without_color)4,1468650,,,,,,,,black_plus_sign,,,null,object_04c.png,object_02a.png,,,,,,,,,,,,,,,,,,,,,
null,,black_cross(without_color)4,1469428,,,,,,,,blue,,,null,object_04c.png,object_02a.png,,,,,,,,,,,,,,,,,,,,,
null,,rt_plussign_withcolor4,1469933,,,,,,,,blue,,,null,object_04c.png,object_02a.png,,,,,,,,,,,,,,,,,,,,,
1385,,rt_thecrossant_black4,1471163,,,,,,,,black_plus_sign,,,49,,,,1,,,,,,1,,,,,,,,,,,,,
null,,color_black4,1471268,,,,,,,,black_plus_sign,,,null,,,,,,,,,,,,,,,,,,,,,,,
null,,learn_phase(without_color)4,1474773,,,,,,,,black_plus_sign,,,null,object_09c.png,object_04b.png,,,,,,,,,,,,,,,,,,,,,
null,,black_cross(without_color)4,1475463,,,,,,,,green,,,null,object_09c.png,object_04b.png,,,,,,,,,,,,,,,,,,,,,
null,,rt_plussign_withcolor4,1475967,,,,,,,,green,,,null,object_09c.png,object_04b.png,,,,,,,,,,,,,,,,,,,,,
963.3000000007451,,rt_thecrossant_black4,1477285,,,,,,,,black_plus_sign,,,50,,,,1,,,,,,1,,,,,,,,,,,,,
null,,color_black4,1477389,,,,,,,,black_plus_sign,,,null,,,,,,,,,,,,,,,,,,,,,,,
null,,learn_phase(without_color)4,1480894,,,,,,,,black_plus_sign,,,null,object_01c.png,object_03a.png,,,,,,,,,,,,,,,,,,,,,
null,,black_cross(without_color)4,1481391,,,,,,,,blue,,,null,object_01c.png,object_03a.png,,,,,,,,,,,,,,,,,,,,,
null,,rt_plussign_withcolor4,1481895,,,,,,,,blue,,,null,object_01c.png,object_03a.png,,,,,,,,,,,,,,,,,,,,,
1108.300000000745,,rt_thecrossant_black4,1483407,,,,,,,,black_plus_sign,,,49,,,,1,,,,,,1,,,,,,,,,,,,,
null,,color_black4,1483511,,,,,,,,black_plus_sign,,,null,,,,,,,,,,,,,,,,,,,,,,,
null,,learn_phase(without_color)4,1487017,,,,,,,,black_plus_sign,,,null,object_05a.png,object_10c.png,,,,,,,,,,,,,,,,,,,,,
null,,black_cross(without_color)4,1487951,,,,,,,,green,,,null,object_05a.png,object_10c.png,,,,,,,,,,,,,,,,,,,,,
482.5,,rt_plussign_withcolor4,1488455,,,,,,,,green,,,50,object_05a.png,object_10c.png,,,,,,,,,,,,,,,,,,,,,
null,,rt_thecrossant_black4,1489530,,,,,,,,black_plus_sign,,,null,,,,1,,,,,,1,,,,,,,,,,,,,
null,,color_black4,1489634,,,,,,,,black_plus_sign,,,null,,,,,,,,,,,,,,,,,,,,,,,
null,,learn_phase(without_color)4,1493139,,,,,,,,black_plus_sign,,,null,object_09b.png,object_10a.png,,,,,,,,,,,,,,,,,,,,,
null,,black_cross(without_color)4,1493738,,,,,,,,green,,,null,object_09b.png,object_10a.png,,,,,,,,,,,,,,,,,,,,,
null,,rt_plussign_withcolor4,1494241,,,,,,,,green,,,null,object_09b.png,object_10a.png,,,,,,,,,,,,,,,,,,,,,
1374,,rt_thecrossant_black4,1495650,,,,,,,,black_plus_sign,,,50,,,,1,,,,,,1,,,,,,,,,,,,,
null,,color_black4,1495754,,,,,,,,black_plus_sign,,,null,,,,,,,,,,,,,,,,,,,,,,,
null,,learn_phase(without_color)4,1499260,,,,,,,,black_plus_sign,,,null,object_01b.png,object_14b.png,,,,,,,,,,,,,,,,,,,,,
null,,black_cross(without_color)4,1500121,,,,,,,,blue,,,null,object_01b.png,object_14b.png,,,,,,,,,,,,,,,,,,,,,
null,,rt_plussign_withcolor4,1500624,,,,,,,,blue,,,null,object_01b.png,object_14b.png,,,,,,,,,,,,,,,,,,,,,
814.6999999992549,,rt_thecrossant_black4,1501772,,,,,,,,black_plus_sign,,,49,,,,1,,,,,,1,,,,,,,,,,,,,
null,,color_black4,1501877,,,,,,,,black_plus_sign,,,null,,,,,,,,,,,,,,,,,,,,,,,
null,,learn_phase(without_color)4,1505383,,,,,,,,black_plus_sign,,,null,object_10c.png,object_03c.png,,,,,,,,,,,,,,,,,,,,,
null,,black_cross(without_color)4,1505965,,,,,,,,green,,,null,object_10c.png,object_03c.png,,,,,,,,,,,,,,,,,,,,,
null,,rt_plussign_withcolor4,1506469,,,,,,,,green,,,null,object_10c.png,object_03c.png,,,,,,,,,,,,,,,,,,,,,
1048.5999999996275,,rt_thecrossant_black4,1507896,,,,,,,,black_plus_sign,,,50,,,,1,,,,,,1,,,,,,,,,,,,,
null,,color_black4,1508000,,,,,,,,black_plus_sign,,,null,,,,,,,,,,,,,,,,,,,,,,,
null,,learn_phase(without_color)4,1511505,,,,,,,,black_plus_sign,,,null,object_12c.png,object_10b.png,,,,,,,,,,,,,,,,,,,,,
null,,black_cross(without_color)4,1511960,,,,,,,,green,,,null,object_12c.png,object_10b.png,,,,,,,,,,,,,,,,,,,,,
null,,rt_plussign_withcolor4,1512464,,,,,,,,green,,,null,object_12c.png,object_10b.png,,,,,,,,,,,,,,,,,,,,,
870.9000000003725,,rt_thecrossant_black4,1514018,,,,,,,,black_plus_sign,,,50,,,,1,,,,,,1,,,,,,,,,,,,,
null,,color_black4,1514122,,,,,,,,black_plus_sign,,,null,,,,,,,,,,,,,,,,,,,,,,,
null,,learn_phase(without_color)4,1517627,,,,,,,,black_plus_sign,,,null,object_11c.png,object_04c.png,,,,,,,,,,,,,,,,,,,,,
null,,black_cross(without_color)4,1518081,,,,,,,,green,,,null,object_11c.png,object_04c.png,,,,,,,,,,,,,,,,,,,,,
null,,rt_plussign_withcolor4,1518584,,,,,,,,green,,,null,object_11c.png,object_04c.png,,,,,,,,,,,,,,,,,,,,,
566.2999999988824,,rt_thecrossant_black4,1520138,,,,,,,,black_plus_sign,,,50,,,,1,,,,,,1,,,,,,,,,,,,,
null,,color_black4,1520242,,,,,,,,black_plus_sign,,,null,,,,,,,,,,,,,,,,,,,,,,,
null,,learn_phase(without_color)4,1523746,,,,,,,,black_plus_sign,,,null,object_15b.png,object_15a.png,,,,,,,,,,,,,,,,,,,,,
null,,black_cross(without_color)4,1524404,,,,,,,,green,,,null,object_15b.png,object_15a.png,,,,,,,,,,,,,,,,,,,,,
null,,rt_plussign_withcolor4,1524908,,,,,,,,green,,,null,object_15b.png,object_15a.png,,,,,,,,,,,,,,,,,,,,,
666.5999999996275,,rt_thecrossant_black4,1526258,,,,,,,,black_plus_sign,,,50,,,,1,,,,,,1,,,,,,,,,,,,,
null,,color_black4,1526363,,,,,,,,black_plus_sign,,,null,,,,,,,,,,,,,,,,,,,,,,,
null,,learn_phase(without_color)4,1529869,,,,,,,,black_plus_sign,,,null,object_06a.png,object_13b.png,,,,,,,,,,,,,,,,,,,,,
null,,black_cross(without_color)4,1530390,,,,,,,,blue,,,null,object_06a.png,object_13b.png,,,,,,,,,,,,,,,,,,,,,
null,,rt_plussign_withcolor4,1530894,,,,,,,,blue,,,null,object_06a.png,object_13b.png,,,,,,,,,,,,,,,,,,,,,
1180.699999999255,,rt_thecrossant_black4,1532382,,,,,,,,black_plus_sign,,,49,,,,1,,,,,,1,,,,,,,,,,,,,
null,,color_black4,1532486,,,,,,,,black_plus_sign,,,null,,,,,,,,,,,,,,,,,,,,,,,
null,,learn_phase(without_color)4,1535991,,,,,,,,black_plus_sign,,,null,object_08b.png,object_13a.png,,,,,,,,,,,,,,,,,,,,,
null,,black_cross(without_color)4,1536912,,,,,,,,blue,,,null,object_08b.png,object_13a.png,,,,,,,,,,,,,,,,,,,,,
null,,rt_plussign_withcolor4,1537416,,,,,,,,blue,,,null,object_08b.png,object_13a.png,,,,,,,,,,,,,,,,,,,,,
826,,rt_thecrossant_black4,1538503,,,,,,,,black_plus_sign,,,49,,,,1,,,,,,1,,,,,,,,,,,,,
null,,color_black4,1538608,,,,,,,,black_plus_sign,,,null,,,,,,,,,,,,,,,,,,,,,,,
null,,learn_phase(without_color)4,1542114,,,,,,,,black_plus_sign,,,null,object_03b.png,object_12b.png,,,,,,,,,,,,,,,,,,,,,
null,,black_cross(without_color)4,1542996,,,,,,,,blue,,,null,object_03b.png,object_12b.png,,,,,,,,,,,,,,,,,,,,,
null,,rt_plussign_withcolor4,1543500,,,,,,,,blue,,,null,object_03b.png,object_12b.png,,,,,,,,,,,,,,,,,,,,,
1094,,rt_thecrossant_black4,1544627,,,,,,,,black_plus_sign,,,49,,,,1,,,,,,1,,,,,,,,,,,,,
null,,color_black4,1544731,,,,,,,,black_plus_sign,,,null,,,,,,,,,,,,,,,,,,,,,,,
null,,learn_phase(without_color)4,1548237,,,,,,,,black_plus_sign,,,null,object_05c.png,object_01a.png,,,,,,,,,,,,,,,,,,,,,
null,,black_cross(without_color)4,1548988,,,,,,,,blue,,,null,object_05c.png,object_01a.png,,,,,,,,,,,,,,,,,,,,,
null,,rt_plussign_withcolor4,1549491,,,,,,,,blue,,,null,object_05c.png,object_01a.png,,,,,,,,,,,,,,,,,,,,,
1279.4000000003725,,rt_thecrossant_black4,1550750,,,,,,,,black_plus_sign,,,49,,,,1,,,,,,1,,,,,,,,,,,,,
null,,color_black4,1550855,,,,,,,,black_plus_sign,,,null,,,,,,,,,,,,,,,,,,,,,,,
null,,learn_phase(without_color)4,1554360,,,,,,,,black_plus_sign,,,null,object_06c.png,object_13c.png,,,,,,,,,,,,,,,,,,,,,
null,,black_cross(without_color)4,1554819,,,,,,,,blue,,,null,object_06c.png,object_13c.png,,,,,,,,,,,,,,,,,,,,,
null,,rt_plussign_withcolor4,1555323,,,,,,,,blue,,,null,object_06c.png,object_13c.png,,,,,,,,,,,,,,,,,,,,,
932.3000000007451,,rt_thecrossant_black4,1556874,,,,,,,,black_plus_sign,,,49,,,,1,,,,,,1,,,,,,,,,,,,,
null,,color_black4,1556978,,,,,,,,black_plus_sign,,,null,,,,,,,,,,,,,,,,,,,,,,,
null,,learn_phase(without_color)4,1560483,,,,,,,,black_plus_sign,,,null,object_12a.png,object_14c.png,,,,,,,,,,,,,,,,,,,,,
null,,black_cross(without_color)4,1561411,,,,,,,,blue,,,null,object_12a.png,object_14c.png,,,,,,,,,,,,,,,,,,,,,
null,,rt_plussign_withcolor4,1561915,,,,,,,,blue,,,null,object_12a.png,object_14c.png,,,,,,,,,,,,,,,,,,,,,
616.2999999988824,,rt_thecrossant_black4,1562997,,,,,,,,black_plus_sign,,,49,,,,1,,,,,,1,,,,,,,,,,,,,
null,,color_black4,1563101,,,,,,,,black_plus_sign,,,null,,,,,,,,,,,,,,,,,,,,,,,
null,,learn_phase(without_color)4,1566606,,,,,,,,black_plus_sign,,,null,object_14b.png,object_15c.png,,,,,,,,,,,,,,,,,,,,,
null,,black_cross(without_color)4,1567141,,,,,,,,blue,,,null,object_14b.png,object_15c.png,,,,,,,,,,,,,,,,,,,,,
null,,rt_plussign_withcolor4,1567645,,,,,,,,blue,,,null,object_14b.png,object_15c.png,,,,,,,,,,,,,,,,,,,,,
1836,,rt_thecrossant_black4,1569117,,,,,,,,black_plus_sign,,,49,,,,1,,,,,,1,,,,,,,,,,,,,
null,,color_black4,1569222,,,,,,,,black_plus_sign,,,null,,,,,,,,,,,,,,,,,,,,,,,
null,,learn_phase(without_color)4,1572727,,,,,,,,black_plus_sign,,,null,object_14a.png,object_12a.png,,,,,,,,,,,,,,,,,,,,,
null,,black_cross(without_color)4,1573659,,,,,,,,green,,,null,object_14a.png,object_12a.png,,,,,,,,,,,,,,,,,,,,,
null,,rt_plussign_withcolor4,1574163,,,,,,,,green,,,null,object_14a.png,object_12a.png,,,,,,,,,,,,,,,,,,,,,
885.6999999992549,,rt_thecrossant_black4,1575240,,,,,,,,black_plus_sign,,,50,,,,1,,,,,,1,,,,,,,,,,,,,
null,,color_black4,1575344,,,,,,,,black_plus_sign,,,null,,,,,,,,,,,,,,,,,,,,,,,
null,,learn_phase(without_color)4,1578849,,,,,,,,black_plus_sign,,,null,object_13c.png,object_08a.png,,,,,,,,,,,,,,,,,,,,,
null,,black_cross(without_color)4,1579353,,,,,,,,green,,,null,object_13c.png,object_08a.png,,,,,,,,,,,,,,,,,,,,,
null,,rt_plussign_withcolor4,1579856,,,,,,,,green,,,null,object_13c.png,object_08a.png,,,,,,,,,,,,,,,,,,,,,
1413.5,,rt_thecrossant_black4,1581361,,,,,,,,black_plus_sign,,,50,,,,1,,,,,,1,,,,,,,,,,,,,
null,,color_black4,1581464,,,,,,,,black_plus_sign,,,null,,,,,,,,,,,,,,,,,,,,,,,
null,,learn_phase(without_color)4,1584970,,,,,,,,black_plus_sign,,,null,object_02b.png,object_15b.png,,,,,,,,,,,,,,,,,,,,,
null,,black_cross(without_color)4,1585985,,,,,,,,blue,,,null,object_02b.png,object_15b.png,,,,,,,,,,,,,,,,,,,,,
null,,rt_plussign_withcolor4,1586489,,,,,,,,blue,,,null,object_02b.png,object_15b.png,,,,,,,,,,,,,,,,,,,,,
1055.5999999996275,,rt_thecrossant_black4,1587484,,,,,,,,black_plus_sign,,,49,,,,1,,,,,,1,,,,,,,,,,,,,
null,,color_black4,1587588,,,,,,,,black_plus_sign,,,null,,,,,,,,,,,,,,,,,,,,,,,
null,,learn_phase(without_color)4,1591094,,,,,,,,black_plus_sign,,,null,object_10b.png,object_02c.png,,,,,,,,,,,,,,,,,,,,,
null,,black_cross(without_color)4,1591761,,,,,,,,green,,,null,object_10b.png,object_02c.png,,,,,,,,,,,,,,,,,,,,,
null,,rt_plussign_withcolor4,1592264,,,,,,,,green,,,null,object_10b.png,object_02c.png,,,,,,,,,,,,,,,,,,,,,
1552.5999999996275,,rt_thecrossant_black4,1593605,,,,,,,,black_plus_sign,,,50,,,,1,,,,,,1,,,,,,,,,,,,,
null,,color_black4,1593709,,,,,,,,black_plus_sign,,,null,,,,,,,,,,,,,,,,,,,,,,,
null,,thebreak,1593814,,,,,,,,<p></p>,,,null,,,,,,,,,,,,,,,,,,,,,,,
1563.300000000745,,intro_0,1595380,,,,,,,,instruct,,,32,,,,,,,,,,,,,,,,,,,,,,,
4541.4000000003725,,directmemory_phase4,1599924,,,,,,,,object_09b.png,,,49,,,,0,object_06b.png,object_07a.png,object_03b.png,object_07a.png,,0.4945054945054945,,0,,,,,,,,,,,
2348.199999999255,,directmemory_phase4,1602276,,,,,,,,object_03c.png,,,50,,,,1,object_04c.png,object_10c.png,object_03a.png,object_10c.png,,0.5,,1,,,,,,,,,,,
3300.699999999255,,directmemory_phase4,1605581,,,,,,,,object_15c.png,,,50,,,,0,object_14b.png,object_15b.png,object_13c.png,object_14b.png,,0.4946236559139785,,0,,,,,,,,,,,
2499.199999999255,,directmemory_phase4,1608084,,,,,,,,object_14c.png,,,49,,,,1,object_12a.png,object_10c.png,object_09a.png,object_12a.png,,0.5,,1,,,,,,,,,,,
3436,,directmemory_phase4,1611524,,,,,,,,object_08c.png,,,51,,,,0,object_03a.png,object_12a.png,object_10c.png,object_03a.png,,0.49473684210526314,,0,,,,,,,,,,,
3500.199999999255,,directmemory_phase4,1615028,,,,,,,,object_13c.png,,,51,,,,1,object_01c.png,object_11c.png,object_06c.png,object_06c.png,,0.5,,1,,,,,,,,,,,
2684.5,,directmemory_phase4,1617717,,,,,,,,object_03a.png,,,49,,,,0,object_06b.png,object_01c.png,object_03b.png,object_01c.png,,0.4948453608247423,,0,,,,,,,,,,,
3547.2999999988824,,directmemory_phase4,1621268,,,,,,,,object_12b.png,,,49,,,,1,object_03b.png,object_11a.png,object_11c.png,object_03b.png,,0.5,,1,,,,,,,,,,,
1931.7999999988824,,directmemory_phase4,1623204,,,,,,,,object_08a.png,,,49,,,,1,object_13c.png,object_14b.png,object_03a.png,object_13c.png,,0.5050505050505051,,1,,,,,,,,,,,
2163.9000000003725,,directmemory_phase4,1625373,,,,,,,,object_04b.png,,,50,,,,1,object_10b.png,object_09c.png,object_08b.png,object_09c.png,,0.51,,1,,,,,,,,,,,
4556.200000001118,,directmemory_phase4,1629933,,,,,,,,object_10c.png,,,49,,,,1,object_05a.png,object_01b.png,object_07b.png,object_05a.png,,0.5148514851485149,,1,,,,,,,,,,,
3484,,directmemory_phase4,1633421,,,,,,,,object_14b.png,,,51,,,,1,object_05a.png,object_07b.png,object_01b.png,object_01b.png,,0.5196078431372549,,1,,,,,,,,,,,
3547.300000000745,,directmemory_phase4,1636973,,,,,,,,object_01a.png,,,49,,,,1,object_05c.png,object_13c.png,object_08b.png,object_05c.png,,0.5242718446601942,,1,,,,,,,,,,,
2171.9000000003725,,directmemory_phase4,1639149,,,,,,,,object_02a.png,,,49,,,,1,object_04c.png,object_10b.png,object_15b.png,object_04c.png,,0.5288461538461539,,1,,,,,,,,,,,
2443.60000000149,,directmemory_phase4,1641596,,,,,,,,object_15a.png,,,51,,,,1,object_13c.png,object_10b.png,object_15b.png,object_15b.png,,0.5333333333333333,,1,,,,,,,,,,,
3124.9000000003725,,directmemory_phase4,1644725,,,,,,,,object_04c.png,,,50,,,,1,object_12c.png,object_11c.png,object_11a.png,object_11c.png,,0.5377358490566038,,1,,,,,,,,,,,
2395.699999999255,,directmemory_phase4,1647125,,,,,,,,object_10a.png,,,49,,,,1,object_09b.png,object_10c.png,object_15b.png,object_09b.png,,0.5420560747663551,,1,,,,,,,,,,,
3403.800000000745,,directmemory_phase4,1650533,,,,,,,,object_09a.png,,,49,,,,0,object_06c.png,object_14a.png,object_11a.png,object_11a.png,,0.5370370370370371,,0,,,,,,,,,,,
4244.0999999996275,,directmemory_phase4,1654781,,,,,,,,object_08b.png,,,49,,,,1,object_04a.png,object_07b.png,object_11c.png,object_04a.png,,0.5412844036697247,,1,,,,,,,,,,,
2475.300000000745,,directmemory_phase4,1657261,,,,,,,,object_07c.png,,,49,,,,1,object_12b.png,object_09c.png,object_04c.png,object_12b.png,,0.5454545454545454,,1,,,,,,,,,,,
3700,,directmemory_phase4,1660965,,,,,,,,object_09c.png,,,49,,,,0,object_01c.png,object_06c.png,object_07b.png,object_07b.png,,0.5405405405405406,,0,,,,,,,,,,,
3164,,directmemory_phase4,1664133,,,,,,,,object_11b.png,,,51,,,,0,object_09a.png,object_14b.png,object_12b.png,object_09a.png,,0.5357142857142857,,0,,,,,,,,,,,
1891.5,,directmemory_phase4,1666028,,,,,,,,object_12a.png,,,50,,,,1,object_06b.png,object_14a.png,object_12c.png,object_14a.png,,0.5398230088495575,,1,,,,,,,,,,,
2740.800000000745,,directmemory_phase4,1668773,,,,,,,,object_05c.png,,,50,,,,0,object_06b.png,object_05b.png,object_11c.png,object_06b.png,,0.5350877192982456,,0,,,,,,,,,,,
4065.5999999996275,,directmemory_phase4,1672843,,,,,,,,object_10b.png,,,51,,,,1,object_07b.png,object_01b.png,object_12c.png,object_12c.png,,0.5391304347826087,,1,,,,,,,,,,,
2732.5,,directmemory_phase4,1675579,,,,,,,,object_13b.png,,,49,,,,1,object_06a.png,object_13c.png,object_09a.png,object_06a.png,,0.5431034482758621,,1,,,,,,,,,,,
3079.0999999996275,,directmemory_phase4,1678661,,,,,,,,object_15b.png,,,51,,,,1,object_14a.png,object_11c.png,object_02b.png,object_02b.png,,0.5470085470085471,,1,,,,,,,,,,,
3843.5,,directmemory_phase4,1682509,,,,,,,,object_06a.png,,,50,,,,1,object_11a.png,object_05b.png,object_01c.png,object_05b.png,,0.5508474576271186,,1,,,,,,,,,,,
3803.5,,directmemory_phase4,1686317,,,,,,,,object_13a.png,,,51,,,,0,object_08b.png,object_06a.png,object_05c.png,object_08b.png,,0.5462184873949579,,0,,,,,,,,,,,
2372.800000000745,,directmemory_phase4,1688694,,,,,,,,object_02c.png,,,50,,,,1,object_12a.png,object_10b.png,object_10c.png,object_10b.png,,0.55,,1,,,,,,,,,,,
null,,thebreak,1688799,,,,,,,,<p></p>,,,null,,,,,,,,,,,,,,,,,,,,,,,
1874.699999999255,,intro_0,1690677,,,,,,,,instruct,,,32,,,,,,,,,,,,,,,,,,,,,,,
50583.29999999888,,intro_1,1741261,,,,,,,,instruct,,,32,,,,,,,,,,,,,,,,,,,,,,,
11062.099999999627,,intro_2,1752325,,,,,,,,instruct,,,32,,,,,,,,,,,,,,,,,,,,,,,
,,intro_3,1795926,,,,,,,,instruct,,,,,,,,,,,,,,,,,,,,,,,,,,
10901.300000000745,,intro_4,1806830,,,,,,,,instruct,,,32,,,,,,,,,,,,,,,,,,,,,,,
4803.300000000745,,inference_phase,1811636,,,,,,,,object_07c.png,,,50,object_06b.png,object_03b.png,,0,,,,object_03b.png,,0,,,object_11c.png,,,,,,,,,,
4102.4000000003725,,inference_phase,1815742,,,,,,,,object_13b.png,,,51,object_11c.png,object_03b.png,,0,,,,object_05b.png,,0,,,object_05b.png,,,,,,,,,,
3547.7999999988824,,inference_phase,1819295,,,,,,,,object_15c.png,,,51,object_07b.png,object_05b.png,,0,,,,object_01b.png,,0,,,object_01b.png,,,,,,,,,,
2786.5,,inference_phase,1822086,,,,,,,,object_04b.png,,,50,object_05a.png,object_05b.png,,1,,,,object_07b.png,,0.25,,,object_07b.png,,,,,,,,,,
3076,,inference_phase,1825166,,,,,,,,object_03c.png,,,50,object_11c.png,object_05a.png,,0,,,,object_05a.png,,0.2,,,object_06c.png,,,,,,,,,,
2988.0999999996275,,inference_phase,1828158,,,,,,,,object_08c.png,,,51,object_11c.png,object_05a.png,,0,,,,object_01c.png,,0.16666666666666666,,,object_01c.png,,,,,,,,,,
4643.699999999255,,inference_phase,1832806,,,,,,,,object_15a.png,,,50,object_14a.png,object_11c.png,,1,,,,object_02b.png,,0.2857142857142857,,,object_02b.png,,,,,,,,,,
4132.699999999255,,inference_phase,1836942,,,,,,,,object_08a.png,,,51,object_12c.png,object_06c.png,,1,,,,object_06c.png,,0.375,,,object_11c.png,,,,,,,,,,
2196.0999999996275,,inference_phase,1839142,,,,,,,,object_10a.png,,,49,object_02b.png,object_07a.png,,0,,,,object_07a.png,,0.3333333333333333,,,object_06c.png,,,,,,,,,,
2748.0999999996275,,inference_phase,1841894,,,,,,,,object_02c.png,,,49,object_01c.png,object_06c.png,,0,,,,object_12c.png,,0.3,,,object_12c.png,,,,,,,,,,
3556.2999999988824,,inference_phase,1845455,,,,,,,,object_13a.png,,,51,object_04a.png,object_12c.png,,0,,,,object_04a.png,,0.2727272727272727,,,object_06c.png,,,,,,,,,,
3722.9000000003725,,inference_phase,1849182,,,,,,,,object_14c.png,,,49,object_11a.png,object_01c.png,,0,,,,object_14a.png,,0.25,,,object_14a.png,,,,,,,,,,
4091.2999999988824,,inference_phase,1853278,,,,,,,,object_02a.png,,,49,object_11c.png,object_11a.png,,1,,,,object_11c.png,,0.3076923076923077,,,object_14a.png,,,,,,,,,,
4460,,inference_phase,1857743,,,,,,,,object_01a.png,,,51,object_06b.png,object_11c.png,,0,,,,object_06b.png,,0.2857142857142857,,,object_11a.png,,,,,,,,,,
2346.9000000003725,,inference_phase,1860094,,,,,,,,object_11b.png,,,49,object_11a.png,object_06b.png,,1,,,,object_11a.png,,0.3333333333333333,,,object_01b.png,,,,,,,,,,
,,survey,1972148,,,,,,,,survey-questions,,,,,,,,,,,,,,,,,none,high,no,I tried to remember resemblances in shape and color,no, about the same,no,Kind of hard,,,
