rt,responses,trial_type,time_elapsed,identifier_a,identifier_b,identifier_c,tasktype,browser_type,local_time,UTC_time,stimulus,button_pressed,response,key_press,stimulus_left,stimulus_right,accuracy,practice_cumulative_accuracy,stimulus_down_left,stimulus_down_mid,stimulus_down_right,stimulus_correct,prac_weighted_accuracy,cumulative_accuracy,weighted_accuracy,tooquick,stimulus_middle,problems,smooth,distraction,strategies,easier,similar,comments,detectfocus,breakfocus,completion_code
823685.7999999523,{worker_id:67e8e0c0be5802df7311d109},id_enter,823688,object_12b.png; object_07c.png; object_06a.png; object_11a.png; object_13c.png; object_05a.png; object_13a.png; object_08a.png; object_11b.png; object_15c.png; object_07b.png; object_15b.png; object_14c.png; object_14b.png; object_04c.png,object_11c.png; object_10c.png; object_03c.png; object_05b.png; object_02b.png; object_03b.png; object_10a.png; object_07a.png; object_02a.png; object_05c.png; object_06b.png; object_01b.png; object_01a.png; object_04b.png; object_10b.png,object_09a.png; object_12a.png; object_02c.png; object_08b.png; object_14a.png; object_12c.png; object_09c.png; object_04a.png; object_01c.png; object_03a.png; object_09b.png; object_06c.png; object_08c.png; object_13b.png; object_15a.png,interleaved,Mozilla/5.0 (Windows NT 10.0; Win64; x64) AppleWebKit/537.36 (KHTML, like Gecko) Chrome/134.0.0.0 Safari/537.36,5/8/2025, 2:31:25 PM,2025-05-08 19:31:25.949,,,,,,,,,,,,,,,,,,,,,,,,,,,
2661.1999999284744,,make_fullscreen,826372,,,,,,,,fullscreen,0,,,,,,,,,,,,,,,,,,,,,,,,,
10400.600000023842,,instruct_1,836776,,,,,,,,instruct,0,Next,,,,,,,,,,,,,,,,,,,,,,,,
6251.799999952316,,instruct_2,843032,,,,,,,,instruct,1,Next,,,,,,,,,,,,,,,,,,,,,,,,
8005.700000047684,,instruct_3,851038,,,,,,,,instruct,1,Next,,,,,,,,,,,,,,,,,,,,,,,,
229998.89999997616,,instruct_4,1081038,,,,,,,,instruct,1,Next,,,,,,,,,,,,,,,,,,,,,,,,
11449.399999976158,,instruct_5,1092489,,,,,,,,instruct,1,Next,,,,,,,,,,,,,,,,,,,,,,,,
2525.2999999523163,,instruct_6,1095015,,,,,,,,instruct,1,Next,,,,,,,,,,,,,,,,,,,,,,,,
40731.50000011921,,instruct_7,1135747,,,,,,,,instruct,1,Next,,,,,,,,,,,,,,,,,,,,,,,,
null,,prac_atten_color_black,1136374,,,,,,,,black_plus_sign,,,null,,,,,,,,,,,,,,,,,,,,,,,
610.5,,prac_atten_color,1137160,,,,,,,,<p style='position:absolute;top: 50%;right: 50%;transform: translate(50%, -50%);font-size: 125px;color: blue;'>+</p>,,,49,,,,,,,,,,,,,,,,,,,,,,,
null,,prac_atten_color_black,1139162,,,,,,,,black_plus_sign,,,null,,,,,,,,,,,,,,,,,,,,,,,
null,,prac_atten_color_black,1139781,,,,,,,,black_plus_sign,,,null,,,,,,,,,,,,,,,,,,,,,,,
null,,prac_atten_color,1140334,,,,,,,,<p style='position:absolute;top: 50%;right: 50%;transform: translate(50%, -50%);font-size: 125px;color: green;'>+</p>,,,null,,,,,,,,,,,,,,,,,,,,,,,
37.39999985694885,,prac_atten_color_black,1142337,,,,,,,,black_plus_sign,,,50,,,,,,,,,,,,,,,,,,,,,,,
null,,prac_atten_color_black,1143189,,,,,,,,black_plus_sign,,,null,,,,,,,,,,,,,,,,,,,,,,,
null,,prac_atten_color,1143678,,,,,,,,<p style='position:absolute;top: 50%;right: 50%;transform: translate(50%, -50%);font-size: 125px;color: green;'>+</p>,,,null,,,,,,,,,,,,,,,,,,,,,,,
42.799999952316284,,prac_atten_color_black,1145680,,,,,,,,black_plus_sign,,,50,,,,,,,,,,,,,,,,,,,,,,,
null,,prac_atten_color_black,1146596,,,,,,,,black_plus_sign,,,null,,,,,,,,,,,,,,,,,,,,,,,
599.2000000476837,,prac_atten_color,1147500,,,,,,,,<p style='position:absolute;top: 50%;right: 50%;transform: translate(50%, -50%);font-size: 125px;color: blue;'>+</p>,,,50,,,,,,,,,,,,,,,,,,,,,,,
null,,prac_atten_color_black,1149503,,,,,,,,black_plus_sign,,,null,,,,,,,,,,,,,,,,,,,,,,,
32518,,attentioncheck_help,1182022,,,,,,,,instruct,,,32,,,,,,,,,,,,,,,,,,,,,,,
null,,prac_atten_color_black,1182520,,,,,,,,black_plus_sign,,,null,,,,,,,,,,,,,,,,,,,,,,,
null,,prac_atten_color,1183201,,,,,,,,<p style='position:absolute;top: 50%;right: 50%;transform: translate(50%, -50%);font-size: 125px;color: green;'>+</p>,,,null,,,,,,,,,,,,,,,,,,,,,,,
82,,prac_atten_color_black,1185203,,,,,,,,black_plus_sign,,,50,,,,,,,,,,,,,,,,,,,,,,,
null,,prac_atten_color_black,1185928,,,,,,,,black_plus_sign,,,null,,,,,,,,,,,,,,,,,,,,,,,
504.80000019073486,,prac_atten_color,1186787,,,,,,,,<p style='position:absolute;top: 50%;right: 50%;transform: translate(50%, -50%);font-size: 125px;color: green;'>+</p>,,,50,,,,,,,,,,,,,,,,,,,,,,,
null,,prac_atten_color_black,1188789,,,,,,,,black_plus_sign,,,null,,,,,,,,,,,,,,,,,,,,,,,
null,,prac_atten_color_black,1189334,,,,,,,,black_plus_sign,,,null,,,,,,,,,,,,,,,,,,,,,,,
null,,prac_atten_color,1189772,,,,,,,,<p style='position:absolute;top: 50%;right: 50%;transform: translate(50%, -50%);font-size: 125px;color: blue;'>+</p>,,,null,,,,,,,,,,,,,,,,,,,,,,,
48.799999952316284,,prac_atten_color_black,1191774,,,,,,,,black_plus_sign,,,49,,,,,,,,,,,,,,,,,,,,,,,
null,,prac_atten_color_black,1192740,,,,,,,,black_plus_sign,,,null,,,,,,,,,,,,,,,,,,,,,,,
493.2000000476837,,prac_atten_color,1193778,,,,,,,,<p style='position:absolute;top: 50%;right: 50%;transform: translate(50%, -50%);font-size: 125px;color: green;'>+</p>,,,50,,,,,,,,,,,,,,,,,,,,,,,
null,,prac_atten_color_black,1195780,,,,,,,,black_plus_sign,,,null,,,,,,,,,,,,,,,,,,,,,,,
null,,prac_atten_color_black,1196148,,,,,,,,black_plus_sign,,,null,,,,,,,,,,,,,,,,,,,,,,,
485.2999999523163,,prac_atten_color,1196829,,,,,,,,<p style='position:absolute;top: 50%;right: 50%;transform: translate(50%, -50%);font-size: 125px;color: blue;'>+</p>,,,49,,,,,,,,,,,,,,,,,,,,,,,
null,,prac_atten_color_black,1198831,,,,,,,,black_plus_sign,,,null,,,,,,,,,,,,,,,,,,,,,,,
null,,prac_atten_color_black,1199555,,,,,,,,black_plus_sign,,,null,,,,,,,,,,,,,,,,,,,,,,,
492.2000000476837,,prac_atten_color,1200299,,,,,,,,<p style='position:absolute;top: 50%;right: 50%;transform: translate(50%, -50%);font-size: 125px;color: blue;'>+</p>,,,49,,,,,,,,,,,,,,,,,,,,,,,
null,,prac_atten_color_black,1202300,,,,,,,,black_plus_sign,,,null,,,,,,,,,,,,,,,,,,,,,,,
31164.5,,attentioncheck_feedback,1233466,,,,,,,,cross_check_feedback,0,,,,,,,,,,,,,,,,,,,,,,,,,
6278.899999856949,,last_instruct,1239746,,,,,,,,instruct,,,32,,,,,,,,,,,,,,,,,,,,,,,
null,,prac_learn_phase(without_color),1243254,,,,,,,,black_plus_sign,,,null,object_15c.png,object_05c.png,,,,,,,,,,,,,,,,,,,,,
null,,prac_black_cross(without_color),1244096,,,,,,,,blue,,,null,object_15c.png,object_05c.png,,,,,,,,,,,,,,,,,,,,,
null,,prac_rt_plussign_withcolor,1244598,,,,,,,,blue,,,null,object_15c.png,object_05c.png,,,,,,,,,,,,,,,,,,,,,
1227.5,,prac_rt_thecrossant_black,1245762,,,,,,,,black_plus_sign,,,49,,,1,1,,,,,,,,,,,,,,,,,,,
null,,prac_color_black,1245864,,,,,,,,black_plus_sign,,,null,,,,,,,,,,,,,,,,,,,,,,,
null,,prac_learn_phase(without_color),1249367,,,,,,,,black_plus_sign,,,null,object_02a.png,object_01c.png,,,,,,,,,,,,,,,,,,,,,
null,,black_cross(without_color)1,1250210,,,,,,,,green,,,null,object_15c.png,object_05c.png,,,,,,,,,,,,,,,,,,,,,
null,,prac_rt_plussign_withcolor,1250723,,,,,,,,blue,,,null,object_02a.png,object_01c.png,,,,,,,,,,,,,,,,,,,,,
1147.7999999523163,,prac_rt_thecrossant_black,1252148,,,,,,,,black_plus_sign,,,49,,,1,1,,,,,,,,,,,,,,,,,,,
null,,prac_color_black,1252251,,,,,,,,black_plus_sign,,,null,,,,,,,,,,,,,,,,,,,,,,,
null,,prac_learn_phase(without_color),1255754,,,,,,,,black_plus_sign,,,null,object_07c.png,object_10c.png,,,,,,,,,,,,,,,,,,,,,
null,,black_cross(without_color)1,1256598,,,,,,,,green,,,null,object_15c.png,object_05c.png,,,,,,,,,,,,,,,,,,,,,
null,,prac_rt_plussign_withcolor,1257099,,,,,,,,blue,,,null,object_07c.png,object_10c.png,,,,,,,,,,,,,,,,,,,,,
710.5,,prac_rt_thecrossant_black,1258669,,,,,,,,black_plus_sign,,,49,,,1,1,,,,,,,,,,,,,,,,,,,
null,,prac_color_black,1258770,,,,,,,,black_plus_sign,,,null,,,,,,,,,,,,,,,,,,,,,,,
null,,prac_learn_phase(without_color),1262273,,,,,,,,black_plus_sign,,,null,object_05c.png,object_03a.png,,,,,,,,,,,,,,,,,,,,,
null,,black_cross(without_color)1,1263116,,,,,,,,green,,,null,object_15c.png,object_05c.png,,,,,,,,,,,,,,,,,,,,,
null,,prac_rt_plussign_withcolor,1263618,,,,,,,,blue,,,null,object_05c.png,object_03a.png,,,,,,,,,,,,,,,,,,,,,
533.7000000476837,,prac_rt_thecrossant_black,1264621,,,,,,,,black_plus_sign,,,49,,,1,1,,,,,,,,,,,,,,,,,,,
null,,prac_color_black,1264724,,,,,,,,black_plus_sign,,,null,,,,,,,,,,,,,,,,,,,,,,,
13286,,instruct_dir_01,1278013,,,,,,,,instruct,0,Next,,,,,,,,,,,,,,,,,,,,,,,,
5255.299999952316,,instruct_dir_2,1283269,,,,,,,,instruct,1,Next,,,,,,,,,,,,,,,,,,,,,,,,
5985.400000095367,,instruct_dir_3,1289256,,,,,,,,instruct,1,Next,,,,,,,,,,,,,,,,,,,,,,,,
4454.799999952316,,instruct_dir_4,1293712,,,,,,,,instruct,1,Start,,,,,,,,,,,,,,,,,,,,,,,,
null,,thebreak,1293822,,,,,,,,<p></p>,,,null,,,,,,,,,,,,,,,,,,,,,,,
1584.5999999046326,,intro_0,1295408,,,,,,,,instruct,,,32,,,,,,,,,,,,,,,,,,,,,,,
2025.6000001430511,,prac_directmemory_phase,1297435,,,,,,,,practice/object_03b.png,,,49,,,1,,practice/object_03a.png,practice/object_02a.png,practice/object_04a.png,practice/object_03a.png,1,1,,,,,,,,,,,,,
1632.6000001430511,,prac_directmemory_phase,1299071,,,,,,,,practice/object_01b.png,,,50,,,0,,practice/object_01a.png,practice/object_03a.png,practice/object_04a.png,practice/object_01a.png,0,0.5,,,,,,,,,,,,,
1549.2000000476837,,prac_directmemory_phase,1300621,,,,,,,,practice/object_04b.png,,,49,,,1,,practice/object_04a.png,practice/object_02a.png,practice/object_01a.png,practice/object_04a.png,1,0.6666666666666666,,,,,,,,,,,,,
1912.0999999046326,,prac_directmemory_phase,1302535,,,,,,,,practice/object_02b.png,,,49,,,1,,practice/object_02a.png,practice/object_01a.png,practice/object_04a.png,practice/object_02a.png,1,0.75,,,,,,,,,,,,,
10684.600000143051,,practice_feedback,1313222,,,,,,,,practice_feedback,1,,,,,,,,,,,,,,,,,,,,,,,,,
8628.200000047684,,proceed_actualTask,1321851,,,,,,,,proceed_actualTask,1,Continue,,,,,,,,,,,,,,,,,,,,,,,,
12943.5,,last_inst,1334795,,,,,,,,last_inst,,,32,,,,,,,,,,,,,,,,,,,,,,,
null,,learn_phase(without_color)1,1338298,,,,,,,,black_plus_sign,,,null,object_15c.png,object_05c.png,,,,,,,,,,,,,,,,,,,,,
null,,black_cross(without_color)1,1339142,,,,,,,,green,,,null,object_15c.png,object_05c.png,,,,,,,,,,,,,,,,,,,,,
null,,rt_plussign_withcolor1,1339643,,,,,,,,green,,,null,object_15c.png,object_05c.png,,,,,,,,,,,,,,,,,,,,,
1262.8000001907349,,rt_thecrossant_black1,1340809,,,,,,,,black_plus_sign,,,50,,,1,,,,,,,1,,,,,,,,,,,,,
null,,color_black1,1340911,,,,,,,,black_plus_sign,,,null,,,,,,,,,,,,,,,,,,,,,,,
null,,learn_phase(without_color)1,1344424,,,,,,,,black_plus_sign,,,null,object_02a.png,object_01c.png,,,,,,,,,,,,,,,,,,,,,
null,,black_cross(without_color)1,1345450,,,,,,,,blue,,,null,object_02a.png,object_01c.png,,,,,,,,,,,,,,,,,,,,,
496.10000014305115,,rt_plussign_withcolor1,1345950,,,,,,,,blue,,,49,object_02a.png,object_01c.png,,,,,,,,,,,,,,,,,,,,,
null,,rt_thecrossant_black1,1346929,,,,,,,,black_plus_sign,,,null,,,1,,,,,,,1,,,,,,,,,,,,,
null,,color_black1,1347032,,,,,,,,black_plus_sign,,,null,,,,,,,,,,,,,,,,,,,,,,,
null,,learn_phase(without_color)1,1350534,,,,,,,,black_plus_sign,,,null,object_07c.png,object_10c.png,,,,,,,,,,,,,,,,,,,,,
null,,black_cross(without_color)1,1351409,,,,,,,,green,,,null,object_07c.png,object_10c.png,,,,,,,,,,,,,,,,,,,,,
null,,rt_plussign_withcolor1,1351910,,,,,,,,green,,,null,object_07c.png,object_10c.png,,,,,,,,,,,,,,,,,,,,,
1146.4000000953674,,rt_thecrossant_black1,1353040,,,,,,,,black_plus_sign,,,50,,,1,,,,,,,1,,,,,,,,,,,,,
null,,color_black1,1353142,,,,,,,,black_plus_sign,,,null,,,,,,,,,,,,,,,,,,,,,,,
null,,learn_phase(without_color)1,1356646,,,,,,,,black_plus_sign,,,null,object_05c.png,object_03a.png,,,,,,,,,,,,,,,,,,,,,
null,,black_cross(without_color)1,1357675,,,,,,,,blue,,,null,object_05c.png,object_03a.png,,,,,,,,,,,,,,,,,,,,,
471,,rt_plussign_withcolor1,1358176,,,,,,,,blue,,,49,object_05c.png,object_03a.png,,,,,,,,,,,,,,,,,,,,,
null,,rt_thecrossant_black1,1359153,,,,,,,,black_plus_sign,,,null,,,1,,,,,,,1,,,,,,,,,,,,,
null,,color_black1,1359254,,,,,,,,black_plus_sign,,,null,,,,,,,,,,,,,,,,,,,,,,,
null,,learn_phase(without_color)1,1362756,,,,,,,,black_plus_sign,,,null,object_04b.png,object_13b.png,,,,,,,,,,,,,,,,,,,,,
null,,black_cross(without_color)1,1363475,,,,,,,,green,,,null,object_04b.png,object_13b.png,,,,,,,,,,,,,,,,,,,,,
null,,rt_plussign_withcolor1,1363977,,,,,,,,green,,,null,object_04b.png,object_13b.png,,,,,,,,,,,,,,,,,,,,,
1343.2000000476837,,rt_thecrossant_black1,1365264,,,,,,,,black_plus_sign,,,50,,,1,,,,,,,1,,,,,,,,,,,,,
null,,color_black1,1365366,,,,,,,,black_plus_sign,,,null,,,,,,,,,,,,,,,,,,,,,,,
null,,learn_phase(without_color)1,1368869,,,,,,,,black_plus_sign,,,null,object_10b.png,object_15a.png,,,,,,,,,,,,,,,,,,,,,
null,,black_cross(without_color)1,1369621,,,,,,,,green,,,null,object_10b.png,object_15a.png,,,,,,,,,,,,,,,,,,,,,
null,,rt_plussign_withcolor1,1370123,,,,,,,,green,,,null,object_10b.png,object_15a.png,,,,,,,,,,,,,,,,,,,,,
1089.8000001907349,,rt_thecrossant_black1,1371375,,,,,,,,black_plus_sign,,,49,,,0,,,,,,,0.8333333333333334,,,,,,,,,,,,,
null,,color_black1,1371478,,,,,,,,black_plus_sign,,,null,,,,,,,,,,,,,,,,,,,,,,,
null,,learn_phase(without_color)1,1374980,,,,,,,,black_plus_sign,,,null,object_13c.png,object_02b.png,,,,,,,,,,,,,,,,,,,,,
null,,black_cross(without_color)1,1375451,,,,,,,,green,,,null,object_13c.png,object_02b.png,,,,,,,,,,,,,,,,,,,,,
null,,rt_plussign_withcolor1,1375952,,,,,,,,green,,,null,object_13c.png,object_02b.png,,,,,,,,,,,,,,,,,,,,,
880.3000001907349,,rt_thecrossant_black1,1377485,,,,,,,,black_plus_sign,,,50,,,1,,,,,,,0.8571428571428571,,,,,,,,,,,,,
null,,color_black1,1377587,,,,,,,,black_plus_sign,,,null,,,,,,,,,,,,,,,,,,,,,,,
null,,learn_phase(without_color)1,1381091,,,,,,,,black_plus_sign,,,null,object_06b.png,object_09b.png,,,,,,,,,,,,,,,,,,,,,
null,,black_cross(without_color)1,1382105,,,,,,,,green,,,null,object_06b.png,object_09b.png,,,,,,,,,,,,,,,,,,,,,
null,,rt_plussign_withcolor1,1382608,,,,,,,,green,,,null,object_06b.png,object_09b.png,,,,,,,,,,,,,,,,,,,,,
607.9000000953674,,rt_thecrossant_black1,1383606,,,,,,,,black_plus_sign,,,50,,,1,,,,,,,0.875,,,,,,,,,,,,,
null,,color_black1,1383708,,,,,,,,black_plus_sign,,,null,,,,,,,,,,,,,,,,,,,,,,,
null,,learn_phase(without_color)1,1387211,,,,,,,,black_plus_sign,,,null,object_02b.png,object_14a.png,,,,,,,,,,,,,,,,,,,,,
null,,black_cross(without_color)1,1387649,,,,,,,,blue,,,null,object_02b.png,object_14a.png,,,,,,,,,,,,,,,,,,,,,
null,,rt_plussign_withcolor1,1388151,,,,,,,,blue,,,null,object_02b.png,object_14a.png,,,,,,,,,,,,,,,,,,,,,
1300,,rt_thecrossant_black1,1389717,,,,,,,,black_plus_sign,,,49,,,1,,,,,,,0.8888888888888888,,,,,,,,,,,,,
null,,color_black1,1389819,,,,,,,,black_plus_sign,,,null,,,,,,,,,,,,,,,,,,,,,,,
null,,learn_phase(without_color)1,1393320,,,,,,,,black_plus_sign,,,null,object_06a.png,object_03c.png,,,,,,,,,,,,,,,,,,,,,
null,,black_cross(without_color)1,1393815,,,,,,,,blue,,,null,object_06a.png,object_03c.png,,,,,,,,,,,,,,,,,,,,,
null,,rt_plussign_withcolor1,1394316,,,,,,,,blue,,,null,object_06a.png,object_03c.png,,,,,,,,,,,,,,,,,,,,,
740.8000001907349,,rt_thecrossant_black1,1395825,,,,,,,,black_plus_sign,,,49,,,1,,,,,,,0.9,,,,,,,,,,,,,
null,,color_black1,1395928,,,,,,,,black_plus_sign,,,null,,,,,,,,,,,,,,,,,,,,,,,
null,,learn_phase(without_color)1,1399431,,,,,,,,black_plus_sign,,,null,object_03c.png,object_02c.png,,,,,,,,,,,,,,,,,,,,,
null,,black_cross(without_color)1,1400175,,,,,,,,blue,,,null,object_03c.png,object_02c.png,,,,,,,,,,,,,,,,,,,,,
null,,rt_plussign_withcolor1,1400677,,,,,,,,blue,,,null,object_03c.png,object_02c.png,,,,,,,,,,,,,,,,,,,,,
797.5,,rt_thecrossant_black1,1401936,,,,,,,,black_plus_sign,,,49,,,1,,,,,,,0.9090909090909091,,,,,,,,,,,,,
null,,color_black1,1402037,,,,,,,,black_plus_sign,,,null,,,,,,,,,,,,,,,,,,,,,,,
null,,learn_phase(without_color)1,1405538,,,,,,,,black_plus_sign,,,null,object_13a.png,object_10a.png,,,,,,,,,,,,,,,,,,,,,
null,,black_cross(without_color)1,1406454,,,,,,,,blue,,,null,object_13a.png,object_10a.png,,,,,,,,,,,,,,,,,,,,,
null,,rt_plussign_withcolor1,1406956,,,,,,,,blue,,,null,object_13a.png,object_10a.png,,,,,,,,,,,,,,,,,,,,,
1093.8000001907349,,rt_thecrossant_black1,1408045,,,,,,,,black_plus_sign,,,49,,,1,,,,,,,0.9166666666666666,,,,,,,,,,,,,
null,,color_black1,1408148,,,,,,,,black_plus_sign,,,null,,,,,,,,,,,,,,,,,,,,,,,
null,,learn_phase(without_color)1,1411650,,,,,,,,black_plus_sign,,,null,object_07b.png,object_06b.png,,,,,,,,,,,,,,,,,,,,,
null,,black_cross(without_color)1,1412673,,,,,,,,blue,,,null,object_07b.png,object_06b.png,,,,,,,,,,,,,,,,,,,,,
null,,rt_plussign_withcolor1,1413174,,,,,,,,blue,,,null,object_07b.png,object_06b.png,,,,,,,,,,,,,,,,,,,,,
1271,,rt_thecrossant_black1,1414158,,,,,,,,black_plus_sign,,,49,,,1,,,,,,,0.9230769230769231,,,,,,,,,,,,,
null,,color_black1,1414261,,,,,,,,black_plus_sign,,,null,,,,,,,,,,,,,,,,,,,,,,,
null,,learn_phase(without_color)1,1417764,,,,,,,,black_plus_sign,,,null,object_14b.png,object_04b.png,,,,,,,,,,,,,,,,,,,,,
null,,black_cross(without_color)1,1418313,,,,,,,,blue,,,null,object_14b.png,object_04b.png,,,,,,,,,,,,,,,,,,,,,
null,,rt_plussign_withcolor1,1418822,,,,,,,,blue,,,null,object_14b.png,object_04b.png,,,,,,,,,,,,,,,,,,,,,
1530.3999998569489,,rt_thecrossant_black1,1420282,,,,,,,,black_plus_sign,,,49,,,1,,,,,,,0.9285714285714286,,,,,,,,,,,,,
null,,color_black1,1420385,,,,,,,,black_plus_sign,,,null,,,,,,,,,,,,,,,,,,,,,,,
null,,learn_phase(without_color)1,1423888,,,,,,,,black_plus_sign,,,null,object_05b.png,object_08b.png,,,,,,,,,,,,,,,,,,,,,
null,,black_cross(without_color)1,1424540,,,,,,,,green,,,null,object_05b.png,object_08b.png,,,,,,,,,,,,,,,,,,,,,
456.5,,rt_plussign_withcolor1,1425041,,,,,,,,green,,,50,object_05b.png,object_08b.png,,,,,,,,,,,,,,,,,,,,,
null,,rt_thecrossant_black1,1426393,,,,,,,,black_plus_sign,,,null,,,1,,,,,,,0.9333333333333333,,,,,,,,,,,,,
null,,color_black1,1426495,,,,,,,,black_plus_sign,,,null,,,,,,,,,,,,,,,,,,,,,,,
null,,learn_phase(without_color)1,1429999,,,,,,,,black_plus_sign,,,null,object_11a.png,object_05b.png,,,,,,,,,,,,,,,,,,,,,
null,,black_cross(without_color)1,1430432,,,,,,,,blue,,,null,object_11a.png,object_05b.png,,,,,,,,,,,,,,,,,,,,,
null,,rt_plussign_withcolor1,1430935,,,,,,,,blue,,,null,object_11a.png,object_05b.png,,,,,,,,,,,,,,,,,,,,,
1358.7999999523163,,rt_thecrossant_black1,1432505,,,,,,,,black_plus_sign,,,49,,,1,,,,,,,0.9375,,,,,,,,,,,,,
null,,color_black1,1432607,,,,,,,,black_plus_sign,,,null,,,,,,,,,,,,,,,,,,,,,,,
null,,learn_phase(without_color)1,1436109,,,,,,,,black_plus_sign,,,null,object_14c.png,object_01a.png,,,,,,,,,,,,,,,,,,,,,
null,,black_cross(without_color)1,1436563,,,,,,,,blue,,,null,object_14c.png,object_01a.png,,,,,,,,,,,,,,,,,,,,,
null,,rt_plussign_withcolor1,1437064,,,,,,,,blue,,,null,object_14c.png,object_01a.png,,,,,,,,,,,,,,,,,,,,,
812.1000001430511,,rt_thecrossant_black1,1438615,,,,,,,,black_plus_sign,,,49,,,1,,,,,,,0.9411764705882353,,,,,,,,,,,,,
null,,color_black1,1438717,,,,,,,,black_plus_sign,,,null,,,,,,,,,,,,,,,,,,,,,,,
null,,learn_phase(without_color)1,1442218,,,,,,,,black_plus_sign,,,null,object_10a.png,object_09c.png,,,,,,,,,,,,,,,,,,,,,
null,,black_cross(without_color)1,1442883,,,,,,,,green,,,null,object_10a.png,object_09c.png,,,,,,,,,,,,,,,,,,,,,
500.5,,rt_plussign_withcolor1,1443384,,,,,,,,green,,,50,object_10a.png,object_09c.png,,,,,,,,,,,,,,,,,,,,,
null,,rt_thecrossant_black1,1444723,,,,,,,,black_plus_sign,,,null,,,1,,,,,,,0.9444444444444444,,,,,,,,,,,,,
null,,color_black1,1444826,,,,,,,,black_plus_sign,,,null,,,,,,,,,,,,,,,,,,,,,,,
null,,learn_phase(without_color)1,1448329,,,,,,,,black_plus_sign,,,null,object_15b.png,object_01b.png,,,,,,,,,,,,,,,,,,,,,
null,,black_cross(without_color)1,1449328,,,,,,,,green,,,null,object_15b.png,object_01b.png,,,,,,,,,,,,,,,,,,,,,
null,,rt_plussign_withcolor1,1449830,,,,,,,,green,,,null,object_15b.png,object_01b.png,,,,,,,,,,,,,,,,,,,,,
1012.7000000476837,,rt_thecrossant_black1,1450835,,,,,,,,black_plus_sign,,,50,,,1,,,,,,,0.9473684210526315,,,,,,,,,,,,,
null,,color_black1,1450937,,,,,,,,black_plus_sign,,,null,,,,,,,,,,,,,,,,,,,,,,,
null,,learn_phase(without_color)1,1454440,,,,,,,,black_plus_sign,,,null,object_11b.png,object_02a.png,,,,,,,,,,,,,,,,,,,,,
null,,black_cross(without_color)1,1455518,,,,,,,,green,,,null,object_11b.png,object_02a.png,,,,,,,,,,,,,,,,,,,,,
null,,rt_plussign_withcolor1,1456020,,,,,,,,green,,,null,object_11b.png,object_02a.png,,,,,,,,,,,,,,,,,,,,,
1184.5,,rt_thecrossant_black1,1456947,,,,,,,,black_plus_sign,,,50,,,1,,,,,,,0.95,,,,,,,,,,,,,
null,,color_black1,1457049,,,,,,,,black_plus_sign,,,null,,,,,,,,,,,,,,,,,,,,,,,
null,,learn_phase(without_color)1,1460552,,,,,,,,black_plus_sign,,,null,object_12b.png,object_11c.png,,,,,,,,,,,,,,,,,,,,,
null,,black_cross(without_color)1,1461386,,,,,,,,blue,,,null,object_12b.png,object_11c.png,,,,,,,,,,,,,,,,,,,,,
null,,rt_plussign_withcolor1,1461888,,,,,,,,blue,,,null,object_12b.png,object_11c.png,,,,,,,,,,,,,,,,,,,,,
1570.7000000476837,,rt_thecrossant_black1,1463057,,,,,,,,black_plus_sign,,,49,,,1,,,,,,,0.9523809523809523,,,,,,,,,,,,,
null,,color_black1,1463158,,,,,,,,black_plus_sign,,,null,,,,,,,,,,,,,,,,,,,,,,,
null,,learn_phase(without_color)1,1466662,,,,,,,,black_plus_sign,,,null,object_08a.png,object_07a.png,,,,,,,,,,,,,,,,,,,,,
null,,black_cross(without_color)1,1467374,,,,,,,,blue,,,null,object_08a.png,object_07a.png,,,,,,,,,,,,,,,,,,,,,
null,,rt_plussign_withcolor1,1467881,,,,,,,,blue,,,null,object_08a.png,object_07a.png,,,,,,,,,,,,,,,,,,,,,
945.7000000476837,,rt_thecrossant_black1,1469184,,,,,,,,black_plus_sign,,,49,,,1,,,,,,,0.9545454545454546,,,,,,,,,,,,,
null,,color_black1,1469300,,,,,,,,black_plus_sign,,,null,,,,,,,,,,,,,,,,,,,,,,,
null,,learn_phase(without_color)1,1472809,,,,,,,,black_plus_sign,,,null,object_04c.png,object_10b.png,,,,,,,,,,,,,,,,,,,,,
null,,black_cross(without_color)1,1473345,,,,,,,,green,,,null,object_04c.png,object_10b.png,,,,,,,,,,,,,,,,,,,,,
null,,rt_plussign_withcolor1,1473851,,,,,,,,green,,,null,object_04c.png,object_10b.png,,,,,,,,,,,,,,,,,,,,,
1099.3999998569489,,rt_thecrossant_black1,1475330,,,,,,,,black_plus_sign,,,50,,,1,,,,,,,0.9565217391304348,,,,,,,,,,,,,
null,,color_black1,1475440,,,,,,,,black_plus_sign,,,null,,,,,,,,,,,,,,,,,,,,,,,
null,,learn_phase(without_color)1,1478944,,,,,,,,black_plus_sign,,,null,object_05a.png,object_03b.png,,,,,,,,,,,,,,,,,,,,,
null,,black_cross(without_color)1,1479409,,,,,,,,green,,,null,object_05a.png,object_03b.png,,,,,,,,,,,,,,,,,,,,,
null,,rt_plussign_withcolor1,1479912,,,,,,,,green,,,null,object_05a.png,object_03b.png,,,,,,,,,,,,,,,,,,,,,
976,,rt_thecrossant_black1,1481462,,,,,,,,black_plus_sign,,,50,,,1,,,,,,,0.9583333333333334,,,,,,,,,,,,,
null,,color_black1,1481575,,,,,,,,black_plus_sign,,,null,,,,,,,,,,,,,,,,,,,,,,,
null,,learn_phase(without_color)1,1485092,,,,,,,,black_plus_sign,,,null,object_03b.png,object_12c.png,,,,,,,,,,,,,,,,,,,,,
null,,black_cross(without_color)1,1485841,,,,,,,,green,,,null,object_03b.png,object_12c.png,,,,,,,,,,,,,,,,,,,,,
null,,rt_plussign_withcolor1,1486346,,,,,,,,green,,,null,object_03b.png,object_12c.png,,,,,,,,,,,,,,,,,,,,,
821.5,,rt_thecrossant_black1,1487611,,,,,,,,black_plus_sign,,,50,,,1,,,,,,,0.96,,,,,,,,,,,,,
null,,color_black1,1487712,,,,,,,,black_plus_sign,,,null,,,,,,,,,,,,,,,,,,,,,,,
null,,learn_phase(without_color)1,1491223,,,,,,,,black_plus_sign,,,null,object_01a.png,object_08c.png,,,,,,,,,,,,,,,,,,,,,
null,,black_cross(without_color)1,1491952,,,,,,,,blue,,,null,object_01a.png,object_08c.png,,,,,,,,,,,,,,,,,,,,,
null,,rt_plussign_withcolor1,1492460,,,,,,,,blue,,,null,object_01a.png,object_08c.png,,,,,,,,,,,,,,,,,,,,,
1176.0999999046326,,rt_thecrossant_black1,1493742,,,,,,,,black_plus_sign,,,49,,,1,,,,,,,0.9615384615384616,,,,,,,,,,,,,
null,,color_black1,1493849,,,,,,,,black_plus_sign,,,null,,,,,,,,,,,,,,,,,,,,,,,
null,,learn_phase(without_color)1,1497352,,,,,,,,black_plus_sign,,,null,object_07a.png,object_04a.png,,,,,,,,,,,,,,,,,,,,,
null,,black_cross(without_color)1,1497902,,,,,,,,blue,,,null,object_07a.png,object_04a.png,,,,,,,,,,,,,,,,,,,,,
null,,rt_plussign_withcolor1,1498412,,,,,,,,blue,,,null,object_07a.png,object_04a.png,,,,,,,,,,,,,,,,,,,,,
1092,,rt_thecrossant_black1,1499872,,,,,,,,black_plus_sign,,,49,,,1,,,,,,,0.9629629629629629,,,,,,,,,,,,,
null,,color_black1,1499983,,,,,,,,black_plus_sign,,,null,,,,,,,,,,,,,,,,,,,,,,,
null,,learn_phase(without_color)1,1503493,,,,,,,,black_plus_sign,,,null,object_01b.png,object_06c.png,,,,,,,,,,,,,,,,,,,,,
null,,black_cross(without_color)1,1504219,,,,,,,,blue,,,null,object_01b.png,object_06c.png,,,,,,,,,,,,,,,,,,,,,
null,,rt_plussign_withcolor1,1504723,,,,,,,,blue,,,null,object_01b.png,object_06c.png,,,,,,,,,,,,,,,,,,,,,
940.8000001907349,,rt_thecrossant_black1,1506010,,,,,,,,black_plus_sign,,,49,,,1,,,,,,,0.9642857142857143,,,,,,,,,,,,,
null,,color_black1,1506114,,,,,,,,black_plus_sign,,,null,,,,,,,,,,,,,,,,,,,,,,,
null,,learn_phase(without_color)1,1509620,,,,,,,,black_plus_sign,,,null,object_10c.png,object_12a.png,,,,,,,,,,,,,,,,,,,,,
null,,black_cross(without_color)1,1510390,,,,,,,,green,,,null,object_10c.png,object_12a.png,,,,,,,,,,,,,,,,,,,,,
null,,rt_plussign_withcolor1,1510892,,,,,,,,green,,,null,object_10c.png,object_12a.png,,,,,,,,,,,,,,,,,,,,,
1082.7000000476837,,rt_thecrossant_black1,1512129,,,,,,,,black_plus_sign,,,50,,,1,,,,,,,0.9655172413793104,,,,,,,,,,,,,
null,,color_black1,1512235,,,,,,,,black_plus_sign,,,null,,,,,,,,,,,,,,,,,,,,,,,
null,,learn_phase(without_color)1,1515738,,,,,,,,black_plus_sign,,,null,object_11c.png,object_09a.png,,,,,,,,,,,,,,,,,,,,,
null,,black_cross(without_color)1,1516218,,,,,,,,green,,,null,object_11c.png,object_09a.png,,,,,,,,,,,,,,,,,,,,,
null,,rt_plussign_withcolor1,1516722,,,,,,,,green,,,null,object_11c.png,object_09a.png,,,,,,,,,,,,,,,,,,,,,
1277.3999998569489,,rt_thecrossant_black1,1518263,,,,,,,,black_plus_sign,,,50,,,1,,,,,,,0.9666666666666667,,,,,,,,,,,,,
null,,color_black1,1518366,,,,,,,,black_plus_sign,,,null,,,,,,,,,,,,,,,,,,,,,,,
null,,thebreak,1518480,,,,,,,,<p></p>,,,null,,,,,,,,,,,,,,,,,,,,,,,
4587.399999856949,,intro_0,1523069,,,,,,,,instruct,,,32,,,,,,,,,,,,,,,,,,,,,,,
4137.399999856949,,directmemory_phase1,1527207,,,,,,,,object_10a.png,,,51,,,0,,object_13a.png,object_14c.png,object_05a.png,object_13a.png,,0,0,,,,,,,,,,,,
2199.5,,directmemory_phase1,1529408,,,,,,,,object_01b.png,,,51,,,0,,object_15c.png,object_15b.png,object_11a.png,object_15b.png,,0,0,,,,,,,,,,,,
2248.100000143051,,directmemory_phase1,1531658,,,,,,,,object_09b.png,,,49,,,1,,object_06b.png,object_01b.png,object_10a.png,object_06b.png,,0.3333333333333333,1,,,,,,,,,,,,
2185.100000143051,,directmemory_phase1,1533846,,,,,,,,object_04b.png,,,49,,,0,,object_13c.png,object_05a.png,object_14b.png,object_14b.png,,0.25,0,,,,,,,,,,,,
1772.7999999523163,,directmemory_phase1,1535621,,,,,,,,object_03c.png,,,51,,,1,,object_12b.png,object_05a.png,object_06a.png,object_06a.png,,0.4,1,,,,,,,,,,,,
2185.800000190735,,directmemory_phase1,1537810,,,,,,,,object_10b.png,,,51,,,0,,object_13a.png,object_04c.png,object_07c.png,object_04c.png,,0.3333333333333333,0,,,,,,,,,,,,
2032.2999999523163,,directmemory_phase1,1539845,,,,,,,,object_06c.png,,,49,,,0,,object_04b.png,object_01b.png,object_10a.png,object_01b.png,,0.2857142857142857,0,,,,,,,,,,,,
1774,,directmemory_phase1,1541620,,,,,,,,object_09c.png,,,50,,,0,,object_10a.png,object_01a.png,object_05c.png,object_10a.png,,0.25,0,,,,,,,,,,,,
1911.1000001430511,,directmemory_phase1,1543533,,,,,,,,object_08c.png,,,49,,,0,,object_05c.png,object_01a.png,object_02b.png,object_01a.png,,0.2222222222222222,0,,,,,,,,,,,,
2137.7000000476837,,directmemory_phase1,1545672,,,,,,,,object_12c.png,,,49,,,0,,object_11c.png,object_03b.png,object_04b.png,object_03b.png,,0.2,0,,,,,,,,,,,,
2447.2000000476837,,directmemory_phase1,1548121,,,,,,,,object_01c.png,,,50,,,1,,object_03c.png,object_02a.png,object_11c.png,object_02a.png,,0.2727272727272727,1,,,,,,,,,,,,
1934.7000000476837,,directmemory_phase1,1550059,,,,,,,,object_08b.png,,,51,,,0,,object_05b.png,object_10a.png,object_07a.png,object_05b.png,,0.25,0,,,,,,,,,,,,
1885.1000001430511,,directmemory_phase1,1551946,,,,,,,,object_03a.png,,,51,,,1,,object_04b.png,object_02a.png,object_05c.png,object_05c.png,,0.3076923076923077,1,,,,,,,,,,,,
2134.0999999046326,,directmemory_phase1,1554083,,,,,,,,object_02b.png,,,50,,,0,,object_13c.png,object_15c.png,object_07c.png,object_13c.png,,0.2857142857142857,0,,,,,,,,,,,,
1723.8000001907349,,directmemory_phase1,1555808,,,,,,,,object_04a.png,,,49,,,1,,object_07a.png,object_02a.png,object_03c.png,object_07a.png,,0.3333333333333333,1,,,,,,,,,,,,
1411.1000001430511,,directmemory_phase1,1557220,,,,,,,,object_02a.png,,,49,,,0,,object_06a.png,object_11b.png,object_11a.png,object_11b.png,,0.3125,0,,,,,,,,,,,,
1974.0999999046326,,directmemory_phase1,1559195,,,,,,,,object_01a.png,,,51,,,1,,object_13a.png,object_15c.png,object_14c.png,object_14c.png,,0.35294117647058826,1,,,,,,,,,,,,
2049.2999999523163,,directmemory_phase1,1561246,,,,,,,,object_07a.png,,,50,,,0,,object_11b.png,object_05a.png,object_08a.png,object_08a.png,,0.3333333333333333,0,,,,,,,,,,,,
1710.3000001907349,,directmemory_phase1,1562959,,,,,,,,object_13b.png,,,49,,,0,,object_07a.png,object_04b.png,object_03b.png,object_04b.png,,0.3157894736842105,0,,,,,,,,,,,,
2446.5,,directmemory_phase1,1565408,,,,,,,,object_09a.png,,,50,,,1,,object_01b.png,object_11c.png,object_01a.png,object_11c.png,,0.35,1,,,,,,,,,,,,
2360.699999809265,,directmemory_phase1,1567771,,,,,,,,object_10c.png,,,50,,,0,,object_07c.png,object_14c.png,object_13c.png,object_07c.png,,0.3333333333333333,0,,,,,,,,,,,,
2108.0999999046326,,directmemory_phase1,1569882,,,,,,,,object_05b.png,,,51,,,1,,object_05a.png,object_12b.png,object_11a.png,object_11a.png,,0.36363636363636365,1,,,,,,,,,,,,
2861,,directmemory_phase1,1572744,,,,,,,,object_11c.png,,,51,,,0,,object_12b.png,object_08a.png,object_05a.png,object_12b.png,,0.34782608695652173,0,,,,,,,,,,,,
2462.5,,directmemory_phase1,1575208,,,,,,,,object_06b.png,,,50,,,0,,object_07b.png,object_05a.png,object_08a.png,object_07b.png,,0.3333333333333333,0,,,,,,,,,,,,
2185.5999999046326,,directmemory_phase1,1577396,,,,,,,,object_14a.png,,,51,,,0,,object_02b.png,object_05b.png,object_05c.png,object_02b.png,,0.32,0,,,,,,,,,,,,
1459.3999998569489,,directmemory_phase1,1578858,,,,,,,,object_03b.png,,,51,,,0,,object_05a.png,object_14c.png,object_07c.png,object_05a.png,,0.3076923076923077,0,,,,,,,,,,,,
1798.5,,directmemory_phase1,1580658,,,,,,,,object_12a.png,,,50,,,0,,object_10c.png,object_01a.png,object_06b.png,object_10c.png,,0.2962962962962963,0,,,,,,,,,,,,
2297.5,,directmemory_phase1,1582956,,,,,,,,object_02c.png,,,51,,,1,,object_11c.png,object_01b.png,object_03c.png,object_03c.png,,0.32142857142857145,1,,,,,,,,,,,,
1987.9000000953674,,directmemory_phase1,1584945,,,,,,,,object_05c.png,,,51,,,1,,object_13a.png,object_08a.png,object_15c.png,object_15c.png,,0.3448275862068966,1,,,,,,,,,,,,
2809.7000000476837,,directmemory_phase1,1587756,,,,,,,,object_15a.png,,,51,,,0,,object_10b.png,object_05b.png,object_05c.png,object_10b.png,,0.3333333333333333,0,,,,,,,,,,,,
null,,thebreak,1587863,,,,,,,,<p></p>,,,null,,,,,,,,,,,,,,,,,,,,,,,
1756.2999999523163,,intro_0,1589620,,,,,,,,instruct,,,32,,,,,,,,,,,,,,,,,,,,,,,
null,,learn_phase(without_color)2,1593124,,,,,,,,black_plus_sign,,,null,object_10b.png,object_15a.png,,,,,,,,,,,,,,,,,,,,,
null,,black_cross(without_color)2,1593654,,,,,,,,green,,,null,object_10b.png,object_15a.png,,,,,,,,,,,,,,,,,,,,,
null,,rt_plussign_withcolor2,1594157,,,,,,,,green,,,null,object_10b.png,object_15a.png,,,,,,,,,,,,,,,,,,,,,
836.3000001907349,,rt_thecrossant_black2,1595644,,,,,,,,black_plus_sign,,,50,,,1,,,,,,,1,,,,,,,,,,,,,
null,,color_black2,1595747,,,,,,,,black_plus_sign,,,null,,,,,,,,,,,,,,,,,,,,,,,
null,,learn_phase(without_color)2,1599250,,,,,,,,black_plus_sign,,,null,object_02a.png,object_01c.png,,,,,,,,,,,,,,,,,,,,,
null,,black_cross(without_color)2,1599991,,,,,,,,blue,,,null,object_02a.png,object_01c.png,,,,,,,,,,,,,,,,,,,,,
470.59999990463257,,rt_plussign_withcolor2,1600500,,,,,,,,blue,,,49,object_02a.png,object_01c.png,,,,,,,,,,,,,,,,,,,,,
null,,rt_thecrossant_black2,1601766,,,,,,,,black_plus_sign,,,null,,,1,,,,,,,1,,,,,,,,,,,,,
null,,color_black2,1601878,,,,,,,,black_plus_sign,,,null,,,,,,,,,,,,,,,,,,,,,,,
null,,learn_phase(without_color)2,1605380,,,,,,,,black_plus_sign,,,null,object_05a.png,object_03b.png,,,,,,,,,,,,,,,,,,,,,
null,,black_cross(without_color)2,1606003,,,,,,,,green,,,null,object_05a.png,object_03b.png,,,,,,,,,,,,,,,,,,,,,
null,,rt_plussign_withcolor2,1606506,,,,,,,,green,,,null,object_05a.png,object_03b.png,,,,,,,,,,,,,,,,,,,,,
852.9000000953674,,rt_thecrossant_black2,1607904,,,,,,,,black_plus_sign,,,50,,,1,,,,,,,1,,,,,,,,,,,,,
null,,color_black2,1608007,,,,,,,,black_plus_sign,,,null,,,,,,,,,,,,,,,,,,,,,,,
null,,learn_phase(without_color)2,1611511,,,,,,,,black_plus_sign,,,null,object_11b.png,object_02a.png,,,,,,,,,,,,,,,,,,,,,
null,,black_cross(without_color)2,1612527,,,,,,,,blue,,,null,object_11b.png,object_02a.png,,,,,,,,,,,,,,,,,,,,,
442.89999985694885,,rt_plussign_withcolor2,1613031,,,,,,,,blue,,,49,object_11b.png,object_02a.png,,,,,,,,,,,,,,,,,,,,,
null,,rt_thecrossant_black2,1614032,,,,,,,,black_plus_sign,,,null,,,1,,,,,,,1,,,,,,,,,,,,,
null,,color_black2,1614135,,,,,,,,black_plus_sign,,,null,,,,,,,,,,,,,,,,,,,,,,,
null,,learn_phase(without_color)2,1617647,,,,,,,,black_plus_sign,,,null,object_07b.png,object_06b.png,,,,,,,,,,,,,,,,,,,,,
null,,black_cross(without_color)2,1618185,,,,,,,,blue,,,null,object_07b.png,object_06b.png,,,,,,,,,,,,,,,,,,,,,
null,,rt_plussign_withcolor2,1618694,,,,,,,,blue,,,null,object_07b.png,object_06b.png,,,,,,,,,,,,,,,,,,,,,
1370,,rt_thecrossant_black2,1620170,,,,,,,,black_plus_sign,,,50,,,0,,,,,,,0.8,,,,,,,,,,,,,
null,,color_black2,1620278,,,,,,,,black_plus_sign,,,null,,,,,,,,,,,,,,,,,,,,,,,
null,,learn_phase(without_color)2,1623781,,,,,,,,black_plus_sign,,,null,object_11c.png,object_09a.png,,,,,,,,,,,,,,,,,,,,,
null,,black_cross(without_color)2,1624342,,,,,,,,green,,,null,object_11c.png,object_09a.png,,,,,,,,,,,,,,,,,,,,,
null,,rt_plussign_withcolor2,1624850,,,,,,,,green,,,null,object_11c.png,object_09a.png,,,,,,,,,,,,,,,,,,,,,
761,,rt_thecrossant_black2,1626314,,,,,,,,black_plus_sign,,,50,,,1,,,,,,,0.8333333333333334,,,,,,,,,,,,,
null,,color_black2,1626422,,,,,,,,black_plus_sign,,,null,,,,,,,,,,,,,,,,,,,,,,,
null,,learn_phase(without_color)2,1629934,,,,,,,,black_plus_sign,,,null,object_10c.png,object_12a.png,,,,,,,,,,,,,,,,,,,,,
null,,black_cross(without_color)2,1630753,,,,,,,,green,,,null,object_10c.png,object_12a.png,,,,,,,,,,,,,,,,,,,,,
477.30000019073486,,rt_plussign_withcolor2,1631255,,,,,,,,green,,,50,object_10c.png,object_12a.png,,,,,,,,,,,,,,,,,,,,,
null,,rt_thecrossant_black2,1632443,,,,,,,,black_plus_sign,,,null,,,1,,,,,,,0.8571428571428571,,,,,,,,,,,,,
null,,color_black2,1632545,,,,,,,,black_plus_sign,,,null,,,,,,,,,,,,,,,,,,,,,,,
null,,learn_phase(without_color)2,1636054,,,,,,,,black_plus_sign,,,null,object_05c.png,object_03a.png,,,,,,,,,,,,,,,,,,,,,
null,,black_cross(without_color)2,1636871,,,,,,,,green,,,null,object_05c.png,object_03a.png,,,,,,,,,,,,,,,,,,,,,
null,,rt_plussign_withcolor2,1637382,,,,,,,,green,,,null,object_05c.png,object_03a.png,,,,,,,,,,,,,,,,,,,,,
1090.7000000476837,,rt_thecrossant_black2,1638574,,,,,,,,black_plus_sign,,,50,,,1,,,,,,,0.875,,,,,,,,,,,,,
null,,color_black2,1638680,,,,,,,,black_plus_sign,,,null,,,,,,,,,,,,,,,,,,,,,,,
null,,learn_phase(without_color)2,1642191,,,,,,,,black_plus_sign,,,null,object_01b.png,object_06c.png,,,,,,,,,,,,,,,,,,,,,
null,,black_cross(without_color)2,1643130,,,,,,,,blue,,,null,object_01b.png,object_06c.png,,,,,,,,,,,,,,,,,,,,,
null,,rt_plussign_withcolor2,1643635,,,,,,,,blue,,,null,object_01b.png,object_06c.png,,,,,,,,,,,,,,,,,,,,,
1083,,rt_thecrossant_black2,1644702,,,,,,,,black_plus_sign,,,49,,,1,,,,,,,0.8888888888888888,,,,,,,,,,,,,
null,,color_black2,1644811,,,,,,,,black_plus_sign,,,null,,,,,,,,,,,,,,,,,,,,,,,
null,,learn_phase(without_color)2,1648314,,,,,,,,black_plus_sign,,,null,object_13a.png,object_10a.png,,,,,,,,,,,,,,,,,,,,,
null,,black_cross(without_color)2,1649371,,,,,,,,blue,,,null,object_13a.png,object_10a.png,,,,,,,,,,,,,,,,,,,,,
null,,rt_plussign_withcolor2,1649872,,,,,,,,blue,,,null,object_13a.png,object_10a.png,,,,,,,,,,,,,,,,,,,,,
1406.3999998569489,,rt_thecrossant_black2,1650831,,,,,,,,black_plus_sign,,,49,,,1,,,,,,,0.9,,,,,,,,,,,,,
null,,color_black2,1650936,,,,,,,,black_plus_sign,,,null,,,,,,,,,,,,,,,,,,,,,,,
null,,learn_phase(without_color)2,1654447,,,,,,,,black_plus_sign,,,null,object_06b.png,object_09b.png,,,,,,,,,,,,,,,,,,,,,
null,,black_cross(without_color)2,1655383,,,,,,,,green,,,null,object_06b.png,object_09b.png,,,,,,,,,,,,,,,,,,,,,
null,,rt_plussign_withcolor2,1655891,,,,,,,,green,,,null,object_06b.png,object_09b.png,,,,,,,,,,,,,,,,,,,,,
1702.0999999046326,,rt_thecrossant_black2,1656982,,,,,,,,black_plus_sign,,,50,,,1,,,,,,,0.9090909090909091,,,,,,,,,,,,,
null,,color_black2,1657085,,,,,,,,black_plus_sign,,,null,,,,,,,,,,,,,,,,,,,,,,,
null,,learn_phase(without_color)2,1660598,,,,,,,,black_plus_sign,,,null,object_11a.png,object_05b.png,,,,,,,,,,,,,,,,,,,,,
null,,black_cross(without_color)2,1661182,,,,,,,,blue,,,null,object_11a.png,object_05b.png,,,,,,,,,,,,,,,,,,,,,
null,,rt_plussign_withcolor2,1661687,,,,,,,,blue,,,null,object_11a.png,object_05b.png,,,,,,,,,,,,,,,,,,,,,
1235.4000000953674,,rt_thecrossant_black2,1663119,,,,,,,,black_plus_sign,,,49,,,1,,,,,,,0.9166666666666666,,,,,,,,,,,,,
null,,color_black2,1663226,,,,,,,,black_plus_sign,,,null,,,,,,,,,,,,,,,,,,,,,,,
null,,learn_phase(without_color)2,1666734,,,,,,,,black_plus_sign,,,null,object_01a.png,object_08c.png,,,,,,,,,,,,,,,,,,,,,
null,,black_cross(without_color)2,1667458,,,,,,,,blue,,,null,object_01a.png,object_08c.png,,,,,,,,,,,,,,,,,,,,,
null,,rt_plussign_withcolor2,1667962,,,,,,,,blue,,,null,object_01a.png,object_08c.png,,,,,,,,,,,,,,,,,,,,,
870.2000000476837,,rt_thecrossant_black2,1669256,,,,,,,,black_plus_sign,,,49,,,1,,,,,,,0.9230769230769231,,,,,,,,,,,,,
null,,color_black2,1669365,,,,,,,,black_plus_sign,,,null,,,,,,,,,,,,,,,,,,,,,,,
null,,learn_phase(without_color)2,1672874,,,,,,,,black_plus_sign,,,null,object_03c.png,object_02c.png,,,,,,,,,,,,,,,,,,,,,
null,,black_cross(without_color)2,1673517,,,,,,,,green,,,null,object_03c.png,object_02c.png,,,,,,,,,,,,,,,,,,,,,
null,,rt_plussign_withcolor2,1674021,,,,,,,,green,,,null,object_03c.png,object_02c.png,,,,,,,,,,,,,,,,,,,,,
1108,,rt_thecrossant_black2,1675387,,,,,,,,black_plus_sign,,,50,,,1,,,,,,,0.9285714285714286,,,,,,,,,,,,,
null,,color_black2,1675491,,,,,,,,black_plus_sign,,,null,,,,,,,,,,,,,,,,,,,,,,,
null,,learn_phase(without_color)2,1679004,,,,,,,,black_plus_sign,,,null,object_04c.png,object_10b.png,,,,,,,,,,,,,,,,,,,,,
null,,black_cross(without_color)2,1679454,,,,,,,,blue,,,null,object_04c.png,object_10b.png,,,,,,,,,,,,,,,,,,,,,
null,,rt_plussign_withcolor2,1679961,,,,,,,,blue,,,null,object_04c.png,object_10b.png,,,,,,,,,,,,,,,,,,,,,
1095.4000000953674,,rt_thecrossant_black2,1681537,,,,,,,,black_plus_sign,,,49,,,1,,,,,,,0.9333333333333333,,,,,,,,,,,,,
null,,color_black2,1681644,,,,,,,,black_plus_sign,,,null,,,,,,,,,,,,,,,,,,,,,,,
null,,learn_phase(without_color)2,1685158,,,,,,,,black_plus_sign,,,null,object_08a.png,object_07a.png,,,,,,,,,,,,,,,,,,,,,
null,,black_cross(without_color)2,1685939,,,,,,,,blue,,,null,object_08a.png,object_07a.png,,,,,,,,,,,,,,,,,,,,,
null,,rt_plussign_withcolor2,1686444,,,,,,,,blue,,,null,object_08a.png,object_07a.png,,,,,,,,,,,,,,,,,,,,,
735.5,,rt_thecrossant_black2,1687683,,,,,,,,black_plus_sign,,,50,,,0,,,,,,,0.875,,,,,,,,,,,,,
null,,color_black2,1687797,,,,,,,,black_plus_sign,,,null,,,,,,,,,,,,,,,,,,,,,,,
null,,learn_phase(without_color)2,1691299,,,,,,,,black_plus_sign,,,null,object_12b.png,object_11c.png,,,,,,,,,,,,,,,,,,,,,
null,,black_cross(without_color)2,1692353,,,,,,,,blue,,,null,object_12b.png,object_11c.png,,,,,,,,,,,,,,,,,,,,,
441,,rt_plussign_withcolor2,1692857,,,,,,,,blue,,,49,object_12b.png,object_11c.png,,,,,,,,,,,,,,,,,,,,,
null,,rt_thecrossant_black2,1693813,,,,,,,,black_plus_sign,,,null,,,1,,,,,,,0.8823529411764706,,,,,,,,,,,,,
null,,color_black2,1693917,,,,,,,,black_plus_sign,,,null,,,,,,,,,,,,,,,,,,,,,,,
null,,learn_phase(without_color)2,1697425,,,,,,,,black_plus_sign,,,null,object_15c.png,object_05c.png,,,,,,,,,,,,,,,,,,,,,
null,,black_cross(without_color)2,1698327,,,,,,,,blue,,,null,object_15c.png,object_05c.png,,,,,,,,,,,,,,,,,,,,,
null,,rt_plussign_withcolor2,1698836,,,,,,,,blue,,,null,object_15c.png,object_05c.png,,,,,,,,,,,,,,,,,,,,,
1358.5999999046326,,rt_thecrossant_black2,1699951,,,,,,,,black_plus_sign,,,49,,,1,,,,,,,0.8888888888888888,,,,,,,,,,,,,
null,,color_black2,1700054,,,,,,,,black_plus_sign,,,null,,,,,,,,,,,,,,,,,,,,,,,
null,,learn_phase(without_color)2,1703560,,,,,,,,black_plus_sign,,,null,object_03b.png,object_12c.png,,,,,,,,,,,,,,,,,,,,,
null,,black_cross(without_color)2,1704595,,,,,,,,green,,,null,object_03b.png,object_12c.png,,,,,,,,,,,,,,,,,,,,,
null,,rt_plussign_withcolor2,1705098,,,,,,,,green,,,null,object_03b.png,object_12c.png,,,,,,,,,,,,,,,,,,,,,
1428,,rt_thecrossant_black2,1706077,,,,,,,,black_plus_sign,,,50,,,1,,,,,,,0.8947368421052632,,,,,,,,,,,,,
null,,color_black2,1706187,,,,,,,,black_plus_sign,,,null,,,,,,,,,,,,,,,,,,,,,,,
null,,learn_phase(without_color)2,1709695,,,,,,,,black_plus_sign,,,null,object_14b.png,object_04b.png,,,,,,,,,,,,,,,,,,,,,
null,,black_cross(without_color)2,1710748,,,,,,,,green,,,null,object_14b.png,object_04b.png,,,,,,,,,,,,,,,,,,,,,
null,,rt_plussign_withcolor2,1711265,,,,,,,,green,,,null,object_14b.png,object_04b.png,,,,,,,,,,,,,,,,,,,,,
1145.7000000476837,,rt_thecrossant_black2,1712233,,,,,,,,black_plus_sign,,,50,,,1,,,,,,,0.9,,,,,,,,,,,,,
null,,color_black2,1712340,,,,,,,,black_plus_sign,,,null,,,,,,,,,,,,,,,,,,,,,,,
null,,learn_phase(without_color)2,1715844,,,,,,,,black_plus_sign,,,null,object_04b.png,object_13b.png,,,,,,,,,,,,,,,,,,,,,
null,,black_cross(without_color)2,1716406,,,,,,,,blue,,,null,object_04b.png,object_13b.png,,,,,,,,,,,,,,,,,,,,,
null,,rt_plussign_withcolor2,1716917,,,,,,,,blue,,,null,object_04b.png,object_13b.png,,,,,,,,,,,,,,,,,,,,,
1782.2999999523163,,rt_thecrossant_black2,1718389,,,,,,,,black_plus_sign,,,49,,,1,,,,,,,0.9047619047619048,,,,,,,,,,,,,
null,,color_black2,1718496,,,,,,,,black_plus_sign,,,null,,,,,,,,,,,,,,,,,,,,,,,
null,,learn_phase(without_color)2,1722003,,,,,,,,black_plus_sign,,,null,object_02b.png,object_14a.png,,,,,,,,,,,,,,,,,,,,,
null,,black_cross(without_color)2,1722442,,,,,,,,green,,,null,object_02b.png,object_14a.png,,,,,,,,,,,,,,,,,,,,,
null,,rt_plussign_withcolor2,1722947,,,,,,,,green,,,null,object_02b.png,object_14a.png,,,,,,,,,,,,,,,,,,,,,
864.7000000476837,,rt_thecrossant_black2,1724528,,,,,,,,black_plus_sign,,,50,,,1,,,,,,,0.9090909090909091,,,,,,,,,,,,,
null,,color_black2,1724637,,,,,,,,black_plus_sign,,,null,,,,,,,,,,,,,,,,,,,,,,,
null,,learn_phase(without_color)2,1728143,,,,,,,,black_plus_sign,,,null,object_14c.png,object_01a.png,,,,,,,,,,,,,,,,,,,,,
null,,black_cross(without_color)2,1728606,,,,,,,,green,,,null,object_14c.png,object_01a.png,,,,,,,,,,,,,,,,,,,,,
null,,rt_plussign_withcolor2,1729117,,,,,,,,green,,,null,object_14c.png,object_01a.png,,,,,,,,,,,,,,,,,,,,,
827.8000001907349,,rt_thecrossant_black2,1730669,,,,,,,,black_plus_sign,,,50,,,1,,,,,,,0.9130434782608695,,,,,,,,,,,,,
null,,color_black2,1730778,,,,,,,,black_plus_sign,,,null,,,,,,,,,,,,,,,,,,,,,,,
null,,learn_phase(without_color)2,1734284,,,,,,,,black_plus_sign,,,null,object_06a.png,object_03c.png,,,,,,,,,,,,,,,,,,,,,
null,,black_cross(without_color)2,1735204,,,,,,,,blue,,,null,object_06a.png,object_03c.png,,,,,,,,,,,,,,,,,,,,,
438,,rt_plussign_withcolor2,1735714,,,,,,,,blue,,,49,object_06a.png,object_03c.png,,,,,,,,,,,,,,,,,,,,,
null,,rt_thecrossant_black2,1736810,,,,,,,,black_plus_sign,,,null,,,1,,,,,,,0.9166666666666666,,,,,,,,,,,,,
null,,color_black2,1736920,,,,,,,,black_plus_sign,,,null,,,,,,,,,,,,,,,,,,,,,,,
null,,learn_phase(without_color)2,1740438,,,,,,,,black_plus_sign,,,null,object_05b.png,object_08b.png,,,,,,,,,,,,,,,,,,,,,
null,,black_cross(without_color)2,1741474,,,,,,,,green,,,null,object_05b.png,object_08b.png,,,,,,,,,,,,,,,,,,,,,
445.09999990463257,,rt_plussign_withcolor2,1741985,,,,,,,,green,,,50,object_05b.png,object_08b.png,,,,,,,,,,,,,,,,,,,,,
null,,rt_thecrossant_black2,1742958,,,,,,,,black_plus_sign,,,null,,,1,,,,,,,0.92,,,,,,,,,,,,,
null,,color_black2,1743066,,,,,,,,black_plus_sign,,,null,,,,,,,,,,,,,,,,,,,,,,,
null,,learn_phase(without_color)2,1746571,,,,,,,,black_plus_sign,,,null,object_15b.png,object_01b.png,,,,,,,,,,,,,,,,,,,,,
null,,black_cross(without_color)2,1747665,,,,,,,,blue,,,null,object_15b.png,object_01b.png,,,,,,,,,,,,,,,,,,,,,
508.80000019073486,,rt_plussign_withcolor2,1748175,,,,,,,,blue,,,49,object_15b.png,object_01b.png,,,,,,,,,,,,,,,,,,,,,
null,,rt_thecrossant_black2,1749103,,,,,,,,black_plus_sign,,,null,,,1,,,,,,,0.9230769230769231,,,,,,,,,,,,,
null,,color_black2,1749215,,,,,,,,black_plus_sign,,,null,,,,,,,,,,,,,,,,,,,,,,,
null,,learn_phase(without_color)2,1752724,,,,,,,,black_plus_sign,,,null,object_10a.png,object_09c.png,,,,,,,,,,,,,,,,,,,,,
null,,black_cross(without_color)2,1753522,,,,,,,,green,,,null,object_10a.png,object_09c.png,,,,,,,,,,,,,,,,,,,,,
null,,rt_plussign_withcolor2,1754024,,,,,,,,green,,,null,object_10a.png,object_09c.png,,,,,,,,,,,,,,,,,,,,,
1412.1999998092651,,rt_thecrossant_black2,1755247,,,,,,,,black_plus_sign,,,50,,,1,,,,,,,0.9259259259259259,,,,,,,,,,,,,
null,,color_black2,1755350,,,,,,,,black_plus_sign,,,null,,,,,,,,,,,,,,,,,,,,,,,
null,,learn_phase(without_color)2,1758866,,,,,,,,black_plus_sign,,,null,object_07c.png,object_10c.png,,,,,,,,,,,,,,,,,,,,,
null,,black_cross(without_color)2,1759510,,,,,,,,blue,,,null,object_07c.png,object_10c.png,,,,,,,,,,,,,,,,,,,,,
407.09999990463257,,rt_plussign_withcolor2,1760014,,,,,,,,blue,,,49,object_07c.png,object_10c.png,,,,,,,,,,,,,,,,,,,,,
null,,rt_thecrossant_black2,1761391,,,,,,,,black_plus_sign,,,null,,,1,,,,,,,0.9285714285714286,,,,,,,,,,,,,
null,,color_black2,1761494,,,,,,,,black_plus_sign,,,null,,,,,,,,,,,,,,,,,,,,,,,
null,,learn_phase(without_color)2,1764999,,,,,,,,black_plus_sign,,,null,object_13c.png,object_02b.png,,,,,,,,,,,,,,,,,,,,,
null,,black_cross(without_color)2,1766063,,,,,,,,green,,,null,object_13c.png,object_02b.png,,,,,,,,,,,,,,,,,,,,,
null,,rt_plussign_withcolor2,1766566,,,,,,,,green,,,null,object_13c.png,object_02b.png,,,,,,,,,,,,,,,,,,,,,
1120.4000000953674,,rt_thecrossant_black2,1767521,,,,,,,,black_plus_sign,,,50,,,1,,,,,,,0.9310344827586207,,,,,,,,,,,,,
null,,color_black2,1767634,,,,,,,,black_plus_sign,,,null,,,,,,,,,,,,,,,,,,,,,,,
null,,learn_phase(without_color)2,1771139,,,,,,,,black_plus_sign,,,null,object_07a.png,object_04a.png,,,,,,,,,,,,,,,,,,,,,
null,,black_cross(without_color)2,1771620,,,,,,,,blue,,,null,object_07a.png,object_04a.png,,,,,,,,,,,,,,,,,,,,,
null,,rt_plussign_withcolor2,1772129,,,,,,,,blue,,,null,object_07a.png,object_04a.png,,,,,,,,,,,,,,,,,,,,,
1393.6000001430511,,rt_thecrossant_black2,1773666,,,,,,,,black_plus_sign,,,49,,,1,,,,,,,0.9333333333333333,,,,,,,,,,,,,
null,,color_black2,1773770,,,,,,,,black_plus_sign,,,null,,,,,,,,,,,,,,,,,,,,,,,
null,,thebreak,1773874,,,,,,,,<p></p>,,,null,,,,,,,,,,,,,,,,,,,,,,,
1344.7000000476837,,intro_0,1775220,,,,,,,,instruct,,,32,,,,,,,,,,,,,,,,,,,,,,,
3833.5,,directmemory_phase2,1779056,,,,,,,,object_07a.png,,,50,,,1,,object_15b.png,object_08a.png,object_12b.png,object_08a.png,,0.3548387096774194,1,,,,,,,,,,,,
2585.5,,directmemory_phase2,1781643,,,,,,,,object_09b.png,,,49,,,1,,object_06b.png,object_01a.png,object_05b.png,object_06b.png,,0.375,1,,,,,,,,,,,,
1938.8999998569489,,directmemory_phase2,1783583,,,,,,,,object_01c.png,,,50,,,0,,object_02b.png,object_11c.png,object_02a.png,object_02a.png,,0.36363636363636365,0,,,,,,,,,,,,
2798.2000000476837,,directmemory_phase2,1786382,,,,,,,,object_10b.png,,,50,,,0,,object_04c.png,object_07b.png,object_11a.png,object_04c.png,,0.35294117647058826,0,,,,,,,,,,,,
2521.7000000476837,,directmemory_phase2,1788907,,,,,,,,object_03c.png,,,50,,,0,,object_06a.png,object_14b.png,object_08a.png,object_06a.png,,0.34285714285714286,0,,,,,,,,,,,,
2172.2000000476837,,directmemory_phase2,1791082,,,,,,,,object_01a.png,,,51,,,1,,object_15c.png,object_13a.png,object_14c.png,object_14c.png,,0.3611111111111111,1,,,,,,,,,,,,
1947.2999999523163,,directmemory_phase2,1793032,,,,,,,,object_10c.png,,,51,,,1,,object_14b.png,object_14c.png,object_07c.png,object_07c.png,,0.3783783783783784,1,,,,,,,,,,,,
1783.6999998092651,,directmemory_phase2,1794819,,,,,,,,object_11c.png,,,50,,,0,,object_12b.png,object_11a.png,object_13c.png,object_12b.png,,0.3684210526315789,0,,,,,,,,,,,,
2485.4000000953674,,directmemory_phase2,1797306,,,,,,,,object_06c.png,,,51,,,0,,object_11c.png,object_01b.png,object_03b.png,object_01b.png,,0.358974358974359,0,,,,,,,,,,,,
2475.5,,directmemory_phase2,1799782,,,,,,,,object_03a.png,,,49,,,1,,object_05c.png,object_10a.png,object_03b.png,object_05c.png,,0.375,1,,,,,,,,,,,,
3033.7999999523163,,directmemory_phase2,1802819,,,,,,,,object_01b.png,,,49,,,1,,object_15b.png,object_07b.png,object_12b.png,object_15b.png,,0.3902439024390244,1,,,,,,,,,,,,
3149.0999999046326,,directmemory_phase2,1805970,,,,,,,,object_09c.png,,,51,,,1,,object_02a.png,object_05b.png,object_10a.png,object_10a.png,,0.40476190476190477,1,,,,,,,,,,,,
2873.2000000476837,,directmemory_phase2,1808845,,,,,,,,object_12a.png,,,50,,,0,,object_10c.png,object_02b.png,object_04b.png,object_10c.png,,0.3953488372093023,0,,,,,,,,,,,,
2534.300000190735,,directmemory_phase2,1811380,,,,,,,,object_04a.png,,,49,,,1,,object_07a.png,object_06b.png,object_04b.png,object_07a.png,,0.4090909090909091,1,,,,,,,,,,,,
2037.5,,directmemory_phase2,1813419,,,,,,,,object_04b.png,,,49,,,1,,object_14b.png,object_13c.png,object_08a.png,object_14b.png,,0.4222222222222222,1,,,,,,,,,,,,
2350,,directmemory_phase2,1815770,,,,,,,,object_05c.png,,,51,,,0,,object_13a.png,object_15c.png,object_05a.png,object_15c.png,,0.41304347826086957,0,,,,,,,,,,,,
2933.7000000476837,,directmemory_phase2,1818707,,,,,,,,object_10a.png,,,50,,,1,,object_08a.png,object_13a.png,object_13c.png,object_13a.png,,0.425531914893617,1,,,,,,,,,,,,
1996.7000000476837,,directmemory_phase2,1820706,,,,,,,,object_08b.png,,,51,,,1,,object_03c.png,object_02b.png,object_05b.png,object_05b.png,,0.4375,1,,,,,,,,,,,,
3118.0999999046326,,directmemory_phase2,1823826,,,,,,,,object_05b.png,,,51,,,0,,object_07b.png,object_11a.png,object_05a.png,object_11a.png,,0.42857142857142855,0,,,,,,,,,,,,
1904.0999999046326,,directmemory_phase2,1825731,,,,,,,,object_13b.png,,,49,,,0,,object_11c.png,object_01a.png,object_04b.png,object_04b.png,,0.42,0,,,,,,,,,,,,
1961,,directmemory_phase2,1827694,,,,,,,,object_08c.png,,,50,,,0,,object_01a.png,object_10c.png,object_04b.png,object_01a.png,,0.4117647058823529,0,,,,,,,,,,,,
2751.199999809265,,directmemory_phase2,1830446,,,,,,,,object_14a.png,,,49,,,0,,object_05c.png,object_04b.png,object_02b.png,object_02b.png,,0.40384615384615385,0,,,,,,,,,,,,
2807.899999856949,,directmemory_phase2,1833257,,,,,,,,object_02c.png,,,51,,,1,,object_03b.png,object_06b.png,object_03c.png,object_03c.png,,0.41509433962264153,1,,,,,,,,,,,,
1761,,directmemory_phase2,1835021,,,,,,,,object_09a.png,,,49,,,1,,object_11c.png,object_01b.png,object_02b.png,object_11c.png,,0.42592592592592593,1,,,,,,,,,,,,
2645.2000000476837,,directmemory_phase2,1837669,,,,,,,,object_12c.png,,,49,,,0,,object_07a.png,object_03b.png,object_02b.png,object_03b.png,,0.41818181818181815,0,,,,,,,,,,,,
2332.9000000953674,,directmemory_phase2,1840005,,,,,,,,object_03b.png,,,51,,,0,,object_05a.png,object_14c.png,object_15c.png,object_05a.png,,0.4107142857142857,0,,,,,,,,,,,,
2811.5,,directmemory_phase2,1842818,,,,,,,,object_15a.png,,,51,,,1,,object_02b.png,object_06b.png,object_10b.png,object_10b.png,,0.42105263157894735,1,,,,,,,,,,,,
2325.5,,directmemory_phase2,1845145,,,,,,,,object_06b.png,,,49,,,0,,object_12b.png,object_14b.png,object_07b.png,object_07b.png,,0.41379310344827586,0,,,,,,,,,,,,
1622.9000000953674,,directmemory_phase2,1846770,,,,,,,,object_02b.png,,,49,,,0,,object_13a.png,object_11a.png,object_13c.png,object_13c.png,,0.4067796610169492,0,,,,,,,,,,,,
1896.3999998569489,,directmemory_phase2,1848669,,,,,,,,object_02a.png,,,51,,,1,,object_12b.png,object_07b.png,object_11b.png,object_11b.png,,0.4166666666666667,1,,,,,,,,,,,,
null,,thebreak,1848778,,,,,,,,<p></p>,,,null,,,,,,,,,,,,,,,,,,,,,,,
1465.2000000476837,,intro_0,1850244,,,,,,,,instruct,,,32,,,,,,,,,,,,,,,,,,,,,,,
null,,learn_phase(without_color)3,1853748,,,,,,,,black_plus_sign,,,null,object_15b.png,object_01b.png,,,,,,,,,,,,,,,,,,,,,
null,,black_cross(without_color)3,1854557,,,,,,,,green,,,null,object_15b.png,object_01b.png,,,,,,,,,,,,,,,,,,,,,
null,,rt_plussign_withcolor3,1855068,,,,,,,,green,,,null,object_15b.png,object_01b.png,,,,,,,,,,,,,,,,,,,,,
1036.7999999523163,,rt_thecrossant_black3,1856279,,,,,,,,black_plus_sign,,,50,,,1,,,,,,,1,,,,,,,,,,,,,
null,,color_black3,1856383,,,,,,,,black_plus_sign,,,null,,,,,,,,,,,,,,,,,,,,,,,
null,,learn_phase(without_color)3,1859887,,,,,,,,black_plus_sign,,,null,object_02a.png,object_01c.png,,,,,,,,,,,,,,,,,,,,,
null,,black_cross(without_color)3,1860465,,,,,,,,blue,,,null,object_02a.png,object_01c.png,,,,,,,,,,,,,,,,,,,,,
465.7999999523163,,rt_plussign_withcolor3,1860975,,,,,,,,blue,,,49,object_02a.png,object_01c.png,,,,,,,,,,,,,,,,,,,,,
null,,rt_thecrossant_black3,1862418,,,,,,,,black_plus_sign,,,null,,,1,,,,,,,1,,,,,,,,,,,,,
null,,color_black3,1862527,,,,,,,,black_plus_sign,,,null,,,,,,,,,,,,,,,,,,,,,,,
null,,learn_phase(without_color)3,1866039,,,,,,,,black_plus_sign,,,null,object_10a.png,object_09c.png,,,,,,,,,,,,,,,,,,,,,
null,,black_cross(without_color)3,1866760,,,,,,,,blue,,,null,object_10a.png,object_09c.png,,,,,,,,,,,,,,,,,,,,,
null,,rt_plussign_withcolor3,1867262,,,,,,,,blue,,,null,object_10a.png,object_09c.png,,,,,,,,,,,,,,,,,,,,,
687.9000000953674,,rt_thecrossant_black3,1868559,,,,,,,,black_plus_sign,,,49,,,1,,,,,,,1,,,,,,,,,,,,,
null,,color_black3,1868667,,,,,,,,black_plus_sign,,,null,,,,,,,,,,,,,,,,,,,,,,,
null,,learn_phase(without_color)3,1872172,,,,,,,,black_plus_sign,,,null,object_02b.png,object_14a.png,,,,,,,,,,,,,,,,,,,,,
null,,black_cross(without_color)3,1872960,,,,,,,,blue,,,null,object_02b.png,object_14a.png,,,,,,,,,,,,,,,,,,,,,
null,,rt_plussign_withcolor3,1873472,,,,,,,,blue,,,null,object_02b.png,object_14a.png,,,,,,,,,,,,,,,,,,,,,
957.7000000476837,,rt_thecrossant_black3,1874697,,,,,,,,black_plus_sign,,,49,,,1,,,,,,,1,,,,,,,,,,,,,
null,,color_black3,1874808,,,,,,,,black_plus_sign,,,null,,,,,,,,,,,,,,,,,,,,,,,
null,,learn_phase(without_color)3,1878317,,,,,,,,black_plus_sign,,,null,object_08a.png,object_07a.png,,,,,,,,,,,,,,,,,,,,,
null,,black_cross(without_color)3,1878927,,,,,,,,green,,,null,object_08a.png,object_07a.png,,,,,,,,,,,,,,,,,,,,,
null,,rt_plussign_withcolor3,1879437,,,,,,,,green,,,null,object_08a.png,object_07a.png,,,,,,,,,,,,,,,,,,,,,
913.2000000476837,,rt_thecrossant_black3,1880833,,,,,,,,black_plus_sign,,,50,,,1,,,,,,,1,,,,,,,,,,,,,
null,,color_black3,1880936,,,,,,,,black_plus_sign,,,null,,,,,,,,,,,,,,,,,,,,,,,
null,,learn_phase(without_color)3,1884453,,,,,,,,black_plus_sign,,,null,object_03b.png,object_12c.png,,,,,,,,,,,,,,,,,,,,,
null,,black_cross(without_color)3,1885145,,,,,,,,green,,,null,object_03b.png,object_12c.png,,,,,,,,,,,,,,,,,,,,,
433.7999999523163,,rt_plussign_withcolor3,1885656,,,,,,,,green,,,50,object_03b.png,object_12c.png,,,,,,,,,,,,,,,,,,,,,
null,,rt_thecrossant_black3,1886970,,,,,,,,black_plus_sign,,,null,,,1,,,,,,,1,,,,,,,,,,,,,
null,,color_black3,1887081,,,,,,,,black_plus_sign,,,null,,,,,,,,,,,,,,,,,,,,,,,
null,,learn_phase(without_color)3,1890589,,,,,,,,black_plus_sign,,,null,object_05c.png,object_03a.png,,,,,,,,,,,,,,,,,,,,,
null,,black_cross(without_color)3,1891168,,,,,,,,green,,,null,object_05c.png,object_03a.png,,,,,,,,,,,,,,,,,,,,,
null,,rt_plussign_withcolor3,1891671,,,,,,,,green,,,null,object_05c.png,object_03a.png,,,,,,,,,,,,,,,,,,,,,
896.7000000476837,,rt_thecrossant_black3,1893113,,,,,,,,black_plus_sign,,,50,,,1,,,,,,,1,,,,,,,,,,,,,
null,,color_black3,1893217,,,,,,,,black_plus_sign,,,null,,,,,,,,,,,,,,,,,,,,,,,
null,,learn_phase(without_color)3,1896733,,,,,,,,black_plus_sign,,,null,object_01b.png,object_06c.png,,,,,,,,,,,,,,,,,,,,,
null,,black_cross(without_color)3,1897753,,,,,,,,green,,,null,object_01b.png,object_06c.png,,,,,,,,,,,,,,,,,,,,,
488.7000000476837,,rt_plussign_withcolor3,1898258,,,,,,,,green,,,50,object_01b.png,object_06c.png,,,,,,,,,,,,,,,,,,,,,
null,,rt_thecrossant_black3,1899251,,,,,,,,black_plus_sign,,,null,,,1,,,,,,,1,,,,,,,,,,,,,
null,,color_black3,1899354,,,,,,,,black_plus_sign,,,null,,,,,,,,,,,,,,,,,,,,,,,
null,,learn_phase(without_color)3,1902861,,,,,,,,black_plus_sign,,,null,object_15c.png,object_05c.png,,,,,,,,,,,,,,,,,,,,,
null,,black_cross(without_color)3,1903625,,,,,,,,green,,,null,object_15c.png,object_05c.png,,,,,,,,,,,,,,,,,,,,,
null,,rt_plussign_withcolor3,1904133,,,,,,,,green,,,null,object_15c.png,object_05c.png,,,,,,,,,,,,,,,,,,,,,
1361.9000000953674,,rt_thecrossant_black3,1905387,,,,,,,,black_plus_sign,,,50,,,1,,,,,,,1,,,,,,,,,,,,,
null,,color_black3,1905489,,,,,,,,black_plus_sign,,,null,,,,,,,,,,,,,,,,,,,,,,,
null,,learn_phase(without_color)3,1908991,,,,,,,,black_plus_sign,,,null,object_06b.png,object_09b.png,,,,,,,,,,,,,,,,,,,,,
null,,black_cross(without_color)3,1909616,,,,,,,,blue,,,null,object_06b.png,object_09b.png,,,,,,,,,,,,,,,,,,,,,
null,,rt_plussign_withcolor3,1910127,,,,,,,,blue,,,null,object_06b.png,object_09b.png,,,,,,,,,,,,,,,,,,,,,
1219,,rt_thecrossant_black3,1911519,,,,,,,,black_plus_sign,,,49,,,1,,,,,,,1,,,,,,,,,,,,,
null,,color_black3,1911623,,,,,,,,black_plus_sign,,,null,,,,,,,,,,,,,,,,,,,,,,,
null,,learn_phase(without_color)3,1915134,,,,,,,,black_plus_sign,,,null,object_13c.png,object_02b.png,,,,,,,,,,,,,,,,,,,,,
null,,black_cross(without_color)3,1915784,,,,,,,,green,,,null,object_13c.png,object_02b.png,,,,,,,,,,,,,,,,,,,,,
null,,rt_plussign_withcolor3,1916298,,,,,,,,green,,,null,object_13c.png,object_02b.png,,,,,,,,,,,,,,,,,,,,,
787.7999999523163,,rt_thecrossant_black3,1917653,,,,,,,,black_plus_sign,,,50,,,1,,,,,,,1,,,,,,,,,,,,,
null,,color_black3,1917760,,,,,,,,black_plus_sign,,,null,,,,,,,,,,,,,,,,,,,,,,,
null,,learn_phase(without_color)3,1921268,,,,,,,,black_plus_sign,,,null,object_11a.png,object_05b.png,,,,,,,,,,,,,,,,,,,,,
null,,black_cross(without_color)3,1922132,,,,,,,,blue,,,null,object_11a.png,object_05b.png,,,,,,,,,,,,,,,,,,,,,
null,,rt_plussign_withcolor3,1922638,,,,,,,,blue,,,null,object_11a.png,object_05b.png,,,,,,,,,,,,,,,,,,,,,
826.5,,rt_thecrossant_black3,1923781,,,,,,,,black_plus_sign,,,50,,,0,,,,,,,0.9166666666666666,,,,,,,,,,,,,
null,,color_black3,1923891,,,,,,,,black_plus_sign,,,null,,,,,,,,,,,,,,,,,,,,,,,
null,,learn_phase(without_color)3,1927403,,,,,,,,black_plus_sign,,,null,object_05b.png,object_08b.png,,,,,,,,,,,,,,,,,,,,,
null,,black_cross(without_color)3,1928210,,,,,,,,green,,,null,object_05b.png,object_08b.png,,,,,,,,,,,,,,,,,,,,,
null,,rt_plussign_withcolor3,1928711,,,,,,,,green,,,null,object_05b.png,object_08b.png,,,,,,,,,,,,,,,,,,,,,
1466.5999999046326,,rt_thecrossant_black3,1929916,,,,,,,,black_plus_sign,,,50,,,1,,,,,,,0.9230769230769231,,,,,,,,,,,,,
null,,color_black3,1930019,,,,,,,,black_plus_sign,,,null,,,,,,,,,,,,,,,,,,,,,,,
null,,learn_phase(without_color)3,1933522,,,,,,,,black_plus_sign,,,null,object_07a.png,object_04a.png,,,,,,,,,,,,,,,,,,,,,
null,,black_cross(without_color)3,1934467,,,,,,,,blue,,,null,object_07a.png,object_04a.png,,,,,,,,,,,,,,,,,,,,,
null,,rt_plussign_withcolor3,1934972,,,,,,,,blue,,,null,object_07a.png,object_04a.png,,,,,,,,,,,,,,,,,,,,,
1080.7000000476837,,rt_thecrossant_black3,1936044,,,,,,,,black_plus_sign,,,49,,,1,,,,,,,0.9285714285714286,,,,,,,,,,,,,
null,,color_black3,1936153,,,,,,,,black_plus_sign,,,null,,,,,,,,,,,,,,,,,,,,,,,
null,,learn_phase(without_color)3,1939659,,,,,,,,black_plus_sign,,,null,object_06a.png,object_03c.png,,,,,,,,,,,,,,,,,,,,,
null,,black_cross(without_color)3,1940485,,,,,,,,green,,,null,object_06a.png,object_03c.png,,,,,,,,,,,,,,,,,,,,,
null,,rt_plussign_withcolor3,1940992,,,,,,,,green,,,null,object_06a.png,object_03c.png,,,,,,,,,,,,,,,,,,,,,
1260.2000000476837,,rt_thecrossant_black3,1942184,,,,,,,,black_plus_sign,,,50,,,1,,,,,,,0.9333333333333333,,,,,,,,,,,,,
null,,color_black3,1942291,,,,,,,,black_plus_sign,,,null,,,,,,,,,,,,,,,,,,,,,,,
null,,learn_phase(without_color)3,1945793,,,,,,,,black_plus_sign,,,null,object_07c.png,object_10c.png,,,,,,,,,,,,,,,,,,,,,
null,,black_cross(without_color)3,1946740,,,,,,,,green,,,null,object_07c.png,object_10c.png,,,,,,,,,,,,,,,,,,,,,
null,,rt_plussign_withcolor3,1947243,,,,,,,,green,,,null,object_07c.png,object_10c.png,,,,,,,,,,,,,,,,,,,,,
1184.9000000953674,,rt_thecrossant_black3,1948308,,,,,,,,black_plus_sign,,,50,,,1,,,,,,,0.9375,,,,,,,,,,,,,
null,,color_black3,1948416,,,,,,,,black_plus_sign,,,null,,,,,,,,,,,,,,,,,,,,,,,
null,,learn_phase(without_color)3,1951930,,,,,,,,black_plus_sign,,,null,object_07b.png,object_06b.png,,,,,,,,,,,,,,,,,,,,,
null,,black_cross(without_color)3,1952998,,,,,,,,blue,,,null,object_07b.png,object_06b.png,,,,,,,,,,,,,,,,,,,,,
null,,rt_plussign_withcolor3,1953506,,,,,,,,blue,,,null,object_07b.png,object_06b.png,,,,,,,,,,,,,,,,,,,,,
1441.7000000476837,,rt_thecrossant_black3,1954450,,,,,,,,black_plus_sign,,,49,,,1,,,,,,,0.9411764705882353,,,,,,,,,,,,,
null,,color_black3,1954554,,,,,,,,black_plus_sign,,,null,,,,,,,,,,,,,,,,,,,,,,,
null,,learn_phase(without_color)3,1958058,,,,,,,,black_plus_sign,,,null,object_01a.png,object_08c.png,,,,,,,,,,,,,,,,,,,,,
null,,black_cross(without_color)3,1958564,,,,,,,,blue,,,null,object_01a.png,object_08c.png,,,,,,,,,,,,,,,,,,,,,
null,,rt_plussign_withcolor3,1959072,,,,,,,,blue,,,null,object_01a.png,object_08c.png,,,,,,,,,,,,,,,,,,,,,
1204,,rt_thecrossant_black3,1960580,,,,,,,,black_plus_sign,,,49,,,1,,,,,,,0.9444444444444444,,,,,,,,,,,,,
null,,color_black3,1960688,,,,,,,,black_plus_sign,,,null,,,,,,,,,,,,,,,,,,,,,,,
null,,learn_phase(without_color)3,1964190,,,,,,,,black_plus_sign,,,null,object_13a.png,object_10a.png,,,,,,,,,,,,,,,,,,,,,
null,,black_cross(without_color)3,1964860,,,,,,,,blue,,,null,object_13a.png,object_10a.png,,,,,,,,,,,,,,,,,,,,,
null,,rt_plussign_withcolor3,1965367,,,,,,,,blue,,,null,object_13a.png,object_10a.png,,,,,,,,,,,,,,,,,,,,,
822.2999999523163,,rt_thecrossant_black3,1966715,,,,,,,,black_plus_sign,,,49,,,1,,,,,,,0.9473684210526315,,,,,,,,,,,,,
null,,color_black3,1966821,,,,,,,,black_plus_sign,,,null,,,,,,,,,,,,,,,,,,,,,,,
null,,learn_phase(without_color)3,1970325,,,,,,,,black_plus_sign,,,null,object_04b.png,object_13b.png,,,,,,,,,,,,,,,,,,,,,
null,,black_cross(without_color)3,1970845,,,,,,,,blue,,,null,object_04b.png,object_13b.png,,,,,,,,,,,,,,,,,,,,,
null,,rt_plussign_withcolor3,1971348,,,,,,,,blue,,,null,object_04b.png,object_13b.png,,,,,,,,,,,,,,,,,,,,,
1027.6000001430511,,rt_thecrossant_black3,1972852,,,,,,,,black_plus_sign,,,49,,,1,,,,,,,0.95,,,,,,,,,,,,,
null,,color_black3,1972964,,,,,,,,black_plus_sign,,,null,,,,,,,,,,,,,,,,,,,,,,,
null,,learn_phase(without_color)3,1976470,,,,,,,,black_plus_sign,,,null,object_04c.png,object_10b.png,,,,,,,,,,,,,,,,,,,,,
null,,black_cross(without_color)3,1977480,,,,,,,,blue,,,null,object_04c.png,object_10b.png,,,,,,,,,,,,,,,,,,,,,
null,,rt_plussign_withcolor3,1977988,,,,,,,,blue,,,null,object_04c.png,object_10b.png,,,,,,,,,,,,,,,,,,,,,
863,,rt_thecrossant_black3,1978990,,,,,,,,black_plus_sign,,,49,,,1,,,,,,,0.9523809523809523,,,,,,,,,,,,,
null,,color_black3,1979094,,,,,,,,black_plus_sign,,,null,,,,,,,,,,,,,,,,,,,,,,,
null,,learn_phase(without_color)3,1982603,,,,,,,,black_plus_sign,,,null,object_05a.png,object_03b.png,,,,,,,,,,,,,,,,,,,,,
null,,black_cross(without_color)3,1983631,,,,,,,,blue,,,null,object_05a.png,object_03b.png,,,,,,,,,,,,,,,,,,,,,
null,,rt_plussign_withcolor3,1984135,,,,,,,,blue,,,null,object_05a.png,object_03b.png,,,,,,,,,,,,,,,,,,,,,
1350.7999999523163,,rt_thecrossant_black3,1985126,,,,,,,,black_plus_sign,,,49,,,1,,,,,,,0.9545454545454546,,,,,,,,,,,,,
null,,color_black3,1985238,,,,,,,,black_plus_sign,,,null,,,,,,,,,,,,,,,,,,,,,,,
null,,learn_phase(without_color)3,1988754,,,,,,,,black_plus_sign,,,null,object_11c.png,object_09a.png,,,,,,,,,,,,,,,,,,,,,
null,,black_cross(without_color)3,1989550,,,,,,,,green,,,null,object_11c.png,object_09a.png,,,,,,,,,,,,,,,,,,,,,
null,,rt_plussign_withcolor3,1990066,,,,,,,,green,,,null,object_11c.png,object_09a.png,,,,,,,,,,,,,,,,,,,,,
1407.9000000953674,,rt_thecrossant_black3,1991284,,,,,,,,black_plus_sign,,,49,,,0,,,,,,,0.9130434782608695,,,,,,,,,,,,,
null,,color_black3,1991386,,,,,,,,black_plus_sign,,,null,,,,,,,,,,,,,,,,,,,,,,,
null,,learn_phase(without_color)3,1994897,,,,,,,,black_plus_sign,,,null,object_12b.png,object_11c.png,,,,,,,,,,,,,,,,,,,,,
null,,black_cross(without_color)3,1995512,,,,,,,,green,,,null,object_12b.png,object_11c.png,,,,,,,,,,,,,,,,,,,,,
null,,rt_plussign_withcolor3,1996021,,,,,,,,green,,,null,object_12b.png,object_11c.png,,,,,,,,,,,,,,,,,,,,,
1126.3000001907349,,rt_thecrossant_black3,1997430,,,,,,,,black_plus_sign,,,50,,,1,,,,,,,0.9166666666666666,,,,,,,,,,,,,
null,,color_black3,1997533,,,,,,,,black_plus_sign,,,null,,,,,,,,,,,,,,,,,,,,,,,
null,,learn_phase(without_color)3,2001039,,,,,,,,black_plus_sign,,,null,object_03c.png,object_02c.png,,,,,,,,,,,,,,,,,,,,,
null,,black_cross(without_color)3,2001800,,,,,,,,green,,,null,object_03c.png,object_02c.png,,,,,,,,,,,,,,,,,,,,,
null,,rt_plussign_withcolor3,2002308,,,,,,,,green,,,null,object_03c.png,object_02c.png,,,,,,,,,,,,,,,,,,,,,
961,,rt_thecrossant_black3,2003560,,,,,,,,black_plus_sign,,,50,,,1,,,,,,,0.92,,,,,,,,,,,,,
null,,color_black3,2003664,,,,,,,,black_plus_sign,,,null,,,,,,,,,,,,,,,,,,,,,,,
null,,learn_phase(without_color)3,2007179,,,,,,,,black_plus_sign,,,null,object_10c.png,object_12a.png,,,,,,,,,,,,,,,,,,,,,
null,,black_cross(without_color)3,2007726,,,,,,,,green,,,null,object_10c.png,object_12a.png,,,,,,,,,,,,,,,,,,,,,
null,,rt_plussign_withcolor3,2008233,,,,,,,,green,,,null,object_10c.png,object_12a.png,,,,,,,,,,,,,,,,,,,,,
1010,,rt_thecrossant_black3,2009707,,,,,,,,black_plus_sign,,,50,,,1,,,,,,,0.9230769230769231,,,,,,,,,,,,,
null,,color_black3,2009817,,,,,,,,black_plus_sign,,,null,,,,,,,,,,,,,,,,,,,,,,,
null,,learn_phase(without_color)3,2013331,,,,,,,,black_plus_sign,,,null,object_11b.png,object_02a.png,,,,,,,,,,,,,,,,,,,,,
null,,black_cross(without_color)3,2013804,,,,,,,,blue,,,null,object_11b.png,object_02a.png,,,,,,,,,,,,,,,,,,,,,
null,,rt_plussign_withcolor3,2014305,,,,,,,,blue,,,null,object_11b.png,object_02a.png,,,,,,,,,,,,,,,,,,,,,
1113,,rt_thecrossant_black3,2015838,,,,,,,,black_plus_sign,,,49,,,1,,,,,,,0.9259259259259259,,,,,,,,,,,,,
null,,color_black3,2015944,,,,,,,,black_plus_sign,,,null,,,,,,,,,,,,,,,,,,,,,,,
null,,learn_phase(without_color)3,2019456,,,,,,,,black_plus_sign,,,null,object_14b.png,object_04b.png,,,,,,,,,,,,,,,,,,,,,
null,,black_cross(without_color)3,2019897,,,,,,,,green,,,null,object_14b.png,object_04b.png,,,,,,,,,,,,,,,,,,,,,
null,,rt_plussign_withcolor3,2020404,,,,,,,,green,,,null,object_14b.png,object_04b.png,,,,,,,,,,,,,,,,,,,,,
1193.7999999523163,,rt_thecrossant_black3,2021980,,,,,,,,black_plus_sign,,,50,,,1,,,,,,,0.9285714285714286,,,,,,,,,,,,,
null,,color_black3,2022087,,,,,,,,black_plus_sign,,,null,,,,,,,,,,,,,,,,,,,,,,,
null,,learn_phase(without_color)3,2025598,,,,,,,,black_plus_sign,,,null,object_10b.png,object_15a.png,,,,,,,,,,,,,,,,,,,,,
null,,black_cross(without_color)3,2026314,,,,,,,,green,,,null,object_10b.png,object_15a.png,,,,,,,,,,,,,,,,,,,,,
null,,rt_plussign_withcolor3,2026830,,,,,,,,green,,,null,object_10b.png,object_15a.png,,,,,,,,,,,,,,,,,,,,,
796.7000000476837,,rt_thecrossant_black3,2028127,,,,,,,,black_plus_sign,,,50,,,1,,,,,,,0.9310344827586207,,,,,,,,,,,,,
null,,color_black3,2028231,,,,,,,,black_plus_sign,,,null,,,,,,,,,,,,,,,,,,,,,,,
null,,learn_phase(without_color)3,2031735,,,,,,,,black_plus_sign,,,null,object_14c.png,object_01a.png,,,,,,,,,,,,,,,,,,,,,
null,,black_cross(without_color)3,2032791,,,,,,,,blue,,,null,object_14c.png,object_01a.png,,,,,,,,,,,,,,,,,,,,,
null,,rt_plussign_withcolor3,2033294,,,,,,,,blue,,,null,object_14c.png,object_01a.png,,,,,,,,,,,,,,,,,,,,,
1197,,rt_thecrossant_black3,2034252,,,,,,,,black_plus_sign,,,49,,,1,,,,,,,0.9333333333333333,,,,,,,,,,,,,
null,,color_black3,2034361,,,,,,,,black_plus_sign,,,null,,,,,,,,,,,,,,,,,,,,,,,
null,,thebreak,2034464,,,,,,,,<p></p>,,,null,,,,,,,,,,,,,,,,,,,,,,,
852.5,,intro_0,2035318,,,,,,,,instruct,,,32,,,,,,,,,,,,,,,,,,,,,,,
2547.7000000476837,,directmemory_phase3,2037866,,,,,,,,object_04b.png,,,49,,,1,,object_14b.png,object_05a.png,object_07b.png,object_14b.png,,0.4262295081967213,1,,,,,,,,,,,,
2000.7999999523163,,directmemory_phase3,2039869,,,,,,,,object_13b.png,,,49,,,1,,object_04b.png,object_11c.png,object_01b.png,object_04b.png,,0.43548387096774194,1,,,,,,,,,,,,
2021.9000000953674,,directmemory_phase3,2041894,,,,,,,,object_10b.png,,,49,,,0,,object_14c.png,object_11b.png,object_04c.png,object_04c.png,,0.42857142857142855,0,,,,,,,,,,,,
1508.8000001907349,,directmemory_phase3,2043406,,,,,,,,object_10c.png,,,49,,,1,,object_07c.png,object_14b.png,object_13a.png,object_07c.png,,0.4375,1,,,,,,,,,,,,
1236.0999999046326,,directmemory_phase3,2044644,,,,,,,,object_02b.png,,,51,,,0,,object_13c.png,object_11a.png,object_15b.png,object_13c.png,,0.4307692307692308,0,,,,,,,,,,,,
1858.1000001430511,,directmemory_phase3,2046505,,,,,,,,object_09a.png,,,50,,,0,,object_11c.png,object_03b.png,object_01a.png,object_11c.png,,0.42424242424242425,0,,,,,,,,,,,,
1386.2999999523163,,directmemory_phase3,2047894,,,,,,,,object_03c.png,,,51,,,0,,object_06a.png,object_08a.png,object_14c.png,object_06a.png,,0.417910447761194,0,,,,,,,,,,,,
1420.3000001907349,,directmemory_phase3,2049317,,,,,,,,object_08b.png,,,51,,,1,,object_10a.png,object_01a.png,object_05b.png,object_05b.png,,0.4264705882352941,1,,,,,,,,,,,,
2660.7000000476837,,directmemory_phase3,2051980,,,,,,,,object_09b.png,,,50,,,1,,object_02a.png,object_06b.png,object_03b.png,object_06b.png,,0.43478260869565216,1,,,,,,,,,,,,
1624,,directmemory_phase3,2053605,,,,,,,,object_09c.png,,,49,,,1,,object_10a.png,object_05b.png,object_07a.png,object_10a.png,,0.44285714285714284,1,,,,,,,,,,,,
1299.2999999523163,,directmemory_phase3,2054906,,,,,,,,object_08c.png,,,50,,,0,,object_05b.png,object_05c.png,object_01a.png,object_01a.png,,0.43661971830985913,0,,,,,,,,,,,,
1547.2000000476837,,directmemory_phase3,2056456,,,,,,,,object_03b.png,,,51,,,1,,object_14b.png,object_14c.png,object_05a.png,object_05a.png,,0.4444444444444444,1,,,,,,,,,,,,
1346.4000000953674,,directmemory_phase3,2057806,,,,,,,,object_03a.png,,,49,,,1,,object_05c.png,object_06b.png,object_01b.png,object_05c.png,,0.4520547945205479,1,,,,,,,,,,,,
1684,,directmemory_phase3,2059492,,,,,,,,object_05b.png,,,50,,,0,,object_11a.png,object_07b.png,object_12b.png,object_11a.png,,0.44594594594594594,0,,,,,,,,,,,,
2497.2000000476837,,directmemory_phase3,2061991,,,,,,,,object_05c.png,,,51,,,0,,object_15c.png,object_15b.png,object_13c.png,object_15c.png,,0.44,0,,,,,,,,,,,,
1600.3999998569489,,directmemory_phase3,2063593,,,,,,,,object_10a.png,,,49,,,0,,object_12b.png,object_13a.png,object_11a.png,object_13a.png,,0.4342105263157895,0,,,,,,,,,,,,
1334,,directmemory_phase3,2064930,,,,,,,,object_02a.png,,,51,,,0,,object_11b.png,object_06a.png,object_11a.png,object_11b.png,,0.42857142857142855,0,,,,,,,,,,,,
1510.8999998569489,,directmemory_phase3,2066442,,,,,,,,object_01c.png,,,50,,,0,,object_05b.png,object_11c.png,object_02a.png,object_02a.png,,0.4230769230769231,0,,,,,,,,,,,,
1223.2000000476837,,directmemory_phase3,2067667,,,,,,,,object_15a.png,,,49,,,1,,object_10b.png,object_05c.png,object_01b.png,object_10b.png,,0.43037974683544306,1,,,,,,,,,,,,
1749.9000000953674,,directmemory_phase3,2069419,,,,,,,,object_12c.png,,,50,,,0,,object_03b.png,object_07a.png,object_01b.png,object_03b.png,,0.425,0,,,,,,,,,,,,
1484.7999999523163,,directmemory_phase3,2070906,,,,,,,,object_02c.png,,,49,,,1,,object_03c.png,object_10c.png,object_05c.png,object_03c.png,,0.43209876543209874,1,,,,,,,,,,,,
1646.5,,directmemory_phase3,2072556,,,,,,,,object_12a.png,,,51,,,0,,object_07a.png,object_10c.png,object_02b.png,object_10c.png,,0.4268292682926829,0,,,,,,,,,,,,
1771.5999999046326,,directmemory_phase3,2074331,,,,,,,,object_06b.png,,,51,,,0,,object_07b.png,object_06a.png,object_11b.png,object_07b.png,,0.42168674698795183,0,,,,,,,,,,,,
1547.7000000476837,,directmemory_phase3,2075880,,,,,,,,object_04a.png,,,50,,,0,,object_07a.png,object_03c.png,object_06b.png,object_07a.png,,0.4166666666666667,0,,,,,,,,,,,,
1523.4000000953674,,directmemory_phase3,2077406,,,,,,,,object_01b.png,,,50,,,1,,object_13c.png,object_15b.png,object_08a.png,object_15b.png,,0.4235294117647059,1,,,,,,,,,,,,
1521.1999998092651,,directmemory_phase3,2078930,,,,,,,,object_14a.png,,,49,,,0,,object_02a.png,object_02b.png,object_05c.png,object_02b.png,,0.4186046511627907,0,,,,,,,,,,,,
1223.7999999523163,,directmemory_phase3,2080155,,,,,,,,object_07a.png,,,50,,,0,,object_11a.png,object_15b.png,object_08a.png,object_08a.png,,0.41379310344827586,0,,,,,,,,,,,,
1161.2999999523163,,directmemory_phase3,2081317,,,,,,,,object_06c.png,,,50,,,0,,object_01b.png,object_11c.png,object_03c.png,object_01b.png,,0.4090909090909091,0,1,,,,,,,,,,,
null,,slowdown_page,2091324,,,,,,,,too_quick,,,null,,,,,,,,,,,,,,,,,,,,,,,
2753.0999999046326,,directmemory_phase3,2094079,,,,,,,,object_01a.png,,,50,,,0,,object_14c.png,object_13c.png,object_15b.png,object_14c.png,,0.4044943820224719,0,,,,,,,,,,,,
3873.5,,directmemory_phase3,2097954,,,,,,,,object_11c.png,,,49,,,0,,object_05a.png,object_12b.png,object_13a.png,object_12b.png,,0.4,0,,,,,,,,,,,,
null,,thebreak,2098063,,,,,,,,<p></p>,,,null,,,,,,,,,,,,,,,,,,,,,,,
1516.7999999523163,,intro_0,2099581,,,,,,,,instruct,,,32,,,,,,,,,,,,,,,,,,,,,,,
null,,learn_phase(without_color)4,2103082,,,,,,,,black_plus_sign,,,null,object_04b.png,object_13b.png,,,,,,,,,,,,,,,,,,,,,
null,,black_cross(without_color)4,2103596,,,,,,,,green,,,null,object_04b.png,object_13b.png,,,,,,,,,,,,,,,,,,,,,
null,,rt_plussign_withcolor4,2104099,,,,,,,,green,,,null,object_04b.png,object_13b.png,,,,,,,,,,,,,,,,,,,,,
885.2999999523163,,rt_thecrossant_black4,2105601,,,,,,,,black_plus_sign,,,50,,,1,,,,,,,1,,,,,,,,,,,,,
null,,color_black4,2105706,,,,,,,,black_plus_sign,,,null,,,,,,,,,,,,,,,,,,,,,,,
null,,learn_phase(without_color)4,2109221,,,,,,,,black_plus_sign,,,null,object_02b.png,object_14a.png,,,,,,,,,,,,,,,,,,,,,
null,,black_cross(without_color)4,2109976,,,,,,,,blue,,,null,object_02b.png,object_14a.png,,,,,,,,,,,,,,,,,,,,,
489.60000014305115,,rt_plussign_withcolor4,2110480,,,,,,,,blue,,,49,object_02b.png,object_14a.png,,,,,,,,,,,,,,,,,,,,,
null,,rt_thecrossant_black4,2111731,,,,,,,,black_plus_sign,,,null,,,1,,,,,,,1,,,,,,,,,,,,,
null,,color_black4,2111834,,,,,,,,black_plus_sign,,,null,,,,,,,,,,,,,,,,,,,,,,,
null,,learn_phase(without_color)4,2115349,,,,,,,,black_plus_sign,,,null,object_05a.png,object_03b.png,,,,,,,,,,,,,,,,,,,,,
null,,black_cross(without_color)4,2116244,,,,,,,,green,,,null,object_05a.png,object_03b.png,,,,,,,,,,,,,,,,,,,,,
null,,rt_plussign_withcolor4,2116748,,,,,,,,green,,,null,object_05a.png,object_03b.png,,,,,,,,,,,,,,,,,,,,,
869.7999999523163,,rt_thecrossant_black4,2117883,,,,,,,,black_plus_sign,,,50,,,1,,,,,,,1,,,,,,,,,,,,,
null,,color_black4,2117985,,,,,,,,black_plus_sign,,,null,,,,,,,,,,,,,,,,,,,,,,,
null,,learn_phase(without_color)4,2121495,,,,,,,,black_plus_sign,,,null,object_05c.png,object_03a.png,,,,,,,,,,,,,,,,,,,,,
null,,black_cross(without_color)4,2121920,,,,,,,,blue,,,null,object_05c.png,object_03a.png,,,,,,,,,,,,,,,,,,,,,
null,,rt_plussign_withcolor4,2122421,,,,,,,,blue,,,null,object_05c.png,object_03a.png,,,,,,,,,,,,,,,,,,,,,
1257.1999998092651,,rt_thecrossant_black4,2124010,,,,,,,,black_plus_sign,,,49,,,1,,,,,,,1,,,,,,,,,,,,,
null,,color_black4,2124116,,,,,,,,black_plus_sign,,,null,,,,,,,,,,,,,,,,,,,,,,,
null,,learn_phase(without_color)4,2127618,,,,,,,,black_plus_sign,,,null,object_07a.png,object_04a.png,,,,,,,,,,,,,,,,,,,,,
null,,black_cross(without_color)4,2128174,,,,,,,,blue,,,null,object_07a.png,object_04a.png,,,,,,,,,,,,,,,,,,,,,
null,,rt_plussign_withcolor4,2128684,,,,,,,,blue,,,null,object_07a.png,object_04a.png,,,,,,,,,,,,,,,,,,,,,
557.2999999523163,,rt_thecrossant_black4,2130154,,,,,,,,black_plus_sign,,,49,,,1,,,,,,,1,,,,,,,,,,,,,
null,,color_black4,2130266,,,,,,,,black_plus_sign,,,null,,,,,,,,,,,,,,,,,,,,,,,
null,,learn_phase(without_color)4,2133778,,,,,,,,black_plus_sign,,,null,object_07c.png,object_10c.png,,,,,,,,,,,,,,,,,,,,,
null,,black_cross(without_color)4,2134474,,,,,,,,green,,,null,object_07c.png,object_10c.png,,,,,,,,,,,,,,,,,,,,,
null,,rt_plussign_withcolor4,2134977,,,,,,,,green,,,null,object_07c.png,object_10c.png,,,,,,,,,,,,,,,,,,,,,
704.5999999046326,,rt_thecrossant_black4,2136300,,,,,,,,black_plus_sign,,,50,,,1,,,,,,,1,,,,,,,,,,,,,
null,,color_black4,2136410,,,,,,,,black_plus_sign,,,null,,,,,,,,,,,,,,,,,,,,,,,
null,,learn_phase(without_color)4,2139920,,,,,,,,black_plus_sign,,,null,object_14c.png,object_01a.png,,,,,,,,,,,,,,,,,,,,,
null,,black_cross(without_color)4,2140938,,,,,,,,green,,,null,object_14c.png,object_01a.png,,,,,,,,,,,,,,,,,,,,,
null,,rt_plussign_withcolor4,2141453,,,,,,,,green,,,null,object_14c.png,object_01a.png,,,,,,,,,,,,,,,,,,,,,
1009.2999999523163,,rt_thecrossant_black4,2142455,,,,,,,,black_plus_sign,,,50,,,1,,,,,,,1,,,,,,,,,,,,,
null,,color_black4,2142558,,,,,,,,black_plus_sign,,,null,,,,,,,,,,,,,,,,,,,,,,,
null,,learn_phase(without_color)4,2146061,,,,,,,,black_plus_sign,,,null,object_15c.png,object_05c.png,,,,,,,,,,,,,,,,,,,,,
null,,black_cross(without_color)4,2146843,,,,,,,,blue,,,null,object_15c.png,object_05c.png,,,,,,,,,,,,,,,,,,,,,
null,,rt_plussign_withcolor4,2147353,,,,,,,,blue,,,null,object_15c.png,object_05c.png,,,,,,,,,,,,,,,,,,,,,
1520.7000000476837,,rt_thecrossant_black4,2148594,,,,,,,,black_plus_sign,,,49,,,1,,,,,,,1,,,,,,,,,,,,,
null,,color_black4,2148697,,,,,,,,black_plus_sign,,,null,,,,,,,,,,,,,,,,,,,,,,,
null,,learn_phase(without_color)4,2152206,,,,,,,,black_plus_sign,,,null,object_12b.png,object_11c.png,,,,,,,,,,,,,,,,,,,,,
null,,black_cross(without_color)4,2152677,,,,,,,,green,,,null,object_12b.png,object_11c.png,,,,,,,,,,,,,,,,,,,,,
null,,rt_plussign_withcolor4,2153182,,,,,,,,green,,,null,object_12b.png,object_11c.png,,,,,,,,,,,,,,,,,,,,,
1025.2000000476837,,rt_thecrossant_black4,2154726,,,,,,,,black_plus_sign,,,50,,,1,,,,,,,1,,,,,,,,,,,,,
null,,color_black4,2154830,,,,,,,,black_plus_sign,,,null,,,,,,,,,,,,,,,,,,,,,,,
null,,learn_phase(without_color)4,2158344,,,,,,,,black_plus_sign,,,null,object_11b.png,object_02a.png,,,,,,,,,,,,,,,,,,,,,
null,,black_cross(without_color)4,2159060,,,,,,,,blue,,,null,object_11b.png,object_02a.png,,,,,,,,,,,,,,,,,,,,,
null,,rt_plussign_withcolor4,2159573,,,,,,,,blue,,,null,object_11b.png,object_02a.png,,,,,,,,,,,,,,,,,,,,,
908,,rt_thecrossant_black4,2160871,,,,,,,,black_plus_sign,,,49,,,1,,,,,,,1,,,,,,,,,,,,,
null,,color_black4,2160973,,,,,,,,black_plus_sign,,,null,,,,,,,,,,,,,,,,,,,,,,,
null,,learn_phase(without_color)4,2164488,,,,,,,,black_plus_sign,,,null,object_04c.png,object_10b.png,,,,,,,,,,,,,,,,,,,,,
null,,black_cross(without_color)4,2165107,,,,,,,,green,,,null,object_04c.png,object_10b.png,,,,,,,,,,,,,,,,,,,,,
null,,rt_plussign_withcolor4,2165615,,,,,,,,green,,,null,object_04c.png,object_10b.png,,,,,,,,,,,,,,,,,,,,,
986.0999999046326,,rt_thecrossant_black4,2167013,,,,,,,,black_plus_sign,,,50,,,1,,,,,,,1,,,,,,,,,,,,,
null,,color_black4,2167116,,,,,,,,black_plus_sign,,,null,,,,,,,,,,,,,,,,,,,,,,,
null,,learn_phase(without_color)4,2170633,,,,,,,,black_plus_sign,,,null,object_06b.png,object_09b.png,,,,,,,,,,,,,,,,,,,,,
null,,black_cross(without_color)4,2171556,,,,,,,,green,,,null,object_06b.png,object_09b.png,,,,,,,,,,,,,,,,,,,,,
null,,rt_plussign_withcolor4,2172068,,,,,,,,green,,,null,object_06b.png,object_09b.png,,,,,,,,,,,,,,,,,,,,,
825,,rt_thecrossant_black4,2173157,,,,,,,,black_plus_sign,,,50,,,1,,,,,,,1,,,,,,,,,,,,,
null,,color_black4,2173261,,,,,,,,black_plus_sign,,,null,,,,,,,,,,,,,,,,,,,,,,,
null,,learn_phase(without_color)4,2176779,,,,,,,,black_plus_sign,,,null,object_13a.png,object_10a.png,,,,,,,,,,,,,,,,,,,,,
null,,black_cross(without_color)4,2177421,,,,,,,,green,,,null,object_13a.png,object_10a.png,,,,,,,,,,,,,,,,,,,,,
null,,rt_plussign_withcolor4,2177926,,,,,,,,green,,,null,object_13a.png,object_10a.png,,,,,,,,,,,,,,,,,,,,,
1097.1999998092651,,rt_thecrossant_black4,2179302,,,,,,,,black_plus_sign,,,50,,,1,,,,,,,1,,,,,,,,,,,,,
null,,color_black4,2179405,,,,,,,,black_plus_sign,,,null,,,,,,,,,,,,,,,,,,,,,,,
null,,learn_phase(without_color)4,2182906,,,,,,,,black_plus_sign,,,null,object_01a.png,object_08c.png,,,,,,,,,,,,,,,,,,,,,
null,,black_cross(without_color)4,2183598,,,,,,,,green,,,null,object_01a.png,object_08c.png,,,,,,,,,,,,,,,,,,,,,
null,,rt_plussign_withcolor4,2184107,,,,,,,,green,,,null,object_01a.png,object_08c.png,,,,,,,,,,,,,,,,,,,,,
1003.8999998569489,,rt_thecrossant_black4,2185426,,,,,,,,black_plus_sign,,,50,,,1,,,,,,,1,,,,,,,,,,,,,
null,,color_black4,2185527,,,,,,,,black_plus_sign,,,null,,,,,,,,,,,,,,,,,,,,,,,
null,,learn_phase(without_color)4,2189033,,,,,,,,black_plus_sign,,,null,object_11c.png,object_09a.png,,,,,,,,,,,,,,,,,,,,,
null,,black_cross(without_color)4,2189887,,,,,,,,blue,,,null,object_11c.png,object_09a.png,,,,,,,,,,,,,,,,,,,,,
null,,rt_plussign_withcolor4,2190397,,,,,,,,blue,,,null,object_11c.png,object_09a.png,,,,,,,,,,,,,,,,,,,,,
1064.2000000476837,,rt_thecrossant_black4,2191568,,,,,,,,black_plus_sign,,,49,,,1,,,,,,,1,,,,,,,,,,,,,
null,,color_black4,2191670,,,,,,,,black_plus_sign,,,null,,,,,,,,,,,,,,,,,,,,,,,
null,,learn_phase(without_color)4,2195187,,,,,,,,black_plus_sign,,,null,object_11a.png,object_05b.png,,,,,,,,,,,,,,,,,,,,,
null,,black_cross(without_color)4,2195813,,,,,,,,green,,,null,object_11a.png,object_05b.png,,,,,,,,,,,,,,,,,,,,,
null,,rt_plussign_withcolor4,2196315,,,,,,,,green,,,null,object_11a.png,object_05b.png,,,,,,,,,,,,,,,,,,,,,
1128.5999999046326,,rt_thecrossant_black4,2197703,,,,,,,,black_plus_sign,,,50,,,1,,,,,,,1,,,,,,,,,,,,,
null,,color_black4,2197815,,,,,,,,black_plus_sign,,,null,,,,,,,,,,,,,,,,,,,,,,,
null,,learn_phase(without_color)4,2201326,,,,,,,,black_plus_sign,,,null,object_07b.png,object_06b.png,,,,,,,,,,,,,,,,,,,,,
null,,black_cross(without_color)4,2201872,,,,,,,,green,,,null,object_07b.png,object_06b.png,,,,,,,,,,,,,,,,,,,,,
null,,rt_plussign_withcolor4,2202382,,,,,,,,green,,,null,object_07b.png,object_06b.png,,,,,,,,,,,,,,,,,,,,,
855.6999998092651,,rt_thecrossant_black4,2203861,,,,,,,,black_plus_sign,,,50,,,1,,,,,,,1,,,,,,,,,,,,,
null,,color_black4,2203966,,,,,,,,black_plus_sign,,,null,,,,,,,,,,,,,,,,,,,,,,,
null,,learn_phase(without_color)4,2207473,,,,,,,,black_plus_sign,,,null,object_05b.png,object_08b.png,,,,,,,,,,,,,,,,,,,,,
null,,black_cross(without_color)4,2208277,,,,,,,,blue,,,null,object_05b.png,object_08b.png,,,,,,,,,,,,,,,,,,,,,
null,,rt_plussign_withcolor4,2208780,,,,,,,,blue,,,null,object_05b.png,object_08b.png,,,,,,,,,,,,,,,,,,,,,
781.5,,rt_thecrossant_black4,2209997,,,,,,,,black_plus_sign,,,49,,,1,,,,,,,1,,,,,,,,,,,,,
null,,color_black4,2210111,,,,,,,,black_plus_sign,,,null,,,,,,,,,,,,,,,,,,,,,,,
null,,learn_phase(without_color)4,2213622,,,,,,,,black_plus_sign,,,null,object_13c.png,object_02b.png,,,,,,,,,,,,,,,,,,,,,
null,,black_cross(without_color)4,2214494,,,,,,,,green,,,null,object_13c.png,object_02b.png,,,,,,,,,,,,,,,,,,,,,
null,,rt_plussign_withcolor4,2214997,,,,,,,,green,,,null,object_13c.png,object_02b.png,,,,,,,,,,,,,,,,,,,,,
1136.2000000476837,,rt_thecrossant_black4,2216133,,,,,,,,black_plus_sign,,,50,,,1,,,,,,,1,,,,,,,,,,,,,
null,,color_black4,2216235,,,,,,,,black_plus_sign,,,null,,,,,,,,,,,,,,,,,,,,,,,
null,,learn_phase(without_color)4,2219745,,,,,,,,black_plus_sign,,,null,object_15b.png,object_01b.png,,,,,,,,,,,,,,,,,,,,,
null,,black_cross(without_color)4,2220290,,,,,,,,blue,,,null,object_15b.png,object_01b.png,,,,,,,,,,,,,,,,,,,,,
null,,rt_plussign_withcolor4,2220797,,,,,,,,blue,,,null,object_15b.png,object_01b.png,,,,,,,,,,,,,,,,,,,,,
1186.8999998569489,,rt_thecrossant_black4,2222274,,,,,,,,black_plus_sign,,,49,,,1,,,,,,,1,,,,,,,,,,,,,
null,,color_black4,2222381,,,,,,,,black_plus_sign,,,null,,,,,,,,,,,,,,,,,,,,,,,
null,,learn_phase(without_color)4,2225886,,,,,,,,black_plus_sign,,,null,object_10b.png,object_15a.png,,,,,,,,,,,,,,,,,,,,,
null,,black_cross(without_color)4,2226866,,,,,,,,green,,,null,object_10b.png,object_15a.png,,,,,,,,,,,,,,,,,,,,,
437.90000009536743,,rt_plussign_withcolor4,2227374,,,,,,,,green,,,50,object_10b.png,object_15a.png,,,,,,,,,,,,,,,,,,,,,
null,,rt_thecrossant_black4,2228412,,,,,,,,black_plus_sign,,,null,,,1,,,,,,,1,,,,,,,,,,,,,
null,,color_black4,2228514,,,,,,,,black_plus_sign,,,null,,,,,,,,,,,,,,,,,,,,,,,
null,,learn_phase(without_color)4,2232021,,,,,,,,black_plus_sign,,,null,object_03b.png,object_12c.png,,,,,,,,,,,,,,,,,,,,,
null,,black_cross(without_color)4,2232435,,,,,,,,blue,,,null,object_03b.png,object_12c.png,,,,,,,,,,,,,,,,,,,,,
null,,rt_plussign_withcolor4,2232942,,,,,,,,blue,,,null,object_03b.png,object_12c.png,,,,,,,,,,,,,,,,,,,,,
2158.7000000476837,,rt_thecrossant_black4,2234544,,,,,,,,black_plus_sign,,,49,,,1,,,,,,,1,,,,,,,,,,,,,
null,,color_black4,2234655,,,,,,,,black_plus_sign,,,null,,,,,,,,,,,,,,,,,,,,,,,
null,,learn_phase(without_color)4,2238167,,,,,,,,black_plus_sign,,,null,object_10a.png,object_09c.png,,,,,,,,,,,,,,,,,,,,,
null,,black_cross(without_color)4,2238972,,,,,,,,blue,,,null,object_10a.png,object_09c.png,,,,,,,,,,,,,,,,,,,,,
null,,rt_plussign_withcolor4,2239484,,,,,,,,blue,,,null,object_10a.png,object_09c.png,,,,,,,,,,,,,,,,,,,,,
874,,rt_thecrossant_black4,2240688,,,,,,,,black_plus_sign,,,49,,,1,,,,,,,1,,,,,,,,,,,,,
null,,color_black4,2240792,,,,,,,,black_plus_sign,,,null,,,,,,,,,,,,,,,,,,,,,,,
null,,learn_phase(without_color)4,2244294,,,,,,,,black_plus_sign,,,null,object_01b.png,object_06c.png,,,,,,,,,,,,,,,,,,,,,
null,,black_cross(without_color)4,2245154,,,,,,,,blue,,,null,object_01b.png,object_06c.png,,,,,,,,,,,,,,,,,,,,,
498.2999999523163,,rt_plussign_withcolor4,2245655,,,,,,,,blue,,,49,object_01b.png,object_06c.png,,,,,,,,,,,,,,,,,,,,,
null,,rt_thecrossant_black4,2246810,,,,,,,,black_plus_sign,,,null,,,1,,,,,,,1,,,,,,,,,,,,,
null,,color_black4,2246923,,,,,,,,black_plus_sign,,,null,,,,,,,,,,,,,,,,,,,,,,,
null,,learn_phase(without_color)4,2250435,,,,,,,,black_plus_sign,,,null,object_10c.png,object_12a.png,,,,,,,,,,,,,,,,,,,,,
null,,black_cross(without_color)4,2251087,,,,,,,,blue,,,null,object_10c.png,object_12a.png,,,,,,,,,,,,,,,,,,,,,
null,,rt_plussign_withcolor4,2251597,,,,,,,,blue,,,null,object_10c.png,object_12a.png,,,,,,,,,,,,,,,,,,,,,
1065.7000000476837,,rt_thecrossant_black4,2252961,,,,,,,,black_plus_sign,,,49,,,1,,,,,,,1,,,,,,,,,,,,,
null,,color_black4,2253065,,,,,,,,black_plus_sign,,,null,,,,,,,,,,,,,,,,,,,,,,,
null,,learn_phase(without_color)4,2256577,,,,,,,,black_plus_sign,,,null,object_14b.png,object_04b.png,,,,,,,,,,,,,,,,,,,,,
null,,black_cross(without_color)4,2257264,,,,,,,,blue,,,null,object_14b.png,object_04b.png,,,,,,,,,,,,,,,,,,,,,
426.90000009536743,,rt_plussign_withcolor4,2257774,,,,,,,,blue,,,49,object_14b.png,object_04b.png,,,,,,,,,,,,,,,,,,,,,
null,,rt_thecrossant_black4,2259108,,,,,,,,black_plus_sign,,,null,,,1,,,,,,,1,,,,,,,,,,,,,
null,,color_black4,2259211,,,,,,,,black_plus_sign,,,null,,,,,,,,,,,,,,,,,,,,,,,
null,,learn_phase(without_color)4,2262723,,,,,,,,black_plus_sign,,,null,object_02a.png,object_01c.png,,,,,,,,,,,,,,,,,,,,,
null,,black_cross(without_color)4,2263666,,,,,,,,blue,,,null,object_02a.png,object_01c.png,,,,,,,,,,,,,,,,,,,,,
475,,rt_plussign_withcolor4,2264172,,,,,,,,blue,,,49,object_02a.png,object_01c.png,,,,,,,,,,,,,,,,,,,,,
null,,rt_thecrossant_black4,2265246,,,,,,,,black_plus_sign,,,null,,,1,,,,,,,1,,,,,,,,,,,,,
null,,color_black4,2265349,,,,,,,,black_plus_sign,,,null,,,,,,,,,,,,,,,,,,,,,,,
null,,learn_phase(without_color)4,2268861,,,,,,,,black_plus_sign,,,null,object_08a.png,object_07a.png,,,,,,,,,,,,,,,,,,,,,
null,,black_cross(without_color)4,2269435,,,,,,,,green,,,null,object_08a.png,object_07a.png,,,,,,,,,,,,,,,,,,,,,
null,,rt_plussign_withcolor4,2269950,,,,,,,,green,,,null,object_08a.png,object_07a.png,,,,,,,,,,,,,,,,,,,,,
1143.4000000953674,,rt_thecrossant_black4,2271395,,,,,,,,black_plus_sign,,,50,,,1,,,,,,,1,,,,,,,,,,,,,
null,,color_black4,2271506,,,,,,,,black_plus_sign,,,null,,,,,,,,,,,,,,,,,,,,,,,
null,,learn_phase(without_color)4,2275013,,,,,,,,black_plus_sign,,,null,object_03c.png,object_02c.png,,,,,,,,,,,,,,,,,,,,,
null,,black_cross(without_color)4,2275948,,,,,,,,blue,,,null,object_03c.png,object_02c.png,,,,,,,,,,,,,,,,,,,,,
null,,rt_plussign_withcolor4,2276451,,,,,,,,blue,,,null,object_03c.png,object_02c.png,,,,,,,,,,,,,,,,,,,,,
851.7999999523163,,rt_thecrossant_black4,2277537,,,,,,,,black_plus_sign,,,50,,,0,,,,,,,0.9655172413793104,,,,,,,,,,,,,
null,,color_black4,2277642,,,,,,,,black_plus_sign,,,null,,,,,,,,,,,,,,,,,,,,,,,
null,,learn_phase(without_color)4,2281148,,,,,,,,black_plus_sign,,,null,object_06a.png,object_03c.png,,,,,,,,,,,,,,,,,,,,,
null,,black_cross(without_color)4,2282054,,,,,,,,green,,,null,object_06a.png,object_03c.png,,,,,,,,,,,,,,,,,,,,,
460.2999999523163,,rt_plussign_withcolor4,2282564,,,,,,,,green,,,50,object_06a.png,object_03c.png,,,,,,,,,,,,,,,,,,,,,
null,,rt_thecrossant_black4,2283681,,,,,,,,black_plus_sign,,,null,,,1,,,,,,,0.9666666666666667,,,,,,,,,,,,,
null,,color_black4,2283786,,,,,,,,black_plus_sign,,,null,,,,,,,,,,,,,,,,,,,,,,,
null,,thebreak,2283892,,,,,,,,<p></p>,,,null,,,,,,,,,,,,,,,,,,,,,,,
1223.3999998569489,,intro_0,2285117,,,,,,,,instruct,,,32,,,,,,,,,,,,,,,,,,,,,,,
3660.7000000476837,,directmemory_phase4,2288780,,,,,,,,object_13b.png,,,50,,,0,,object_01a.png,object_02a.png,object_04b.png,object_04b.png,,0.3956043956043956,0,,,,,,,,,,,,
2419.600000143051,,directmemory_phase4,2291202,,,,,,,,object_02a.png,,,51,,,0,,object_11b.png,object_06a.png,object_12b.png,object_11b.png,,0.391304347826087,0,,,,,,,,,,,,
3213.2000000476837,,directmemory_phase4,2294417,,,,,,,,object_02c.png,,,51,,,1,,object_01b.png,object_01a.png,object_03c.png,object_03c.png,,0.3978494623655914,1,,,,,,,,,,,,
3646.300000190735,,directmemory_phase4,2298067,,,,,,,,object_03c.png,,,49,,,0,,object_14c.png,object_06a.png,object_15b.png,object_06a.png,,0.39361702127659576,0,,,,,,,,,,,,
3170.199999809265,,directmemory_phase4,2301240,,,,,,,,object_11c.png,,,50,,,0,,object_12b.png,object_14b.png,object_15b.png,object_12b.png,,0.3894736842105263,0,,,,,,,,,,,,
3660.7000000476837,,directmemory_phase4,2304903,,,,,,,,object_12a.png,,,50,,,0,,object_10c.png,object_02b.png,object_03b.png,object_10c.png,,0.3854166666666667,0,,,,,,,,,,,,
3298.100000143051,,directmemory_phase4,2308202,,,,,,,,object_06b.png,,,49,,,0,,object_14c.png,object_07b.png,object_11b.png,object_07b.png,,0.38144329896907214,0,,,,,,,,,,,,
3975.4000000953674,,directmemory_phase4,2312179,,,,,,,,object_03b.png,,,50,,,0,,object_07c.png,object_13c.png,object_05a.png,object_05a.png,,0.37755102040816324,0,,,,,,,,,,,,
2296.5999999046326,,directmemory_phase4,2314479,,,,,,,,object_08b.png,,,50,,,1,,object_06b.png,object_05b.png,object_04b.png,object_05b.png,,0.3838383838383838,1,,,,,,,,,,,,
3572.0999999046326,,directmemory_phase4,2318055,,,,,,,,object_15a.png,,,50,,,1,,object_07a.png,object_10b.png,object_05c.png,object_10b.png,,0.39,1,,,,,,,,,,,,
3343.7999999523163,,directmemory_phase4,2321402,,,,,,,,object_01c.png,,,51,,,1,,object_05b.png,object_03b.png,object_02a.png,object_02a.png,,0.39603960396039606,1,,,,,,,,,,,,
3788.4000000953674,,directmemory_phase4,2325192,,,,,,,,object_10a.png,,,49,,,0,,object_14b.png,object_13a.png,object_15b.png,object_13a.png,,0.39215686274509803,0,,,,,,,,,,,,
3345.5,,directmemory_phase4,2328541,,,,,,,,object_05b.png,,,49,,,0,,object_15b.png,object_06a.png,object_11a.png,object_11a.png,,0.3883495145631068,0,,,,,,,,,,,,
3783.399999856949,,directmemory_phase4,2332328,,,,,,,,object_06c.png,,,50,,,1,,object_03c.png,object_01b.png,object_05b.png,object_01b.png,,0.3942307692307692,1,,,,,,,,,,,,
3347.0999999046326,,directmemory_phase4,2335677,,,,,,,,object_04a.png,,,50,,,1,,object_04b.png,object_07a.png,object_01b.png,object_07a.png,,0.4,1,,,,,,,,,,,,
3862,,directmemory_phase4,2339540,,,,,,,,object_05c.png,,,50,,,0,,object_11a.png,object_14c.png,object_15c.png,object_15c.png,,0.39622641509433965,0,,,,,,,,,,,,
3111,,directmemory_phase4,2342653,,,,,,,,object_08c.png,,,49,,,0,,object_07a.png,object_01a.png,object_05b.png,object_01a.png,,0.3925233644859813,0,,,,,,,,,,,,
3122.100000143051,,directmemory_phase4,2345778,,,,,,,,object_01a.png,,,51,,,1,,object_13c.png,object_15c.png,object_14c.png,object_14c.png,,0.39814814814814814,1,,,,,,,,,,,,
3058.7000000476837,,directmemory_phase4,2348840,,,,,,,,object_01b.png,,,49,,,0,,object_14c.png,object_15b.png,object_06a.png,object_15b.png,,0.3944954128440367,0,,,,,,,,,,,,
2610,,directmemory_phase4,2351452,,,,,,,,object_04b.png,,,51,,,1,,object_13a.png,object_15c.png,object_14b.png,object_14b.png,,0.4,1,,,,,,,,,,,,
2537.600000143051,,directmemory_phase4,2353991,,,,,,,,object_12c.png,,,49,,,0,,object_05c.png,object_10c.png,object_03b.png,object_03b.png,,0.3963963963963964,0,,,,,,,,,,,,
1897.9000000953674,,directmemory_phase4,2355892,,,,,,,,object_09c.png,,,51,,,1,,object_06b.png,object_04b.png,object_10a.png,object_10a.png,,0.4017857142857143,1,,,,,,,,,,,,
3519,,directmemory_phase4,2359414,,,,,,,,object_14a.png,,,50,,,1,,object_11c.png,object_02b.png,object_06b.png,object_02b.png,,0.40707964601769914,1,,,,,,,,,,,,
3316.7999999523163,,directmemory_phase4,2362733,,,,,,,,object_10b.png,,,50,,,0,,object_11a.png,object_13a.png,object_04c.png,object_04c.png,,0.40350877192982454,0,,,,,,,,,,,,
3255.2999999523163,,directmemory_phase4,2365989,,,,,,,,object_07a.png,,,51,,,0,,object_08a.png,object_15c.png,object_07c.png,object_08a.png,,0.4,0,,,,,,,,,,,,
3374.600000143051,,directmemory_phase4,2369366,,,,,,,,object_02b.png,,,50,,,1,,object_12b.png,object_13c.png,object_07c.png,object_13c.png,,0.4051724137931034,1,,,,,,,,,,,,
3821.600000143051,,directmemory_phase4,2373191,,,,,,,,object_03a.png,,,49,,,1,,object_05c.png,object_01a.png,object_03b.png,object_05c.png,,0.41025641025641024,1,,,,,,,,,,,,
3286.699999809265,,directmemory_phase4,2376481,,,,,,,,object_10c.png,,,49,,,1,,object_07c.png,object_13a.png,object_15b.png,object_07c.png,,0.4152542372881356,1,,,,,,,,,,,,
3479.7999999523163,,directmemory_phase4,2379964,,,,,,,,object_09b.png,,,51,,,0,,object_10c.png,object_06b.png,object_01b.png,object_06b.png,,0.4117647058823529,0,,,,,,,,,,,,
2960.5,,directmemory_phase4,2382926,,,,,,,,object_09a.png,,,49,,,1,,object_11c.png,object_02a.png,object_01a.png,object_11c.png,,0.4166666666666667,1,,,,,,,,,,,,
null,,thebreak,2383031,,,,,,,,<p></p>,,,null,,,,,,,,,,,,,,,,,,,,,,,
3233.7000000476837,,intro_0,2386266,,,,,,,,instruct,,,32,,,,,,,,,,,,,,,,,,,,,,,
15135.399999856949,,intro_1,2401403,,,,,,,,instruct,,,32,,,,,,,,,,,,,,,,,,,,,,,
4136.100000143051,,intro_2,2405541,,,,,,,,instruct,,,32,,,,,,,,,,,,,,,,,,,,,,,
,,intro_3,2427054,,,,,,,,instruct,,,,,,,,,,,,,,,,,,,,,,,,,,
4259.700000047684,,intro_4,2431315,,,,,,,,instruct,,,32,,,,,,,,,,,,,,,,,,,,,,,
null,,thebreak,2431422,,,,,,,,<p></p>,,,null,,,,,,,,,,,,,,,,,,,,,,,
1666.6999998092651,,intro_0,2433091,,,,,,,,instruct,,,32,,,,,,,,,,,,,,,,,,,,,,,
2946.9000000953674,,intro_1,2436040,,,,,,,,instruct,,,32,,,,,,,,,,,,,,,,,,,,,,,
737.4000000953674,,intro_2,2436779,,,,,,,,instruct,,,32,,,,,,,,,,,,,,,,,,,,,,,
,,intro_3,2442106,,,,,,,,instruct,,,,,,,,,,,,,,,,,,,,,,,,,,
2395.399999856949,,intro_4,2444503,,,,,,,,instruct,,,32,,,,,,,,,,,,,,,,,,,,,,,
3022.9000000953674,,inference_phase,2447528,,,,,,,,object_12c.png,,,51,object_12b.png,object_13c.png,0,,,,,object_05a.png,,0,,,object_05a.png,,,,,,,,,,
2670.7999999523163,,inference_phase,2450203,,,,,,,,object_09b.png,,,49,object_07c.png,object_11a.png,0,,,,,object_07b.png,,0,,,object_07b.png,,,,,,,,,,
2908,,inference_phase,2453115,,,,,,,,object_13b.png,,,50,object_15b.png,object_07c.png,1,,,,,object_14b.png,,0.3333333333333333,,,object_14b.png,,,,,,,,,,
3747,,inference_phase,2456864,,,,,,,,object_15a.png,,,51,object_04c.png,object_11a.png,0,,,,,object_04c.png,,0.25,,,object_15c.png,,,,,,,,,,
3116,,inference_phase,2459982,,,,,,,,object_08b.png,,,49,object_05a.png,object_15b.png,0,,,,,object_11a.png,,0.2,,,object_11a.png,,,,,,,,,,
3478.600000143051,,inference_phase,2463464,,,,,,,,object_14a.png,,,51,object_06a.png,object_13c.png,1,,,,,object_13c.png,,0.3333333333333333,,,object_12b.png,,,,,,,,,,
3288.100000143051,,inference_phase,2466754,,,,,,,,object_06c.png,,,49,object_05a.png,object_15b.png,0,,,,,object_15b.png,,0.2857142857142857,,,object_08a.png,,,,,,,,,,
3931.9000000953674,,inference_phase,2470689,,,,,,,,object_08c.png,,,51,object_14c.png,object_13a.png,0,,,,,object_14c.png,,0.25,,,object_11a.png,,,,,,,,,,
3084.899999856949,,inference_phase,2473776,,,,,,,,object_02c.png,,,49,object_06a.png,object_15c.png,1,,,,,object_06a.png,,0.3333333333333333,,,object_15b.png,,,,,,,,,,
4098.600000143051,,inference_phase,2477876,,,,,,,,object_04a.png,,,50,object_08a.png,object_15c.png,0,,,,,object_08a.png,,0.3,,,object_05a.png,,,,,,,,,,
3086.100000143051,,inference_phase,2480964,,,,,,,,object_09a.png,,,49,object_12b.png,object_08a.png,1,,,,,object_12b.png,,0.36363636363636365,,,object_14c.png,,,,,,,,,,
3536.2000000476837,,inference_phase,2484501,,,,,,,,object_03a.png,,,51,object_13a.png,object_15c.png,1,,,,,object_15c.png,,0.4166666666666667,,,object_11b.png,,,,,,,,,,
3748.800000190735,,inference_phase,2488251,,,,,,,,object_01c.png,,,51,object_15b.png,object_15c.png,0,,,,,object_11b.png,,0.38461538461538464,,,object_11b.png,,,,,,,,,,
3687.5999999046326,,inference_phase,2491941,,,,,,,,object_09c.png,,,49,object_14c.png,object_13a.png,0,,,,,object_13a.png,,0.35714285714285715,,,object_07c.png,,,,,,,,,,
3558.800000190735,,inference_phase,2495503,,,,,,,,object_12a.png,,,51,object_05a.png,object_13a.png,0,,,,,object_07c.png,,0.3333333333333333,,,object_07c.png,,,,,,,,,,
,,survey,2573129,,,,,,,,survey-questions,,,,,,,,,,,,,,,,,none,high,No,I tried to use colors and the shape to help me remember,Yes, some were. Especially those with similar colors, they were easier to learn,No,No,,,
58497.299999952316,,thank_you,2631665,,,,,,,,<p> Congratulations, you are all done!</p><p> <strong>Please click space on your keyboard to end the experiment!</strong> The secret code to enter at the beginning screen is: <strong>CIMBPENS</strong></p><p> Please make sure to submit the HIT and email uciccnl@gmail.com if you had any issues! </p><br><p>Please remember to submit this data by clicking space after copying the code. Failure of submission will lead to in-complete payment</p>,,,32,,,,,,,,,,,,,,,,,,,,,16,5,C78LSMTN
