rt,responses,trial_type,time_elapsed,identifier_a,identifier_b,identifier_c,tasktype,browser_type,local_time,UTC_time,stimulus,button_pressed,response,key_press,stimulus_left,stimulus_right,practice_cumulative_accuracy,accuracy,stimulus_down_left,stimulus_down_mid,stimulus_down_right,stimulus_correct,prac_weighted_accuracy,cumulative_accuracy,failed_practice,weighted_accuracy,stimulus_middle,problems,smooth,distraction,strategies,easier,similar,comments,detectfocus,breakfocus,completion_code
24169.699999928474,{worker_id:67e8e742e96d381fb2740e3e},id_enter,24177,object_11a.png; object_02b.png; object_02a.png; object_03c.png; object_10b.png; object_08b.png; object_04c.png; object_09a.png; object_06b.png; object_07c.png; object_15c.png; object_09c.png; object_14a.png; object_03a.png; object_04b.png,object_10c.png; object_13b.png; object_02c.png; object_04a.png; object_08c.png; object_07b.png; object_03b.png; object_01a.png; object_15b.png; object_09b.png; object_11b.png; object_12a.png; object_06a.png; object_07a.png; object_05a.png,object_14b.png; object_13c.png; object_01c.png; object_01b.png; object_05b.png; object_14c.png; object_08a.png; object_06c.png; object_12b.png; object_12c.png; object_11c.png; object_15a.png; object_05c.png; object_13a.png; object_10a.png,interleaved,Mozilla/5.0 (Windows NT 10.0; Win64; x64) AppleWebKit/537.36 (KHTML, like Gecko) Chrome/135.0.0.0 Safari/537.36,5/8/2025, 3:39:28 PM,2025-05-08 20:39:28.371,,,,,,,,,,,,,,,,,,,,,,,,,,,
10420.200000047684,,make_fullscreen,34623,,,,,,,,fullscreen,0,,,,,,,,,,,,,,,,,,,,,,,,,
1771.8999999761581,,instruct_1,36398,,,,,,,,instruct,0,Next,,,,,,,,,,,,,,,,,,,,,,,,
5079.099999904633,,instruct_2,41479,,,,,,,,instruct,1,Next,,,,,,,,,,,,,,,,,,,,,,,,
25062.799999952316,,instruct_3,66543,,,,,,,,instruct,1,Next,,,,,,,,,,,,,,,,,,,,,,,,
11950.799999952316,,instruct_4,78495,,,,,,,,instruct,1,Next,,,,,,,,,,,,,,,,,,,,,,,,
2726.5,,instruct_5,81223,,,,,,,,instruct,1,Next,,,,,,,,,,,,,,,,,,,,,,,,
3143.2999999523163,,instruct_6,84367,,,,,,,,instruct,1,Next,,,,,,,,,,,,,,,,,,,,,,,,
4037.899999976158,,instruct_7,88406,,,,,,,,instruct,1,Next,,,,,,,,,,,,,,,,,,,,,,,,
null,,prac_atten_color_black,89090,,,,,,,,black_plus_sign,,,null,,,,,,,,,,,,,,,,,,,,,,,
null,,prac_atten_color,89839,,,,,,,,<p style='position:absolute;top: 50%;right: 50%;transform: translate(50%, -50%);font-size: 125px;color: blue;'>+</p>,,,null,,,,,,,,,,,,,,,,,,,,,,,
null,,prac_atten_color_black,91846,,,,,,,,black_plus_sign,,,null,,,,,,,,,,,,,,,,,,,,,,,
13137.400000095367,,attentioncheck_help,104988,,,,,,,,instruct,,,32,,,,,,,,,,,,,,,,,,,,,,,
null,,prac_atten_color_black,105662,,,,,,,,black_plus_sign,,,null,,,,,,,,,,,,,,,,,,,,,,,
null,,prac_atten_color,106573,,,,,,,,<p style='position:absolute;top: 50%;right: 50%;transform: translate(50%, -50%);font-size: 125px;color: green;'>+</p>,,,null,,,,,,,,,,,,,,,,,,,,,,,
1699.2999999523163,,prac_atten_color_black,108577,,,,,,,,black_plus_sign,,,49,,,,,,,,,,,,,,,,,,,,,,,
4988.199999928474,,attentioncheck_help,113569,,,,,,,,instruct,,,32,,,,,,,,,,,,,,,,,,,,,,,
null,,prac_atten_color_black,114074,,,,,,,,black_plus_sign,,,null,,,,,,,,,,,,,,,,,,,,,,,
null,,prac_atten_color,114808,,,,,,,,<p style='position:absolute;top: 50%;right: 50%;transform: translate(50%, -50%);font-size: 125px;color: green;'>+</p>,,,null,,,,,,,,,,,,,,,,,,,,,,,
464.60000002384186,,prac_atten_color_black,116811,,,,,,,,black_plus_sign,,,50,,,,,,,,,,,,,,,,,,,,,,,
null,,prac_atten_color_black,117498,,,,,,,,black_plus_sign,,,null,,,,,,,,,,,,,,,,,,,,,,,
null,,prac_atten_color,118133,,,,,,,,<p style='position:absolute;top: 50%;right: 50%;transform: translate(50%, -50%);font-size: 125px;color: blue;'>+</p>,,,null,,,,,,,,,,,,,,,,,,,,,,,
436.60000002384186,,prac_atten_color_black,120139,,,,,,,,black_plus_sign,,,49,,,,,,,,,,,,,,,,,,,,,,,
null,,prac_atten_color_black,120924,,,,,,,,black_plus_sign,,,null,,,,,,,,,,,,,,,,,,,,,,,
562,,prac_atten_color,121986,,,,,,,,<p style='position:absolute;top: 50%;right: 50%;transform: translate(50%, -50%);font-size: 125px;color: green;'>+</p>,,,50,,,,,,,,,,,,,,,,,,,,,,,
null,,prac_atten_color_black,123997,,,,,,,,black_plus_sign,,,null,,,,,,,,,,,,,,,,,,,,,,,
null,,prac_atten_color_black,124348,,,,,,,,black_plus_sign,,,null,,,,,,,,,,,,,,,,,,,,,,,
580.3000000715256,,prac_atten_color,125408,,,,,,,,<p style='position:absolute;top: 50%;right: 50%;transform: translate(50%, -50%);font-size: 125px;color: green;'>+</p>,,,50,,,,,,,,,,,,,,,,,,,,,,,
null,,prac_atten_color_black,127416,,,,,,,,black_plus_sign,,,null,,,,,,,,,,,,,,,,,,,,,,,
null,,prac_atten_color_black,127765,,,,,,,,black_plus_sign,,,null,,,,,,,,,,,,,,,,,,,,,,,
886.5,,prac_atten_color,128734,,,,,,,,<p style='position:absolute;top: 50%;right: 50%;transform: translate(50%, -50%);font-size: 125px;color: blue;'>+</p>,,,49,,,,,,,,,,,,,,,,,,,,,,,
null,,prac_atten_color_black,130742,,,,,,,,black_plus_sign,,,null,,,,,,,,,,,,,,,,,,,,,,,
null,,prac_atten_color_black,131197,,,,,,,,black_plus_sign,,,null,,,,,,,,,,,,,,,,,,,,,,,
501.60000002384186,,prac_atten_color,131867,,,,,,,,<p style='position:absolute;top: 50%;right: 50%;transform: translate(50%, -50%);font-size: 125px;color: green;'>+</p>,,,50,,,,,,,,,,,,,,,,,,,,,,,
null,,prac_atten_color_black,133870,,,,,,,,black_plus_sign,,,null,,,,,,,,,,,,,,,,,,,,,,,
null,,prac_atten_color_black,134622,,,,,,,,black_plus_sign,,,null,,,,,,,,,,,,,,,,,,,,,,,
null,,prac_atten_color,135105,,,,,,,,<p style='position:absolute;top: 50%;right: 50%;transform: translate(50%, -50%);font-size: 125px;color: blue;'>+</p>,,,null,,,,,,,,,,,,,,,,,,,,,,,
83.70000004768372,,prac_atten_color_black,137108,,,,,,,,black_plus_sign,,,49,,,,,,,,,,,,,,,,,,,,,,,
null,,prac_atten_color_black,138039,,,,,,,,black_plus_sign,,,null,,,,,,,,,,,,,,,,,,,,,,,
446.7999999523163,,prac_atten_color,139139,,,,,,,,<p style='position:absolute;top: 50%;right: 50%;transform: translate(50%, -50%);font-size: 125px;color: blue;'>+</p>,,,50,,,,,,,,,,,,,,,,,,,,,,,
null,,prac_atten_color_black,141155,,,,,,,,black_plus_sign,,,null,,,,,,,,,,,,,,,,,,,,,,,
6547,,attentioncheck_feedback,147704,,,,,,,,cross_check_feedback,0,,,,,,,,,,,,,,,,,,,,,,,,,
2203.399999976158,,last_instruct,149908,,,,,,,,instruct,,,32,,,,,,,,,,,,,,,,,,,,,,,
null,,prac_learn_phase(without_color),153416,,,,,,,,black_plus_sign,,,null,object_04b.png,object_05a.png,,,,,,,,,,,,,,,,,,,,,
null,,prac_black_cross(without_color),153976,,,,,,,,blue,,,null,object_04b.png,object_05a.png,,,,,,,,,,,,,,,,,,,,,
null,,prac_rt_plussign_withcolor,154482,,,,,,,,blue,,,null,object_04b.png,object_05a.png,,,,,,,,,,,,,,,,,,,,,
null,,prac_rt_thecrossant_black,155946,,,,,,,,black_plus_sign,,,null,,,NaN,,,,,,,,,,,,,,,,,,,,
null,,prac_color_black,156058,,,,,,,,black_plus_sign,,,null,,,,,,,,,,,,,,,,,,,,,,,
null,,prac_learn_phase(without_color),159573,,,,,,,,black_plus_sign,,,null,object_03b.png,object_08a.png,,,,,,,,,,,,,,,,,,,,,
null,,black_cross(without_color)1,160636,,,,,,,,green,,,null,object_04b.png,object_05a.png,,,,,,,,,,,,,,,,,,,,,
null,,prac_rt_plussign_withcolor,161148,,,,,,,,blue,,,null,object_03b.png,object_08a.png,,,,,,,,,,,,,,,,,,,,,
null,,prac_rt_thecrossant_black,162194,,,,,,,,black_plus_sign,,,null,,,NaN,,,,,,,,,,,,,,,,,,,,
null,,warning_page,167208,,,,,,,,warning,,,null,,,,,,,,,,,,,,,,,,,,,,,
null,,prac_color_black,167319,,,,,,,,black_plus_sign,,,null,,,,,,,,,,,,,,,,,,,,,,,
null,,prac_learn_phase(without_color),170839,,,,,,,,black_plus_sign,,,null,object_13b.png,object_13c.png,,,,,,,,,,,,,,,,,,,,,
null,,black_cross(without_color)1,171904,,,,,,,,green,,,null,object_04b.png,object_05a.png,,,,,,,,,,,,,,,,,,,,,
null,,prac_rt_plussign_withcolor,172420,,,,,,,,blue,,,null,object_13b.png,object_13c.png,,,,,,,,,,,,,,,,,,,,,
1284.5,,prac_rt_thecrossant_black,173403,,,,,,,,black_plus_sign,,,49,,,1,1,,,,,,,,,,,,,,,,,,,
null,,prac_color_black,173519,,,,,,,,black_plus_sign,,,null,,,,,,,,,,,,,,,,,,,,,,,
null,,prac_learn_phase(without_color),177029,,,,,,,,black_plus_sign,,,null,object_10c.png,object_14b.png,,,,,,,,,,,,,,,,,,,,,
null,,black_cross(without_color)1,178098,,,,,,,,green,,,null,object_04b.png,object_05a.png,,,,,,,,,,,,,,,,,,,,,
null,,prac_rt_plussign_withcolor,178615,,,,,,,,blue,,,null,object_10c.png,object_14b.png,,,,,,,,,,,,,,,,,,,,,
1265.4000000953674,,prac_rt_thecrossant_black,179710,,,,,,,,black_plus_sign,,,49,,,1,1,,,,,,,,,,,,,,,,,,,
null,,prac_color_black,179829,,,,,,,,black_plus_sign,,,null,,,,,,,,,,,,,,,,,,,,,,,
4614.700000047684,,instruct_dir_01,184447,,,,,,,,instruct,0,Next,,,,,,,,,,,,,,,,,,,,,,,,
8007.199999928474,,instruct_dir_2,192455,,,,,,,,instruct,1,Next,,,,,,,,,,,,,,,,,,,,,,,,
3620.4000000953674,,instruct_dir_3,196079,,,,,,,,instruct,1,Next,,,,,,,,,,,,,,,,,,,,,,,,
1224.8999999761581,,instruct_dir_4,197307,,,,,,,,instruct,1,Start,,,,,,,,,,,,,,,,,,,,,,,,
null,,thebreak,197410,,,,,,,,<p></p>,,,null,,,,,,,,,,,,,,,,,,,,,,,
2287.7000000476837,,intro_0,199701,,,,,,,,instruct,,,32,,,,,,,,,,,,,,,,,,,,,,,
6728.5,,prac_directmemory_phase,206432,,,,,,,,practice/object_03b.png,,,49,,,,0,practice/object_04a.png,practice/object_01a.png,practice/object_03a.png,practice/object_03a.png,0,0,,,,,,,,,,,,,
3037.7000000476837,,prac_directmemory_phase,209474,,,,,,,,practice/object_04b.png,,,51,,,,0,practice/object_04a.png,practice/object_02a.png,practice/object_01a.png,practice/object_04a.png,0,0,,,,,,,,,,,,,
2189.5,,prac_directmemory_phase,211668,,,,,,,,practice/object_02b.png,,,50,,,,0,practice/object_01a.png,practice/object_03a.png,practice/object_02a.png,practice/object_02a.png,0,0,,,,,,,,,,,,,
1188.3999999761581,,prac_directmemory_phase,212861,,,,,,,,practice/object_01b.png,,,49,,,,1,practice/object_01a.png,practice/object_03a.png,practice/object_04a.png,practice/object_01a.png,1,0.25,,,,,,,,,,,,,
7060.799999952316,,practice_feedback_force_restart,219925,,,,,,,,practice_feedback,0,,,,,,,,,,,,,1,,,,,,,,,,,,
10876.699999928474,,last_instruct,230803,,,,,,,,instruct,,,32,,,,,,,,,,,,,,,,,,,,,,,
null,,prac_learn_phase(without_color),234321,,,,,,,,black_plus_sign,,,null,object_04b.png,object_05a.png,,,,,,,,,,,,,,,,,,,,,
null,,prac_black_cross(without_color),234805,,,,,,,,blue,,,null,object_04b.png,object_05a.png,,,,,,,,,,,,,,,,,,,,,
null,,prac_rt_plussign_withcolor,235312,,,,,,,,blue,,,null,object_04b.png,object_05a.png,,,,,,,,,,,,,,,,,,,,,
1877.6000000238419,,prac_rt_thecrossant_black,236839,,,,,,,,black_plus_sign,,,49,,,1,1,,,,,,,,,,,,,,,,,,,
null,,prac_color_black,236941,,,,,,,,black_plus_sign,,,null,,,,,,,,,,,,,,,,,,,,,,,
null,,prac_learn_phase(without_color),240444,,,,,,,,black_plus_sign,,,null,object_03b.png,object_08a.png,,,,,,,,,,,,,,,,,,,,,
null,,black_cross(without_color)1,241509,,,,,,,,green,,,null,object_04b.png,object_05a.png,,,,,,,,,,,,,,,,,,,,,
null,,prac_rt_plussign_withcolor,242026,,,,,,,,blue,,,null,object_03b.png,object_08a.png,,,,,,,,,,,,,,,,,,,,,
709.5,,prac_rt_thecrossant_black,243354,,,,,,,,black_plus_sign,,,49,,,1,1,,,,,,,,,,,,,,,,,,,
null,,prac_color_black,243469,,,,,,,,black_plus_sign,,,null,,,,,,,,,,,,,,,,,,,,,,,
null,,prac_learn_phase(without_color),246980,,,,,,,,black_plus_sign,,,null,object_13b.png,object_13c.png,,,,,,,,,,,,,,,,,,,,,
null,,black_cross(without_color)1,248054,,,,,,,,green,,,null,object_04b.png,object_05a.png,,,,,,,,,,,,,,,,,,,,,
null,,prac_rt_plussign_withcolor,248556,,,,,,,,blue,,,null,object_13b.png,object_13c.png,,,,,,,,,,,,,,,,,,,,,
1065.2000000476837,,prac_rt_thecrossant_black,249588,,,,,,,,black_plus_sign,,,49,,,1,1,,,,,,,,,,,,,,,,,,,
null,,prac_color_black,249696,,,,,,,,black_plus_sign,,,null,,,,,,,,,,,,,,,,,,,,,,,
null,,prac_learn_phase(without_color),253213,,,,,,,,black_plus_sign,,,null,object_10c.png,object_14b.png,,,,,,,,,,,,,,,,,,,,,
null,,black_cross(without_color)1,254288,,,,,,,,green,,,null,object_04b.png,object_05a.png,,,,,,,,,,,,,,,,,,,,,
null,,prac_rt_plussign_withcolor,254804,,,,,,,,blue,,,null,object_10c.png,object_14b.png,,,,,,,,,,,,,,,,,,,,,
1136.5,,prac_rt_thecrossant_black,256264,,,,,,,,black_plus_sign,,,49,,,1,1,,,,,,,,,,,,,,,,,,,
null,,prac_color_black,256369,,,,,,,,black_plus_sign,,,null,,,,,,,,,,,,,,,,,,,,,,,
5744.399999976158,,instruct_dir_01,262116,,,,,,,,instruct,0,Next,,,,,,,,,,,,,,,,,,,,,,,,
1584.6999999284744,,instruct_dir_2,263703,,,,,,,,instruct,1,Next,,,,,,,,,,,,,,,,,,,,,,,,
2876.0999999046326,,instruct_dir_3,266582,,,,,,,,instruct,1,Next,,,,,,,,,,,,,,,,,,,,,,,,
1209.1000000238419,,instruct_dir_4,267794,,,,,,,,instruct,1,Start,,,,,,,,,,,,,,,,,,,,,,,,
null,,thebreak,267912,,,,,,,,<p></p>,,,null,,,,,,,,,,,,,,,,,,,,,,,
2022.6999999284744,,intro_0,269937,,,,,,,,instruct,,,32,,,,,,,,,,,,,,,,,,,,,,,
3513.100000023842,,prac_directmemory_phase,273452,,,,,,,,practice/object_03b.png,,,51,,,,1,practice/object_04a.png,practice/object_01a.png,practice/object_03a.png,practice/object_03a.png,1,1,,,,,,,,,,,,,
3008.100000023842,,prac_directmemory_phase,276463,,,,,,,,practice/object_04b.png,,,49,,,,1,practice/object_04a.png,practice/object_02a.png,practice/object_01a.png,practice/object_04a.png,1,1,,,,,,,,,,,,,
5691.099999904633,,prac_directmemory_phase,282158,,,,,,,,practice/object_02b.png,,,50,,,,0,practice/object_01a.png,practice/object_03a.png,practice/object_02a.png,practice/object_02a.png,0,0.6666666666666666,,,,,,,,,,,,,
2982,,prac_directmemory_phase,285142,,,,,,,,practice/object_01b.png,,,49,,,,1,practice/object_01a.png,practice/object_03a.png,practice/object_04a.png,practice/object_01a.png,1,0.75,,,,,,,,,,,,,
4159.900000095367,,practice_feedback,289306,,,,,,,,practice_feedback,1,,,,,,,,,,,,,,,,,,,,,,,,,
4978,,proceed_actualTask,294286,,,,,,,,proceed_actualTask,1,Continue,,,,,,,,,,,,,,,,,,,,,,,,
1772.2000000476837,,last_inst,296061,,,,,,,,last_inst,,,32,,,,,,,,,,,,,,,,,,,,,,,
null,,learn_phase(without_color)1,299570,,,,,,,,black_plus_sign,,,null,object_04b.png,object_05a.png,,,,,,,,,,,,,,,,,,,,,
null,,black_cross(without_color)1,300643,,,,,,,,green,,,null,object_04b.png,object_05a.png,,,,,,,,,,,,,,,,,,,,,
null,,rt_plussign_withcolor1,301156,,,,,,,,green,,,null,object_04b.png,object_05a.png,,,,,,,,,,,,,,,,,,,,,
891,,rt_thecrossant_black1,302107,,,,,,,,black_plus_sign,,,50,,,,1,,,,,,1,,,,,,,,,,,,,
null,,color_black1,302216,,,,,,,,black_plus_sign,,,null,,,,,,,,,,,,,,,,,,,,,,,
null,,learn_phase(without_color)1,305726,,,,,,,,black_plus_sign,,,null,object_03b.png,object_08a.png,,,,,,,,,,,,,,,,,,,,,
null,,black_cross(without_color)1,306512,,,,,,,,green,,,null,object_03b.png,object_08a.png,,,,,,,,,,,,,,,,,,,,,
null,,rt_plussign_withcolor1,307029,,,,,,,,green,,,null,object_03b.png,object_08a.png,,,,,,,,,,,,,,,,,,,,,
1650.5,,rt_thecrossant_black1,308275,,,,,,,,black_plus_sign,,,50,,,,1,,,,,,1,,,,,,,,,,,,,
null,,color_black1,308393,,,,,,,,black_plus_sign,,,null,,,,,,,,,,,,,,,,,,,,,,,
null,,learn_phase(without_color)1,311909,,,,,,,,black_plus_sign,,,null,object_13b.png,object_13c.png,,,,,,,,,,,,,,,,,,,,,
null,,black_cross(without_color)1,312899,,,,,,,,green,,,null,object_13b.png,object_13c.png,,,,,,,,,,,,,,,,,,,,,
null,,rt_plussign_withcolor1,313416,,,,,,,,green,,,null,object_13b.png,object_13c.png,,,,,,,,,,,,,,,,,,,,,
1113.6000000238419,,rt_thecrossant_black1,314455,,,,,,,,black_plus_sign,,,50,,,,1,,,,,,1,,,,,,,,,,,,,
null,,color_black1,314571,,,,,,,,black_plus_sign,,,null,,,,,,,,,,,,,,,,,,,,,,,
null,,learn_phase(without_color)1,318079,,,,,,,,black_plus_sign,,,null,object_10c.png,object_14b.png,,,,,,,,,,,,,,,,,,,,,
null,,black_cross(without_color)1,318827,,,,,,,,blue,,,null,object_10c.png,object_14b.png,,,,,,,,,,,,,,,,,,,,,
null,,rt_plussign_withcolor1,319343,,,,,,,,blue,,,null,object_10c.png,object_14b.png,,,,,,,,,,,,,,,,,,,,,
1387,,rt_thecrossant_black1,320610,,,,,,,,black_plus_sign,,,49,,,,1,,,,,,1,,,,,,,,,,,,,
null,,color_black1,320715,,,,,,,,black_plus_sign,,,null,,,,,,,,,,,,,,,,,,,,,,,
null,,learn_phase(without_color)1,324227,,,,,,,,black_plus_sign,,,null,object_01a.png,object_06c.png,,,,,,,,,,,,,,,,,,,,,
null,,black_cross(without_color)1,324951,,,,,,,,blue,,,null,object_01a.png,object_06c.png,,,,,,,,,,,,,,,,,,,,,
null,,rt_plussign_withcolor1,325466,,,,,,,,blue,,,null,object_01a.png,object_06c.png,,,,,,,,,,,,,,,,,,,,,
970.2000000476837,,rt_thecrossant_black1,326751,,,,,,,,black_plus_sign,,,49,,,,1,,,,,,1,,,,,,,,,,,,,
null,,color_black1,326859,,,,,,,,black_plus_sign,,,null,,,,,,,,,,,,,,,,,,,,,,,
null,,learn_phase(without_color)1,330371,,,,,,,,black_plus_sign,,,null,object_02c.png,object_01c.png,,,,,,,,,,,,,,,,,,,,,
null,,black_cross(without_color)1,331415,,,,,,,,blue,,,null,object_02c.png,object_01c.png,,,,,,,,,,,,,,,,,,,,,
null,,rt_plussign_withcolor1,331922,,,,,,,,blue,,,null,object_02c.png,object_01c.png,,,,,,,,,,,,,,,,,,,,,
863.9000000953674,,rt_thecrossant_black1,332897,,,,,,,,black_plus_sign,,,49,,,,1,,,,,,1,,,,,,,,,,,,,
null,,color_black1,333005,,,,,,,,black_plus_sign,,,null,,,,,,,,,,,,,,,,,,,,,,,
null,,learn_phase(without_color)1,336515,,,,,,,,black_plus_sign,,,null,object_11a.png,object_10c.png,,,,,,,,,,,,,,,,,,,,,
null,,black_cross(without_color)1,336940,,,,,,,,green,,,null,object_11a.png,object_10c.png,,,,,,,,,,,,,,,,,,,,,
null,,rt_plussign_withcolor1,337456,,,,,,,,green,,,null,object_11a.png,object_10c.png,,,,,,,,,,,,,,,,,,,,,
1573.9000000953674,,rt_thecrossant_black1,339039,,,,,,,,black_plus_sign,,,50,,,,1,,,,,,1,,,,,,,,,,,,,
null,,color_black1,339155,,,,,,,,black_plus_sign,,,null,,,,,,,,,,,,,,,,,,,,,,,
null,,learn_phase(without_color)1,342666,,,,,,,,black_plus_sign,,,null,object_15c.png,object_11b.png,,,,,,,,,,,,,,,,,,,,,
null,,black_cross(without_color)1,343508,,,,,,,,green,,,null,object_15c.png,object_11b.png,,,,,,,,,,,,,,,,,,,,,
null,,rt_plussign_withcolor1,344022,,,,,,,,green,,,null,object_15c.png,object_11b.png,,,,,,,,,,,,,,,,,,,,,
893.1000000238419,,rt_thecrossant_black1,345203,,,,,,,,black_plus_sign,,,50,,,,1,,,,,,1,,,,,,,,,,,,,
null,,color_black1,345311,,,,,,,,black_plus_sign,,,null,,,,,,,,,,,,,,,,,,,,,,,
null,,learn_phase(without_color)1,348820,,,,,,,,black_plus_sign,,,null,object_07b.png,object_14c.png,,,,,,,,,,,,,,,,,,,,,
null,,black_cross(without_color)1,349670,,,,,,,,blue,,,null,object_07b.png,object_14c.png,,,,,,,,,,,,,,,,,,,,,
null,,rt_plussign_withcolor1,350182,,,,,,,,blue,,,null,object_07b.png,object_14c.png,,,,,,,,,,,,,,,,,,,,,
1140.8999999761581,,rt_thecrossant_black1,351340,,,,,,,,black_plus_sign,,,49,,,,1,,,,,,1,,,,,,,,,,,,,
null,,color_black1,351445,,,,,,,,black_plus_sign,,,null,,,,,,,,,,,,,,,,,,,,,,,
null,,learn_phase(without_color)1,354954,,,,,,,,black_plus_sign,,,null,object_14a.png,object_06a.png,,,,,,,,,,,,,,,,,,,,,
null,,black_cross(without_color)1,355917,,,,,,,,blue,,,null,object_14a.png,object_06a.png,,,,,,,,,,,,,,,,,,,,,
null,,rt_plussign_withcolor1,356421,,,,,,,,blue,,,null,object_14a.png,object_06a.png,,,,,,,,,,,,,,,,,,,,,
1174.6000000238419,,rt_thecrossant_black1,357477,,,,,,,,black_plus_sign,,,49,,,,1,,,,,,1,,,,,,,,,,,,,
null,,color_black1,357582,,,,,,,,black_plus_sign,,,null,,,,,,,,,,,,,,,,,,,,,,,
null,,learn_phase(without_color)1,361094,,,,,,,,black_plus_sign,,,null,object_08b.png,object_07b.png,,,,,,,,,,,,,,,,,,,,,
null,,black_cross(without_color)1,362113,,,,,,,,blue,,,null,object_08b.png,object_07b.png,,,,,,,,,,,,,,,,,,,,,
null,,rt_plussign_withcolor1,362617,,,,,,,,blue,,,null,object_08b.png,object_07b.png,,,,,,,,,,,,,,,,,,,,,
1248.6999999284744,,rt_thecrossant_black1,363620,,,,,,,,black_plus_sign,,,49,,,,1,,,,,,1,,,,,,,,,,,,,
null,,color_black1,363733,,,,,,,,black_plus_sign,,,null,,,,,,,,,,,,,,,,,,,,,,,
null,,learn_phase(without_color)1,367244,,,,,,,,black_plus_sign,,,null,object_15b.png,object_12b.png,,,,,,,,,,,,,,,,,,,,,
null,,black_cross(without_color)1,368102,,,,,,,,green,,,null,object_15b.png,object_12b.png,,,,,,,,,,,,,,,,,,,,,
null,,rt_plussign_withcolor1,368611,,,,,,,,green,,,null,object_15b.png,object_12b.png,,,,,,,,,,,,,,,,,,,,,
1433.7000000476837,,rt_thecrossant_black1,369777,,,,,,,,black_plus_sign,,,50,,,,1,,,,,,1,,,,,,,,,,,,,
null,,color_black1,369892,,,,,,,,black_plus_sign,,,null,,,,,,,,,,,,,,,,,,,,,,,
null,,learn_phase(without_color)1,373400,,,,,,,,black_plus_sign,,,null,object_09a.png,object_01a.png,,,,,,,,,,,,,,,,,,,,,
null,,black_cross(without_color)1,374048,,,,,,,,green,,,null,object_09a.png,object_01a.png,,,,,,,,,,,,,,,,,,,,,
null,,rt_plussign_withcolor1,374556,,,,,,,,green,,,null,object_09a.png,object_01a.png,,,,,,,,,,,,,,,,,,,,,
1448.5,,rt_thecrossant_black1,375929,,,,,,,,black_plus_sign,,,50,,,,1,,,,,,1,,,,,,,,,,,,,
null,,color_black1,376033,,,,,,,,black_plus_sign,,,null,,,,,,,,,,,,,,,,,,,,,,,
null,,learn_phase(without_color)1,379545,,,,,,,,black_plus_sign,,,null,object_05a.png,object_10a.png,,,,,,,,,,,,,,,,,,,,,
null,,black_cross(without_color)1,379994,,,,,,,,blue,,,null,object_05a.png,object_10a.png,,,,,,,,,,,,,,,,,,,,,
null,,rt_plussign_withcolor1,380510,,,,,,,,blue,,,null,object_05a.png,object_10a.png,,,,,,,,,,,,,,,,,,,,,
1052.2000000476837,,rt_thecrossant_black1,382087,,,,,,,,black_plus_sign,,,49,,,,1,,,,,,1,,,,,,,,,,,,,
null,,color_black1,382194,,,,,,,,black_plus_sign,,,null,,,,,,,,,,,,,,,,,,,,,,,
null,,learn_phase(without_color)1,385707,,,,,,,,black_plus_sign,,,null,object_02a.png,object_02c.png,,,,,,,,,,,,,,,,,,,,,
null,,black_cross(without_color)1,386383,,,,,,,,blue,,,null,object_02a.png,object_02c.png,,,,,,,,,,,,,,,,,,,,,
null,,rt_plussign_withcolor1,386901,,,,,,,,blue,,,null,object_02a.png,object_02c.png,,,,,,,,,,,,,,,,,,,,,
676.1999999284744,,rt_thecrossant_black1,388244,,,,,,,,black_plus_sign,,,49,,,,1,,,,,,1,,,,,,,,,,,,,
null,,color_black1,388350,,,,,,,,black_plus_sign,,,null,,,,,,,,,,,,,,,,,,,,,,,
null,,learn_phase(without_color)1,391857,,,,,,,,black_plus_sign,,,null,object_02b.png,object_13b.png,,,,,,,,,,,,,,,,,,,,,
null,,black_cross(without_color)1,392300,,,,,,,,green,,,null,object_02b.png,object_13b.png,,,,,,,,,,,,,,,,,,,,,
null,,rt_plussign_withcolor1,392807,,,,,,,,green,,,null,object_02b.png,object_13b.png,,,,,,,,,,,,,,,,,,,,,
1112.6000000238419,,rt_thecrossant_black1,394387,,,,,,,,black_plus_sign,,,50,,,,1,,,,,,1,,,,,,,,,,,,,
null,,color_black1,394501,,,,,,,,black_plus_sign,,,null,,,,,,,,,,,,,,,,,,,,,,,
null,,learn_phase(without_color)1,398010,,,,,,,,black_plus_sign,,,null,object_07c.png,object_09b.png,,,,,,,,,,,,,,,,,,,,,
null,,black_cross(without_color)1,398527,,,,,,,,green,,,null,object_07c.png,object_09b.png,,,,,,,,,,,,,,,,,,,,,
null,,rt_plussign_withcolor1,399030,,,,,,,,green,,,null,object_07c.png,object_09b.png,,,,,,,,,,,,,,,,,,,,,
906,,rt_thecrossant_black1,400531,,,,,,,,black_plus_sign,,,50,,,,1,,,,,,1,,,,,,,,,,,,,
null,,color_black1,400642,,,,,,,,black_plus_sign,,,null,,,,,,,,,,,,,,,,,,,,,,,
null,,learn_phase(without_color)1,404153,,,,,,,,black_plus_sign,,,null,object_06b.png,object_15b.png,,,,,,,,,,,,,,,,,,,,,
null,,black_cross(without_color)1,404819,,,,,,,,green,,,null,object_06b.png,object_15b.png,,,,,,,,,,,,,,,,,,,,,
null,,rt_plussign_withcolor1,405328,,,,,,,,green,,,null,object_06b.png,object_15b.png,,,,,,,,,,,,,,,,,,,,,
795.2000000476837,,rt_thecrossant_black1,406686,,,,,,,,black_plus_sign,,,50,,,,1,,,,,,1,,,,,,,,,,,,,
null,,color_black1,406790,,,,,,,,black_plus_sign,,,null,,,,,,,,,,,,,,,,,,,,,,,
null,,learn_phase(without_color)1,410295,,,,,,,,black_plus_sign,,,null,object_03a.png,object_07a.png,,,,,,,,,,,,,,,,,,,,,
null,,black_cross(without_color)1,411056,,,,,,,,blue,,,null,object_03a.png,object_07a.png,,,,,,,,,,,,,,,,,,,,,
null,,rt_plussign_withcolor1,411562,,,,,,,,blue,,,null,object_03a.png,object_07a.png,,,,,,,,,,,,,,,,,,,,,
876.5999999046326,,rt_thecrossant_black1,412823,,,,,,,,black_plus_sign,,,49,,,,1,,,,,,1,,,,,,,,,,,,,
null,,color_black1,412929,,,,,,,,black_plus_sign,,,null,,,,,,,,,,,,,,,,,,,,,,,
null,,learn_phase(without_color)1,416435,,,,,,,,black_plus_sign,,,null,object_06a.png,object_05c.png,,,,,,,,,,,,,,,,,,,,,
null,,black_cross(without_color)1,417103,,,,,,,,blue,,,null,object_06a.png,object_05c.png,,,,,,,,,,,,,,,,,,,,,
null,,rt_plussign_withcolor1,417611,,,,,,,,blue,,,null,object_06a.png,object_05c.png,,,,,,,,,,,,,,,,,,,,,
1134.1000000238419,,rt_thecrossant_black1,418964,,,,,,,,black_plus_sign,,,49,,,,1,,,,,,1,,,,,,,,,,,,,
null,,color_black1,419074,,,,,,,,black_plus_sign,,,null,,,,,,,,,,,,,,,,,,,,,,,
null,,learn_phase(without_color)1,422588,,,,,,,,black_plus_sign,,,null,object_12a.png,object_15a.png,,,,,,,,,,,,,,,,,,,,,
null,,black_cross(without_color)1,423296,,,,,,,,green,,,null,object_12a.png,object_15a.png,,,,,,,,,,,,,,,,,,,,,
null,,rt_plussign_withcolor1,423812,,,,,,,,green,,,null,object_12a.png,object_15a.png,,,,,,,,,,,,,,,,,,,,,
1507.8999999761581,,rt_thecrossant_black1,425130,,,,,,,,black_plus_sign,,,50,,,,1,,,,,,1,,,,,,,,,,,,,
null,,color_black1,425241,,,,,,,,black_plus_sign,,,null,,,,,,,,,,,,,,,,,,,,,,,
null,,learn_phase(without_color)1,428746,,,,,,,,black_plus_sign,,,null,object_10b.png,object_08c.png,,,,,,,,,,,,,,,,,,,,,
null,,black_cross(without_color)1,429507,,,,,,,,green,,,null,object_10b.png,object_08c.png,,,,,,,,,,,,,,,,,,,,,
null,,rt_plussign_withcolor1,430015,,,,,,,,green,,,null,object_10b.png,object_08c.png,,,,,,,,,,,,,,,,,,,,,
1339.5,,rt_thecrossant_black1,431268,,,,,,,,black_plus_sign,,,50,,,,1,,,,,,1,,,,,,,,,,,,,
null,,color_black1,431381,,,,,,,,black_plus_sign,,,null,,,,,,,,,,,,,,,,,,,,,,,
null,,learn_phase(without_color)1,434895,,,,,,,,black_plus_sign,,,null,object_09c.png,object_12a.png,,,,,,,,,,,,,,,,,,,,,
null,,black_cross(without_color)1,435570,,,,,,,,blue,,,null,object_09c.png,object_12a.png,,,,,,,,,,,,,,,,,,,,,
null,,rt_plussign_withcolor1,436078,,,,,,,,blue,,,null,object_09c.png,object_12a.png,,,,,,,,,,,,,,,,,,,,,
1149.5,,rt_thecrossant_black1,437415,,,,,,,,black_plus_sign,,,49,,,,1,,,,,,1,,,,,,,,,,,,,
null,,color_black1,437522,,,,,,,,black_plus_sign,,,null,,,,,,,,,,,,,,,,,,,,,,,
null,,learn_phase(without_color)1,441028,,,,,,,,black_plus_sign,,,null,object_04a.png,object_01b.png,,,,,,,,,,,,,,,,,,,,,
null,,black_cross(without_color)1,441671,,,,,,,,green,,,null,object_04a.png,object_01b.png,,,,,,,,,,,,,,,,,,,,,
null,,rt_plussign_withcolor1,442180,,,,,,,,green,,,null,object_04a.png,object_01b.png,,,,,,,,,,,,,,,,,,,,,
1003.7999999523163,,rt_thecrossant_black1,443558,,,,,,,,black_plus_sign,,,50,,,,1,,,,,,1,,,,,,,,,,,,,
null,,color_black1,443672,,,,,,,,black_plus_sign,,,null,,,,,,,,,,,,,,,,,,,,,,,
null,,learn_phase(without_color)1,447179,,,,,,,,black_plus_sign,,,null,object_03c.png,object_04a.png,,,,,,,,,,,,,,,,,,,,,
null,,black_cross(without_color)1,448135,,,,,,,,green,,,null,object_03c.png,object_04a.png,,,,,,,,,,,,,,,,,,,,,
null,,rt_plussign_withcolor1,448648,,,,,,,,green,,,null,object_03c.png,object_04a.png,,,,,,,,,,,,,,,,,,,,,
1114.8999999761581,,rt_thecrossant_black1,449725,,,,,,,,black_plus_sign,,,50,,,,1,,,,,,1,,,,,,,,,,,,,
null,,color_black1,449839,,,,,,,,black_plus_sign,,,null,,,,,,,,,,,,,,,,,,,,,,,
null,,learn_phase(without_color)1,453351,,,,,,,,black_plus_sign,,,null,object_04c.png,object_03b.png,,,,,,,,,,,,,,,,,,,,,
null,,black_cross(without_color)1,453939,,,,,,,,blue,,,null,object_04c.png,object_03b.png,,,,,,,,,,,,,,,,,,,,,
null,,rt_plussign_withcolor1,454453,,,,,,,,blue,,,null,object_04c.png,object_03b.png,,,,,,,,,,,,,,,,,,,,,
1213.7999999523163,,rt_thecrossant_black1,455883,,,,,,,,black_plus_sign,,,49,,,,1,,,,,,1,,,,,,,,,,,,,
null,,color_black1,455990,,,,,,,,black_plus_sign,,,null,,,,,,,,,,,,,,,,,,,,,,,
null,,learn_phase(without_color)1,459498,,,,,,,,black_plus_sign,,,null,object_11b.png,object_11c.png,,,,,,,,,,,,,,,,,,,,,
null,,black_cross(without_color)1,460590,,,,,,,,blue,,,null,object_11b.png,object_11c.png,,,,,,,,,,,,,,,,,,,,,
null,,rt_plussign_withcolor1,461107,,,,,,,,blue,,,null,object_11b.png,object_11c.png,,,,,,,,,,,,,,,,,,,,,
986.8999999761581,,rt_thecrossant_black1,462028,,,,,,,,black_plus_sign,,,49,,,,1,,,,,,1,,,,,,,,,,,,,
null,,color_black1,462139,,,,,,,,black_plus_sign,,,null,,,,,,,,,,,,,,,,,,,,,,,
null,,learn_phase(without_color)1,465654,,,,,,,,black_plus_sign,,,null,object_07a.png,object_13a.png,,,,,,,,,,,,,,,,,,,,,
null,,black_cross(without_color)1,466637,,,,,,,,blue,,,null,object_07a.png,object_13a.png,,,,,,,,,,,,,,,,,,,,,
null,,rt_plussign_withcolor1,467149,,,,,,,,blue,,,null,object_07a.png,object_13a.png,,,,,,,,,,,,,,,,,,,,,
1404.7000000476837,,rt_thecrossant_black1,468186,,,,,,,,black_plus_sign,,,49,,,,1,,,,,,1,,,,,,,,,,,,,
null,,color_black1,468305,,,,,,,,black_plus_sign,,,null,,,,,,,,,,,,,,,,,,,,,,,
null,,learn_phase(without_color)1,471809,,,,,,,,black_plus_sign,,,null,object_08c.png,object_05b.png,,,,,,,,,,,,,,,,,,,,,
null,,black_cross(without_color)1,472640,,,,,,,,blue,,,null,object_08c.png,object_05b.png,,,,,,,,,,,,,,,,,,,,,
null,,rt_plussign_withcolor1,473150,,,,,,,,blue,,,null,object_08c.png,object_05b.png,,,,,,,,,,,,,,,,,,,,,
1268.3999999761581,,rt_thecrossant_black1,474341,,,,,,,,black_plus_sign,,,49,,,,1,,,,,,1,,,,,,,,,,,,,
null,,color_black1,474458,,,,,,,,black_plus_sign,,,null,,,,,,,,,,,,,,,,,,,,,,,
null,,learn_phase(without_color)1,477998,,,,,,,,black_plus_sign,,,null,object_09b.png,object_12c.png,,,,,,,,,,,,,,,,,,,,,
null,,black_cross(without_color)1,479040,,,,,,,,green,,,null,object_09b.png,object_12c.png,,,,,,,,,,,,,,,,,,,,,
null,,rt_plussign_withcolor1,479556,,,,,,,,green,,,null,object_09b.png,object_12c.png,,,,,,,,,,,,,,,,,,,,,
1132.8000000715256,,rt_thecrossant_black1,480540,,,,,,,,black_plus_sign,,,50,,,,1,,,,,,1,,,,,,,,,,,,,
null,,color_black1,480649,,,,,,,,black_plus_sign,,,null,,,,,,,,,,,,,,,,,,,,,,,
null,,thebreak,480767,,,,,,,,<p></p>,,,null,,,,,,,,,,,,,,,,,,,,,,,
2256.5,,intro_0,483025,,,,,,,,instruct,,,32,,,,,,,,,,,,,,,,,,,,,,,
4579.799999952316,,directmemory_phase1,487608,,,,,,,,object_07b.png,,,49,,,,0,object_14a.png,object_11a.png,object_08b.png,object_08b.png,,0,,0,,,,,,,,,,,
8419.899999976158,,directmemory_phase1,496033,,,,,,,,object_05a.png,,,49,,,,1,object_04b.png,object_15c.png,object_09a.png,object_04b.png,,0.5,,1,,,,,,,,,,,
6190.899999976158,,directmemory_phase1,502229,,,,,,,,object_02c.png,,,49,,,,1,object_02a.png,object_04c.png,object_10b.png,object_02a.png,,0.6666666666666666,,1,,,,,,,,,,,
3444.7000000476837,,directmemory_phase1,505678,,,,,,,,object_12a.png,,,50,,,,1,object_11a.png,object_09c.png,object_14a.png,object_09c.png,,0.75,,1,,,,,,,,,,,
4270.100000023842,,directmemory_phase1,509952,,,,,,,,object_11b.png,,,50,,,,0,object_11a.png,object_02b.png,object_15c.png,object_15c.png,,0.6,,0,,,,,,,,,,,
6214.399999976158,,directmemory_phase1,516170,,,,,,,,object_06c.png,,,50,,,,1,object_12a.png,object_01a.png,object_13b.png,object_01a.png,,0.6666666666666666,,1,,,,,,,,,,,
4618,,directmemory_phase1,520792,,,,,,,,object_11c.png,,,49,,,,1,object_11b.png,object_13b.png,object_02c.png,object_11b.png,,0.7142857142857143,,1,,,,,,,,,,,
2794.3000000715256,,directmemory_phase1,523591,,,,,,,,object_03b.png,,,49,,,,1,object_04c.png,object_09c.png,object_09a.png,object_04c.png,,0.75,,1,,,,,,,,,,,
6804.100000023842,,directmemory_phase1,530399,,,,,,,,object_13c.png,,,50,,,,1,object_04a.png,object_13b.png,object_07a.png,object_13b.png,,0.7777777777777778,,1,,,,,,,,,,,
6550.5,,directmemory_phase1,536953,,,,,,,,object_08a.png,,,50,,,,1,object_08c.png,object_03b.png,object_04a.png,object_03b.png,,0.8,,1,,,,,,,,,,,
5376.600000023842,,directmemory_phase1,542333,,,,,,,,object_01c.png,,,51,,,,1,object_04a.png,object_11b.png,object_02c.png,object_02c.png,,0.8181818181818182,,1,,,,,,,,,,,
3207.600000023842,,directmemory_phase1,545545,,,,,,,,object_10c.png,,,51,,,,1,object_03a.png,object_03c.png,object_11a.png,object_11a.png,,0.8333333333333334,,1,,,,,,,,,,,
3510.899999976158,,directmemory_phase1,549059,,,,,,,,object_10a.png,,,50,,,,1,object_09b.png,object_05a.png,object_06a.png,object_05a.png,,0.8461538461538461,,1,,,,,,,,,,,
6527.299999952316,,directmemory_phase1,555590,,,,,,,,object_14b.png,,,50,,,,1,object_06a.png,object_10c.png,object_01a.png,object_10c.png,,0.8571428571428571,,1,,,,,,,,,,,
2797,,directmemory_phase1,558391,,,,,,,,object_13b.png,,,50,,,,1,object_09c.png,object_02b.png,object_02a.png,object_02b.png,,0.8666666666666667,,1,,,,,,,,,,,
7976.100000023842,,directmemory_phase1,566372,,,,,,,,object_15b.png,,,49,,,,1,object_06b.png,object_15c.png,object_10b.png,object_06b.png,,0.875,,1,,,,,,,,,,,
2089.600000023842,,directmemory_phase1,568466,,,,,,,,object_15a.png,,,49,,,,1,object_12a.png,object_02c.png,object_07b.png,object_12a.png,,0.8823529411764706,,1,,,,,,,,,,,
5099.799999952316,,directmemory_phase1,573570,,,,,,,,object_06a.png,,,50,,,,1,object_04c.png,object_14a.png,object_07c.png,object_14a.png,,0.8888888888888888,,1,,,,,,,,,,,
5594.5,,directmemory_phase1,579169,,,,,,,,object_05c.png,,,51,,,,1,object_07a.png,object_07b.png,object_06a.png,object_06a.png,,0.8947368421052632,,1,,,,,,,,,,,
6819,,directmemory_phase1,585992,,,,,,,,object_01a.png,,,50,,,,1,object_07c.png,object_09a.png,object_02b.png,object_09a.png,,0.9,,1,,,,,,,,,,,
6516.800000071526,,directmemory_phase1,592512,,,,,,,,object_07a.png,,,51,,,,1,object_14a.png,object_15c.png,object_03a.png,object_03a.png,,0.9047619047619048,,1,,,,,,,,,,,
5123.599999904633,,directmemory_phase1,597640,,,,,,,,object_12c.png,,,51,,,,0,object_09b.png,object_04a.png,object_07b.png,object_09b.png,,0.8636363636363636,,0,,,,,,,,,,,
10430.200000047684,,directmemory_phase1,608075,,,,,,,,object_08c.png,,,50,,,,1,object_04c.png,object_10b.png,object_14a.png,object_10b.png,,0.8695652173913043,,1,,,,,,,,,,,
2908.899999976158,,directmemory_phase1,610989,,,,,,,,object_09b.png,,,50,,,,1,object_03c.png,object_07c.png,object_02b.png,object_07c.png,,0.875,,1,,,,,,,,,,,
4276.699999928474,,directmemory_phase1,615271,,,,,,,,object_05b.png,,,49,,,,1,object_08c.png,object_04a.png,object_01a.png,object_08c.png,,0.88,,1,,,,,,,,,,,
2796.7999999523163,,directmemory_phase1,618071,,,,,,,,object_04a.png,,,51,,,,1,object_07c.png,object_03a.png,object_03c.png,object_03c.png,,0.8846153846153846,,1,,,,,,,,,,,
3264.2000000476837,,directmemory_phase1,621341,,,,,,,,object_13a.png,,,49,,,,1,object_07a.png,object_12a.png,object_10c.png,object_07a.png,,0.8888888888888888,,1,,,,,,,,,,,
3442.6999999284744,,directmemory_phase1,624788,,,,,,,,object_12b.png,,,49,,,,1,object_15b.png,object_03b.png,object_02c.png,object_15b.png,,0.8928571428571429,,1,,,,,,,,,,,
9612.299999952316,,directmemory_phase1,634404,,,,,,,,object_01b.png,,,50,,,,1,object_15b.png,object_04a.png,object_07b.png,object_04a.png,,0.896551724137931,,1,,,,,,,,,,,
4394.100000023842,,directmemory_phase1,638803,,,,,,,,object_14c.png,,,49,,,,1,object_07b.png,object_12a.png,object_03b.png,object_07b.png,,0.9,,1,,,,,,,,,,,
null,,thebreak,638921,,,,,,,,<p></p>,,,null,,,,,,,,,,,,,,,,,,,,,,,
5073.899999976158,,intro_0,643997,,,,,,,,instruct,,,32,,,,,,,,,,,,,,,,,,,,,,,
null,,learn_phase(without_color)2,647508,,,,,,,,black_plus_sign,,,null,object_02c.png,object_01c.png,,,,,,,,,,,,,,,,,,,,,
null,,black_cross(without_color)2,648109,,,,,,,,green,,,null,object_02c.png,object_01c.png,,,,,,,,,,,,,,,,,,,,,
null,,rt_plussign_withcolor2,648612,,,,,,,,green,,,null,object_02c.png,object_01c.png,,,,,,,,,,,,,,,,,,,,,
854.8999999761581,,rt_thecrossant_black2,650038,,,,,,,,black_plus_sign,,,50,,,,1,,,,,,1,,,,,,,,,,,,,
null,,color_black2,650146,,,,,,,,black_plus_sign,,,null,,,,,,,,,,,,,,,,,,,,,,,
null,,learn_phase(without_color)2,653664,,,,,,,,black_plus_sign,,,null,object_09b.png,object_12c.png,,,,,,,,,,,,,,,,,,,,,
null,,black_cross(without_color)2,654275,,,,,,,,blue,,,null,object_09b.png,object_12c.png,,,,,,,,,,,,,,,,,,,,,
null,,rt_plussign_withcolor2,654783,,,,,,,,blue,,,null,object_09b.png,object_12c.png,,,,,,,,,,,,,,,,,,,,,
878.3999999761581,,rt_thecrossant_black2,656196,,,,,,,,black_plus_sign,,,49,,,,1,,,,,,1,,,,,,,,,,,,,
null,,color_black2,656311,,,,,,,,black_plus_sign,,,null,,,,,,,,,,,,,,,,,,,,,,,
null,,learn_phase(without_color)2,659821,,,,,,,,black_plus_sign,,,null,object_10b.png,object_08c.png,,,,,,,,,,,,,,,,,,,,,
null,,black_cross(without_color)2,660914,,,,,,,,green,,,null,object_10b.png,object_08c.png,,,,,,,,,,,,,,,,,,,,,
null,,rt_plussign_withcolor2,661430,,,,,,,,green,,,null,object_10b.png,object_08c.png,,,,,,,,,,,,,,,,,,,,,
966.5,,rt_thecrossant_black2,662355,,,,,,,,black_plus_sign,,,50,,,,1,,,,,,1,,,,,,,,,,,,,
null,,color_black2,662463,,,,,,,,black_plus_sign,,,null,,,,,,,,,,,,,,,,,,,,,,,
null,,learn_phase(without_color)2,665977,,,,,,,,black_plus_sign,,,null,object_11b.png,object_11c.png,,,,,,,,,,,,,,,,,,,,,
null,,black_cross(without_color)2,667076,,,,,,,,blue,,,null,object_11b.png,object_11c.png,,,,,,,,,,,,,,,,,,,,,
428.89999997615814,,rt_plussign_withcolor2,667586,,,,,,,,blue,,,49,object_11b.png,object_11c.png,,,,,,,,,,,,,,,,,,,,,
null,,rt_thecrossant_black2,668511,,,,,,,,black_plus_sign,,,null,,,,1,,,,,,1,,,,,,,,,,,,,
null,,color_black2,668615,,,,,,,,black_plus_sign,,,null,,,,,,,,,,,,,,,,,,,,,,,
null,,learn_phase(without_color)2,672124,,,,,,,,black_plus_sign,,,null,object_09a.png,object_01a.png,,,,,,,,,,,,,,,,,,,,,
null,,black_cross(without_color)2,672686,,,,,,,,blue,,,null,object_09a.png,object_01a.png,,,,,,,,,,,,,,,,,,,,,
null,,rt_plussign_withcolor2,673202,,,,,,,,blue,,,null,object_09a.png,object_01a.png,,,,,,,,,,,,,,,,,,,,,
1303.2000000476837,,rt_thecrossant_black2,674665,,,,,,,,black_plus_sign,,,49,,,,1,,,,,,1,,,,,,,,,,,,,
null,,color_black2,674772,,,,,,,,black_plus_sign,,,null,,,,,,,,,,,,,,,,,,,,,,,
null,,learn_phase(without_color)2,678288,,,,,,,,black_plus_sign,,,null,object_07c.png,object_09b.png,,,,,,,,,,,,,,,,,,,,,
null,,black_cross(without_color)2,679102,,,,,,,,green,,,null,object_07c.png,object_09b.png,,,,,,,,,,,,,,,,,,,,,
null,,rt_plussign_withcolor2,679606,,,,,,,,green,,,null,object_07c.png,object_09b.png,,,,,,,,,,,,,,,,,,,,,
761.7999999523163,,rt_thecrossant_black2,680805,,,,,,,,black_plus_sign,,,50,,,,1,,,,,,1,,,,,,,,,,,,,
null,,color_black2,680912,,,,,,,,black_plus_sign,,,null,,,,,,,,,,,,,,,,,,,,,,,
null,,learn_phase(without_color)2,684418,,,,,,,,black_plus_sign,,,null,object_01a.png,object_06c.png,,,,,,,,,,,,,,,,,,,,,
null,,black_cross(without_color)2,685495,,,,,,,,blue,,,null,object_01a.png,object_06c.png,,,,,,,,,,,,,,,,,,,,,
null,,rt_plussign_withcolor2,686003,,,,,,,,blue,,,null,object_01a.png,object_06c.png,,,,,,,,,,,,,,,,,,,,,
1100,,rt_thecrossant_black2,686941,,,,,,,,black_plus_sign,,,49,,,,1,,,,,,1,,,,,,,,,,,,,
null,,color_black2,687060,,,,,,,,black_plus_sign,,,null,,,,,,,,,,,,,,,,,,,,,,,
null,,learn_phase(without_color)2,690571,,,,,,,,black_plus_sign,,,null,object_11a.png,object_10c.png,,,,,,,,,,,,,,,,,,,,,
null,,black_cross(without_color)2,691087,,,,,,,,blue,,,null,object_11a.png,object_10c.png,,,,,,,,,,,,,,,,,,,,,
null,,rt_plussign_withcolor2,691598,,,,,,,,blue,,,null,object_11a.png,object_10c.png,,,,,,,,,,,,,,,,,,,,,
1528.2999999523163,,rt_thecrossant_black2,693102,,,,,,,,black_plus_sign,,,49,,,,1,,,,,,1,,,,,,,,,,,,,
null,,color_black2,693219,,,,,,,,black_plus_sign,,,null,,,,,,,,,,,,,,,,,,,,,,,
null,,learn_phase(without_color)2,696735,,,,,,,,black_plus_sign,,,null,object_09c.png,object_12a.png,,,,,,,,,,,,,,,,,,,,,
null,,black_cross(without_color)2,697528,,,,,,,,blue,,,null,object_09c.png,object_12a.png,,,,,,,,,,,,,,,,,,,,,
null,,rt_plussign_withcolor2,698039,,,,,,,,blue,,,null,object_09c.png,object_12a.png,,,,,,,,,,,,,,,,,,,,,
731.2999999523163,,rt_thecrossant_black2,699266,,,,,,,,black_plus_sign,,,49,,,,1,,,,,,1,,,,,,,,,,,,,
null,,color_black2,699371,,,,,,,,black_plus_sign,,,null,,,,,,,,,,,,,,,,,,,,,,,
null,,learn_phase(without_color)2,702875,,,,,,,,black_plus_sign,,,null,object_12a.png,object_15a.png,,,,,,,,,,,,,,,,,,,,,
null,,black_cross(without_color)2,703492,,,,,,,,green,,,null,object_12a.png,object_15a.png,,,,,,,,,,,,,,,,,,,,,
null,,rt_plussign_withcolor2,704012,,,,,,,,green,,,null,object_12a.png,object_15a.png,,,,,,,,,,,,,,,,,,,,,
1217.7999999523163,,rt_thecrossant_black2,705417,,,,,,,,black_plus_sign,,,50,,,,1,,,,,,1,,,,,,,,,,,,,
null,,color_black2,705523,,,,,,,,black_plus_sign,,,null,,,,,,,,,,,,,,,,,,,,,,,
null,,learn_phase(without_color)2,709040,,,,,,,,black_plus_sign,,,null,object_07a.png,object_13a.png,,,,,,,,,,,,,,,,,,,,,
null,,black_cross(without_color)2,710022,,,,,,,,green,,,null,object_07a.png,object_13a.png,,,,,,,,,,,,,,,,,,,,,
null,,rt_plussign_withcolor2,710537,,,,,,,,green,,,null,object_07a.png,object_13a.png,,,,,,,,,,,,,,,,,,,,,
915.6000000238419,,rt_thecrossant_black2,711572,,,,,,,,black_plus_sign,,,50,,,,1,,,,,,1,,,,,,,,,,,,,
null,,color_black2,711684,,,,,,,,black_plus_sign,,,null,,,,,,,,,,,,,,,,,,,,,,,
null,,learn_phase(without_color)2,715202,,,,,,,,black_plus_sign,,,null,object_03a.png,object_07a.png,,,,,,,,,,,,,,,,,,,,,
null,,black_cross(without_color)2,715823,,,,,,,,blue,,,null,object_03a.png,object_07a.png,,,,,,,,,,,,,,,,,,,,,
null,,rt_plussign_withcolor2,716338,,,,,,,,blue,,,null,object_03a.png,object_07a.png,,,,,,,,,,,,,,,,,,,,,
1288.8999999761581,,rt_thecrossant_black2,717748,,,,,,,,black_plus_sign,,,49,,,,1,,,,,,1,,,,,,,,,,,,,
null,,color_black2,717864,,,,,,,,black_plus_sign,,,null,,,,,,,,,,,,,,,,,,,,,,,
null,,learn_phase(without_color)2,721374,,,,,,,,black_plus_sign,,,null,object_15c.png,object_11b.png,,,,,,,,,,,,,,,,,,,,,
null,,black_cross(without_color)2,721856,,,,,,,,green,,,null,object_15c.png,object_11b.png,,,,,,,,,,,,,,,,,,,,,
null,,rt_plussign_withcolor2,722373,,,,,,,,green,,,null,object_15c.png,object_11b.png,,,,,,,,,,,,,,,,,,,,,
948.8999999761581,,rt_thecrossant_black2,723917,,,,,,,,black_plus_sign,,,50,,,,1,,,,,,1,,,,,,,,,,,,,
null,,color_black2,724025,,,,,,,,black_plus_sign,,,null,,,,,,,,,,,,,,,,,,,,,,,
null,,learn_phase(without_color)2,727540,,,,,,,,black_plus_sign,,,null,object_04c.png,object_03b.png,,,,,,,,,,,,,,,,,,,,,
null,,black_cross(without_color)2,728477,,,,,,,,blue,,,null,object_04c.png,object_03b.png,,,,,,,,,,,,,,,,,,,,,
null,,rt_plussign_withcolor2,728988,,,,,,,,blue,,,null,object_04c.png,object_03b.png,,,,,,,,,,,,,,,,,,,,,
654.3000000715256,,rt_thecrossant_black2,730082,,,,,,,,black_plus_sign,,,49,,,,1,,,,,,1,,,,,,,,,,,,,
null,,color_black2,730188,,,,,,,,black_plus_sign,,,null,,,,,,,,,,,,,,,,,,,,,,,
null,,learn_phase(without_color)2,733700,,,,,,,,black_plus_sign,,,null,object_07b.png,object_14c.png,,,,,,,,,,,,,,,,,,,,,
null,,black_cross(without_color)2,734751,,,,,,,,green,,,null,object_07b.png,object_14c.png,,,,,,,,,,,,,,,,,,,,,
null,,rt_plussign_withcolor2,735259,,,,,,,,green,,,null,object_07b.png,object_14c.png,,,,,,,,,,,,,,,,,,,,,
1445.1000000238419,,rt_thecrossant_black2,736234,,,,,,,,black_plus_sign,,,50,,,,1,,,,,,1,,,,,,,,,,,,,
null,,color_black2,736348,,,,,,,,black_plus_sign,,,null,,,,,,,,,,,,,,,,,,,,,,,
null,,learn_phase(without_color)2,739853,,,,,,,,black_plus_sign,,,null,object_03c.png,object_04a.png,,,,,,,,,,,,,,,,,,,,,
null,,black_cross(without_color)2,740301,,,,,,,,blue,,,null,object_03c.png,object_04a.png,,,,,,,,,,,,,,,,,,,,,
null,,rt_plussign_withcolor2,740807,,,,,,,,blue,,,null,object_03c.png,object_04a.png,,,,,,,,,,,,,,,,,,,,,
1291,,rt_thecrossant_black2,742376,,,,,,,,black_plus_sign,,,49,,,,1,,,,,,1,,,,,,,,,,,,,
null,,color_black2,742490,,,,,,,,black_plus_sign,,,null,,,,,,,,,,,,,,,,,,,,,,,
null,,learn_phase(without_color)2,746001,,,,,,,,black_plus_sign,,,null,object_03b.png,object_08a.png,,,,,,,,,,,,,,,,,,,,,
null,,black_cross(without_color)2,747055,,,,,,,,green,,,null,object_03b.png,object_08a.png,,,,,,,,,,,,,,,,,,,,,
477.60000002384186,,rt_plussign_withcolor2,747567,,,,,,,,green,,,50,object_03b.png,object_08a.png,,,,,,,,,,,,,,,,,,,,,
null,,rt_thecrossant_black2,748539,,,,,,,,black_plus_sign,,,null,,,,1,,,,,,1,,,,,,,,,,,,,
null,,color_black2,748649,,,,,,,,black_plus_sign,,,null,,,,,,,,,,,,,,,,,,,,,,,
null,,learn_phase(without_color)2,752164,,,,,,,,black_plus_sign,,,null,object_14a.png,object_06a.png,,,,,,,,,,,,,,,,,,,,,
null,,black_cross(without_color)2,753057,,,,,,,,blue,,,null,object_14a.png,object_06a.png,,,,,,,,,,,,,,,,,,,,,
null,,rt_plussign_withcolor2,753567,,,,,,,,blue,,,null,object_14a.png,object_06a.png,,,,,,,,,,,,,,,,,,,,,
1250.5,,rt_thecrossant_black2,754703,,,,,,,,black_plus_sign,,,49,,,,1,,,,,,1,,,,,,,,,,,,,
null,,color_black2,754811,,,,,,,,black_plus_sign,,,null,,,,,,,,,,,,,,,,,,,,,,,
null,,learn_phase(without_color)2,758324,,,,,,,,black_plus_sign,,,null,object_06b.png,object_15b.png,,,,,,,,,,,,,,,,,,,,,
null,,black_cross(without_color)2,759181,,,,,,,,blue,,,null,object_06b.png,object_15b.png,,,,,,,,,,,,,,,,,,,,,
null,,rt_plussign_withcolor2,759697,,,,,,,,blue,,,null,object_06b.png,object_15b.png,,,,,,,,,,,,,,,,,,,,,
993,,rt_thecrossant_black2,760871,,,,,,,,black_plus_sign,,,49,,,,1,,,,,,1,,,,,,,,,,,,,
null,,color_black2,760989,,,,,,,,black_plus_sign,,,null,,,,,,,,,,,,,,,,,,,,,,,
null,,learn_phase(without_color)2,764494,,,,,,,,black_plus_sign,,,null,object_15b.png,object_12b.png,,,,,,,,,,,,,,,,,,,,,
null,,black_cross(without_color)2,765482,,,,,,,,blue,,,null,object_15b.png,object_12b.png,,,,,,,,,,,,,,,,,,,,,
null,,rt_plussign_withcolor2,765985,,,,,,,,blue,,,null,object_15b.png,object_12b.png,,,,,,,,,,,,,,,,,,,,,
1108.7999999523163,,rt_thecrossant_black2,767015,,,,,,,,black_plus_sign,,,49,,,,1,,,,,,1,,,,,,,,,,,,,
null,,color_black2,767118,,,,,,,,black_plus_sign,,,null,,,,,,,,,,,,,,,,,,,,,,,
null,,learn_phase(without_color)2,770635,,,,,,,,black_plus_sign,,,null,object_02a.png,object_02c.png,,,,,,,,,,,,,,,,,,,,,
null,,black_cross(without_color)2,771679,,,,,,,,blue,,,null,object_02a.png,object_02c.png,,,,,,,,,,,,,,,,,,,,,
null,,rt_plussign_withcolor2,772196,,,,,,,,blue,,,null,object_02a.png,object_02c.png,,,,,,,,,,,,,,,,,,,,,
1195,,rt_thecrossant_black2,773185,,,,,,,,black_plus_sign,,,49,,,,1,,,,,,1,,,,,,,,,,,,,
null,,color_black2,773297,,,,,,,,black_plus_sign,,,null,,,,,,,,,,,,,,,,,,,,,,,
null,,learn_phase(without_color)2,776806,,,,,,,,black_plus_sign,,,null,object_05a.png,object_10a.png,,,,,,,,,,,,,,,,,,,,,
null,,black_cross(without_color)2,777270,,,,,,,,blue,,,null,object_05a.png,object_10a.png,,,,,,,,,,,,,,,,,,,,,
null,,rt_plussign_withcolor2,777775,,,,,,,,blue,,,null,object_05a.png,object_10a.png,,,,,,,,,,,,,,,,,,,,,
1244.8999999761581,,rt_thecrossant_black2,779338,,,,,,,,black_plus_sign,,,49,,,,1,,,,,,1,,,,,,,,,,,,,
null,,color_black2,779448,,,,,,,,black_plus_sign,,,null,,,,,,,,,,,,,,,,,,,,,,,
null,,learn_phase(without_color)2,782966,,,,,,,,black_plus_sign,,,null,object_02b.png,object_13b.png,,,,,,,,,,,,,,,,,,,,,
null,,black_cross(without_color)2,783994,,,,,,,,green,,,null,object_02b.png,object_13b.png,,,,,,,,,,,,,,,,,,,,,
492.2000000476837,,rt_plussign_withcolor2,784503,,,,,,,,green,,,50,object_02b.png,object_13b.png,,,,,,,,,,,,,,,,,,,,,
null,,rt_thecrossant_black2,785491,,,,,,,,black_plus_sign,,,null,,,,1,,,,,,1,,,,,,,,,,,,,
null,,color_black2,785607,,,,,,,,black_plus_sign,,,null,,,,,,,,,,,,,,,,,,,,,,,
null,,learn_phase(without_color)2,789125,,,,,,,,black_plus_sign,,,null,object_10c.png,object_14b.png,,,,,,,,,,,,,,,,,,,,,
null,,black_cross(without_color)2,789925,,,,,,,,blue,,,null,object_10c.png,object_14b.png,,,,,,,,,,,,,,,,,,,,,
null,,rt_plussign_withcolor2,790432,,,,,,,,blue,,,null,object_10c.png,object_14b.png,,,,,,,,,,,,,,,,,,,,,
1269.5,,rt_thecrossant_black2,791648,,,,,,,,black_plus_sign,,,49,,,,1,,,,,,1,,,,,,,,,,,,,
null,,color_black2,791758,,,,,,,,black_plus_sign,,,null,,,,,,,,,,,,,,,,,,,,,,,
null,,learn_phase(without_color)2,795276,,,,,,,,black_plus_sign,,,null,object_08b.png,object_07b.png,,,,,,,,,,,,,,,,,,,,,
null,,black_cross(without_color)2,795931,,,,,,,,blue,,,null,object_08b.png,object_07b.png,,,,,,,,,,,,,,,,,,,,,
null,,rt_plussign_withcolor2,796447,,,,,,,,blue,,,null,object_08b.png,object_07b.png,,,,,,,,,,,,,,,,,,,,,
967.0999999046326,,rt_thecrossant_black2,797812,,,,,,,,black_plus_sign,,,49,,,,1,,,,,,1,,,,,,,,,,,,,
null,,color_black2,797924,,,,,,,,black_plus_sign,,,null,,,,,,,,,,,,,,,,,,,,,,,
null,,learn_phase(without_color)2,801435,,,,,,,,black_plus_sign,,,null,object_08c.png,object_05b.png,,,,,,,,,,,,,,,,,,,,,
null,,black_cross(without_color)2,802446,,,,,,,,green,,,null,object_08c.png,object_05b.png,,,,,,,,,,,,,,,,,,,,,
473.2000000476837,,rt_plussign_withcolor2,802950,,,,,,,,green,,,50,object_08c.png,object_05b.png,,,,,,,,,,,,,,,,,,,,,
null,,rt_thecrossant_black2,803966,,,,,,,,black_plus_sign,,,null,,,,1,,,,,,1,,,,,,,,,,,,,
null,,color_black2,804086,,,,,,,,black_plus_sign,,,null,,,,,,,,,,,,,,,,,,,,,,,
null,,learn_phase(without_color)2,807595,,,,,,,,black_plus_sign,,,null,object_06a.png,object_05c.png,,,,,,,,,,,,,,,,,,,,,
null,,black_cross(without_color)2,808492,,,,,,,,green,,,null,object_06a.png,object_05c.png,,,,,,,,,,,,,,,,,,,,,
null,,rt_plussign_withcolor2,809008,,,,,,,,green,,,null,object_06a.png,object_05c.png,,,,,,,,,,,,,,,,,,,,,
1294,,rt_thecrossant_black2,810119,,,,,,,,black_plus_sign,,,50,,,,1,,,,,,1,,,,,,,,,,,,,
null,,color_black2,810227,,,,,,,,black_plus_sign,,,null,,,,,,,,,,,,,,,,,,,,,,,
null,,learn_phase(without_color)2,813743,,,,,,,,black_plus_sign,,,null,object_13b.png,object_13c.png,,,,,,,,,,,,,,,,,,,,,
null,,black_cross(without_color)2,814197,,,,,,,,blue,,,null,object_13b.png,object_13c.png,,,,,,,,,,,,,,,,,,,,,
null,,rt_plussign_withcolor2,814712,,,,,,,,blue,,,null,object_13b.png,object_13c.png,,,,,,,,,,,,,,,,,,,,,
1102.2000000476837,,rt_thecrossant_black2,816264,,,,,,,,black_plus_sign,,,49,,,,1,,,,,,1,,,,,,,,,,,,,
null,,color_black2,816376,,,,,,,,black_plus_sign,,,null,,,,,,,,,,,,,,,,,,,,,,,
null,,learn_phase(without_color)2,819887,,,,,,,,black_plus_sign,,,null,object_04a.png,object_01b.png,,,,,,,,,,,,,,,,,,,,,
null,,black_cross(without_color)2,820945,,,,,,,,blue,,,null,object_04a.png,object_01b.png,,,,,,,,,,,,,,,,,,,,,
null,,rt_plussign_withcolor2,821463,,,,,,,,blue,,,null,object_04a.png,object_01b.png,,,,,,,,,,,,,,,,,,,,,
632.8999999761581,,rt_thecrossant_black2,822419,,,,,,,,black_plus_sign,,,49,,,,1,,,,,,1,,,,,,,,,,,,,
null,,color_black2,822528,,,,,,,,black_plus_sign,,,null,,,,,,,,,,,,,,,,,,,,,,,
null,,learn_phase(without_color)2,826042,,,,,,,,black_plus_sign,,,null,object_04b.png,object_05a.png,,,,,,,,,,,,,,,,,,,,,
null,,black_cross(without_color)2,826682,,,,,,,,green,,,null,object_04b.png,object_05a.png,,,,,,,,,,,,,,,,,,,,,
null,,rt_plussign_withcolor2,827196,,,,,,,,green,,,null,object_04b.png,object_05a.png,,,,,,,,,,,,,,,,,,,,,
1367.8000000715256,,rt_thecrossant_black2,828581,,,,,,,,black_plus_sign,,,50,,,,1,,,,,,1,,,,,,,,,,,,,
null,,color_black2,828694,,,,,,,,black_plus_sign,,,null,,,,,,,,,,,,,,,,,,,,,,,
null,,thebreak,828806,,,,,,,,<p></p>,,,null,,,,,,,,,,,,,,,,,,,,,,,
16636.5,,intro_0,845445,,,,,,,,instruct,,,32,,,,,,,,,,,,,,,,,,,,,,,
6061.300000071526,,directmemory_phase2,851510,,,,,,,,object_06a.png,,,50,,,,1,object_15c.png,object_14a.png,object_10b.png,object_14a.png,,0.9032258064516129,,1,,,,,,,,,,,
7232.599999904633,,directmemory_phase2,858747,,,,,,,,object_05c.png,,,51,,,,1,object_15b.png,object_11b.png,object_06a.png,object_06a.png,,0.90625,,1,,,,,,,,,,,
14415.699999928474,,directmemory_phase2,873168,,,,,,,,object_13c.png,,,51,,,,0,object_11b.png,object_13b.png,object_15b.png,object_13b.png,,0.8787878787878788,,0,,,,,,,,,,,
10166.199999928474,,directmemory_phase2,883339,,,,,,,,object_05b.png,,,50,,,,1,object_01a.png,object_08c.png,object_12a.png,object_08c.png,,0.8823529411764706,,1,,,,,,,,,,,
9851,,directmemory_phase2,893194,,,,,,,,object_07b.png,,,50,,,,0,object_08b.png,object_04c.png,object_07c.png,object_08b.png,,0.8571428571428571,,0,,,,,,,,,,,
9215.600000023842,,directmemory_phase2,902414,,,,,,,,object_12b.png,,,50,,,,0,object_15b.png,object_12a.png,object_02c.png,object_15b.png,,0.8333333333333334,,0,,,,,,,,,,,
5627.799999952316,,directmemory_phase2,908047,,,,,,,,object_15b.png,,,51,,,,1,object_09a.png,object_08b.png,object_06b.png,object_06b.png,,0.8378378378378378,,1,,,,,,,,,,,
null,,directmemory_phase2,923058,,,,,,,,object_12c.png,,,null,,,,0,object_07b.png,object_06a.png,object_09b.png,object_09b.png,,0.8157894736842105,,0,,,,,,,,,,,
null,,warning_page,928072,,,,,,,,warning,,,null,,,,,,,,,,,,,,,,,,,,,,,
2862.7999999523163,,directmemory_phase2,930937,,,,,,,,object_07a.png,,,50,,,,1,object_04c.png,object_03a.png,object_10b.png,object_03a.png,,0.8205128205128205,,1,,,,,,,,,,,
3383.2000000476837,,directmemory_phase2,934325,,,,,,,,object_10c.png,,,50,,,,1,object_07c.png,object_11a.png,object_08b.png,object_11a.png,,0.825,,1,,,,,,,,,,,
5894.900000095367,,directmemory_phase2,940225,,,,,,,,object_14c.png,,,51,,,,1,object_04a.png,object_15b.png,object_07b.png,object_07b.png,,0.8292682926829268,,1,,,,,,,,,,,
3321.2999999523163,,directmemory_phase2,943551,,,,,,,,object_02c.png,,,51,,,,1,object_15c.png,object_09a.png,object_02a.png,object_02a.png,,0.8333333333333334,,1,,,,,,,,,,,
7219.699999928474,,directmemory_phase2,950776,,,,,,,,object_04a.png,,,51,,,,1,object_15c.png,object_03a.png,object_03c.png,object_03c.png,,0.8372093023255814,,1,,,,,,,,,,,
5318.899999976158,,directmemory_phase2,956099,,,,,,,,object_01a.png,,,51,,,,0,object_09a.png,object_07c.png,object_09c.png,object_09a.png,,0.8181818181818182,,0,,,,,,,,,,,
4440.5,,directmemory_phase2,960544,,,,,,,,object_01c.png,,,49,,,,1,object_02c.png,object_08c.png,object_06a.png,object_02c.png,,0.8222222222222222,,1,,,,,,,,,,,
4935.300000071526,,directmemory_phase2,965484,,,,,,,,object_11b.png,,,50,,,,1,object_02b.png,object_15c.png,object_09a.png,object_15c.png,,0.8260869565217391,,1,,,,,,,,,,,
4593.899999976158,,directmemory_phase2,970083,,,,,,,,object_10a.png,,,49,,,,1,object_05a.png,object_07a.png,object_04a.png,object_05a.png,,0.8297872340425532,,1,,,,,,,,,,,
12561.900000095367,,directmemory_phase2,982649,,,,,,,,object_08a.png,,,49,,,,1,object_03b.png,object_06a.png,object_13b.png,object_03b.png,,0.8333333333333334,,1,,,,,,,,,,,
267.7000000476837,,directmemory_phase2,982922,,,,,,,,object_08c.png,,,51,,,,0,object_06b.png,object_10b.png,object_02b.png,object_10b.png,,0.8163265306122449,,0,,,,,,,,,,,
4124.799999952316,,directmemory_phase2,987050,,,,,,,,object_14b.png,,,51,,,,1,object_15b.png,object_06a.png,object_10c.png,object_10c.png,,0.82,,1,,,,,,,,,,,
8027.300000071526,,directmemory_phase2,995083,,,,,,,,object_03b.png,,,50,,,,1,object_07c.png,object_04c.png,object_06b.png,object_04c.png,,0.8235294117647058,,1,,,,,,,,,,,
8830,,directmemory_phase2,1003917,,,,,,,,object_05a.png,,,51,,,,1,object_07c.png,object_09a.png,object_04b.png,object_04b.png,,0.8269230769230769,,1,,,,,,,,,,,
5562.699999928474,,directmemory_phase2,1009485,,,,,,,,object_13a.png,,,49,,,,1,object_07a.png,object_15b.png,object_13b.png,object_07a.png,,0.8301886792452831,,1,,,,,,,,,,,
1823.5,,directmemory_phase2,1011314,,,,,,,,object_13b.png,,,51,,,,1,object_04c.png,object_06b.png,object_02b.png,object_02b.png,,0.8333333333333334,,1,,,,,,,,,,,
4357.199999928474,,directmemory_phase2,1015675,,,,,,,,object_09b.png,,,50,,,,1,object_03a.png,object_07c.png,object_08b.png,object_07c.png,,0.8363636363636363,,1,,,,,,,,,,,
2404.600000023842,,directmemory_phase2,1018084,,,,,,,,object_15a.png,,,49,,,,1,object_12a.png,object_08c.png,object_06a.png,object_12a.png,,0.8392857142857143,,1,,,,,,,,,,,
2403.2000000476837,,directmemory_phase2,1020493,,,,,,,,object_11c.png,,,49,,,,1,object_11b.png,object_06a.png,object_03b.png,object_11b.png,,0.8421052631578947,,1,,,,,,,,,,,
7338.200000047684,,directmemory_phase2,1027835,,,,,,,,object_06c.png,,,50,,,,0,object_01a.png,object_15b.png,object_08c.png,object_01a.png,,0.8275862068965517,,0,,,,,,,,,,,
10253.5,,directmemory_phase2,1038094,,,,,,,,object_01b.png,,,50,,,,1,object_13b.png,object_04a.png,object_06a.png,object_04a.png,,0.8305084745762712,,1,,,,,,,,,,,
4795.700000047684,,directmemory_phase2,1042893,,,,,,,,object_12a.png,,,51,,,,1,object_10b.png,object_11a.png,object_09c.png,object_09c.png,,0.8333333333333334,,1,,,,,,,,,,,
null,,thebreak,1043002,,,,,,,,<p></p>,,,null,,,,,,,,,,,,,,,,,,,,,,,
1373.5,,intro_0,1044378,,,,,,,,instruct,,,32,,,,,,,,,,,,,,,,,,,,,,,
null,,learn_phase(without_color)3,1047885,,,,,,,,black_plus_sign,,,null,object_03a.png,object_07a.png,,,,,,,,,,,,,,,,,,,,,
null,,black_cross(without_color)3,1048664,,,,,,,,green,,,null,object_03a.png,object_07a.png,,,,,,,,,,,,,,,,,,,,,
null,,rt_plussign_withcolor3,1049176,,,,,,,,green,,,null,object_03a.png,object_07a.png,,,,,,,,,,,,,,,,,,,,,
996.3999999761581,,rt_thecrossant_black3,1050421,,,,,,,,black_plus_sign,,,50,,,,1,,,,,,1,,,,,,,,,,,,,
null,,color_black3,1050534,,,,,,,,black_plus_sign,,,null,,,,,,,,,,,,,,,,,,,,,,,
null,,learn_phase(without_color)3,1054045,,,,,,,,black_plus_sign,,,null,object_10b.png,object_08c.png,,,,,,,,,,,,,,,,,,,,,
null,,black_cross(without_color)3,1054637,,,,,,,,blue,,,null,object_10b.png,object_08c.png,,,,,,,,,,,,,,,,,,,,,
400.39999997615814,,rt_plussign_withcolor3,1055147,,,,,,,,blue,,,49,object_10b.png,object_08c.png,,,,,,,,,,,,,,,,,,,,,
null,,rt_thecrossant_black3,1056573,,,,,,,,black_plus_sign,,,null,,,,1,,,,,,1,,,,,,,,,,,,,
null,,color_black3,1056680,,,,,,,,black_plus_sign,,,null,,,,,,,,,,,,,,,,,,,,,,,
null,,learn_phase(without_color)3,1060187,,,,,,,,black_plus_sign,,,null,object_07b.png,object_14c.png,,,,,,,,,,,,,,,,,,,,,
null,,black_cross(without_color)3,1060963,,,,,,,,blue,,,null,object_07b.png,object_14c.png,,,,,,,,,,,,,,,,,,,,,
null,,rt_plussign_withcolor3,1061474,,,,,,,,blue,,,null,object_07b.png,object_14c.png,,,,,,,,,,,,,,,,,,,,,
748.0999999046326,,rt_thecrossant_black3,1062730,,,,,,,,black_plus_sign,,,49,,,,1,,,,,,1,,,,,,,,,,,,,
null,,color_black3,1062834,,,,,,,,black_plus_sign,,,null,,,,,,,,,,,,,,,,,,,,,,,
null,,learn_phase(without_color)3,1066353,,,,,,,,black_plus_sign,,,null,object_05a.png,object_10a.png,,,,,,,,,,,,,,,,,,,,,
null,,black_cross(without_color)3,1066784,,,,,,,,blue,,,null,object_05a.png,object_10a.png,,,,,,,,,,,,,,,,,,,,,
null,,rt_plussign_withcolor3,1067291,,,,,,,,blue,,,null,object_05a.png,object_10a.png,,,,,,,,,,,,,,,,,,,,,
1227.6000000238419,,rt_thecrossant_black3,1068879,,,,,,,,black_plus_sign,,,49,,,,1,,,,,,1,,,,,,,,,,,,,
null,,color_black3,1068989,,,,,,,,black_plus_sign,,,null,,,,,,,,,,,,,,,,,,,,,,,
null,,learn_phase(without_color)3,1072498,,,,,,,,black_plus_sign,,,null,object_04c.png,object_03b.png,,,,,,,,,,,,,,,,,,,,,
null,,black_cross(without_color)3,1073330,,,,,,,,blue,,,null,object_04c.png,object_03b.png,,,,,,,,,,,,,,,,,,,,,
null,,rt_plussign_withcolor3,1073842,,,,,,,,blue,,,null,object_04c.png,object_03b.png,,,,,,,,,,,,,,,,,,,,,
723.1000000238419,,rt_thecrossant_black3,1075035,,,,,,,,black_plus_sign,,,49,,,,1,,,,,,1,,,,,,,,,,,,,
null,,color_black3,1075150,,,,,,,,black_plus_sign,,,null,,,,,,,,,,,,,,,,,,,,,,,
null,,learn_phase(without_color)3,1078655,,,,,,,,black_plus_sign,,,null,object_15b.png,object_12b.png,,,,,,,,,,,,,,,,,,,,,
null,,black_cross(without_color)3,1079371,,,,,,,,green,,,null,object_15b.png,object_12b.png,,,,,,,,,,,,,,,,,,,,,
null,,rt_plussign_withcolor3,1079881,,,,,,,,green,,,null,object_15b.png,object_12b.png,,,,,,,,,,,,,,,,,,,,,
1393.2999999523163,,rt_thecrossant_black3,1081197,,,,,,,,black_plus_sign,,,50,,,,1,,,,,,1,,,,,,,,,,,,,
null,,color_black3,1081305,,,,,,,,black_plus_sign,,,null,,,,,,,,,,,,,,,,,,,,,,,
null,,learn_phase(without_color)3,1084821,,,,,,,,black_plus_sign,,,null,object_11b.png,object_11c.png,,,,,,,,,,,,,,,,,,,,,
null,,black_cross(without_color)3,1085404,,,,,,,,green,,,null,object_11b.png,object_11c.png,,,,,,,,,,,,,,,,,,,,,
null,,rt_plussign_withcolor3,1085920,,,,,,,,green,,,null,object_11b.png,object_11c.png,,,,,,,,,,,,,,,,,,,,,
1283.6000000238419,,rt_thecrossant_black3,1087366,,,,,,,,black_plus_sign,,,50,,,,1,,,,,,1,,,,,,,,,,,,,
null,,color_black3,1087473,,,,,,,,black_plus_sign,,,null,,,,,,,,,,,,,,,,,,,,,,,
null,,learn_phase(without_color)3,1090978,,,,,,,,black_plus_sign,,,null,object_14a.png,object_06a.png,,,,,,,,,,,,,,,,,,,,,
null,,black_cross(without_color)3,1092058,,,,,,,,green,,,null,object_14a.png,object_06a.png,,,,,,,,,,,,,,,,,,,,,
null,,rt_plussign_withcolor3,1092569,,,,,,,,green,,,null,object_14a.png,object_06a.png,,,,,,,,,,,,,,,,,,,,,
830.5,,rt_thecrossant_black3,1093508,,,,,,,,black_plus_sign,,,50,,,,1,,,,,,1,,,,,,,,,,,,,
null,,color_black3,1093614,,,,,,,,black_plus_sign,,,null,,,,,,,,,,,,,,,,,,,,,,,
null,,learn_phase(without_color)3,1097132,,,,,,,,black_plus_sign,,,null,object_09b.png,object_12c.png,,,,,,,,,,,,,,,,,,,,,
null,,black_cross(without_color)3,1097938,,,,,,,,green,,,null,object_09b.png,object_12c.png,,,,,,,,,,,,,,,,,,,,,
null,,rt_plussign_withcolor3,1098446,,,,,,,,green,,,null,object_09b.png,object_12c.png,,,,,,,,,,,,,,,,,,,,,
1489.1000000238419,,rt_thecrossant_black3,1099662,,,,,,,,black_plus_sign,,,50,,,,1,,,,,,1,,,,,,,,,,,,,
null,,color_black3,1099775,,,,,,,,black_plus_sign,,,null,,,,,,,,,,,,,,,,,,,,,,,
null,,learn_phase(without_color)3,1103288,,,,,,,,black_plus_sign,,,null,object_02c.png,object_01c.png,,,,,,,,,,,,,,,,,,,,,
null,,black_cross(without_color)3,1103992,,,,,,,,green,,,null,object_02c.png,object_01c.png,,,,,,,,,,,,,,,,,,,,,
null,,rt_plussign_withcolor3,1104495,,,,,,,,green,,,null,object_02c.png,object_01c.png,,,,,,,,,,,,,,,,,,,,,
null,,rt_thecrossant_black3,1105810,,,,,,,,black_plus_sign,,,null,,,,,,,,,,1,,,,,,,,,,,,,
null,,color_black3,1105923,,,,,,,,black_plus_sign,,,null,,,,,,,,,,,,,,,,,,,,,,,
null,,learn_phase(without_color)3,1109436,,,,,,,,black_plus_sign,,,null,object_15c.png,object_11b.png,,,,,,,,,,,,,,,,,,,,,
null,,black_cross(without_color)3,1110108,,,,,,,,green,,,null,object_15c.png,object_11b.png,,,,,,,,,,,,,,,,,,,,,
null,,rt_plussign_withcolor3,1110615,,,,,,,,green,,,null,object_15c.png,object_11b.png,,,,,,,,,,,,,,,,,,,,,
932.1000000238419,,rt_thecrossant_black3,1111967,,,,,,,,black_plus_sign,,,50,,,,1,,,,,,1,,,,,,,,,,,,,
null,,color_black3,1112074,,,,,,,,black_plus_sign,,,null,,,,,,,,,,,,,,,,,,,,,,,
null,,learn_phase(without_color)3,1115588,,,,,,,,black_plus_sign,,,null,object_06b.png,object_15b.png,,,,,,,,,,,,,,,,,,,,,
null,,black_cross(without_color)3,1116304,,,,,,,,green,,,null,object_06b.png,object_15b.png,,,,,,,,,,,,,,,,,,,,,
null,,rt_plussign_withcolor3,1116820,,,,,,,,green,,,null,object_06b.png,object_15b.png,,,,,,,,,,,,,,,,,,,,,
946.1000000238419,,rt_thecrossant_black3,1118124,,,,,,,,black_plus_sign,,,50,,,,1,,,,,,1,,,,,,,,,,,,,
null,,color_black3,1118236,,,,,,,,black_plus_sign,,,null,,,,,,,,,,,,,,,,,,,,,,,
null,,learn_phase(without_color)3,1121761,,,,,,,,black_plus_sign,,,null,object_02b.png,object_13b.png,,,,,,,,,,,,,,,,,,,,,
null,,black_cross(without_color)3,1122366,,,,,,,,green,,,null,object_02b.png,object_13b.png,,,,,,,,,,,,,,,,,,,,,
null,,rt_plussign_withcolor3,1122868,,,,,,,,green,,,null,object_02b.png,object_13b.png,,,,,,,,,,,,,,,,,,,,,
1127.2000000476837,,rt_thecrossant_black3,1124276,,,,,,,,black_plus_sign,,,50,,,,1,,,,,,1,,,,,,,,,,,,,
null,,color_black3,1124388,,,,,,,,black_plus_sign,,,null,,,,,,,,,,,,,,,,,,,,,,,
null,,learn_phase(without_color)3,1127908,,,,,,,,black_plus_sign,,,null,object_10c.png,object_14b.png,,,,,,,,,,,,,,,,,,,,,
null,,black_cross(without_color)3,1128658,,,,,,,,green,,,null,object_10c.png,object_14b.png,,,,,,,,,,,,,,,,,,,,,
null,,rt_plussign_withcolor3,1129162,,,,,,,,green,,,null,object_10c.png,object_14b.png,,,,,,,,,,,,,,,,,,,,,
780.5,,rt_thecrossant_black3,1130427,,,,,,,,black_plus_sign,,,50,,,,1,,,,,,1,,,,,,,,,,,,,
null,,color_black3,1130534,,,,,,,,black_plus_sign,,,null,,,,,,,,,,,,,,,,,,,,,,,
null,,learn_phase(without_color)3,1134047,,,,,,,,black_plus_sign,,,null,object_09c.png,object_12a.png,,,,,,,,,,,,,,,,,,,,,
null,,black_cross(without_color)3,1134602,,,,,,,,blue,,,null,object_09c.png,object_12a.png,,,,,,,,,,,,,,,,,,,,,
null,,rt_plussign_withcolor3,1135113,,,,,,,,blue,,,null,object_09c.png,object_12a.png,,,,,,,,,,,,,,,,,,,,,
null,,rt_thecrossant_black3,1136585,,,,,,,,black_plus_sign,,,null,,,,,,,,,,1,,,,,,,,,,,,,
null,,color_black3,1136702,,,,,,,,black_plus_sign,,,null,,,,,,,,,,,,,,,,,,,,,,,
null,,learn_phase(without_color)3,1140214,,,,,,,,black_plus_sign,,,null,object_03c.png,object_04a.png,,,,,,,,,,,,,,,,,,,,,
null,,black_cross(without_color)3,1141135,,,,,,,,blue,,,null,object_03c.png,object_04a.png,,,,,,,,,,,,,,,,,,,,,
null,,rt_plussign_withcolor3,1141639,,,,,,,,blue,,,null,object_03c.png,object_04a.png,,,,,,,,,,,,,,,,,,,,,
null,,rt_thecrossant_black3,1142735,,,,,,,,black_plus_sign,,,null,,,,,,,,,,1,,,,,,,,,,,,,
null,,warning_page,1147743,,,,,,,,warning,,,null,,,,,,,,,,,,,,,,,,,,,,,
null,,color_black3,1147857,,,,,,,,black_plus_sign,,,null,,,,,,,,,,,,,,,,,,,,,,,
null,,learn_phase(without_color)3,1151382,,,,,,,,black_plus_sign,,,null,object_07a.png,object_13a.png,,,,,,,,,,,,,,,,,,,,,
null,,black_cross(without_color)3,1151815,,,,,,,,blue,,,null,object_07a.png,object_13a.png,,,,,,,,,,,,,,,,,,,,,
490.1999999284744,,rt_plussign_withcolor3,1152325,,,,,,,,blue,,,49,object_07a.png,object_13a.png,,,,,,,,,,,,,,,,,,,,,
null,,rt_thecrossant_black3,1153916,,,,,,,,black_plus_sign,,,null,,,,1,,,,,,1,,,,,,,,,,,,,
null,,color_black3,1154025,,,,,,,,black_plus_sign,,,null,,,,,,,,,,,,,,,,,,,,,,,
null,,learn_phase(without_color)3,1157541,,,,,,,,black_plus_sign,,,null,object_06a.png,object_05c.png,,,,,,,,,,,,,,,,,,,,,
null,,black_cross(without_color)3,1158587,,,,,,,,blue,,,null,object_06a.png,object_05c.png,,,,,,,,,,,,,,,,,,,,,
null,,rt_plussign_withcolor3,1159103,,,,,,,,blue,,,null,object_06a.png,object_05c.png,,,,,,,,,,,,,,,,,,,,,
752.6000000238419,,rt_thecrossant_black3,1160085,,,,,,,,black_plus_sign,,,49,,,,1,,,,,,1,,,,,,,,,,,,,
null,,color_black3,1160190,,,,,,,,black_plus_sign,,,null,,,,,,,,,,,,,,,,,,,,,,,
null,,learn_phase(without_color)3,1163696,,,,,,,,black_plus_sign,,,null,object_03b.png,object_08a.png,,,,,,,,,,,,,,,,,,,,,
null,,black_cross(without_color)3,1164731,,,,,,,,green,,,null,object_03b.png,object_08a.png,,,,,,,,,,,,,,,,,,,,,
null,,rt_plussign_withcolor3,1165245,,,,,,,,green,,,null,object_03b.png,object_08a.png,,,,,,,,,,,,,,,,,,,,,
1427,,rt_thecrossant_black3,1166226,,,,,,,,black_plus_sign,,,50,,,,1,,,,,,1,,,,,,,,,,,,,
null,,color_black3,1166341,,,,,,,,black_plus_sign,,,null,,,,,,,,,,,,,,,,,,,,,,,
null,,learn_phase(without_color)3,1169848,,,,,,,,black_plus_sign,,,null,object_09a.png,object_01a.png,,,,,,,,,,,,,,,,,,,,,
null,,black_cross(without_color)3,1170696,,,,,,,,green,,,null,object_09a.png,object_01a.png,,,,,,,,,,,,,,,,,,,,,
null,,rt_plussign_withcolor3,1171209,,,,,,,,green,,,null,object_09a.png,object_01a.png,,,,,,,,,,,,,,,,,,,,,
1220.8999999761581,,rt_thecrossant_black3,1172386,,,,,,,,black_plus_sign,,,50,,,,1,,,,,,1,,,,,,,,,,,,,
null,,color_black3,1172494,,,,,,,,black_plus_sign,,,null,,,,,,,,,,,,,,,,,,,,,,,
null,,learn_phase(without_color)3,1176009,,,,,,,,black_plus_sign,,,null,object_01a.png,object_06c.png,,,,,,,,,,,,,,,,,,,,,
null,,black_cross(without_color)3,1176537,,,,,,,,green,,,null,object_01a.png,object_06c.png,,,,,,,,,,,,,,,,,,,,,
342.39999997615814,,rt_plussign_withcolor3,1177051,,,,,,,,green,,,50,object_01a.png,object_06c.png,,,,,,,,,,,,,,,,,,,,,
null,,rt_thecrossant_black3,1178539,,,,,,,,black_plus_sign,,,null,,,,1,,,,,,1,,,,,,,,,,,,,
null,,color_black3,1178648,,,,,,,,black_plus_sign,,,null,,,,,,,,,,,,,,,,,,,,,,,
null,,learn_phase(without_color)3,1182161,,,,,,,,black_plus_sign,,,null,object_11a.png,object_10c.png,,,,,,,,,,,,,,,,,,,,,
null,,black_cross(without_color)3,1183164,,,,,,,,green,,,null,object_11a.png,object_10c.png,,,,,,,,,,,,,,,,,,,,,
null,,rt_plussign_withcolor3,1183676,,,,,,,,green,,,null,object_11a.png,object_10c.png,,,,,,,,,,,,,,,,,,,,,
648,,rt_thecrossant_black3,1184697,,,,,,,,black_plus_sign,,,50,,,,1,,,,,,1,,,,,,,,,,,,,
null,,color_black3,1184803,,,,,,,,black_plus_sign,,,null,,,,,,,,,,,,,,,,,,,,,,,
null,,learn_phase(without_color)3,1188308,,,,,,,,black_plus_sign,,,null,object_08b.png,object_07b.png,,,,,,,,,,,,,,,,,,,,,
null,,black_cross(without_color)3,1189352,,,,,,,,blue,,,null,object_08b.png,object_07b.png,,,,,,,,,,,,,,,,,,,,,
null,,rt_plussign_withcolor3,1189858,,,,,,,,blue,,,null,object_08b.png,object_07b.png,,,,,,,,,,,,,,,,,,,,,
1679.0999999046326,,rt_thecrossant_black3,1190834,,,,,,,,black_plus_sign,,,49,,,,1,,,,,,1,,,,,,,,,,,,,
null,,color_black3,1190940,,,,,,,,black_plus_sign,,,null,,,,,,,,,,,,,,,,,,,,,,,
null,,learn_phase(without_color)3,1194448,,,,,,,,black_plus_sign,,,null,object_08c.png,object_05b.png,,,,,,,,,,,,,,,,,,,,,
null,,black_cross(without_color)3,1195533,,,,,,,,green,,,null,object_08c.png,object_05b.png,,,,,,,,,,,,,,,,,,,,,
null,,rt_plussign_withcolor3,1196040,,,,,,,,green,,,null,object_08c.png,object_05b.png,,,,,,,,,,,,,,,,,,,,,
1195.2999999523163,,rt_thecrossant_black3,1196979,,,,,,,,black_plus_sign,,,50,,,,1,,,,,,1,,,,,,,,,,,,,
null,,color_black3,1197102,,,,,,,,black_plus_sign,,,null,,,,,,,,,,,,,,,,,,,,,,,
null,,learn_phase(without_color)3,1200611,,,,,,,,black_plus_sign,,,null,object_02a.png,object_02c.png,,,,,,,,,,,,,,,,,,,,,
null,,black_cross(without_color)3,1201307,,,,,,,,green,,,null,object_02a.png,object_02c.png,,,,,,,,,,,,,,,,,,,,,
null,,rt_plussign_withcolor3,1201823,,,,,,,,green,,,null,object_02a.png,object_02c.png,,,,,,,,,,,,,,,,,,,,,
1484.7999999523163,,rt_thecrossant_black3,1203150,,,,,,,,black_plus_sign,,,50,,,,1,,,,,,1,,,,,,,,,,,,,
null,,color_black3,1203265,,,,,,,,black_plus_sign,,,null,,,,,,,,,,,,,,,,,,,,,,,
null,,learn_phase(without_color)3,1206778,,,,,,,,black_plus_sign,,,null,object_04b.png,object_05a.png,,,,,,,,,,,,,,,,,,,,,
null,,black_cross(without_color)3,1207413,,,,,,,,blue,,,null,object_04b.png,object_05a.png,,,,,,,,,,,,,,,,,,,,,
null,,rt_plussign_withcolor3,1207916,,,,,,,,blue,,,null,object_04b.png,object_05a.png,,,,,,,,,,,,,,,,,,,,,
1165,,rt_thecrossant_black3,1209296,,,,,,,,black_plus_sign,,,49,,,,1,,,,,,1,,,,,,,,,,,,,
null,,color_black3,1209411,,,,,,,,black_plus_sign,,,null,,,,,,,,,,,,,,,,,,,,,,,
null,,learn_phase(without_color)3,1212917,,,,,,,,black_plus_sign,,,null,object_12a.png,object_15a.png,,,,,,,,,,,,,,,,,,,,,
null,,black_cross(without_color)3,1213440,,,,,,,,blue,,,null,object_12a.png,object_15a.png,,,,,,,,,,,,,,,,,,,,,
null,,rt_plussign_withcolor3,1213951,,,,,,,,blue,,,null,object_12a.png,object_15a.png,,,,,,,,,,,,,,,,,,,,,
null,,rt_thecrossant_black3,1215457,,,,,,,,black_plus_sign,,,null,,,,,,,,,,1,,,,,,,,,,,,,
null,,color_black3,1215574,,,,,,,,black_plus_sign,,,null,,,,,,,,,,,,,,,,,,,,,,,
null,,learn_phase(without_color)3,1219088,,,,,,,,black_plus_sign,,,null,object_13b.png,object_13c.png,,,,,,,,,,,,,,,,,,,,,
null,,black_cross(without_color)3,1219975,,,,,,,,blue,,,null,object_13b.png,object_13c.png,,,,,,,,,,,,,,,,,,,,,
null,,rt_plussign_withcolor3,1220484,,,,,,,,blue,,,null,object_13b.png,object_13c.png,,,,,,,,,,,,,,,,,,,,,
null,,rt_thecrossant_black3,1221618,,,,,,,,black_plus_sign,,,null,,,,,,,,,,1,,,,,,,,,,,,,
null,,warning_page,1226622,,,,,,,,warning,,,null,,,,,,,,,,,,,,,,,,,,,,,
null,,color_black3,1226736,,,,,,,,black_plus_sign,,,null,,,,,,,,,,,,,,,,,,,,,,,
null,,learn_phase(without_color)3,1230246,,,,,,,,black_plus_sign,,,null,object_07c.png,object_09b.png,,,,,,,,,,,,,,,,,,,,,
null,,black_cross(without_color)3,1231338,,,,,,,,green,,,null,object_07c.png,object_09b.png,,,,,,,,,,,,,,,,,,,,,
455.89999997615814,,rt_plussign_withcolor3,1231841,,,,,,,,green,,,50,object_07c.png,object_09b.png,,,,,,,,,,,,,,,,,,,,,
null,,rt_thecrossant_black3,1232772,,,,,,,,black_plus_sign,,,null,,,,1,,,,,,1,,,,,,,,,,,,,
null,,color_black3,1232877,,,,,,,,black_plus_sign,,,null,,,,,,,,,,,,,,,,,,,,,,,
null,,learn_phase(without_color)3,1236392,,,,,,,,black_plus_sign,,,null,object_04a.png,object_01b.png,,,,,,,,,,,,,,,,,,,,,
null,,black_cross(without_color)3,1237027,,,,,,,,green,,,null,object_04a.png,object_01b.png,,,,,,,,,,,,,,,,,,,,,
null,,rt_plussign_withcolor3,1237536,,,,,,,,green,,,null,object_04a.png,object_01b.png,,,,,,,,,,,,,,,,,,,,,
1432.2000000476837,,rt_thecrossant_black3,1238910,,,,,,,,black_plus_sign,,,50,,,,1,,,,,,1,,,,,,,,,,,,,
null,,color_black3,1239022,,,,,,,,black_plus_sign,,,null,,,,,,,,,,,,,,,,,,,,,,,
null,,thebreak,1239136,,,,,,,,<p></p>,,,null,,,,,,,,,,,,,,,,,,,,,,,
3198.2999999523163,,intro_0,1242336,,,,,,,,instruct,,,32,,,,,,,,,,,,,,,,,,,,,,,
5269.5,,directmemory_phase3,1247608,,,,,,,,object_14b.png,,,49,,,,1,object_10c.png,object_09b.png,object_02c.png,object_10c.png,,0.8360655737704918,,1,,,,,,,,,,,
7465.399999976158,,directmemory_phase3,1255079,,,,,,,,object_15b.png,,,50,,,,0,object_04c.png,object_07c.png,object_06b.png,object_06b.png,,0.8225806451612904,,0,,,,,,,,,,,
2852.6999999284744,,directmemory_phase3,1257936,,,,,,,,object_01c.png,,,50,,,,1,object_15b.png,object_02c.png,object_10c.png,object_02c.png,,0.8253968253968254,,1,,,,,,,,,,,
2343.7999999523163,,directmemory_phase3,1260283,,,,,,,,object_12c.png,,,51,,,,0,object_07a.png,object_09b.png,object_06a.png,object_09b.png,,0.8125,,0,,,,,,,,,,,
5835.200000047684,,directmemory_phase3,1266123,,,,,,,,object_13b.png,,,51,,,,1,object_06b.png,object_03c.png,object_02b.png,object_02b.png,,0.8153846153846154,,1,,,,,,,,,,,
2204.8000000715256,,directmemory_phase3,1268333,,,,,,,,object_12b.png,,,50,,,,1,object_04a.png,object_15b.png,object_08c.png,object_15b.png,,0.8181818181818182,,1,,,,,,,,,,,
2469.899999976158,,directmemory_phase3,1270808,,,,,,,,object_10a.png,,,49,,,,1,object_05a.png,object_11b.png,object_07a.png,object_05a.png,,0.8208955223880597,,1,,,,,,,,,,,
8217.799999952316,,directmemory_phase3,1279030,,,,,,,,object_08a.png,,,49,,,,1,object_03b.png,object_07b.png,object_09b.png,object_03b.png,,0.8235294117647058,,1,,,,,,,,,,,
2071.100000023842,,directmemory_phase3,1281106,,,,,,,,object_06a.png,,,49,,,,1,object_14a.png,object_03a.png,object_07c.png,object_14a.png,,0.8260869565217391,,1,,,,,,,,,,,
2569.7999999523163,,directmemory_phase3,1283681,,,,,,,,object_13c.png,,,50,,,,0,object_13b.png,object_09b.png,object_01a.png,object_13b.png,,0.8142857142857143,,0,,,,,,,,,,,
2321.7000000476837,,directmemory_phase3,1286008,,,,,,,,object_09b.png,,,51,,,,1,object_09a.png,object_03a.png,object_07c.png,object_07c.png,,0.8169014084507042,,1,,,,,,,,,,,
7066.5,,directmemory_phase3,1293080,,,,,,,,object_12a.png,,,50,,,,0,object_09c.png,object_15c.png,object_02a.png,object_09c.png,,0.8055555555555556,,0,,,,,,,,,,,
3463.2000000476837,,directmemory_phase3,1296548,,,,,,,,object_02c.png,,,49,,,,1,object_02a.png,object_02b.png,object_08b.png,object_02a.png,,0.8082191780821918,,1,,,,,,,,,,,
10994.800000071526,,directmemory_phase3,1307562,,,,,,,,object_05c.png,,,50,,,,0,object_06a.png,object_03b.png,object_11b.png,object_06a.png,,0.7972972972972973,,0,,,,,,,,,,,
5765.100000023842,,directmemory_phase3,1313333,,,,,,,,object_07a.png,,,49,,,,1,object_03a.png,object_06b.png,object_02a.png,object_03a.png,,0.8,,1,,,,,,,,,,,
2790.6999999284744,,directmemory_phase3,1316129,,,,,,,,object_04a.png,,,51,,,,1,object_02a.png,object_15c.png,object_03c.png,object_03c.png,,0.8026315789473685,,1,,,,,,,,,,,
2160.5,,directmemory_phase3,1318294,,,,,,,,object_11c.png,,,50,,,,1,object_03b.png,object_11b.png,object_04a.png,object_11b.png,,0.8051948051948052,,1,,,,,,,,,,,
3454.399999976158,,directmemory_phase3,1321753,,,,,,,,object_03b.png,,,51,,,,1,object_09a.png,object_06b.png,object_04c.png,object_04c.png,,0.8076923076923077,,1,,,,,,,,,,,
2696.399999976158,,directmemory_phase3,1324454,,,,,,,,object_06c.png,,,50,,,,0,object_09b.png,object_12a.png,object_01a.png,object_01a.png,,0.7974683544303798,,0,,,,,,,,,,,
2296.399999976158,,directmemory_phase3,1326755,,,,,,,,object_05a.png,,,50,,,,0,object_07c.png,object_14a.png,object_04b.png,object_04b.png,,0.7875,,0,,,,,,,,,,,
3845.600000023842,,directmemory_phase3,1330605,,,,,,,,object_01a.png,,,49,,,,1,object_09a.png,object_14a.png,object_07c.png,object_09a.png,,0.7901234567901234,,1,,,,,,,,,,,
4395.899999976158,,directmemory_phase3,1335005,,,,,,,,object_08c.png,,,49,,,,1,object_10b.png,object_15c.png,object_09a.png,object_10b.png,,0.7926829268292683,,1,,,,,,,,,,,
5496.399999976158,,directmemory_phase3,1340507,,,,,,,,object_01b.png,,,50,,,,0,object_02c.png,object_12a.png,object_04a.png,object_04a.png,,0.7831325301204819,,0,,,,,,,,,,,
4669.600000023842,,directmemory_phase3,1345182,,,,,,,,object_11b.png,,,50,,,,0,object_15c.png,object_06b.png,object_03a.png,object_15c.png,,0.7738095238095238,,0,,,,,,,,,,,
6285.100000023842,,directmemory_phase3,1351473,,,,,,,,object_15a.png,,,51,,,,1,object_06a.png,object_10c.png,object_12a.png,object_12a.png,,0.7764705882352941,,1,,,,,,,,,,,
2404.7999999523163,,directmemory_phase3,1353884,,,,,,,,object_05b.png,,,49,,,,1,object_08c.png,object_01a.png,object_02c.png,object_08c.png,,0.7790697674418605,,1,,,,,,,,,,,
2289.8000000715256,,directmemory_phase3,1356176,,,,,,,,object_13a.png,,,51,,,,1,object_11b.png,object_07b.png,object_07a.png,object_07a.png,,0.7816091954022989,,1,,,,,,,,,,,
4805.600000023842,,directmemory_phase3,1360986,,,,,,,,object_07b.png,,,51,,,,1,object_09c.png,object_11a.png,object_08b.png,object_08b.png,,0.7840909090909091,,1,,,,,,,,,,,
3200.1999999284744,,directmemory_phase3,1364193,,,,,,,,object_14c.png,,,51,,,,0,object_07b.png,object_09b.png,object_06a.png,object_07b.png,,0.7752808988764045,,0,,,,,,,,,,,
3819.100000023842,,directmemory_phase3,1368017,,,,,,,,object_10c.png,,,51,,,,1,object_06b.png,object_09c.png,object_11a.png,object_11a.png,,0.7777777777777778,,1,,,,,,,,,,,
null,,thebreak,1368137,,,,,,,,<p></p>,,,null,,,,,,,,,,,,,,,,,,,,,,,
6036,,intro_0,1374175,,,,,,,,instruct,,,32,,,,,,,,,,,,,,,,,,,,,,,
null,,learn_phase(without_color)4,1377687,,,,,,,,black_plus_sign,,,null,object_02c.png,object_01c.png,,,,,,,,,,,,,,,,,,,,,
null,,black_cross(without_color)4,1378104,,,,,,,,blue,,,null,object_02c.png,object_01c.png,,,,,,,,,,,,,,,,,,,,,
503,,rt_plussign_withcolor4,1378610,,,,,,,,blue,,,49,object_02c.png,object_01c.png,,,,,,,,,,,,,,,,,,,,,
null,,rt_thecrossant_black4,1380227,,,,,,,,black_plus_sign,,,null,,,,1,,,,,,1,,,,,,,,,,,,,
null,,color_black4,1380337,,,,,,,,black_plus_sign,,,null,,,,,,,,,,,,,,,,,,,,,,,
null,,learn_phase(without_color)4,1383843,,,,,,,,black_plus_sign,,,null,object_10c.png,object_14b.png,,,,,,,,,,,,,,,,,,,,,
null,,black_cross(without_color)4,1384415,,,,,,,,green,,,null,object_10c.png,object_14b.png,,,,,,,,,,,,,,,,,,,,,
null,,rt_plussign_withcolor4,1384922,,,,,,,,green,,,null,object_10c.png,object_14b.png,,,,,,,,,,,,,,,,,,,,,
598,,rt_thecrossant_black4,1386367,,,,,,,,black_plus_sign,,,50,,,,1,,,,,,1,,,,,,,,,,,,,
null,,color_black4,1386482,,,,,,,,black_plus_sign,,,null,,,,,,,,,,,,,,,,,,,,,,,
null,,learn_phase(without_color)4,1389999,,,,,,,,black_plus_sign,,,null,object_04a.png,object_01b.png,,,,,,,,,,,,,,,,,,,,,
null,,black_cross(without_color)4,1391071,,,,,,,,green,,,null,object_04a.png,object_01b.png,,,,,,,,,,,,,,,,,,,,,
null,,rt_plussign_withcolor4,1391582,,,,,,,,green,,,null,object_04a.png,object_01b.png,,,,,,,,,,,,,,,,,,,,,
null,,rt_thecrossant_black4,1392538,,,,,,,,black_plus_sign,,,null,,,,,,,,,,1,,,,,,,,,,,,,
null,,color_black4,1392658,,,,,,,,black_plus_sign,,,null,,,,,,,,,,,,,,,,,,,,,,,
null,,learn_phase(without_color)4,1396170,,,,,,,,black_plus_sign,,,null,object_15b.png,object_12b.png,,,,,,,,,,,,,,,,,,,,,
null,,black_cross(without_color)4,1396805,,,,,,,,blue,,,null,object_15b.png,object_12b.png,,,,,,,,,,,,,,,,,,,,,
null,,rt_plussign_withcolor4,1397324,,,,,,,,blue,,,null,object_15b.png,object_12b.png,,,,,,,,,,,,,,,,,,,,,
1338.1000000238419,,rt_thecrossant_black4,1398718,,,,,,,,black_plus_sign,,,49,,,,1,,,,,,1,,,,,,,,,,,,,
null,,color_black4,1398827,,,,,,,,black_plus_sign,,,null,,,,,,,,,,,,,,,,,,,,,,,
null,,learn_phase(without_color)4,1402336,,,,,,,,black_plus_sign,,,null,object_04b.png,object_05a.png,,,,,,,,,,,,,,,,,,,,,
null,,black_cross(without_color)4,1402919,,,,,,,,blue,,,null,object_04b.png,object_05a.png,,,,,,,,,,,,,,,,,,,,,
null,,rt_plussign_withcolor4,1403425,,,,,,,,blue,,,null,object_04b.png,object_05a.png,,,,,,,,,,,,,,,,,,,,,
809.4000000953674,,rt_thecrossant_black4,1404871,,,,,,,,black_plus_sign,,,49,,,,1,,,,,,1,,,,,,,,,,,,,
null,,color_black4,1404978,,,,,,,,black_plus_sign,,,null,,,,,,,,,,,,,,,,,,,,,,,
null,,learn_phase(without_color)4,1408486,,,,,,,,black_plus_sign,,,null,object_11b.png,object_11c.png,,,,,,,,,,,,,,,,,,,,,
null,,black_cross(without_color)4,1409574,,,,,,,,blue,,,null,object_11b.png,object_11c.png,,,,,,,,,,,,,,,,,,,,,
null,,rt_plussign_withcolor4,1410077,,,,,,,,blue,,,null,object_11b.png,object_11c.png,,,,,,,,,,,,,,,,,,,,,
null,,rt_thecrossant_black4,1411023,,,,,,,,black_plus_sign,,,null,,,,,,,,,,1,,,,,,,,,,,,,
null,,color_black4,1411129,,,,,,,,black_plus_sign,,,null,,,,,,,,,,,,,,,,,,,,,,,
null,,learn_phase(without_color)4,1414637,,,,,,,,black_plus_sign,,,null,object_08c.png,object_05b.png,,,,,,,,,,,,,,,,,,,,,
null,,black_cross(without_color)4,1415493,,,,,,,,green,,,null,object_08c.png,object_05b.png,,,,,,,,,,,,,,,,,,,,,
438.2000000476837,,rt_plussign_withcolor4,1416010,,,,,,,,green,,,50,object_08c.png,object_05b.png,,,,,,,,,,,,,,,,,,,,,
null,,rt_thecrossant_black4,1417189,,,,,,,,black_plus_sign,,,null,,,,1,,,,,,1,,,,,,,,,,,,,
null,,color_black4,1417308,,,,,,,,black_plus_sign,,,null,,,,,,,,,,,,,,,,,,,,,,,
null,,learn_phase(without_color)4,1420815,,,,,,,,black_plus_sign,,,null,object_10b.png,object_08c.png,,,,,,,,,,,,,,,,,,,,,
null,,black_cross(without_color)4,1421686,,,,,,,,blue,,,null,object_10b.png,object_08c.png,,,,,,,,,,,,,,,,,,,,,
62.299999952316284,,rt_plussign_withcolor4,1422196,,,,,,,,blue,,,50,object_10b.png,object_08c.png,,,,,,,,,,,,,,,,,,,,,
null,,rt_thecrossant_black4,1423345,,,,,,,,black_plus_sign,,,49,,,,0,,,,,,0.8333333333333334,,,,,,,,,,,,,
null,,color_black4,1423450,,,,,,,,black_plus_sign,,,null,,,,,,,,,,,,,,,,,,,,,,,
null,,learn_phase(without_color)4,1426958,,,,,,,,black_plus_sign,,,null,object_12a.png,object_15a.png,,,,,,,,,,,,,,,,,,,,,
null,,black_cross(without_color)4,1427561,,,,,,,,blue,,,null,object_12a.png,object_15a.png,,,,,,,,,,,,,,,,,,,,,
null,,rt_plussign_withcolor4,1428070,,,,,,,,blue,,,null,object_12a.png,object_15a.png,,,,,,,,,,,,,,,,,,,,,
1260.7000000476837,,rt_thecrossant_black4,1429480,,,,,,,,black_plus_sign,,,49,,,,1,,,,,,0.8571428571428571,,,,,,,,,,,,,
null,,color_black4,1429588,,,,,,,,black_plus_sign,,,null,,,,,,,,,,,,,,,,,,,,,,,
null,,learn_phase(without_color)4,1433108,,,,,,,,black_plus_sign,,,null,object_11a.png,object_10c.png,,,,,,,,,,,,,,,,,,,,,
null,,black_cross(without_color)4,1433588,,,,,,,,green,,,null,object_11a.png,object_10c.png,,,,,,,,,,,,,,,,,,,,,
null,,rt_plussign_withcolor4,1434091,,,,,,,,green,,,null,object_11a.png,object_10c.png,,,,,,,,,,,,,,,,,,,,,
1559,,rt_thecrossant_black4,1435639,,,,,,,,black_plus_sign,,,50,,,,1,,,,,,0.875,,,,,,,,,,,,,
null,,color_black4,1435752,,,,,,,,black_plus_sign,,,null,,,,,,,,,,,,,,,,,,,,,,,
null,,learn_phase(without_color)4,1439259,,,,,,,,black_plus_sign,,,null,object_06b.png,object_15b.png,,,,,,,,,,,,,,,,,,,,,
null,,black_cross(without_color)4,1439917,,,,,,,,green,,,null,object_06b.png,object_15b.png,,,,,,,,,,,,,,,,,,,,,
null,,rt_plussign_withcolor4,1440429,,,,,,,,green,,,null,object_06b.png,object_15b.png,,,,,,,,,,,,,,,,,,,,,
null,,rt_thecrossant_black4,1441795,,,,,,,,black_plus_sign,,,null,,,,,,,,,,0.875,,,,,,,,,,,,,
null,,color_black4,1441904,,,,,,,,black_plus_sign,,,null,,,,,,,,,,,,,,,,,,,,,,,
null,,learn_phase(without_color)4,1445410,,,,,,,,black_plus_sign,,,null,object_03a.png,object_07a.png,,,,,,,,,,,,,,,,,,,,,
null,,black_cross(without_color)4,1446232,,,,,,,,blue,,,null,object_03a.png,object_07a.png,,,,,,,,,,,,,,,,,,,,,
451.5,,rt_plussign_withcolor4,1446748,,,,,,,,blue,,,50,object_03a.png,object_07a.png,,,,,,,,,,,,,,,,,,,,,
null,,rt_thecrossant_black4,1447953,,,,,,,,black_plus_sign,,,null,,,,0,,,,,,0.7777777777777778,,,,,,,,,,,,,
null,,warning_page,1452961,,,,,,,,warning,,,null,,,,,,,,,,,,,,,,,,,,,,,
null,,color_black4,1453065,,,,,,,,black_plus_sign,,,null,,,,,,,,,,,,,,,,,,,,,,,
null,,learn_phase(without_color)4,1456572,,,,,,,,black_plus_sign,,,null,object_07b.png,object_14c.png,,,,,,,,,,,,,,,,,,,,,
null,,black_cross(without_color)4,1457375,,,,,,,,green,,,null,object_07b.png,object_14c.png,,,,,,,,,,,,,,,,,,,,,
392.60000002384186,,rt_plussign_withcolor4,1457884,,,,,,,,green,,,50,object_07b.png,object_14c.png,,,,,,,,,,,,,,,,,,,,,
null,,rt_thecrossant_black4,1459096,,,,,,,,black_plus_sign,,,null,,,,1,,,,,,0.8,,,,,,,,,,,,,
null,,color_black4,1459211,,,,,,,,black_plus_sign,,,null,,,,,,,,,,,,,,,,,,,,,,,
null,,learn_phase(without_color)4,1462725,,,,,,,,black_plus_sign,,,null,object_03c.png,object_04a.png,,,,,,,,,,,,,,,,,,,,,
null,,black_cross(without_color)4,1463623,,,,,,,,blue,,,null,object_03c.png,object_04a.png,,,,,,,,,,,,,,,,,,,,,
null,,rt_plussign_withcolor4,1464134,,,,,,,,blue,,,null,object_03c.png,object_04a.png,,,,,,,,,,,,,,,,,,,,,
937.5,,rt_thecrossant_black4,1465258,,,,,,,,black_plus_sign,,,49,,,,1,,,,,,0.8181818181818182,,,,,,,,,,,,,
null,,color_black4,1465373,,,,,,,,black_plus_sign,,,null,,,,,,,,,,,,,,,,,,,,,,,
null,,learn_phase(without_color)4,1468900,,,,,,,,black_plus_sign,,,null,object_14a.png,object_06a.png,,,,,,,,,,,,,,,,,,,,,
null,,black_cross(without_color)4,1469642,,,,,,,,blue,,,null,object_14a.png,object_06a.png,,,,,,,,,,,,,,,,,,,,,
null,,rt_plussign_withcolor4,1470157,,,,,,,,blue,,,null,object_14a.png,object_06a.png,,,,,,,,,,,,,,,,,,,,,
1096.5,,rt_thecrossant_black4,1471437,,,,,,,,black_plus_sign,,,49,,,,1,,,,,,0.8333333333333334,,,,,,,,,,,,,
null,,color_black4,1471545,,,,,,,,black_plus_sign,,,null,,,,,,,,,,,,,,,,,,,,,,,
null,,learn_phase(without_color)4,1475053,,,,,,,,black_plus_sign,,,null,object_05a.png,object_10a.png,,,,,,,,,,,,,,,,,,,,,
null,,black_cross(without_color)4,1475955,,,,,,,,green,,,null,object_05a.png,object_10a.png,,,,,,,,,,,,,,,,,,,,,
null,,rt_plussign_withcolor4,1476469,,,,,,,,green,,,null,object_05a.png,object_10a.png,,,,,,,,,,,,,,,,,,,,,
1071.8999999761581,,rt_thecrossant_black4,1477588,,,,,,,,black_plus_sign,,,50,,,,1,,,,,,0.8461538461538461,,,,,,,,,,,,,
null,,color_black4,1477692,,,,,,,,black_plus_sign,,,null,,,,,,,,,,,,,,,,,,,,,,,
null,,learn_phase(without_color)4,1481212,,,,,,,,black_plus_sign,,,null,object_02a.png,object_02c.png,,,,,,,,,,,,,,,,,,,,,
null,,black_cross(without_color)4,1481871,,,,,,,,green,,,null,object_02a.png,object_02c.png,,,,,,,,,,,,,,,,,,,,,
null,,rt_plussign_withcolor4,1482388,,,,,,,,green,,,null,object_02a.png,object_02c.png,,,,,,,,,,,,,,,,,,,,,
1202.6000000238419,,rt_thecrossant_black4,1483750,,,,,,,,black_plus_sign,,,50,,,,1,,,,,,0.8571428571428571,,,,,,,,,,,,,
null,,color_black4,1483856,,,,,,,,black_plus_sign,,,null,,,,,,,,,,,,,,,,,,,,,,,
null,,learn_phase(without_color)4,1487375,,,,,,,,black_plus_sign,,,null,object_07c.png,object_09b.png,,,,,,,,,,,,,,,,,,,,,
null,,black_cross(without_color)4,1487820,,,,,,,,green,,,null,object_07c.png,object_09b.png,,,,,,,,,,,,,,,,,,,,,
null,,rt_plussign_withcolor4,1488325,,,,,,,,green,,,null,object_07c.png,object_09b.png,,,,,,,,,,,,,,,,,,,,,
759,,rt_thecrossant_black4,1489906,,,,,,,,black_plus_sign,,,50,,,,1,,,,,,0.8666666666666667,,,,,,,,,,,,,
null,,color_black4,1490018,,,,,,,,black_plus_sign,,,null,,,,,,,,,,,,,,,,,,,,,,,
null,,learn_phase(without_color)4,1493524,,,,,,,,black_plus_sign,,,null,object_04c.png,object_03b.png,,,,,,,,,,,,,,,,,,,,,
null,,black_cross(without_color)4,1494065,,,,,,,,green,,,null,object_04c.png,object_03b.png,,,,,,,,,,,,,,,,,,,,,
487.2000000476837,,rt_plussign_withcolor4,1494568,,,,,,,,green,,,50,object_04c.png,object_03b.png,,,,,,,,,,,,,,,,,,,,,
null,,rt_thecrossant_black4,1496055,,,,,,,,black_plus_sign,,,50,,,,1,,,,,,0.875,,,,,,,,,,,,,
null,,color_black4,1496167,,,,,,,,black_plus_sign,,,null,,,,,,,,,,,,,,,,,,,,,,,
null,,learn_phase(without_color)4,1499681,,,,,,,,black_plus_sign,,,null,object_09b.png,object_12c.png,,,,,,,,,,,,,,,,,,,,,
null,,black_cross(without_color)4,1500229,,,,,,,,green,,,null,object_09b.png,object_12c.png,,,,,,,,,,,,,,,,,,,,,
null,,rt_plussign_withcolor4,1500745,,,,,,,,green,,,null,object_09b.png,object_12c.png,,,,,,,,,,,,,,,,,,,,,
852.7999999523163,,rt_thecrossant_black4,1502212,,,,,,,,black_plus_sign,,,50,,,,1,,,,,,0.8823529411764706,,,,,,,,,,,,,
null,,color_black4,1502321,,,,,,,,black_plus_sign,,,null,,,,,,,,,,,,,,,,,,,,,,,
null,,learn_phase(without_color)4,1505828,,,,,,,,black_plus_sign,,,null,object_01a.png,object_06c.png,,,,,,,,,,,,,,,,,,,,,
null,,black_cross(without_color)4,1506313,,,,,,,,blue,,,null,object_01a.png,object_06c.png,,,,,,,,,,,,,,,,,,,,,
null,,rt_plussign_withcolor4,1506824,,,,,,,,blue,,,null,object_01a.png,object_06c.png,,,,,,,,,,,,,,,,,,,,,
752.1999999284744,,rt_thecrossant_black4,1508357,,,,,,,,black_plus_sign,,,49,,,,1,,,,,,0.8888888888888888,,,,,,,,,,,,,
null,,color_black4,1508466,,,,,,,,black_plus_sign,,,null,,,,,,,,,,,,,,,,,,,,,,,
null,,learn_phase(without_color)4,1511980,,,,,,,,black_plus_sign,,,null,object_06a.png,object_05c.png,,,,,,,,,,,,,,,,,,,,,
null,,black_cross(without_color)4,1512787,,,,,,,,blue,,,null,object_06a.png,object_05c.png,,,,,,,,,,,,,,,,,,,,,
null,,rt_plussign_withcolor4,1513292,,,,,,,,blue,,,null,object_06a.png,object_05c.png,,,,,,,,,,,,,,,,,,,,,
680.5,,rt_thecrossant_black4,1514511,,,,,,,,black_plus_sign,,,49,,,,1,,,,,,0.8947368421052632,,,,,,,,,,,,,
null,,color_black4,1514614,,,,,,,,black_plus_sign,,,null,,,,,,,,,,,,,,,,,,,,,,,
null,,learn_phase(without_color)4,1518129,,,,,,,,black_plus_sign,,,null,object_09c.png,object_12a.png,,,,,,,,,,,,,,,,,,,,,
null,,black_cross(without_color)4,1519149,,,,,,,,green,,,null,object_09c.png,object_12a.png,,,,,,,,,,,,,,,,,,,,,
null,,rt_plussign_withcolor4,1519656,,,,,,,,green,,,null,object_09c.png,object_12a.png,,,,,,,,,,,,,,,,,,,,,
1086.1000000238419,,rt_thecrossant_black4,1520665,,,,,,,,black_plus_sign,,,50,,,,1,,,,,,0.9,,,,,,,,,,,,,
null,,color_black4,1520777,,,,,,,,black_plus_sign,,,null,,,,,,,,,,,,,,,,,,,,,,,
null,,learn_phase(without_color)4,1524284,,,,,,,,black_plus_sign,,,null,object_09a.png,object_01a.png,,,,,,,,,,,,,,,,,,,,,
null,,black_cross(without_color)4,1525359,,,,,,,,blue,,,null,object_09a.png,object_01a.png,,,,,,,,,,,,,,,,,,,,,
null,,rt_plussign_withcolor4,1525869,,,,,,,,blue,,,null,object_09a.png,object_01a.png,,,,,,,,,,,,,,,,,,,,,
1148.5999999046326,,rt_thecrossant_black4,1526813,,,,,,,,black_plus_sign,,,49,,,,1,,,,,,0.9047619047619048,,,,,,,,,,,,,
null,,color_black4,1526927,,,,,,,,black_plus_sign,,,null,,,,,,,,,,,,,,,,,,,,,,,
null,,learn_phase(without_color)4,1530431,,,,,,,,black_plus_sign,,,null,object_15c.png,object_11b.png,,,,,,,,,,,,,,,,,,,,,
null,,black_cross(without_color)4,1531397,,,,,,,,green,,,null,object_15c.png,object_11b.png,,,,,,,,,,,,,,,,,,,,,
null,,rt_plussign_withcolor4,1531906,,,,,,,,green,,,null,object_15c.png,object_11b.png,,,,,,,,,,,,,,,,,,,,,
null,,rt_thecrossant_black4,1532969,,,,,,,,black_plus_sign,,,null,,,,,,,,,,0.9047619047619048,,,,,,,,,,,,,
null,,warning_page,1537978,,,,,,,,warning,,,null,,,,,,,,,,,,,,,,,,,,,,,
null,,color_black4,1538090,,,,,,,,black_plus_sign,,,null,,,,,,,,,,,,,,,,,,,,,,,
null,,learn_phase(without_color)4,1541603,,,,,,,,black_plus_sign,,,null,object_07a.png,object_13a.png,,,,,,,,,,,,,,,,,,,,,
null,,black_cross(without_color)4,1542430,,,,,,,,green,,,null,object_07a.png,object_13a.png,,,,,,,,,,,,,,,,,,,,,
null,,rt_plussign_withcolor4,1542935,,,,,,,,green,,,null,object_07a.png,object_13a.png,,,,,,,,,,,,,,,,,,,,,
1204,,rt_thecrossant_black4,1544124,,,,,,,,black_plus_sign,,,50,,,,1,,,,,,0.9090909090909091,,,,,,,,,,,,,
null,,color_black4,1544233,,,,,,,,black_plus_sign,,,null,,,,,,,,,,,,,,,,,,,,,,,
null,,learn_phase(without_color)4,1547743,,,,,,,,black_plus_sign,,,null,object_08b.png,object_07b.png,,,,,,,,,,,,,,,,,,,,,
null,,black_cross(without_color)4,1548469,,,,,,,,blue,,,null,object_08b.png,object_07b.png,,,,,,,,,,,,,,,,,,,,,
null,,rt_plussign_withcolor4,1548976,,,,,,,,blue,,,null,object_08b.png,object_07b.png,,,,,,,,,,,,,,,,,,,,,
1119.4000000953674,,rt_thecrossant_black4,1550282,,,,,,,,black_plus_sign,,,49,,,,1,,,,,,0.9130434782608695,,,,,,,,,,,,,
null,,color_black4,1550387,,,,,,,,black_plus_sign,,,null,,,,,,,,,,,,,,,,,,,,,,,
null,,learn_phase(without_color)4,1553907,,,,,,,,black_plus_sign,,,null,object_13b.png,object_13c.png,,,,,,,,,,,,,,,,,,,,,
null,,black_cross(without_color)4,1554638,,,,,,,,green,,,null,object_13b.png,object_13c.png,,,,,,,,,,,,,,,,,,,,,
null,,rt_plussign_withcolor4,1555152,,,,,,,,green,,,null,object_13b.png,object_13c.png,,,,,,,,,,,,,,,,,,,,,
1057.8999999761581,,rt_thecrossant_black4,1556445,,,,,,,,black_plus_sign,,,50,,,,1,,,,,,0.9166666666666666,,,,,,,,,,,,,
null,,color_black4,1556553,,,,,,,,black_plus_sign,,,null,,,,,,,,,,,,,,,,,,,,,,,
null,,learn_phase(without_color)4,1560061,,,,,,,,black_plus_sign,,,null,object_03b.png,object_08a.png,,,,,,,,,,,,,,,,,,,,,
null,,black_cross(without_color)4,1560999,,,,,,,,blue,,,null,object_03b.png,object_08a.png,,,,,,,,,,,,,,,,,,,,,
null,,rt_plussign_withcolor4,1561505,,,,,,,,blue,,,null,object_03b.png,object_08a.png,,,,,,,,,,,,,,,,,,,,,
961.8000000715256,,rt_thecrossant_black4,1562600,,,,,,,,black_plus_sign,,,49,,,,1,,,,,,0.92,,,,,,,,,,,,,
null,,color_black4,1562716,,,,,,,,black_plus_sign,,,null,,,,,,,,,,,,,,,,,,,,,,,
null,,learn_phase(without_color)4,1566230,,,,,,,,black_plus_sign,,,null,object_02b.png,object_13b.png,,,,,,,,,,,,,,,,,,,,,
null,,black_cross(without_color)4,1566717,,,,,,,,green,,,null,object_02b.png,object_13b.png,,,,,,,,,,,,,,,,,,,,,
null,,rt_plussign_withcolor4,1567234,,,,,,,,green,,,null,object_02b.png,object_13b.png,,,,,,,,,,,,,,,,,,,,,
1299.1000000238419,,rt_thecrossant_black4,1568770,,,,,,,,black_plus_sign,,,50,,,,1,,,,,,0.9230769230769231,,,,,,,,,,,,,
null,,color_black4,1568878,,,,,,,,black_plus_sign,,,null,,,,,,,,,,,,,,,,,,,,,,,
null,,thebreak,1568985,,,,,,,,<p></p>,,,null,,,,,,,,,,,,,,,,,,,,,,,
6161.200000047684,,intro_0,1575149,,,,,,,,instruct,,,32,,,,,,,,,,,,,,,,,,,,,,,
2813.9000000953674,,directmemory_phase4,1577966,,,,,,,,object_09b.png,,,50,,,,1,object_06b.png,object_07c.png,object_02b.png,object_07c.png,,0.7802197802197802,,1,,,,,,,,,,,
3764.2999999523163,,directmemory_phase4,1581737,,,,,,,,object_14c.png,,,50,,,,1,object_09b.png,object_07b.png,object_08c.png,object_07b.png,,0.782608695652174,,1,,,,,,,,,,,
3489.899999976158,,directmemory_phase4,1585232,,,,,,,,object_12a.png,,,50,,,,0,object_03c.png,object_15c.png,object_09c.png,object_09c.png,,0.7741935483870968,,0,,,,,,,,,,,
3606.2000000476837,,directmemory_phase4,1588843,,,,,,,,object_07a.png,,,50,,,,1,object_07c.png,object_03a.png,object_04c.png,object_03a.png,,0.776595744680851,,1,,,,,,,,,,,
2915.0999999046326,,directmemory_phase4,1591763,,,,,,,,object_05b.png,,,49,,,,1,object_08c.png,object_12a.png,object_13b.png,object_08c.png,,0.7789473684210526,,1,,,,,,,,,,,
3043.2999999523163,,directmemory_phase4,1594811,,,,,,,,object_10a.png,,,49,,,,1,object_05a.png,object_15b.png,object_13b.png,object_05a.png,,0.78125,,1,,,,,,,,,,,
3075.7999999523163,,directmemory_phase4,1597892,,,,,,,,object_13a.png,,,50,,,,0,object_01a.png,object_10c.png,object_07a.png,object_07a.png,,0.7731958762886598,,0,,,,,,,,,,,
4222.100000023842,,directmemory_phase4,1602119,,,,,,,,object_08c.png,,,50,,,,1,object_08b.png,object_10b.png,object_09a.png,object_10b.png,,0.7755102040816326,,1,,,,,,,,,,,
2658.5,,directmemory_phase4,1604782,,,,,,,,object_08a.png,,,51,,,,1,object_15b.png,object_07b.png,object_03b.png,object_03b.png,,0.7777777777777778,,1,,,,,,,,,,,
5395.700000047684,,directmemory_phase4,1610183,,,,,,,,object_01a.png,,,49,,,,1,object_09a.png,object_10b.png,object_06b.png,object_09a.png,,0.78,,1,,,,,,,,,,,
4595.800000071526,,directmemory_phase4,1614784,,,,,,,,object_05a.png,,,51,,,,0,object_04b.png,object_15c.png,object_11a.png,object_04b.png,,0.7722772277227723,,0,,,,,,,,,,,
1733.3000000715256,,directmemory_phase4,1616522,,,,,,,,object_07b.png,,,49,,,,1,object_08b.png,object_11a.png,object_09c.png,object_08b.png,,0.7745098039215687,,1,,,,,,,,,,,
7257.600000023842,,directmemory_phase4,1623784,,,,,,,,object_15b.png,,,50,,,,1,object_10b.png,object_06b.png,object_09c.png,object_06b.png,,0.7766990291262136,,1,,,,,,,,,,,
2092.7999999523163,,directmemory_phase4,1625882,,,,,,,,object_14b.png,,,49,,,,1,object_10c.png,object_15b.png,object_09b.png,object_10c.png,,0.7788461538461539,,1,,,,,,,,,,,
1790.7999999523163,,directmemory_phase4,1627678,,,,,,,,object_03b.png,,,50,,,,1,object_14a.png,object_04c.png,object_06b.png,object_04c.png,,0.780952380952381,,1,,,,,,,,,,,
1447.3999999761581,,directmemory_phase4,1629130,,,,,,,,object_06a.png,,,50,,,,1,object_04c.png,object_14a.png,object_09c.png,object_14a.png,,0.7830188679245284,,1,,,,,,,,,,,
3009,,directmemory_phase4,1632144,,,,,,,,object_13c.png,,,50,,,,1,object_15b.png,object_13b.png,object_08c.png,object_13b.png,,0.7850467289719626,,1,,,,,,,,,,,
2571.3000000715256,,directmemory_phase4,1634719,,,,,,,,object_10c.png,,,49,,,,1,object_11a.png,object_07c.png,object_15c.png,object_11a.png,,0.7870370370370371,,1,,,,,,,,,,,
4891.799999952316,,directmemory_phase4,1639616,,,,,,,,object_11c.png,,,50,,,,0,object_11b.png,object_08c.png,object_02c.png,object_11b.png,,0.7798165137614679,,0,,,,,,,,,,,
3881,,directmemory_phase4,1643502,,,,,,,,object_01c.png,,,51,,,,1,object_09b.png,object_07b.png,object_02c.png,object_02c.png,,0.7818181818181819,,1,,,,,,,,,,,
21.200000047683716,,directmemory_phase4,1643527,,,,,,,,object_11b.png,,,49,,,,1,object_15c.png,object_03c.png,object_04c.png,object_15c.png,,0.7837837837837838,,1,,,,,,,,,,,
2277.9000000953674,,directmemory_phase4,1645810,,,,,,,,object_05c.png,,,51,,,,0,object_04a.png,object_06a.png,object_10c.png,object_06a.png,,0.7767857142857143,,0,,,,,,,,,,,
3181.3000000715256,,directmemory_phase4,1648997,,,,,,,,object_15a.png,,,51,,,,0,object_08c.png,object_12a.png,object_02c.png,object_12a.png,,0.7699115044247787,,0,,,,,,,,,,,
3821.899999976158,,directmemory_phase4,1652824,,,,,,,,object_01b.png,,,50,,,,0,object_04a.png,object_01a.png,object_03b.png,object_04a.png,,0.7631578947368421,,0,,,,,,,,,,,
4735.899999976158,,directmemory_phase4,1657565,,,,,,,,object_06c.png,,,51,,,,0,object_01a.png,object_15b.png,object_06a.png,object_01a.png,,0.7565217391304347,,0,,,,,,,,,,,
3508.399999976158,,directmemory_phase4,1661078,,,,,,,,object_13b.png,,,49,,,,1,object_02b.png,object_15c.png,object_09a.png,object_02b.png,,0.7586206896551724,,1,,,,,,,,,,,
2866.8000000715256,,directmemory_phase4,1663951,,,,,,,,object_12b.png,,,50,,,,1,object_08c.png,object_15b.png,object_13b.png,object_15b.png,,0.7606837606837606,,1,,,,,,,,,,,
1989.2999999523163,,directmemory_phase4,1665946,,,,,,,,object_02c.png,,,51,,,,1,object_10b.png,object_09c.png,object_02a.png,object_02a.png,,0.7627118644067796,,1,,,,,,,,,,,
4492.400000095367,,directmemory_phase4,1670445,,,,,,,,object_04a.png,,,51,,,,1,object_06b.png,object_07c.png,object_03c.png,object_03c.png,,0.7647058823529411,,1,,,,,,,,,,,
2892,,directmemory_phase4,1673342,,,,,,,,object_12c.png,,,51,,,,1,object_13b.png,object_03b.png,object_09b.png,object_09b.png,,0.7666666666666667,,1,,,,,,,,,,,
null,,thebreak,1673463,,,,,,,,<p></p>,,,null,,,,,,,,,,,,,,,,,,,,,,,
5862.399999976158,,intro_0,1679329,,,,,,,,instruct,,,32,,,,,,,,,,,,,,,,,,,,,,,
8248.100000023842,,intro_1,1687580,,,,,,,,instruct,,,32,,,,,,,,,,,,,,,,,,,,,,,
5828.100000023842,,intro_2,1693412,,,,,,,,instruct,,,32,,,,,,,,,,,,,,,,,,,,,,,
,,intro_3,1717541,,,,,,,,instruct,,,,,,,,,,,,,,,,,,,,,,,,,,
2447.2999999523163,,intro_4,1719991,,,,,,,,instruct,,,32,,,,,,,,,,,,,,,,,,,,,,,
null,,thebreak,1720105,,,,,,,,<p></p>,,,null,,,,,,,,,,,,,,,,,,,,,,,
3216.5,,intro_0,1723325,,,,,,,,instruct,,,32,,,,,,,,,,,,,,,,,,,,,,,
7805.899999976158,,intro_1,1731134,,,,,,,,instruct,,,32,,,,,,,,,,,,,,,,,,,,,,,
1979.5,,intro_2,1733116,,,,,,,,instruct,,,32,,,,,,,,,,,,,,,,,,,,,,,
,,intro_3,1742902,,,,,,,,instruct,,,,,,,,,,,,,,,,,,,,,,,,,,
2247.7999999523163,,intro_4,1745153,,,,,,,,instruct,,,32,,,,,,,,,,,,,,,,,,,,,,,
3682,,inference_phase,1748838,,,,,,,,object_13c.png,,,51,object_02b.png,object_03a.png,,0,,,,object_02b.png,,0,,,object_07c.png,,,,,,,,,,
2827.7000000476837,,inference_phase,1751673,,,,,,,,object_05c.png,,,50,object_06b.png,object_14a.png,,0,,,,object_14a.png,,0,,,object_07c.png,,,,,,,,,,
2024.6000000238419,,inference_phase,1753703,,,,,,,,object_08a.png,,,49,object_04c.png,object_09a.png,,1,,,,object_04c.png,,0.3333333333333333,,,object_10b.png,,,,,,,,,,
3581.7000000476837,,inference_phase,1757291,,,,,,,,object_06c.png,,,49,object_03a.png,object_09a.png,,0,,,,object_09a.png,,0.25,,,object_07c.png,,,,,,,,,,
3586.7999999523163,,inference_phase,1760884,,,,,,,,object_14c.png,,,51,object_08b.png,object_07c.png,,0,,,,object_08b.png,,0.2,,,object_09c.png,,,,,,,,,,
3549.600000023842,,inference_phase,1764438,,,,,,,,object_01b.png,,,51,object_03c.png,object_09c.png,,0,,,,object_03c.png,,0.16666666666666666,,,object_04c.png,,,,,,,,,,
1859.5,,inference_phase,1766302,,,,,,,,object_10a.png,,,49,object_11a.png,object_04b.png,,0,,,,object_04b.png,,0.14285714285714285,,,object_09c.png,,,,,,,,,,
7667.199999928474,,inference_phase,1773973,,,,,,,,object_12b.png,,,50,object_06b.png,object_04c.png,,0,,,,object_06b.png,,0.125,,,object_15c.png,,,,,,,,,,
