rt,responses,trial_type,time_elapsed,identifier_a,identifier_b,identifier_c,stimulus,button_pressed,response,key_press,stimulus_left,stimulus_right,accuracy,practice_cumulative_accuracy,stimulus_down_left,stimulus_down_mid,stimulus_down_right,stimulus_correct,prac_weighted_accuracy,cumulative_accuracy,weighted_accuracy,stimulus_middle,problems,smooth,distraction,strategies,easier,similar,comments
473399.7999999821,{worker_id:67c8d8517a18038170f399a6},id_enter,473406,object_06c.png; object_08a.png; object_10c.png; object_14b.png; object_09b.png; object_12c.png; object_10a.png; object_02c.png; object_05a.png; object_01a.png; object_09a.png; object_13a.png; object_05b.png; object_12b.png; object_03a.png,object_01c.png; object_15c.png; object_06a.png; object_04c.png; object_03c.png; object_06b.png; object_02a.png; object_09c.png; object_07b.png; object_05c.png; object_07a.png; object_11b.png; object_15a.png; object_04b.png; object_14c.png,object_08c.png; object_04a.png; object_12a.png; object_13b.png; object_13c.png; object_07c.png; object_11a.png; object_15b.png; object_11c.png; object_01b.png; object_10b.png; object_03b.png; object_14a.png; object_02b.png; object_08b.png,,,,,,,,,,,,,,,,,,,,,,,
51888,,make_fullscreen,525326,,,,fullscreen,0,,,,,,,,,,,,,,,,,,,,,
9605,,instruct_1,534940,,,,instruct,0,Next,,,,,,,,,,,,,,,,,,,,
26346.5,,instruct_2,561293,,,,instruct,1,Next,,,,,,,,,,,,,,,,,,,,
20022,,instruct_3,581321,,,,instruct,1,Next,,,,,,,,,,,,,,,,,,,,
17075.899999976158,,instruct_4,598402,,,,instruct,1,Next,,,,,,,,,,,,,,,,,,,,
14885,,instruct_5,613292,,,,instruct,1,Next,,,,,,,,,,,,,,,,,,,,
5085.199999988079,,instruct_6,618384,,,,instruct,1,Next,,,,,,,,,,,,,,,,,,,,
27595.70000001788,,instruct_7,645985,,,,instruct,1,Next,,,,,,,,,,,,,,,,,,,,
null,,prac_atten_color_black,646816,,,,black_plus_sign,,,null,,,,,,,,,,,,,,,,,,,
null,,prac_atten_color,647410,,,,<p style='position:absolute;top: 50%;right: 50%;transform: translate(50%, -50%);font-size: 125px;color: blue;'>+</p>,,,null,,,,,,,,,,,,,,,,,,,
356.09999999403954,,prac_atten_color_black,649420,,,,black_plus_sign,,,49,,,,,,,,,,,,,,,,,,,
null,,prac_atten_color_black,650249,,,,black_plus_sign,,,null,,,,,,,,,,,,,,,,,,,
550.9000000059605,,prac_atten_color,651035,,,,<p style='position:absolute;top: 50%;right: 50%;transform: translate(50%, -50%);font-size: 125px;color: green;'>+</p>,,,50,,,,,,,,,,,,,,,,,,,
null,,prac_atten_color_black,653038,,,,black_plus_sign,,,null,,,,,,,,,,,,,,,,,,,
null,,prac_atten_color_black,653662,,,,black_plus_sign,,,null,,,,,,,,,,,,,,,,,,,
null,,prac_atten_color,654226,,,,<p style='position:absolute;top: 50%;right: 50%;transform: translate(50%, -50%);font-size: 125px;color: green;'>+</p>,,,null,,,,,,,,,,,,,,,,,,,
228.80000001192093,,prac_atten_color_black,656230,,,,black_plus_sign,,,50,,,,,,,,,,,,,,,,,,,
null,,prac_atten_color_black,657074,,,,black_plus_sign,,,null,,,,,,,,,,,,,,,,,,,
413.69999998807907,,prac_atten_color,657837,,,,<p style='position:absolute;top: 50%;right: 50%;transform: translate(50%, -50%);font-size: 125px;color: blue;'>+</p>,,,49,,,,,,,,,,,,,,,,,,,
null,,prac_atten_color_black,659846,,,,black_plus_sign,,,null,,,,,,,,,,,,,,,,,,,
null,,prac_atten_color_black,660507,,,,black_plus_sign,,,null,,,,,,,,,,,,,,,,,,,
556.1999999880791,,prac_atten_color,661127,,,,<p style='position:absolute;top: 50%;right: 50%;transform: translate(50%, -50%);font-size: 125px;color: green;'>+</p>,,,50,,,,,,,,,,,,,,,,,,,
null,,prac_atten_color_black,663129,,,,black_plus_sign,,,null,,,,,,,,,,,,,,,,,,,
null,,prac_atten_color_black,663918,,,,black_plus_sign,,,null,,,,,,,,,,,,,,,,,,,
489.7000000178814,,prac_atten_color,664909,,,,<p style='position:absolute;top: 50%;right: 50%;transform: translate(50%, -50%);font-size: 125px;color: green;'>+</p>,,,50,,,,,,,,,,,,,,,,,,,
null,,prac_atten_color_black,666912,,,,black_plus_sign,,,null,,,,,,,,,,,,,,,,,,,
null,,prac_atten_color_black,667336,,,,black_plus_sign,,,null,,,,,,,,,,,,,,,,,,,
null,,prac_atten_color,667869,,,,<p style='position:absolute;top: 50%;right: 50%;transform: translate(50%, -50%);font-size: 125px;color: blue;'>+</p>,,,null,,,,,,,,,,,,,,,,,,,
125.80000001192093,,prac_atten_color_black,669879,,,,black_plus_sign,,,49,,,,,,,,,,,,,,,,,,,
null,,prac_atten_color_black,670763,,,,black_plus_sign,,,null,,,,,,,,,,,,,,,,,,,
null,,prac_atten_color,671207,,,,<p style='position:absolute;top: 50%;right: 50%;transform: translate(50%, -50%);font-size: 125px;color: green;'>+</p>,,,null,,,,,,,,,,,,,,,,,,,
69.5,,prac_atten_color_black,673210,,,,black_plus_sign,,,50,,,,,,,,,,,,,,,,,,,
null,,prac_atten_color_black,674183,,,,black_plus_sign,,,null,,,,,,,,,,,,,,,,,,,
407.5,,prac_atten_color,674921,,,,<p style='position:absolute;top: 50%;right: 50%;transform: translate(50%, -50%);font-size: 125px;color: blue;'>+</p>,,,49,,,,,,,,,,,,,,,,,,,
null,,prac_atten_color_black,676938,,,,black_plus_sign,,,null,,,,,,,,,,,,,,,,,,,
null,,prac_atten_color_black,677621,,,,black_plus_sign,,,null,,,,,,,,,,,,,,,,,,,
584.6999999880791,,prac_atten_color,678662,,,,<p style='position:absolute;top: 50%;right: 50%;transform: translate(50%, -50%);font-size: 125px;color: blue;'>+</p>,,,49,,,,,,,,,,,,,,,,,,,
null,,prac_atten_color_black,680673,,,,black_plus_sign,,,null,,,,,,,,,,,,,,,,,,,
13040.799999982119,,attentioncheck_feedback,693719,,,,cross_check_feedback,0,,,,,,,,,,,,,,,,,,,,,
5527.199999988079,,last_instruct,699250,,,,instruct,,,32,,,,,,,,,,,,,,,,,,,
null,,prac_learn_phase(without_color),702755,,,,black_plus_sign,,,null,object_05c.png,object_01b.png,,,,,,,,,,,,,,,,,
null,,prac_black_cross(without_color),703217,,,,blue,,,null,object_05c.png,object_01b.png,,,,,,,,,,,,,,,,,
null,,prac_rt_plussign_withcolor,703722,,,,blue,,,null,object_05c.png,object_01b.png,,,,,,,,,,,,,,,,,
1208.800000011921,,prac_rt_thecrossant_black,705277,,,,black_plus_sign,,,49,,,1,1,,,,,,,,,,,,,,,
null,,prac_color_black,705382,,,,black_plus_sign,,,null,,,,,,,,,,,,,,,,,,,
null,,prac_learn_phase(without_color),708895,,,,black_plus_sign,,,null,object_09b.png,object_03c.png,,,,,,,,,,,,,,,,,
null,,black_cross(without_color)1,709910,,,,blue,,,null,object_05c.png,object_01b.png,,,,,,,,,,,,,,,,,
null,,prac_rt_plussign_withcolor,710420,,,,blue,,,null,object_09b.png,object_03c.png,,,,,,,,,,,,,,,,,
849.8000000119209,,prac_rt_thecrossant_black,711649,,,,black_plus_sign,,,49,,,1,1,,,,,,,,,,,,,,,
null,,prac_color_black,711754,,,,black_plus_sign,,,null,,,,,,,,,,,,,,,,,,,
null,,prac_learn_phase(without_color),715262,,,,black_plus_sign,,,null,object_07b.png,object_05a.png,,,,,,,,,,,,,,,,,
null,,black_cross(without_color)1,716288,,,,blue,,,null,object_05c.png,object_01b.png,,,,,,,,,,,,,,,,,
null,,prac_rt_plussign_withcolor,716796,,,,blue,,,null,object_07b.png,object_05a.png,,,,,,,,,,,,,,,,,
995.6000000238419,,prac_rt_thecrossant_black,718278,,,,black_plus_sign,,,49,,,1,1,,,,,,,,,,,,,,,
null,,prac_color_black,718382,,,,black_plus_sign,,,null,,,,,,,,,,,,,,,,,,,
null,,prac_learn_phase(without_color),721888,,,,black_plus_sign,,,null,object_09c.png,object_02c.png,,,,,,,,,,,,,,,,,
null,,black_cross(without_color)1,722904,,,,blue,,,null,object_05c.png,object_01b.png,,,,,,,,,,,,,,,,,
null,,prac_rt_plussign_withcolor,723413,,,,blue,,,null,object_09c.png,object_02c.png,,,,,,,,,,,,,,,,,
674.0999999940395,,prac_rt_thecrossant_black,724854,,,,black_plus_sign,,,49,,,1,1,,,,,,,,,,,,,,,
null,,prac_color_black,724958,,,,black_plus_sign,,,null,,,,,,,,,,,,,,,,,,,
24892.5,,instruct_dir_01,749855,,,,instruct,0,Next,,,,,,,,,,,,,,,,,,,,
27610.70000001788,,instruct_dir_2,777475,,,,instruct,1,Next,,,,,,,,,,,,,,,,,,,,
6066.5,,instruct_dir_3,783547,,,,instruct,1,Next,,,,,,,,,,,,,,,,,,,,
8922,,instruct_dir_4,792475,,,,instruct,1,Start,,,,,,,,,,,,,,,,,,,,
null,,thebreak,792580,,,,<p></p>,,,null,,,,,,,,,,,,,,,,,,,
1953,,intro_0,794535,,,,instruct,,,32,,,,,,,,,,,,,,,,,,,
3085.800000011921,,prac_directmemory_phase,797623,,,,practice/object_04a.png,,,51,,,1,,practice/object_02b.png,practice/object_03a.png,practice/object_04b.png,practice/object_04b.png,1,1,,,,,,,,,
2084.0999999940395,,prac_directmemory_phase,799714,,,,practice/object_02a.png,,,50,,,1,,practice/object_04a.png,practice/object_02b.png,practice/object_01b.png,practice/object_02b.png,1,1,,,,,,,,,
3510.0999999940395,,prac_directmemory_phase,803230,,,,practice/object_03a.png,,,50,,,1,,practice/object_01a.png,practice/object_03b.png,practice/object_01b.png,practice/object_03b.png,1,1,,,,,,,,,
2376.5999999940395,,prac_directmemory_phase,805610,,,,practice/object_01a.png,,,50,,,1,,practice/object_04a.png,practice/object_01b.png,practice/object_03b.png,practice/object_01b.png,1,1,,,,,,,,,
4852.0999999940395,,practice_feedback,810467,,,,practice_feedback,1,,,,,,,,,,,,,,,,,,,,,
5471.199999988079,,proceed_actualTask,815942,,,,proceed_actualTask,1,Continue,,,,,,,,,,,,,,,,,,,,
2451,,last_inst,818396,,,,last_inst,,,32,,,,,,,,,,,,,,,,,,,
null,,learn_phase(without_color)1,821908,,,,black_plus_sign,,,null,object_05c.png,object_01b.png,,,,,,,,,,,,,,,,,
null,,black_cross(without_color)1,822924,,,,blue,,,null,object_05c.png,object_01b.png,,,,,,,,,,,,,,,,,
null,,rt_plussign_withcolor1,823433,,,,blue,,,null,object_05c.png,object_01b.png,,,,,,,,,,,,,,,,,
877.1999999880791,,rt_thecrossant_black1,824426,,,,black_plus_sign,,,49,,,1,,,,,,,1,,,,,,,,,
null,,color_black1,824530,,,,black_plus_sign,,,null,,,,,,,,,,,,,,,,,,,
null,,learn_phase(without_color)1,828042,,,,black_plus_sign,,,null,object_09b.png,object_03c.png,,,,,,,,,,,,,,,,,
null,,black_cross(without_color)1,828959,,,,blue,,,null,object_09b.png,object_03c.png,,,,,,,,,,,,,,,,,
null,,rt_plussign_withcolor1,829462,,,,blue,,,null,object_09b.png,object_03c.png,,,,,,,,,,,,,,,,,
830.9000000059605,,rt_thecrossant_black1,830565,,,,black_plus_sign,,,49,,,1,,,,,,,1,,,,,,,,,
null,,color_black1,830669,,,,black_plus_sign,,,null,,,,,,,,,,,,,,,,,,,
null,,learn_phase(without_color)1,834189,,,,black_plus_sign,,,null,object_07b.png,object_05a.png,,,,,,,,,,,,,,,,,
null,,black_cross(without_color)1,834847,,,,green,,,null,object_07b.png,object_05a.png,,,,,,,,,,,,,,,,,
null,,rt_plussign_withcolor1,835357,,,,green,,,null,object_07b.png,object_05a.png,,,,,,,,,,,,,,,,,
1107.4000000059605,,rt_thecrossant_black1,836711,,,,black_plus_sign,,,50,,,1,,,,,,,1,,,,,,,,,
null,,color_black1,836814,,,,black_plus_sign,,,null,,,,,,,,,,,,,,,,,,,
null,,learn_phase(without_color)1,840322,,,,black_plus_sign,,,null,object_09c.png,object_02c.png,,,,,,,,,,,,,,,,,
null,,black_cross(without_color)1,841415,,,,blue,,,null,object_09c.png,object_02c.png,,,,,,,,,,,,,,,,,
null,,rt_plussign_withcolor1,841919,,,,blue,,,null,object_09c.png,object_02c.png,,,,,,,,,,,,,,,,,
907.6999999880791,,rt_thecrossant_black1,842846,,,,black_plus_sign,,,49,,,1,,,,,,,1,,,,,,,,,
null,,color_black1,842952,,,,black_plus_sign,,,null,,,,,,,,,,,,,,,,,,,
null,,learn_phase(without_color)1,846463,,,,black_plus_sign,,,null,object_06b.png,object_07c.png,,,,,,,,,,,,,,,,,
null,,black_cross(without_color)1,847471,,,,green,,,null,object_06b.png,object_07c.png,,,,,,,,,,,,,,,,,
null,,rt_plussign_withcolor1,847974,,,,green,,,null,object_06b.png,object_07c.png,,,,,,,,,,,,,,,,,
1417.0999999940395,,rt_thecrossant_black1,848982,,,,black_plus_sign,,,50,,,1,,,,,,,1,,,,,,,,,
null,,color_black1,849139,,,,black_plus_sign,,,null,,,,,,,,,,,,,,,,,,,
null,,learn_phase(without_color)1,852651,,,,black_plus_sign,,,null,object_02a.png,object_11a.png,,,,,,,,,,,,,,,,,
null,,black_cross(without_color)1,853186,,,,green,,,null,object_02a.png,object_11a.png,,,,,,,,,,,,,,,,,
null,,rt_plussign_withcolor1,853695,,,,green,,,null,object_02a.png,object_11a.png,,,,,,,,,,,,,,,,,
1298.3999999761581,,rt_thecrossant_black1,855186,,,,black_plus_sign,,,50,,,1,,,,,,,1,,,,,,,,,
null,,color_black1,855289,,,,black_plus_sign,,,null,,,,,,,,,,,,,,,,,,,
null,,learn_phase(without_color)1,858802,,,,black_plus_sign,,,null,object_04c.png,object_14b.png,,,,,,,,,,,,,,,,,
null,,black_cross(without_color)1,859347,,,,green,,,null,object_04c.png,object_14b.png,,,,,,,,,,,,,,,,,
466.5,,rt_plussign_withcolor1,859850,,,,green,,,50,object_04c.png,object_14b.png,,,,,,,,,,,,,,,,,
null,,rt_thecrossant_black1,861320,,,,black_plus_sign,,,null,,,1,,,,,,,1,,,,,,,,,
null,,color_black1,861423,,,,black_plus_sign,,,null,,,,,,,,,,,,,,,,,,,
null,,learn_phase(without_color)1,864936,,,,black_plus_sign,,,null,object_13c.png,object_03c.png,,,,,,,,,,,,,,,,,
null,,black_cross(without_color)1,865860,,,,blue,,,null,object_13c.png,object_03c.png,,,,,,,,,,,,,,,,,
null,,rt_plussign_withcolor1,866363,,,,blue,,,null,object_13c.png,object_03c.png,,,,,,,,,,,,,,,,,
680.5,,rt_thecrossant_black1,867449,,,,black_plus_sign,,,49,,,1,,,,,,,1,,,,,,,,,
null,,color_black1,867553,,,,black_plus_sign,,,null,,,,,,,,,,,,,,,,,,,
null,,learn_phase(without_color)1,871063,,,,black_plus_sign,,,null,object_15c.png,object_08a.png,,,,,,,,,,,,,,,,,
null,,black_cross(without_color)1,872074,,,,blue,,,null,object_15c.png,object_08a.png,,,,,,,,,,,,,,,,,
null,,rt_plussign_withcolor1,872584,,,,blue,,,null,object_15c.png,object_08a.png,,,,,,,,,,,,,,,,,
1080,,rt_thecrossant_black1,873588,,,,black_plus_sign,,,49,,,1,,,,,,,1,,,,,,,,,
null,,color_black1,873692,,,,black_plus_sign,,,null,,,,,,,,,,,,,,,,,,,
null,,learn_phase(without_color)1,877197,,,,black_plus_sign,,,null,object_10b.png,object_07a.png,,,,,,,,,,,,,,,,,
null,,black_cross(without_color)1,877925,,,,blue,,,null,object_10b.png,object_07a.png,,,,,,,,,,,,,,,,,
null,,rt_plussign_withcolor1,878435,,,,blue,,,null,object_10b.png,object_07a.png,,,,,,,,,,,,,,,,,
1178.5999999940395,,rt_thecrossant_black1,879726,,,,black_plus_sign,,,49,,,1,,,,,,,1,,,,,,,,,
null,,color_black1,879830,,,,black_plus_sign,,,null,,,,,,,,,,,,,,,,,,,
null,,learn_phase(without_color)1,883334,,,,black_plus_sign,,,null,object_05c.png,object_01a.png,,,,,,,,,,,,,,,,,
null,,black_cross(without_color)1,884198,,,,green,,,null,object_05c.png,object_01a.png,,,,,,,,,,,,,,,,,
null,,rt_plussign_withcolor1,884701,,,,green,,,null,object_05c.png,object_01a.png,,,,,,,,,,,,,,,,,
1008.1000000238419,,rt_thecrossant_black1,885864,,,,black_plus_sign,,,50,,,1,,,,,,,1,,,,,,,,,
null,,color_black1,885967,,,,black_plus_sign,,,null,,,,,,,,,,,,,,,,,,,
null,,learn_phase(without_color)1,889477,,,,black_plus_sign,,,null,object_03b.png,object_11b.png,,,,,,,,,,,,,,,,,
null,,black_cross(without_color)1,890171,,,,blue,,,null,object_03b.png,object_11b.png,,,,,,,,,,,,,,,,,
null,,rt_plussign_withcolor1,890674,,,,blue,,,null,object_03b.png,object_11b.png,,,,,,,,,,,,,,,,,
1056.199999988079,,rt_thecrossant_black1,891997,,,,black_plus_sign,,,49,,,1,,,,,,,1,,,,,,,,,
null,,color_black1,892100,,,,black_plus_sign,,,null,,,,,,,,,,,,,,,,,,,
null,,learn_phase(without_color)1,895617,,,,black_plus_sign,,,null,object_05b.png,object_15a.png,,,,,,,,,,,,,,,,,
null,,black_cross(without_color)1,896107,,,,blue,,,null,object_05b.png,object_15a.png,,,,,,,,,,,,,,,,,
null,,rt_plussign_withcolor1,896616,,,,blue,,,null,object_05b.png,object_15a.png,,,,,,,,,,,,,,,,,
860.1999999880791,,rt_thecrossant_black1,898145,,,,black_plus_sign,,,49,,,1,,,,,,,1,,,,,,,,,
null,,color_black1,898249,,,,black_plus_sign,,,null,,,,,,,,,,,,,,,,,,,
null,,learn_phase(without_color)1,901754,,,,black_plus_sign,,,null,object_04a.png,object_15c.png,,,,,,,,,,,,,,,,,
null,,black_cross(without_color)1,902308,,,,green,,,null,object_04a.png,object_15c.png,,,,,,,,,,,,,,,,,
null,,rt_plussign_withcolor1,902811,,,,green,,,null,object_04a.png,object_15c.png,,,,,,,,,,,,,,,,,
827.1999999880791,,rt_thecrossant_black1,904268,,,,black_plus_sign,,,50,,,1,,,,,,,1,,,,,,,,,
null,,color_black1,904372,,,,black_plus_sign,,,null,,,,,,,,,,,,,,,,,,,
null,,learn_phase(without_color)1,907885,,,,black_plus_sign,,,null,object_02a.png,object_10a.png,,,,,,,,,,,,,,,,,
null,,black_cross(without_color)1,908763,,,,blue,,,null,object_02a.png,object_10a.png,,,,,,,,,,,,,,,,,
null,,rt_plussign_withcolor1,909273,,,,blue,,,null,object_02a.png,object_10a.png,,,,,,,,,,,,,,,,,
709.9000000059605,,rt_thecrossant_black1,910409,,,,black_plus_sign,,,49,,,1,,,,,,,1,,,,,,,,,
null,,color_black1,910513,,,,black_plus_sign,,,null,,,,,,,,,,,,,,,,,,,
null,,learn_phase(without_color)1,914034,,,,black_plus_sign,,,null,object_04b.png,object_12b.png,,,,,,,,,,,,,,,,,
null,,black_cross(without_color)1,914928,,,,green,,,null,object_04b.png,object_12b.png,,,,,,,,,,,,,,,,,
null,,rt_plussign_withcolor1,915432,,,,green,,,null,object_04b.png,object_12b.png,,,,,,,,,,,,,,,,,
1124.7000000178814,,rt_thecrossant_black1,916546,,,,black_plus_sign,,,50,,,1,,,,,,,1,,,,,,,,,
null,,color_black1,916650,,,,black_plus_sign,,,null,,,,,,,,,,,,,,,,,,,
null,,learn_phase(without_color)1,920155,,,,black_plus_sign,,,null,object_14c.png,object_08b.png,,,,,,,,,,,,,,,,,
null,,black_cross(without_color)1,921081,,,,green,,,null,object_14c.png,object_08b.png,,,,,,,,,,,,,,,,,
null,,rt_plussign_withcolor1,921584,,,,green,,,null,object_14c.png,object_08b.png,,,,,,,,,,,,,,,,,
1056,,rt_thecrossant_black1,922673,,,,black_plus_sign,,,50,,,1,,,,,,,1,,,,,,,,,
null,,color_black1,922779,,,,black_plus_sign,,,null,,,,,,,,,,,,,,,,,,,
null,,learn_phase(without_color)1,926291,,,,black_plus_sign,,,null,object_07b.png,object_11c.png,,,,,,,,,,,,,,,,,
null,,black_cross(without_color)1,927368,,,,green,,,null,object_07b.png,object_11c.png,,,,,,,,,,,,,,,,,
null,,rt_plussign_withcolor1,927871,,,,green,,,null,object_07b.png,object_11c.png,,,,,,,,,,,,,,,,,
1112.9000000059605,,rt_thecrossant_black1,928819,,,,black_plus_sign,,,50,,,1,,,,,,,1,,,,,,,,,
null,,color_black1,928922,,,,black_plus_sign,,,null,,,,,,,,,,,,,,,,,,,
null,,learn_phase(without_color)1,932434,,,,black_plus_sign,,,null,object_03a.png,object_14c.png,,,,,,,,,,,,,,,,,
null,,black_cross(without_color)1,933063,,,,blue,,,null,object_03a.png,object_14c.png,,,,,,,,,,,,,,,,,
null,,rt_plussign_withcolor1,933572,,,,blue,,,null,object_03a.png,object_14c.png,,,,,,,,,,,,,,,,,
1254.800000011921,,rt_thecrossant_black1,934955,,,,black_plus_sign,,,49,,,1,,,,,,,1,,,,,,,,,
null,,color_black1,935058,,,,black_plus_sign,,,null,,,,,,,,,,,,,,,,,,,
null,,learn_phase(without_color)1,938562,,,,black_plus_sign,,,null,object_06c.png,object_01c.png,,,,,,,,,,,,,,,,,
null,,black_cross(without_color)1,939003,,,,blue,,,null,object_06c.png,object_01c.png,,,,,,,,,,,,,,,,,
495.7999999821186,,rt_plussign_withcolor1,939507,,,,blue,,,49,object_06c.png,object_01c.png,,,,,,,,,,,,,,,,,
null,,rt_thecrossant_black1,941080,,,,black_plus_sign,,,null,,,1,,,,,,,1,,,,,,,,,
null,,color_black1,941184,,,,black_plus_sign,,,null,,,,,,,,,,,,,,,,,,,
null,,learn_phase(without_color)1,944690,,,,black_plus_sign,,,null,object_04c.png,object_13b.png,,,,,,,,,,,,,,,,,
null,,black_cross(without_color)1,945674,,,,blue,,,null,object_04c.png,object_13b.png,,,,,,,,,,,,,,,,,
null,,rt_plussign_withcolor1,946183,,,,blue,,,null,object_04c.png,object_13b.png,,,,,,,,,,,,,,,,,
820.1999999880791,,rt_thecrossant_black1,947223,,,,black_plus_sign,,,49,,,1,,,,,,,1,,,,,,,,,
null,,color_black1,947327,,,,black_plus_sign,,,null,,,,,,,,,,,,,,,,,,,
null,,learn_phase(without_color)1,950831,,,,black_plus_sign,,,null,object_09c.png,object_15b.png,,,,,,,,,,,,,,,,,
null,,black_cross(without_color)1,951923,,,,blue,,,null,object_09c.png,object_15b.png,,,,,,,,,,,,,,,,,
null,,rt_plussign_withcolor1,952427,,,,blue,,,null,object_09c.png,object_15b.png,,,,,,,,,,,,,,,,,
1275.800000011921,,rt_thecrossant_black1,953345,,,,black_plus_sign,,,49,,,1,,,,,,,1,,,,,,,,,
null,,color_black1,953448,,,,black_plus_sign,,,null,,,,,,,,,,,,,,,,,,,
null,,learn_phase(without_color)1,956954,,,,black_plus_sign,,,null,object_09a.png,object_07a.png,,,,,,,,,,,,,,,,,
null,,black_cross(without_color)1,957491,,,,green,,,null,object_09a.png,object_07a.png,,,,,,,,,,,,,,,,,
null,,rt_plussign_withcolor1,957994,,,,green,,,null,object_09a.png,object_07a.png,,,,,,,,,,,,,,,,,
1369.4000000059605,,rt_thecrossant_black1,959465,,,,black_plus_sign,,,50,,,1,,,,,,,1,,,,,,,,,
null,,color_black1,959568,,,,black_plus_sign,,,null,,,,,,,,,,,,,,,,,,,
null,,learn_phase(without_color)1,963072,,,,black_plus_sign,,,null,object_10c.png,object_06a.png,,,,,,,,,,,,,,,,,
null,,black_cross(without_color)1,964150,,,,blue,,,null,object_10c.png,object_06a.png,,,,,,,,,,,,,,,,,
452.39999997615814,,rt_plussign_withcolor1,964654,,,,blue,,,49,object_10c.png,object_06a.png,,,,,,,,,,,,,,,,,
null,,rt_thecrossant_black1,965584,,,,black_plus_sign,,,null,,,1,,,,,,,1,,,,,,,,,
null,,color_black1,965687,,,,black_plus_sign,,,null,,,,,,,,,,,,,,,,,,,
null,,learn_phase(without_color)1,969199,,,,black_plus_sign,,,null,object_02b.png,object_04b.png,,,,,,,,,,,,,,,,,
null,,black_cross(without_color)1,969673,,,,green,,,null,object_02b.png,object_04b.png,,,,,,,,,,,,,,,,,
null,,rt_plussign_withcolor1,970176,,,,green,,,null,object_02b.png,object_04b.png,,,,,,,,,,,,,,,,,
1321.300000011921,,rt_thecrossant_black1,971717,,,,black_plus_sign,,,50,,,1,,,,,,,1,,,,,,,,,
null,,color_black1,971821,,,,black_plus_sign,,,null,,,,,,,,,,,,,,,,,,,
null,,learn_phase(without_color)1,975333,,,,black_plus_sign,,,null,object_15a.png,object_14a.png,,,,,,,,,,,,,,,,,
null,,black_cross(without_color)1,976417,,,,blue,,,null,object_15a.png,object_14a.png,,,,,,,,,,,,,,,,,
null,,rt_plussign_withcolor1,976926,,,,blue,,,null,object_15a.png,object_14a.png,,,,,,,,,,,,,,,,,
625.7999999821186,,rt_thecrossant_black1,977865,,,,black_plus_sign,,,49,,,1,,,,,,,1,,,,,,,,,
null,,color_black1,977968,,,,black_plus_sign,,,null,,,,,,,,,,,,,,,,,,,
null,,learn_phase(without_color)1,981480,,,,black_plus_sign,,,null,object_12c.png,object_06b.png,,,,,,,,,,,,,,,,,
null,,black_cross(without_color)1,982107,,,,blue,,,null,object_12c.png,object_06b.png,,,,,,,,,,,,,,,,,
null,,rt_plussign_withcolor1,982617,,,,blue,,,null,object_12c.png,object_06b.png,,,,,,,,,,,,,,,,,
1440.4000000059605,,rt_thecrossant_black1,984004,,,,black_plus_sign,,,49,,,1,,,,,,,1,,,,,,,,,
null,,color_black1,984109,,,,black_plus_sign,,,null,,,,,,,,,,,,,,,,,,,
null,,learn_phase(without_color)1,987633,,,,black_plus_sign,,,null,object_11b.png,object_13a.png,,,,,,,,,,,,,,,,,
null,,black_cross(without_color)1,988695,,,,green,,,null,object_11b.png,object_13a.png,,,,,,,,,,,,,,,,,
null,,rt_plussign_withcolor1,989198,,,,green,,,null,object_11b.png,object_13a.png,,,,,,,,,,,,,,,,,
945.8999999761581,,rt_thecrossant_black1,990161,,,,black_plus_sign,,,50,,,1,,,,,,,1,,,,,,,,,
null,,color_black1,990266,,,,black_plus_sign,,,null,,,,,,,,,,,,,,,,,,,
null,,learn_phase(without_color)1,993771,,,,black_plus_sign,,,null,object_12a.png,object_06a.png,,,,,,,,,,,,,,,,,
null,,black_cross(without_color)1,994768,,,,blue,,,null,object_12a.png,object_06a.png,,,,,,,,,,,,,,,,,
null,,rt_plussign_withcolor1,995271,,,,blue,,,null,object_12a.png,object_06a.png,,,,,,,,,,,,,,,,,
1203.7000000178814,,rt_thecrossant_black1,996288,,,,black_plus_sign,,,49,,,1,,,,,,,1,,,,,,,,,
null,,color_black1,996393,,,,black_plus_sign,,,null,,,,,,,,,,,,,,,,,,,
null,,learn_phase(without_color)1,999904,,,,black_plus_sign,,,null,object_08c.png,object_01c.png,,,,,,,,,,,,,,,,,
null,,black_cross(without_color)1,1000636,,,,blue,,,null,object_08c.png,object_01c.png,,,,,,,,,,,,,,,,,
null,,rt_plussign_withcolor1,1001147,,,,blue,,,null,object_08c.png,object_01c.png,,,,,,,,,,,,,,,,,
1201.5999999940395,,rt_thecrossant_black1,1002429,,,,black_plus_sign,,,49,,,1,,,,,,,1,,,,,,,,,
null,,color_black1,1002533,,,,black_plus_sign,,,null,,,,,,,,,,,,,,,,,,,
null,,thebreak,1002643,,,,<p></p>,,,null,,,,,,,,,,,,,,,,,,,
54898.39999997616,,intro_0,1057543,,,,instruct,,,32,,,,,,,,,,,,,,,,,,,
6941.199999988079,,directmemory_phase1,1064487,,,,object_01a.png,,,50,,,0,,object_04c.png,object_13a.png,object_05c.png,object_05c.png,,0,0,,,,,,,,
null,,directmemory_phase1,1079495,,,,object_05b.png,,,null,,,0,,object_01c.png,object_09b.png,object_15a.png,object_15a.png,,0,0,,,,,,,,
null,,warning_page,1084501,,,,warning,,,null,,,,,,,,,,,,,,,,,,,
6455.300000011921,,directmemory_phase1,1090993,,,,object_15c.png,,,51,,,1,,object_08c.png,object_06a.png,object_04a.png,object_04a.png,,0.3333333333333333,1,,,,,,,,
7433.199999988079,,directmemory_phase1,1098432,,,,object_09c.png,,,50,,,1,,object_01c.png,object_15b.png,object_03b.png,object_15b.png,,0.5,1,,,,,,,,
3404.300000011921,,directmemory_phase1,1101842,,,,object_08a.png,,,49,,,1,,object_15c.png,object_07a.png,object_12c.png,object_15c.png,,0.6,1,,,,,,,,
5755.4000000059605,,directmemory_phase1,1107604,,,,object_01c.png,,,50,,,1,,object_05c.png,object_08c.png,object_04a.png,object_08c.png,,0.6666666666666666,1,,,,,,,,
4725.5999999940395,,directmemory_phase1,1112334,,,,object_05a.png,,,50,,,1,,object_01a.png,object_07b.png,object_07a.png,object_07b.png,,0.7142857142857143,1,,,,,,,,
8748.100000023842,,directmemory_phase1,1121087,,,,object_13c.png,,,50,,,1,,object_12a.png,object_03c.png,object_04c.png,object_03c.png,,0.75,1,,,,,,,,
4811.199999988079,,directmemory_phase1,1125904,,,,object_07a.png,,,50,,,1,,object_06b.png,object_10b.png,object_12a.png,object_10b.png,,0.7777777777777778,1,,,,,,,,
5656,,directmemory_phase1,1131566,,,,object_11b.png,,,50,,,1,,object_15a.png,object_03b.png,object_10b.png,object_03b.png,,0.8,1,,,,,,,,
5106.5,,directmemory_phase1,1136677,,,,object_06c.png,,,51,,,1,,object_15c.png,object_10a.png,object_01c.png,object_01c.png,,0.8181818181818182,1,,,,,,,,
5748.600000023842,,directmemory_phase1,1142430,,,,object_02a.png,,,51,,,1,,object_15b.png,object_07a.png,object_11a.png,object_11a.png,,0.8333333333333334,1,,,,,,,,
8446.200000017881,,directmemory_phase1,1150882,,,,object_12c.png,,,49,,,1,,object_06b.png,object_03c.png,object_09a.png,object_06b.png,,0.8461538461538461,1,,,,,,,,
6896.5,,directmemory_phase1,1157784,,,,object_09b.png,,,51,,,1,,object_07b.png,object_06c.png,object_03c.png,object_03c.png,,0.8571428571428571,1,,,,,,,,
2830,,directmemory_phase1,1160618,,,,object_14b.png,,,49,,,1,,object_04c.png,object_15c.png,object_02c.png,object_04c.png,,0.8666666666666667,1,,,,,,,,
7118.9000000059605,,directmemory_phase1,1167740,,,,object_13a.png,,,50,,,1,,object_09a.png,object_11b.png,object_15c.png,object_11b.png,,0.875,1,,,,,,,,
2528.0999999940395,,directmemory_phase1,1170274,,,,object_10c.png,,,49,,,1,,object_06a.png,object_02a.png,object_01a.png,object_06a.png,,0.8823529411764706,1,,,,,,,,
9417.799999982119,,directmemory_phase1,1179698,,,,object_06b.png,,,49,,,1,,object_07c.png,object_13c.png,object_06a.png,object_07c.png,,0.8888888888888888,1,,,,,,,,
8263.90000000596,,directmemory_phase1,1187967,,,,object_02b.png,,,50,,,1,,object_15b.png,object_04b.png,object_06a.png,object_04b.png,,0.8947368421052632,1,,,,,,,,
5387.700000017881,,directmemory_phase1,1193359,,,,object_03a.png,,,50,,,1,,object_09a.png,object_14c.png,object_07a.png,object_14c.png,,0.9,1,,,,,,,,
3631.7000000178814,,directmemory_phase1,1196995,,,,object_01b.png,,,51,,,1,,object_07b.png,object_12a.png,object_05c.png,object_05c.png,,0.9047619047619048,1,,,,,,,,
4427.5999999940395,,directmemory_phase1,1201429,,,,object_10a.png,,,49,,,1,,object_02a.png,object_06b.png,object_13a.png,object_02a.png,,0.9090909090909091,1,,,,,,,,
4965.0999999940395,,directmemory_phase1,1206399,,,,object_04c.png,,,50,,,1,,object_02a.png,object_13b.png,object_15b.png,object_13b.png,,0.9130434782608695,1,,,,,,,,
2570.899999976158,,directmemory_phase1,1208975,,,,object_07b.png,,,50,,,1,,object_06a.png,object_11c.png,object_02b.png,object_11c.png,,0.9166666666666666,1,,,,,,,,
5805.4000000059605,,directmemory_phase1,1214785,,,,object_12b.png,,,50,,,1,,object_13a.png,object_04b.png,object_07b.png,object_04b.png,,0.92,1,,,,,,,,
6072.5999999940395,,directmemory_phase1,1220863,,,,object_02c.png,,,51,,,1,,object_07a.png,object_14b.png,object_09c.png,object_09c.png,,0.9230769230769231,1,,,,,,,,
6399.399999976158,,directmemory_phase1,1227269,,,,object_08b.png,,,50,,,1,,object_14a.png,object_14c.png,object_04c.png,object_14c.png,,0.9259259259259259,1,,,,,,,,
7621.4000000059605,,directmemory_phase1,1234894,,,,object_06a.png,,,51,,,1,,object_10b.png,object_11b.png,object_12a.png,object_12a.png,,0.9285714285714286,1,,,,,,,,
4857.300000011921,,directmemory_phase1,1239756,,,,object_14a.png,,,51,,,1,,object_02a.png,object_03b.png,object_15a.png,object_15a.png,,0.9310344827586207,1,,,,,,,,
3430.9000000059605,,directmemory_phase1,1243193,,,,object_09a.png,,,51,,,1,,object_06b.png,object_02c.png,object_07a.png,object_07a.png,,0.9333333333333333,1,,,,,,,,
null,,thebreak,1243299,,,,<p></p>,,,null,,,,,,,,,,,,,,,,,,,
1455.800000011921,,intro_0,1244757,,,,instruct,,,32,,,,,,,,,,,,,,,,,,,
null,,learn_phase(without_color)2,1248262,,,,black_plus_sign,,,null,object_01c.png,object_06c.png,,,,,,,,,,,,,,,,,
null,,black_cross(without_color)2,1248726,,,,green,,,null,object_01c.png,object_06c.png,,,,,,,,,,,,,,,,,
null,,rt_plussign_withcolor2,1249229,,,,green,,,null,object_01c.png,object_06c.png,,,,,,,,,,,,,,,,,
1289.699999988079,,rt_thecrossant_black2,1250782,,,,black_plus_sign,,,50,,,1,,,,,,,1,,,,,,,,,
null,,color_black2,1250885,,,,black_plus_sign,,,null,,,,,,,,,,,,,,,,,,,
null,,learn_phase(without_color)2,1254396,,,,black_plus_sign,,,null,object_14c.png,object_03a.png,,,,,,,,,,,,,,,,,
null,,black_cross(without_color)2,1255041,,,,blue,,,null,object_14c.png,object_03a.png,,,,,,,,,,,,,,,,,
null,,rt_plussign_withcolor2,1255549,,,,blue,,,null,object_14c.png,object_03a.png,,,,,,,,,,,,,,,,,
660.7999999821186,,rt_thecrossant_black2,1256913,,,,black_plus_sign,,,49,,,1,,,,,,,1,,,,,,,,,
null,,color_black2,1257017,,,,black_plus_sign,,,null,,,,,,,,,,,,,,,,,,,
null,,learn_phase(without_color)2,1260528,,,,black_plus_sign,,,null,object_01c.png,object_08c.png,,,,,,,,,,,,,,,,,
null,,black_cross(without_color)2,1261615,,,,blue,,,null,object_01c.png,object_08c.png,,,,,,,,,,,,,,,,,
null,,rt_plussign_withcolor2,1262126,,,,blue,,,null,object_01c.png,object_08c.png,,,,,,,,,,,,,,,,,
954.4000000059605,,rt_thecrossant_black2,1263056,,,,black_plus_sign,,,49,,,1,,,,,,,1,,,,,,,,,
null,,color_black2,1263160,,,,black_plus_sign,,,null,,,,,,,,,,,,,,,,,,,
null,,learn_phase(without_color)2,1266676,,,,black_plus_sign,,,null,object_02a.png,object_11a.png,,,,,,,,,,,,,,,,,
null,,black_cross(without_color)2,1267236,,,,green,,,null,object_02a.png,object_11a.png,,,,,,,,,,,,,,,,,
null,,rt_plussign_withcolor2,1267740,,,,green,,,null,object_02a.png,object_11a.png,,,,,,,,,,,,,,,,,
1682,,rt_thecrossant_black2,1269188,,,,black_plus_sign,,,50,,,1,,,,,,,1,,,,,,,,,
null,,color_black2,1269292,,,,black_plus_sign,,,null,,,,,,,,,,,,,,,,,,,
null,,learn_phase(without_color)2,1272797,,,,black_plus_sign,,,null,object_15b.png,object_09c.png,,,,,,,,,,,,,,,,,
null,,black_cross(without_color)2,1273258,,,,green,,,null,object_15b.png,object_09c.png,,,,,,,,,,,,,,,,,
null,,rt_plussign_withcolor2,1273769,,,,green,,,null,object_15b.png,object_09c.png,,,,,,,,,,,,,,,,,
1122.800000011921,,rt_thecrossant_black2,1275323,,,,black_plus_sign,,,50,,,1,,,,,,,1,,,,,,,,,
null,,color_black2,1275427,,,,black_plus_sign,,,null,,,,,,,,,,,,,,,,,,,
null,,learn_phase(without_color)2,1278933,,,,black_plus_sign,,,null,object_14c.png,object_08b.png,,,,,,,,,,,,,,,,,
null,,black_cross(without_color)2,1279501,,,,blue,,,null,object_14c.png,object_08b.png,,,,,,,,,,,,,,,,,
null,,rt_plussign_withcolor2,1280004,,,,blue,,,null,object_14c.png,object_08b.png,,,,,,,,,,,,,,,,,
769.2999999821186,,rt_thecrossant_black2,1281450,,,,black_plus_sign,,,49,,,1,,,,,,,1,,,,,,,,,
null,,color_black2,1281555,,,,black_plus_sign,,,null,,,,,,,,,,,,,,,,,,,
null,,learn_phase(without_color)2,1285059,,,,black_plus_sign,,,null,object_02b.png,object_04b.png,,,,,,,,,,,,,,,,,
null,,black_cross(without_color)2,1285676,,,,green,,,null,object_02b.png,object_04b.png,,,,,,,,,,,,,,,,,
null,,rt_plussign_withcolor2,1286186,,,,green,,,null,object_02b.png,object_04b.png,,,,,,,,,,,,,,,,,
1074.0999999940395,,rt_thecrossant_black2,1287582,,,,black_plus_sign,,,50,,,1,,,,,,,1,,,,,,,,,
null,,color_black2,1287687,,,,black_plus_sign,,,null,,,,,,,,,,,,,,,,,,,
null,,learn_phase(without_color)2,1291198,,,,black_plus_sign,,,null,object_09a.png,object_07a.png,,,,,,,,,,,,,,,,,
null,,black_cross(without_color)2,1291879,,,,blue,,,null,object_09a.png,object_07a.png,,,,,,,,,,,,,,,,,
null,,rt_plussign_withcolor2,1292382,,,,blue,,,null,object_09a.png,object_07a.png,,,,,,,,,,,,,,,,,
732.2000000178814,,rt_thecrossant_black2,1293716,,,,black_plus_sign,,,49,,,1,,,,,,,1,,,,,,,,,
null,,color_black2,1293820,,,,black_plus_sign,,,null,,,,,,,,,,,,,,,,,,,
null,,learn_phase(without_color)2,1297333,,,,black_plus_sign,,,null,object_10c.png,object_06a.png,,,,,,,,,,,,,,,,,
null,,black_cross(without_color)2,1298390,,,,blue,,,null,object_10c.png,object_06a.png,,,,,,,,,,,,,,,,,
null,,rt_plussign_withcolor2,1298893,,,,blue,,,null,object_10c.png,object_06a.png,,,,,,,,,,,,,,,,,
814.7999999821186,,rt_thecrossant_black2,1299861,,,,black_plus_sign,,,49,,,1,,,,,,,1,,,,,,,,,
null,,color_black2,1299965,,,,black_plus_sign,,,null,,,,,,,,,,,,,,,,,,,
null,,learn_phase(without_color)2,1303470,,,,black_plus_sign,,,null,object_02a.png,object_10a.png,,,,,,,,,,,,,,,,,
null,,black_cross(without_color)2,1304365,,,,green,,,null,object_02a.png,object_10a.png,,,,,,,,,,,,,,,,,
null,,rt_plussign_withcolor2,1304874,,,,green,,,null,object_02a.png,object_10a.png,,,,,,,,,,,,,,,,,
1402.5,,rt_thecrossant_black2,1305994,,,,black_plus_sign,,,50,,,1,,,,,,,1,,,,,,,,,
null,,color_black2,1306098,,,,black_plus_sign,,,null,,,,,,,,,,,,,,,,,,,
null,,learn_phase(without_color)2,1309612,,,,black_plus_sign,,,null,object_14a.png,object_15a.png,,,,,,,,,,,,,,,,,
null,,black_cross(without_color)2,1310595,,,,blue,,,null,object_14a.png,object_15a.png,,,,,,,,,,,,,,,,,
null,,rt_plussign_withcolor2,1311109,,,,blue,,,null,object_14a.png,object_15a.png,,,,,,,,,,,,,,,,,
1010.2999999821186,,rt_thecrossant_black2,1312149,,,,black_plus_sign,,,49,,,1,,,,,,,1,,,,,,,,,
null,,color_black2,1312253,,,,black_plus_sign,,,null,,,,,,,,,,,,,,,,,,,
null,,learn_phase(without_color)2,1315760,,,,black_plus_sign,,,null,object_13b.png,object_04c.png,,,,,,,,,,,,,,,,,
null,,black_cross(without_color)2,1316224,,,,blue,,,null,object_13b.png,object_04c.png,,,,,,,,,,,,,,,,,
null,,rt_plussign_withcolor2,1316732,,,,blue,,,null,object_13b.png,object_04c.png,,,,,,,,,,,,,,,,,
1253.3999999761581,,rt_thecrossant_black2,1318278,,,,black_plus_sign,,,49,,,1,,,,,,,1,,,,,,,,,
null,,color_black2,1318382,,,,black_plus_sign,,,null,,,,,,,,,,,,,,,,,,,
null,,learn_phase(without_color)2,1321892,,,,black_plus_sign,,,null,object_01b.png,object_05c.png,,,,,,,,,,,,,,,,,
null,,black_cross(without_color)2,1322777,,,,blue,,,null,object_01b.png,object_05c.png,,,,,,,,,,,,,,,,,
null,,rt_plussign_withcolor2,1323282,,,,blue,,,null,object_01b.png,object_05c.png,,,,,,,,,,,,,,,,,
603.9000000059605,,rt_thecrossant_black2,1324413,,,,black_plus_sign,,,49,,,1,,,,,,,1,,,,,,,,,
null,,color_black2,1324516,,,,black_plus_sign,,,null,,,,,,,,,,,,,,,,,,,
null,,learn_phase(without_color)2,1328022,,,,black_plus_sign,,,null,object_03c.png,object_09b.png,,,,,,,,,,,,,,,,,
null,,black_cross(without_color)2,1328580,,,,blue,,,null,object_03c.png,object_09b.png,,,,,,,,,,,,,,,,,
null,,rt_plussign_withcolor2,1329084,,,,blue,,,null,object_03c.png,object_09b.png,,,,,,,,,,,,,,,,,
1100.3999999761581,,rt_thecrossant_black2,1330535,,,,black_plus_sign,,,49,,,1,,,,,,,1,,,,,,,,,
null,,color_black2,1330641,,,,black_plus_sign,,,null,,,,,,,,,,,,,,,,,,,
null,,learn_phase(without_color)2,1334146,,,,black_plus_sign,,,null,object_07b.png,object_11c.png,,,,,,,,,,,,,,,,,
null,,black_cross(without_color)2,1334942,,,,green,,,null,object_07b.png,object_11c.png,,,,,,,,,,,,,,,,,
null,,rt_plussign_withcolor2,1335445,,,,green,,,null,object_07b.png,object_11c.png,,,,,,,,,,,,,,,,,
924.1999999880791,,rt_thecrossant_black2,1336664,,,,black_plus_sign,,,50,,,1,,,,,,,1,,,,,,,,,
null,,color_black2,1336770,,,,black_plus_sign,,,null,,,,,,,,,,,,,,,,,,,
null,,learn_phase(without_color)2,1340282,,,,black_plus_sign,,,null,object_13a.png,object_11b.png,,,,,,,,,,,,,,,,,
null,,black_cross(without_color)2,1340797,,,,green,,,null,object_13a.png,object_11b.png,,,,,,,,,,,,,,,,,
null,,rt_plussign_withcolor2,1341307,,,,green,,,null,object_13a.png,object_11b.png,,,,,,,,,,,,,,,,,
1175.5999999940395,,rt_thecrossant_black2,1342805,,,,black_plus_sign,,,50,,,1,,,,,,,1,,,,,,,,,
null,,color_black2,1342909,,,,black_plus_sign,,,null,,,,,,,,,,,,,,,,,,,
null,,learn_phase(without_color)2,1346415,,,,black_plus_sign,,,null,object_03b.png,object_11b.png,,,,,,,,,,,,,,,,,
null,,black_cross(without_color)2,1347158,,,,green,,,null,object_03b.png,object_11b.png,,,,,,,,,,,,,,,,,
null,,rt_plussign_withcolor2,1347661,,,,green,,,null,object_03b.png,object_11b.png,,,,,,,,,,,,,,,,,
811.4000000059605,,rt_thecrossant_black2,1348939,,,,black_plus_sign,,,50,,,1,,,,,,,1,,,,,,,,,
null,,color_black2,1349043,,,,black_plus_sign,,,null,,,,,,,,,,,,,,,,,,,
null,,learn_phase(without_color)2,1352550,,,,black_plus_sign,,,null,object_15a.png,object_05b.png,,,,,,,,,,,,,,,,,
null,,black_cross(without_color)2,1352985,,,,green,,,null,object_15a.png,object_05b.png,,,,,,,,,,,,,,,,,
null,,rt_plussign_withcolor2,1353497,,,,green,,,null,object_15a.png,object_05b.png,,,,,,,,,,,,,,,,,
1138.9000000059605,,rt_thecrossant_black2,1355079,,,,black_plus_sign,,,50,,,1,,,,,,,1,,,,,,,,,
null,,color_black2,1355183,,,,black_plus_sign,,,null,,,,,,,,,,,,,,,,,,,
null,,learn_phase(without_color)2,1358697,,,,black_plus_sign,,,null,object_07a.png,object_10b.png,,,,,,,,,,,,,,,,,
null,,black_cross(without_color)2,1359627,,,,green,,,null,object_07a.png,object_10b.png,,,,,,,,,,,,,,,,,
null,,rt_plussign_withcolor2,1360131,,,,green,,,null,object_07a.png,object_10b.png,,,,,,,,,,,,,,,,,
784.5999999940395,,rt_thecrossant_black2,1361209,,,,black_plus_sign,,,50,,,1,,,,,,,1,,,,,,,,,
null,,color_black2,1361317,,,,black_plus_sign,,,null,,,,,,,,,,,,,,,,,,,
null,,learn_phase(without_color)2,1364831,,,,black_plus_sign,,,null,object_14b.png,object_04c.png,,,,,,,,,,,,,,,,,
null,,black_cross(without_color)2,1365734,,,,blue,,,null,object_14b.png,object_04c.png,,,,,,,,,,,,,,,,,
495.69999998807907,,rt_plussign_withcolor2,1366238,,,,blue,,,49,object_14b.png,object_04c.png,,,,,,,,,,,,,,,,,
null,,rt_thecrossant_black2,1367348,,,,black_plus_sign,,,null,,,1,,,,,,,1,,,,,,,,,
null,,color_black2,1367452,,,,black_plus_sign,,,null,,,,,,,,,,,,,,,,,,,
null,,learn_phase(without_color)2,1370959,,,,black_plus_sign,,,null,object_05c.png,object_01a.png,,,,,,,,,,,,,,,,,
null,,black_cross(without_color)2,1371520,,,,blue,,,null,object_05c.png,object_01a.png,,,,,,,,,,,,,,,,,
506.5,,rt_plussign_withcolor2,1372052,,,,blue,,,49,object_05c.png,object_01a.png,,,,,,,,,,,,,,,,,
null,,rt_thecrossant_black2,1373507,,,,black_plus_sign,,,null,,,1,,,,,,,1,,,,,,,,,
null,,color_black2,1373611,,,,black_plus_sign,,,null,,,,,,,,,,,,,,,,,,,
null,,learn_phase(without_color)2,1377116,,,,black_plus_sign,,,null,object_15c.png,object_08a.png,,,,,,,,,,,,,,,,,
null,,black_cross(without_color)2,1377752,,,,green,,,null,object_15c.png,object_08a.png,,,,,,,,,,,,,,,,,
null,,rt_plussign_withcolor2,1378255,,,,green,,,null,object_15c.png,object_08a.png,,,,,,,,,,,,,,,,,
776.2999999821186,,rt_thecrossant_black2,1379642,,,,black_plus_sign,,,50,,,1,,,,,,,1,,,,,,,,,
null,,color_black2,1379746,,,,black_plus_sign,,,null,,,,,,,,,,,,,,,,,,,
null,,learn_phase(without_color)2,1383260,,,,black_plus_sign,,,null,object_09c.png,object_02c.png,,,,,,,,,,,,,,,,,
null,,black_cross(without_color)2,1383852,,,,green,,,null,object_09c.png,object_02c.png,,,,,,,,,,,,,,,,,
504.40000000596046,,rt_plussign_withcolor2,1384366,,,,green,,,50,object_09c.png,object_02c.png,,,,,,,,,,,,,,,,,
null,,rt_thecrossant_black2,1385799,,,,black_plus_sign,,,null,,,1,,,,,,,1,,,,,,,,,
null,,color_black2,1385905,,,,black_plus_sign,,,null,,,,,,,,,,,,,,,,,,,
null,,learn_phase(without_color)2,1389411,,,,black_plus_sign,,,null,object_13c.png,object_03c.png,,,,,,,,,,,,,,,,,
null,,black_cross(without_color)2,1389854,,,,green,,,null,object_13c.png,object_03c.png,,,,,,,,,,,,,,,,,
null,,rt_plussign_withcolor2,1390362,,,,green,,,null,object_13c.png,object_03c.png,,,,,,,,,,,,,,,,,
818.1999999880791,,rt_thecrossant_black2,1391928,,,,black_plus_sign,,,50,,,1,,,,,,,1,,,,,,,,,
null,,color_black2,1392031,,,,black_plus_sign,,,null,,,,,,,,,,,,,,,,,,,
null,,learn_phase(without_color)2,1395539,,,,black_plus_sign,,,null,object_05a.png,object_07b.png,,,,,,,,,,,,,,,,,
null,,black_cross(without_color)2,1396255,,,,green,,,null,object_05a.png,object_07b.png,,,,,,,,,,,,,,,,,
null,,rt_plussign_withcolor2,1396758,,,,green,,,null,object_05a.png,object_07b.png,,,,,,,,,,,,,,,,,
629.2000000178814,,rt_thecrossant_black2,1398059,,,,black_plus_sign,,,50,,,1,,,,,,,1,,,,,,,,,
null,,color_black2,1398163,,,,black_plus_sign,,,null,,,,,,,,,,,,,,,,,,,
null,,learn_phase(without_color)2,1401670,,,,black_plus_sign,,,null,object_06a.png,object_12a.png,,,,,,,,,,,,,,,,,
null,,black_cross(without_color)2,1402752,,,,green,,,null,object_06a.png,object_12a.png,,,,,,,,,,,,,,,,,
null,,rt_plussign_withcolor2,1403255,,,,green,,,null,object_06a.png,object_12a.png,,,,,,,,,,,,,,,,,
1020,,rt_thecrossant_black2,1404188,,,,black_plus_sign,,,50,,,1,,,,,,,1,,,,,,,,,
null,,color_black2,1404292,,,,black_plus_sign,,,null,,,,,,,,,,,,,,,,,,,
null,,learn_phase(without_color)2,1407800,,,,black_plus_sign,,,null,object_12b.png,object_04b.png,,,,,,,,,,,,,,,,,
null,,black_cross(without_color)2,1408585,,,,green,,,null,object_12b.png,object_04b.png,,,,,,,,,,,,,,,,,
null,,rt_plussign_withcolor2,1409088,,,,green,,,null,object_12b.png,object_04b.png,,,,,,,,,,,,,,,,,
1231,,rt_thecrossant_black2,1410318,,,,black_plus_sign,,,50,,,1,,,,,,,1,,,,,,,,,
null,,color_black2,1410422,,,,black_plus_sign,,,null,,,,,,,,,,,,,,,,,,,
null,,learn_phase(without_color)2,1413936,,,,black_plus_sign,,,null,object_15c.png,object_04a.png,,,,,,,,,,,,,,,,,
null,,black_cross(without_color)2,1414983,,,,blue,,,null,object_15c.png,object_04a.png,,,,,,,,,,,,,,,,,
null,,rt_plussign_withcolor2,1415487,,,,blue,,,null,object_15c.png,object_04a.png,,,,,,,,,,,,,,,,,
1071.4000000059605,,rt_thecrossant_black2,1416454,,,,black_plus_sign,,,49,,,1,,,,,,,1,,,,,,,,,
null,,color_black2,1416558,,,,black_plus_sign,,,null,,,,,,,,,,,,,,,,,,,
null,,learn_phase(without_color)2,1420071,,,,black_plus_sign,,,null,object_06b.png,object_12c.png,,,,,,,,,,,,,,,,,
null,,black_cross(without_color)2,1421156,,,,green,,,null,object_06b.png,object_12c.png,,,,,,,,,,,,,,,,,
null,,rt_plussign_withcolor2,1421666,,,,green,,,null,object_06b.png,object_12c.png,,,,,,,,,,,,,,,,,
1188.5,,rt_thecrossant_black2,1422597,,,,black_plus_sign,,,50,,,1,,,,,,,1,,,,,,,,,
null,,color_black2,1422701,,,,black_plus_sign,,,null,,,,,,,,,,,,,,,,,,,
null,,learn_phase(without_color)2,1426207,,,,black_plus_sign,,,null,object_06b.png,object_07c.png,,,,,,,,,,,,,,,,,
null,,black_cross(without_color)2,1427299,,,,green,,,null,object_06b.png,object_07c.png,,,,,,,,,,,,,,,,,
null,,rt_plussign_withcolor2,1427809,,,,green,,,null,object_06b.png,object_07c.png,,,,,,,,,,,,,,,,,
1343.5999999940395,,rt_thecrossant_black2,1428727,,,,black_plus_sign,,,50,,,1,,,,,,,1,,,,,,,,,
null,,color_black2,1428831,,,,black_plus_sign,,,null,,,,,,,,,,,,,,,,,,,
null,,thebreak,1428938,,,,<p></p>,,,null,,,,,,,,,,,,,,,,,,,
22900.09999999404,,intro_0,1451841,,,,instruct,,,32,,,,,,,,,,,,,,,,,,,
5567.600000023842,,directmemory_phase2,1457413,,,,object_10c.png,,,50,,,1,,object_05b.png,object_06a.png,object_01c.png,object_06a.png,,0.9354838709677419,1,,,,,,,,
4748.5,,directmemory_phase2,1462169,,,,object_04b.png,,,50,,,1,,object_05c.png,object_02b.png,object_13b.png,object_02b.png,,0.9375,1,,,,,,,,
11075.699999988079,,directmemory_phase2,1473250,,,,object_13a.png,,,50,,,1,,object_01a.png,object_11b.png,object_07b.png,object_11b.png,,0.9393939393939394,1,,,,,,,,
9516.800000011921,,directmemory_phase2,1482772,,,,object_09b.png,,,51,,,1,,object_06a.png,object_13a.png,object_03c.png,object_03c.png,,0.9411764705882353,1,,,,,,,,
6308.699999988079,,directmemory_phase2,1489085,,,,object_07b.png,,,50,,,1,,object_02a.png,object_11c.png,object_14a.png,object_11c.png,,0.9428571428571428,1,,,,,,,,
8363.90000000596,,directmemory_phase2,1497454,,,,object_03c.png,,,49,,,1,,object_13c.png,object_13b.png,object_15c.png,object_13c.png,,0.9444444444444444,1,,,,,,,,
5364.600000023842,,directmemory_phase2,1502826,,,,object_10a.png,,,51,,,1,,object_04c.png,object_05b.png,object_02a.png,object_02a.png,,0.9459459459459459,1,,,,,,,,
4392.4000000059605,,directmemory_phase2,1507222,,,,object_09c.png,,,49,,,1,,object_15b.png,object_12a.png,object_07b.png,object_15b.png,,0.9473684210526315,1,,,,,,,,
6833.5999999940395,,directmemory_phase2,1514062,,,,object_05a.png,,,49,,,1,,object_07b.png,object_09c.png,object_08a.png,object_07b.png,,0.9487179487179487,1,,,,,,,,
10586.59999999404,,directmemory_phase2,1524653,,,,object_05b.png,,,50,,,0,,object_05c.png,object_12c.png,object_15a.png,object_15a.png,,0.925,0,,,,,,,,
4652.699999988079,,directmemory_phase2,1529313,,,,object_01a.png,,,50,,,1,,object_08a.png,object_05c.png,object_01c.png,object_05c.png,,0.926829268292683,1,,,,,,,,
11241.40000000596,,directmemory_phase2,1540560,,,,object_15c.png,,,51,,,1,,object_13c.png,object_04b.png,object_04a.png,object_04a.png,,0.9285714285714286,1,,,,,,,,
4795.0999999940395,,directmemory_phase2,1545362,,,,object_03b.png,,,50,,,1,,object_08c.png,object_11b.png,object_06a.png,object_11b.png,,0.9302325581395349,1,,,,,,,,
4078,,directmemory_phase2,1549445,,,,object_08a.png,,,51,,,1,,object_11b.png,object_09a.png,object_15c.png,object_15c.png,,0.9318181818181818,1,,,,,,,,
4776.600000023842,,directmemory_phase2,1554227,,,,object_07c.png,,,51,,,1,,object_02a.png,object_08c.png,object_06b.png,object_06b.png,,0.9333333333333333,1,,,,,,,,
2718.4000000059605,,directmemory_phase2,1556951,,,,object_02c.png,,,50,,,1,,object_01a.png,object_09c.png,object_15a.png,object_09c.png,,0.9347826086956522,1,,,,,,,,
5439,,directmemory_phase2,1562394,,,,object_12b.png,,,50,,,1,,object_12c.png,object_04b.png,object_11b.png,object_04b.png,,0.9361702127659575,1,,,,,,,,
6076.9000000059605,,directmemory_phase2,1568475,,,,object_15a.png,,,50,,,1,,object_05c.png,object_14a.png,object_02b.png,object_14a.png,,0.9375,1,,,,,,,,
8496.299999982119,,directmemory_phase2,1576979,,,,object_08c.png,,,51,,,1,,object_09c.png,object_10b.png,object_01c.png,object_01c.png,,0.9387755102040817,1,,,,,,,,
8894.200000017881,,directmemory_phase2,1585878,,,,object_05c.png,,,49,,,1,,object_01b.png,object_07c.png,object_15a.png,object_01b.png,,0.94,1,,,,,,,,
6864.199999988079,,directmemory_phase2,1592746,,,,object_12c.png,,,51,,,1,,object_06a.png,object_02c.png,object_06b.png,object_06b.png,,0.9411764705882353,1,,,,,,,,
9159.40000000596,,directmemory_phase2,1601911,,,,object_04c.png,,,49,,,1,,object_13b.png,object_10b.png,object_03c.png,object_13b.png,,0.9423076923076923,1,,,,,,,,
9617.09999999404,,directmemory_phase2,1611535,,,,object_14b.png,,,51,,,1,,object_15c.png,object_02c.png,object_04c.png,object_04c.png,,0.9433962264150944,1,,,,,,,,
3912.5999999940395,,directmemory_phase2,1615453,,,,object_09a.png,,,49,,,1,,object_07a.png,object_03c.png,object_06c.png,object_07a.png,,0.9444444444444444,1,,,,,,,,
9046.800000011921,,directmemory_phase2,1624505,,,,object_10b.png,,,50,,,1,,object_01b.png,object_07a.png,object_04c.png,object_07a.png,,0.9454545454545454,1,,,,,,,,
5779.800000011921,,directmemory_phase2,1630291,,,,object_06c.png,,,51,,,1,,object_07a.png,object_12b.png,object_01c.png,object_01c.png,,0.9464285714285714,1,,,,,,,,
11611.799999982119,,directmemory_phase2,1641907,,,,object_11a.png,,,50,,,0,,object_06b.png,object_11c.png,object_02a.png,object_02a.png,,0.9298245614035088,0,,,,,,,,
3338.9000000059605,,directmemory_phase2,1645252,,,,object_12a.png,,,49,,,1,,object_06a.png,object_01c.png,object_02b.png,object_06a.png,,0.9310344827586207,1,,,,,,,,
3632.5,,directmemory_phase2,1648890,,,,object_03a.png,,,49,,,1,,object_14c.png,object_02a.png,object_05a.png,object_14c.png,,0.9322033898305084,1,,,,,,,,
5755.700000017881,,directmemory_phase2,1654650,,,,object_14c.png,,,50,,,1,,object_06b.png,object_08b.png,object_13b.png,object_08b.png,,0.9333333333333333,1,,,,,,,,
null,,thebreak,1654755,,,,<p></p>,,,null,,,,,,,,,,,,,,,,,,,
17288.899999976158,,intro_0,1672047,,,,instruct,,,32,,,,,,,,,,,,,,,,,,,
null,,learn_phase(without_color)3,1675556,,,,black_plus_sign,,,null,object_05b.png,object_15a.png,,,,,,,,,,,,,,,,,
null,,black_cross(without_color)3,1676381,,,,green,,,null,object_05b.png,object_15a.png,,,,,,,,,,,,,,,,,
null,,rt_plussign_withcolor3,1676898,,,,green,,,null,object_05b.png,object_15a.png,,,,,,,,,,,,,,,,,
1233.800000011921,,rt_thecrossant_black3,1678096,,,,black_plus_sign,,,50,,,1,,,,,,,1,,,,,,,,,
null,,color_black3,1678201,,,,black_plus_sign,,,null,,,,,,,,,,,,,,,,,,,
null,,learn_phase(without_color)3,1681714,,,,black_plus_sign,,,null,object_08b.png,object_14c.png,,,,,,,,,,,,,,,,,
null,,black_cross(without_color)3,1682775,,,,green,,,null,object_08b.png,object_14c.png,,,,,,,,,,,,,,,,,
null,,rt_plussign_withcolor3,1683284,,,,green,,,null,object_08b.png,object_14c.png,,,,,,,,,,,,,,,,,
1251.800000011921,,rt_thecrossant_black3,1684248,,,,black_plus_sign,,,50,,,1,,,,,,,1,,,,,,,,,
null,,color_black3,1684352,,,,black_plus_sign,,,null,,,,,,,,,,,,,,,,,,,
null,,learn_phase(without_color)3,1687858,,,,black_plus_sign,,,null,object_08a.png,object_15c.png,,,,,,,,,,,,,,,,,
null,,black_cross(without_color)3,1688487,,,,green,,,null,object_08a.png,object_15c.png,,,,,,,,,,,,,,,,,
null,,rt_plussign_withcolor3,1688992,,,,green,,,null,object_08a.png,object_15c.png,,,,,,,,,,,,,,,,,
1173.5999999940395,,rt_thecrossant_black3,1690393,,,,black_plus_sign,,,50,,,1,,,,,,,1,,,,,,,,,
null,,color_black3,1690498,,,,black_plus_sign,,,null,,,,,,,,,,,,,,,,,,,
null,,learn_phase(without_color)3,1694004,,,,black_plus_sign,,,null,object_09c.png,object_02c.png,,,,,,,,,,,,,,,,,
null,,black_cross(without_color)3,1694846,,,,blue,,,null,object_09c.png,object_02c.png,,,,,,,,,,,,,,,,,
null,,rt_plussign_withcolor3,1695357,,,,blue,,,null,object_09c.png,object_02c.png,,,,,,,,,,,,,,,,,
1080.5,,rt_thecrossant_black3,1696528,,,,black_plus_sign,,,49,,,1,,,,,,,1,,,,,,,,,
null,,color_black3,1696632,,,,black_plus_sign,,,null,,,,,,,,,,,,,,,,,,,
null,,learn_phase(without_color)3,1700138,,,,black_plus_sign,,,null,object_12b.png,object_04b.png,,,,,,,,,,,,,,,,,
null,,black_cross(without_color)3,1700696,,,,green,,,null,object_12b.png,object_04b.png,,,,,,,,,,,,,,,,,
null,,rt_plussign_withcolor3,1701199,,,,green,,,null,object_12b.png,object_04b.png,,,,,,,,,,,,,,,,,
1208.699999988079,,rt_thecrossant_black3,1702657,,,,black_plus_sign,,,50,,,1,,,,,,,1,,,,,,,,,
null,,color_black3,1702763,,,,black_plus_sign,,,null,,,,,,,,,,,,,,,,,,,
null,,learn_phase(without_color)3,1706269,,,,black_plus_sign,,,null,object_03b.png,object_11b.png,,,,,,,,,,,,,,,,,
null,,black_cross(without_color)3,1707015,,,,blue,,,null,object_03b.png,object_11b.png,,,,,,,,,,,,,,,,,
null,,rt_plussign_withcolor3,1707519,,,,blue,,,null,object_03b.png,object_11b.png,,,,,,,,,,,,,,,,,
734.0999999940395,,rt_thecrossant_black3,1708793,,,,black_plus_sign,,,49,,,1,,,,,,,1,,,,,,,,,
null,,color_black3,1708897,,,,black_plus_sign,,,null,,,,,,,,,,,,,,,,,,,
null,,learn_phase(without_color)3,1712404,,,,black_plus_sign,,,null,object_01c.png,object_08c.png,,,,,,,,,,,,,,,,,
null,,black_cross(without_color)3,1713310,,,,green,,,null,object_01c.png,object_08c.png,,,,,,,,,,,,,,,,,
null,,rt_plussign_withcolor3,1713813,,,,green,,,null,object_01c.png,object_08c.png,,,,,,,,,,,,,,,,,
999.6999999880791,,rt_thecrossant_black3,1714922,,,,black_plus_sign,,,50,,,1,,,,,,,1,,,,,,,,,
null,,color_black3,1715027,,,,black_plus_sign,,,null,,,,,,,,,,,,,,,,,,,
null,,learn_phase(without_color)3,1718538,,,,black_plus_sign,,,null,object_09c.png,object_15b.png,,,,,,,,,,,,,,,,,
null,,black_cross(without_color)3,1719205,,,,blue,,,null,object_09c.png,object_15b.png,,,,,,,,,,,,,,,,,
null,,rt_plussign_withcolor3,1719716,,,,blue,,,null,object_09c.png,object_15b.png,,,,,,,,,,,,,,,,,
1290.199999988079,,rt_thecrossant_black3,1721063,,,,black_plus_sign,,,49,,,1,,,,,,,1,,,,,,,,,
null,,color_black3,1721176,,,,black_plus_sign,,,null,,,,,,,,,,,,,,,,,,,
null,,learn_phase(without_color)3,1724690,,,,black_plus_sign,,,null,object_01c.png,object_06c.png,,,,,,,,,,,,,,,,,
null,,black_cross(without_color)3,1725593,,,,blue,,,null,object_01c.png,object_06c.png,,,,,,,,,,,,,,,,,
null,,rt_plussign_withcolor3,1726102,,,,blue,,,null,object_01c.png,object_06c.png,,,,,,,,,,,,,,,,,
792.3000000119209,,rt_thecrossant_black3,1727221,,,,black_plus_sign,,,49,,,1,,,,,,,1,,,,,,,,,
null,,color_black3,1727325,,,,black_plus_sign,,,null,,,,,,,,,,,,,,,,,,,
null,,learn_phase(without_color)3,1730841,,,,black_plus_sign,,,null,object_11a.png,object_02a.png,,,,,,,,,,,,,,,,,
null,,black_cross(without_color)3,1731495,,,,green,,,null,object_11a.png,object_02a.png,,,,,,,,,,,,,,,,,
null,,rt_plussign_withcolor3,1731998,,,,green,,,null,object_11a.png,object_02a.png,,,,,,,,,,,,,,,,,
1041.9000000059605,,rt_thecrossant_black3,1733358,,,,black_plus_sign,,,50,,,1,,,,,,,1,,,,,,,,,
null,,color_black3,1733464,,,,black_plus_sign,,,null,,,,,,,,,,,,,,,,,,,
null,,learn_phase(without_color)3,1736979,,,,black_plus_sign,,,null,object_05c.png,object_01b.png,,,,,,,,,,,,,,,,,
null,,black_cross(without_color)3,1737682,,,,blue,,,null,object_05c.png,object_01b.png,,,,,,,,,,,,,,,,,
null,,rt_plussign_withcolor3,1738194,,,,blue,,,null,object_05c.png,object_01b.png,,,,,,,,,,,,,,,,,
894.2000000178814,,rt_thecrossant_black3,1739508,,,,black_plus_sign,,,49,,,1,,,,,,,1,,,,,,,,,
null,,color_black3,1739613,,,,black_plus_sign,,,null,,,,,,,,,,,,,,,,,,,
null,,learn_phase(without_color)3,1743127,,,,black_plus_sign,,,null,object_13c.png,object_03c.png,,,,,,,,,,,,,,,,,
null,,black_cross(without_color)3,1744040,,,,green,,,null,object_13c.png,object_03c.png,,,,,,,,,,,,,,,,,
null,,rt_plussign_withcolor3,1744544,,,,green,,,null,object_13c.png,object_03c.png,,,,,,,,,,,,,,,,,
993.1000000238419,,rt_thecrossant_black3,1745649,,,,black_plus_sign,,,50,,,1,,,,,,,1,,,,,,,,,
null,,color_black3,1745754,,,,black_plus_sign,,,null,,,,,,,,,,,,,,,,,,,
null,,learn_phase(without_color)3,1749260,,,,black_plus_sign,,,null,object_03c.png,object_09b.png,,,,,,,,,,,,,,,,,
null,,black_cross(without_color)3,1750000,,,,green,,,null,object_03c.png,object_09b.png,,,,,,,,,,,,,,,,,
null,,rt_plussign_withcolor3,1750503,,,,green,,,null,object_03c.png,object_09b.png,,,,,,,,,,,,,,,,,
1157.300000011921,,rt_thecrossant_black3,1751779,,,,black_plus_sign,,,50,,,1,,,,,,,1,,,,,,,,,
null,,color_black3,1751883,,,,black_plus_sign,,,null,,,,,,,,,,,,,,,,,,,
null,,learn_phase(without_color)3,1755396,,,,black_plus_sign,,,null,object_02a.png,object_10a.png,,,,,,,,,,,,,,,,,
null,,black_cross(without_color)3,1756194,,,,blue,,,null,object_02a.png,object_10a.png,,,,,,,,,,,,,,,,,
null,,rt_plussign_withcolor3,1756698,,,,blue,,,null,object_02a.png,object_10a.png,,,,,,,,,,,,,,,,,
1158,,rt_thecrossant_black3,1757908,,,,black_plus_sign,,,49,,,1,,,,,,,1,,,,,,,,,
null,,color_black3,1758013,,,,black_plus_sign,,,null,,,,,,,,,,,,,,,,,,,
null,,learn_phase(without_color)3,1761526,,,,black_plus_sign,,,null,object_04a.png,object_15c.png,,,,,,,,,,,,,,,,,
null,,black_cross(without_color)3,1762517,,,,blue,,,null,object_04a.png,object_15c.png,,,,,,,,,,,,,,,,,
494,,rt_plussign_withcolor3,1763021,,,,blue,,,49,object_04a.png,object_15c.png,,,,,,,,,,,,,,,,,
null,,rt_thecrossant_black3,1764043,,,,black_plus_sign,,,null,,,1,,,,,,,1,,,,,,,,,
null,,color_black3,1764147,,,,black_plus_sign,,,null,,,,,,,,,,,,,,,,,,,
null,,learn_phase(without_color)3,1767661,,,,black_plus_sign,,,null,object_07b.png,object_11c.png,,,,,,,,,,,,,,,,,
null,,black_cross(without_color)3,1768624,,,,green,,,null,object_07b.png,object_11c.png,,,,,,,,,,,,,,,,,
null,,rt_plussign_withcolor3,1769134,,,,green,,,null,object_07b.png,object_11c.png,,,,,,,,,,,,,,,,,
1385.5999999940395,,rt_thecrossant_black3,1770189,,,,black_plus_sign,,,50,,,1,,,,,,,1,,,,,,,,,
null,,color_black3,1770293,,,,black_plus_sign,,,null,,,,,,,,,,,,,,,,,,,
null,,learn_phase(without_color)3,1773803,,,,black_plus_sign,,,null,object_07b.png,object_05a.png,,,,,,,,,,,,,,,,,
null,,black_cross(without_color)3,1774321,,,,blue,,,null,object_07b.png,object_05a.png,,,,,,,,,,,,,,,,,
null,,rt_plussign_withcolor3,1774825,,,,blue,,,null,object_07b.png,object_05a.png,,,,,,,,,,,,,,,,,
1341.7999999821186,,rt_thecrossant_black3,1776317,,,,black_plus_sign,,,49,,,1,,,,,,,1,,,,,,,,,
null,,color_black3,1776433,,,,black_plus_sign,,,null,,,,,,,,,,,,,,,,,,,
null,,learn_phase(without_color)3,1779944,,,,black_plus_sign,,,null,object_03a.png,object_14c.png,,,,,,,,,,,,,,,,,
null,,black_cross(without_color)3,1780889,,,,blue,,,null,object_03a.png,object_14c.png,,,,,,,,,,,,,,,,,
null,,rt_plussign_withcolor3,1781392,,,,blue,,,null,object_03a.png,object_14c.png,,,,,,,,,,,,,,,,,
674.2000000178814,,rt_thecrossant_black3,1782463,,,,black_plus_sign,,,49,,,1,,,,,,,1,,,,,,,,,
null,,color_black3,1782568,,,,black_plus_sign,,,null,,,,,,,,,,,,,,,,,,,
null,,learn_phase(without_color)3,1786074,,,,black_plus_sign,,,null,object_12c.png,object_06b.png,,,,,,,,,,,,,,,,,
null,,black_cross(without_color)3,1786620,,,,green,,,null,object_12c.png,object_06b.png,,,,,,,,,,,,,,,,,
null,,rt_plussign_withcolor3,1787130,,,,green,,,null,object_12c.png,object_06b.png,,,,,,,,,,,,,,,,,
1346.5,,rt_thecrossant_black3,1788598,,,,black_plus_sign,,,50,,,1,,,,,,,1,,,,,,,,,
null,,color_black3,1788703,,,,black_plus_sign,,,null,,,,,,,,,,,,,,,,,,,
null,,learn_phase(without_color)3,1792215,,,,black_plus_sign,,,null,object_04b.png,object_02b.png,,,,,,,,,,,,,,,,,
null,,black_cross(without_color)3,1793297,,,,blue,,,null,object_04b.png,object_02b.png,,,,,,,,,,,,,,,,,
null,,rt_plussign_withcolor3,1793806,,,,blue,,,null,object_04b.png,object_02b.png,,,,,,,,,,,,,,,,,
832.8999999761581,,rt_thecrossant_black3,1794747,,,,black_plus_sign,,,49,,,1,,,,,,,1,,,,,,,,,
null,,color_black3,1794851,,,,black_plus_sign,,,null,,,,,,,,,,,,,,,,,,,
null,,learn_phase(without_color)3,1798357,,,,black_plus_sign,,,null,object_09a.png,object_07a.png,,,,,,,,,,,,,,,,,
null,,black_cross(without_color)3,1799106,,,,green,,,null,object_09a.png,object_07a.png,,,,,,,,,,,,,,,,,
null,,rt_plussign_withcolor3,1799610,,,,green,,,null,object_09a.png,object_07a.png,,,,,,,,,,,,,,,,,
1357.0999999940395,,rt_thecrossant_black3,1800881,,,,black_plus_sign,,,50,,,1,,,,,,,1,,,,,,,,,
null,,color_black3,1800985,,,,black_plus_sign,,,null,,,,,,,,,,,,,,,,,,,
null,,learn_phase(without_color)3,1804490,,,,black_plus_sign,,,null,object_14b.png,object_04c.png,,,,,,,,,,,,,,,,,
null,,black_cross(without_color)3,1805066,,,,green,,,null,object_14b.png,object_04c.png,,,,,,,,,,,,,,,,,
null,,rt_plussign_withcolor3,1805583,,,,green,,,null,object_14b.png,object_04c.png,,,,,,,,,,,,,,,,,
1092.2999999821186,,rt_thecrossant_black3,1807029,,,,black_plus_sign,,,50,,,1,,,,,,,1,,,,,,,,,
null,,color_black3,1807134,,,,black_plus_sign,,,null,,,,,,,,,,,,,,,,,,,
null,,learn_phase(without_color)3,1810653,,,,black_plus_sign,,,null,object_04c.png,object_13b.png,,,,,,,,,,,,,,,,,
null,,black_cross(without_color)3,1811700,,,,blue,,,null,object_04c.png,object_13b.png,,,,,,,,,,,,,,,,,
null,,rt_plussign_withcolor3,1812226,,,,blue,,,null,object_04c.png,object_13b.png,,,,,,,,,,,,,,,,,
700.3999999761581,,rt_thecrossant_black3,1813192,,,,black_plus_sign,,,49,,,1,,,,,,,1,,,,,,,,,
null,,color_black3,1813296,,,,black_plus_sign,,,null,,,,,,,,,,,,,,,,,,,
null,,learn_phase(without_color)3,1816801,,,,black_plus_sign,,,null,object_06a.png,object_12a.png,,,,,,,,,,,,,,,,,
null,,black_cross(without_color)3,1817378,,,,blue,,,null,object_06a.png,object_12a.png,,,,,,,,,,,,,,,,,
null,,rt_plussign_withcolor3,1817881,,,,blue,,,null,object_06a.png,object_12a.png,,,,,,,,,,,,,,,,,
1369.2999999821186,,rt_thecrossant_black3,1819319,,,,black_plus_sign,,,49,,,1,,,,,,,1,,,,,,,,,
null,,color_black3,1819425,,,,black_plus_sign,,,null,,,,,,,,,,,,,,,,,,,
null,,learn_phase(without_color)3,1822941,,,,black_plus_sign,,,null,object_13a.png,object_11b.png,,,,,,,,,,,,,,,,,
null,,black_cross(without_color)3,1823860,,,,blue,,,null,object_13a.png,object_11b.png,,,,,,,,,,,,,,,,,
null,,rt_plussign_withcolor3,1824362,,,,blue,,,null,object_13a.png,object_11b.png,,,,,,,,,,,,,,,,,
815,,rt_thecrossant_black3,1825452,,,,black_plus_sign,,,49,,,1,,,,,,,1,,,,,,,,,
null,,color_black3,1825557,,,,black_plus_sign,,,null,,,,,,,,,,,,,,,,,,,
null,,learn_phase(without_color)3,1829072,,,,black_plus_sign,,,null,object_07a.png,object_10b.png,,,,,,,,,,,,,,,,,
null,,black_cross(without_color)3,1829825,,,,blue,,,null,object_07a.png,object_10b.png,,,,,,,,,,,,,,,,,
null,,rt_plussign_withcolor3,1830328,,,,blue,,,null,object_07a.png,object_10b.png,,,,,,,,,,,,,,,,,
1095.7999999821186,,rt_thecrossant_black3,1831593,,,,black_plus_sign,,,49,,,1,,,,,,,1,,,,,,,,,
null,,color_black3,1831697,,,,black_plus_sign,,,null,,,,,,,,,,,,,,,,,,,
null,,learn_phase(without_color)3,1835210,,,,black_plus_sign,,,null,object_06a.png,object_10c.png,,,,,,,,,,,,,,,,,
null,,black_cross(without_color)3,1836039,,,,green,,,null,object_06a.png,object_10c.png,,,,,,,,,,,,,,,,,
null,,rt_plussign_withcolor3,1836557,,,,green,,,null,object_06a.png,object_10c.png,,,,,,,,,,,,,,,,,
1054,,rt_thecrossant_black3,1837741,,,,black_plus_sign,,,50,,,1,,,,,,,1,,,,,,,,,
null,,color_black3,1837849,,,,black_plus_sign,,,null,,,,,,,,,,,,,,,,,,,
null,,learn_phase(without_color)3,1841360,,,,black_plus_sign,,,null,object_15a.png,object_14a.png,,,,,,,,,,,,,,,,,
null,,black_cross(without_color)3,1841967,,,,blue,,,null,object_15a.png,object_14a.png,,,,,,,,,,,,,,,,,
null,,rt_plussign_withcolor3,1842477,,,,blue,,,null,object_15a.png,object_14a.png,,,,,,,,,,,,,,,,,
1084,,rt_thecrossant_black3,1843891,,,,black_plus_sign,,,49,,,1,,,,,,,1,,,,,,,,,
null,,color_black3,1844025,,,,black_plus_sign,,,null,,,,,,,,,,,,,,,,,,,
null,,learn_phase(without_color)3,1847531,,,,black_plus_sign,,,null,object_05c.png,object_01a.png,,,,,,,,,,,,,,,,,
null,,black_cross(without_color)3,1848499,,,,green,,,null,object_05c.png,object_01a.png,,,,,,,,,,,,,,,,,
null,,rt_plussign_withcolor3,1849002,,,,green,,,null,object_05c.png,object_01a.png,,,,,,,,,,,,,,,,,
915.8999999761581,,rt_thecrossant_black3,1850057,,,,black_plus_sign,,,50,,,1,,,,,,,1,,,,,,,,,
null,,color_black3,1850161,,,,black_plus_sign,,,null,,,,,,,,,,,,,,,,,,,
null,,learn_phase(without_color)3,1853673,,,,black_plus_sign,,,null,object_06b.png,object_07c.png,,,,,,,,,,,,,,,,,
null,,black_cross(without_color)3,1854431,,,,green,,,null,object_06b.png,object_07c.png,,,,,,,,,,,,,,,,,
null,,rt_plussign_withcolor3,1854940,,,,green,,,null,object_06b.png,object_07c.png,,,,,,,,,,,,,,,,,
1224.9000000059605,,rt_thecrossant_black3,1856200,,,,black_plus_sign,,,50,,,1,,,,,,,1,,,,,,,,,
null,,color_black3,1856303,,,,black_plus_sign,,,null,,,,,,,,,,,,,,,,,,,
null,,thebreak,1856409,,,,<p></p>,,,null,,,,,,,,,,,,,,,,,,,
19126.600000023842,,intro_0,1875540,,,,instruct,,,32,,,,,,,,,,,,,,,,,,,
2589.199999988079,,directmemory_phase3,1878131,,,,object_07b.png,,,51,,,1,,object_15b.png,object_11b.png,object_11c.png,object_11c.png,,0.9344262295081968,1,,,,,,,,
1870.800000011921,,directmemory_phase3,1880007,,,,object_12a.png,,,51,,,1,,object_02a.png,object_07c.png,object_06a.png,object_06a.png,,0.9354838709677419,1,,,,,,,,
2403.5,,directmemory_phase3,1882416,,,,object_15c.png,,,50,,,1,,object_09c.png,object_04a.png,object_13c.png,object_04a.png,,0.9365079365079365,1,,,,,,,,
2925.2999999821186,,directmemory_phase3,1885347,,,,object_01a.png,,,49,,,1,,object_05c.png,object_07a.png,object_14b.png,object_05c.png,,0.9375,1,,,,,,,,
11022.399999976158,,directmemory_phase3,1896375,,,,object_05a.png,,,49,,,0,,object_10c.png,object_07b.png,object_04b.png,object_07b.png,,0.9230769230769231,0,,,,,,,,
4242.9000000059605,,directmemory_phase3,1900624,,,,object_10c.png,,,50,,,1,,object_09a.png,object_06a.png,object_11b.png,object_06a.png,,0.9242424242424242,1,,,,,,,,
6173.5999999940395,,directmemory_phase3,1906803,,,,object_12b.png,,,50,,,1,,object_02c.png,object_04b.png,object_03c.png,object_04b.png,,0.9253731343283582,1,,,,,,,,
12876.5,,directmemory_phase3,1919684,,,,object_13c.png,,,49,,,1,,object_03c.png,object_01c.png,object_02b.png,object_03c.png,,0.9264705882352942,1,,,,,,,,
6975.4000000059605,,directmemory_phase3,1926664,,,,object_09a.png,,,50,,,1,,object_08a.png,object_07a.png,object_04c.png,object_07a.png,,0.927536231884058,1,,,,,,,,
10657.800000011921,,directmemory_phase3,1937328,,,,object_05b.png,,,51,,,1,,object_11b.png,object_09a.png,object_15a.png,object_15a.png,,0.9285714285714286,1,,,,,,,,
8179.0999999940395,,directmemory_phase3,1945512,,,,object_01c.png,,,51,,,1,,object_13c.png,object_07a.png,object_08c.png,object_08c.png,,0.9295774647887324,1,,,,,,,,
4074.5,,directmemory_phase3,1949592,,,,object_02a.png,,,49,,,1,,object_11a.png,object_03b.png,object_01c.png,object_11a.png,,0.9305555555555556,1,,,,,,,,
4298.0999999940395,,directmemory_phase3,1953895,,,,object_10b.png,,,51,,,1,,object_11b.png,object_13c.png,object_07a.png,object_07a.png,,0.9315068493150684,1,,,,,,,,
null,,directmemory_phase3,1968904,,,,object_10a.png,,,null,,,0,,object_09a.png,object_02a.png,object_04c.png,object_02a.png,,0.918918918918919,0,,,,,,,,
null,,warning_page,1973925,,,,warning,,,null,,,,,,,,,,,,,,,,,,,
11321.09999999404,,directmemory_phase3,1985304,,,,object_04c.png,,,51,,,0,,object_13b.png,object_15b.png,object_07a.png,object_13b.png,,0.9066666666666666,0,,,,,,,,
5062.800000011921,,directmemory_phase3,1990374,,,,object_08b.png,,,49,,,1,,object_14c.png,object_09c.png,object_04a.png,object_14c.png,,0.9078947368421053,1,,,,,,,,
3796.0999999940395,,directmemory_phase3,1994175,,,,object_07c.png,,,49,,,1,,object_06b.png,object_06a.png,object_04a.png,object_06b.png,,0.9090909090909091,1,,,,,,,,
4409,,directmemory_phase3,1998589,,,,object_03a.png,,,50,,,1,,object_12b.png,object_14c.png,object_11b.png,object_14c.png,,0.9102564102564102,1,,,,,,,,
5619.699999988079,,directmemory_phase3,2004212,,,,object_13a.png,,,50,,,1,,object_09b.png,object_11b.png,object_02a.png,object_11b.png,,0.9113924050632911,1,,,,,,,,
5449.0999999940395,,directmemory_phase3,2009667,,,,object_08a.png,,,50,,,1,,object_12b.png,object_15c.png,object_04c.png,object_15c.png,,0.9125,1,,,,,,,,
4332.299999982119,,directmemory_phase3,2014004,,,,object_01b.png,,,50,,,1,,object_12a.png,object_05c.png,object_04c.png,object_05c.png,,0.9135802469135802,1,,,,,,,,
3823,,directmemory_phase3,2017832,,,,object_06c.png,,,49,,,1,,object_01c.png,object_04b.png,object_10c.png,object_01c.png,,0.9146341463414634,1,,,,,,,,
6139,,directmemory_phase3,2023976,,,,object_14b.png,,,49,,,1,,object_04c.png,object_07b.png,object_05b.png,object_04c.png,,0.9156626506024096,1,,,,,,,,
6438.200000017881,,directmemory_phase3,2030420,,,,object_15b.png,,,50,,,1,,object_13b.png,object_09c.png,object_15c.png,object_09c.png,,0.9166666666666666,1,,,,,,,,
3493.699999988079,,directmemory_phase3,2033920,,,,object_11b.png,,,50,,,1,,object_02a.png,object_03b.png,object_04a.png,object_03b.png,,0.9176470588235294,1,,,,,,,,
3902.300000011921,,directmemory_phase3,2037827,,,,object_12c.png,,,51,,,1,,object_07a.png,object_12b.png,object_06b.png,object_06b.png,,0.9186046511627907,1,,,,,,,,
2931.699999988079,,directmemory_phase3,2040764,,,,object_02c.png,,,50,,,1,,object_10c.png,object_09c.png,object_01c.png,object_09c.png,,0.9195402298850575,1,,,,,,,,
3169.5,,directmemory_phase3,2043939,,,,object_04b.png,,,50,,,1,,object_11b.png,object_02b.png,object_13b.png,object_02b.png,,0.9204545454545454,1,,,,,,,,
6337.4000000059605,,directmemory_phase3,2050282,,,,object_09b.png,,,51,,,1,,object_15c.png,object_02c.png,object_03c.png,object_03c.png,,0.9213483146067416,1,,,,,,,,
3389.4000000059605,,directmemory_phase3,2053677,,,,object_14a.png,,,50,,,1,,object_04a.png,object_15a.png,object_15c.png,object_15a.png,,0.9222222222222223,1,,,,,,,,
null,,thebreak,2053783,,,,<p></p>,,,null,,,,,,,,,,,,,,,,,,,
9575.40000000596,,intro_0,2063361,,,,instruct,,,32,,,,,,,,,,,,,,,,,,,
null,,learn_phase(without_color)4,2066866,,,,black_plus_sign,,,null,object_07a.png,object_09a.png,,,,,,,,,,,,,,,,,
null,,black_cross(without_color)4,2067423,,,,green,,,null,object_07a.png,object_09a.png,,,,,,,,,,,,,,,,,
null,,rt_plussign_withcolor4,2067928,,,,green,,,null,object_07a.png,object_09a.png,,,,,,,,,,,,,,,,,
1086.4000000059605,,rt_thecrossant_black4,2069387,,,,black_plus_sign,,,50,,,1,,,,,,,1,,,,,,,,,
null,,color_black4,2069491,,,,black_plus_sign,,,null,,,,,,,,,,,,,,,,,,,
null,,learn_phase(without_color)4,2072996,,,,black_plus_sign,,,null,object_15c.png,object_04a.png,,,,,,,,,,,,,,,,,
null,,black_cross(without_color)4,2073949,,,,green,,,null,object_15c.png,object_04a.png,,,,,,,,,,,,,,,,,
null,,rt_plussign_withcolor4,2074458,,,,green,,,null,object_15c.png,object_04a.png,,,,,,,,,,,,,,,,,
759.2999999821186,,rt_thecrossant_black4,2075529,,,,black_plus_sign,,,50,,,1,,,,,,,1,,,,,,,,,
null,,color_black4,2075635,,,,black_plus_sign,,,null,,,,,,,,,,,,,,,,,,,
null,,learn_phase(without_color)4,2079146,,,,black_plus_sign,,,null,object_14a.png,object_15a.png,,,,,,,,,,,,,,,,,
null,,black_cross(without_color)4,2080204,,,,blue,,,null,object_14a.png,object_15a.png,,,,,,,,,,,,,,,,,
null,,rt_plussign_withcolor4,2080713,,,,blue,,,null,object_14a.png,object_15a.png,,,,,,,,,,,,,,,,,
1117.4000000059605,,rt_thecrossant_black4,2081681,,,,black_plus_sign,,,49,,,1,,,,,,,1,,,,,,,,,
null,,color_black4,2081786,,,,black_plus_sign,,,null,,,,,,,,,,,,,,,,,,,
null,,learn_phase(without_color)4,2085292,,,,black_plus_sign,,,null,object_06a.png,object_10c.png,,,,,,,,,,,,,,,,,
null,,black_cross(without_color)4,2086247,,,,green,,,null,object_06a.png,object_10c.png,,,,,,,,,,,,,,,,,
null,,rt_plussign_withcolor4,2086751,,,,green,,,null,object_06a.png,object_10c.png,,,,,,,,,,,,,,,,,
1408.300000011921,,rt_thecrossant_black4,2087804,,,,black_plus_sign,,,50,,,1,,,,,,,1,,,,,,,,,
null,,color_black4,2087910,,,,black_plus_sign,,,null,,,,,,,,,,,,,,,,,,,
null,,learn_phase(without_color)4,2091415,,,,black_plus_sign,,,null,object_09c.png,object_15b.png,,,,,,,,,,,,,,,,,
null,,black_cross(without_color)4,2092328,,,,blue,,,null,object_09c.png,object_15b.png,,,,,,,,,,,,,,,,,
null,,rt_plussign_withcolor4,2092836,,,,blue,,,null,object_09c.png,object_15b.png,,,,,,,,,,,,,,,,,
1141.800000011921,,rt_thecrossant_black4,2093935,,,,black_plus_sign,,,49,,,1,,,,,,,1,,,,,,,,,
null,,color_black4,2094039,,,,black_plus_sign,,,null,,,,,,,,,,,,,,,,,,,
null,,learn_phase(without_color)4,2097551,,,,black_plus_sign,,,null,object_15c.png,object_08a.png,,,,,,,,,,,,,,,,,
null,,black_cross(without_color)4,2098098,,,,green,,,null,object_15c.png,object_08a.png,,,,,,,,,,,,,,,,,
null,,rt_plussign_withcolor4,2098607,,,,green,,,null,object_15c.png,object_08a.png,,,,,,,,,,,,,,,,,
1172.199999988079,,rt_thecrossant_black4,2100070,,,,black_plus_sign,,,50,,,1,,,,,,,1,,,,,,,,,
null,,color_black4,2100174,,,,black_plus_sign,,,null,,,,,,,,,,,,,,,,,,,
null,,learn_phase(without_color)4,2103689,,,,black_plus_sign,,,null,object_09c.png,object_02c.png,,,,,,,,,,,,,,,,,
null,,black_cross(without_color)4,2104681,,,,green,,,null,object_09c.png,object_02c.png,,,,,,,,,,,,,,,,,
null,,rt_plussign_withcolor4,2105191,,,,green,,,null,object_09c.png,object_02c.png,,,,,,,,,,,,,,,,,
697.7000000178814,,rt_thecrossant_black4,2106226,,,,black_plus_sign,,,50,,,1,,,,,,,1,,,,,,,,,
null,,color_black4,2106331,,,,black_plus_sign,,,null,,,,,,,,,,,,,,,,,,,
null,,learn_phase(without_color)4,2109837,,,,black_plus_sign,,,null,object_10b.png,object_07a.png,,,,,,,,,,,,,,,,,
null,,black_cross(without_color)4,2110735,,,,blue,,,null,object_10b.png,object_07a.png,,,,,,,,,,,,,,,,,
null,,rt_plussign_withcolor4,2111249,,,,blue,,,null,object_10b.png,object_07a.png,,,,,,,,,,,,,,,,,
1258.199999988079,,rt_thecrossant_black4,2112373,,,,black_plus_sign,,,49,,,1,,,,,,,1,,,,,,,,,
null,,color_black4,2112478,,,,black_plus_sign,,,null,,,,,,,,,,,,,,,,,,,
null,,learn_phase(without_color)4,2115991,,,,black_plus_sign,,,null,object_01b.png,object_05c.png,,,,,,,,,,,,,,,,,
null,,black_cross(without_color)4,2116742,,,,green,,,null,object_01b.png,object_05c.png,,,,,,,,,,,,,,,,,
null,,rt_plussign_withcolor4,2117251,,,,green,,,null,object_01b.png,object_05c.png,,,,,,,,,,,,,,,,,
1296.300000011921,,rt_thecrossant_black4,2118518,,,,black_plus_sign,,,50,,,1,,,,,,,1,,,,,,,,,
null,,color_black4,2118621,,,,black_plus_sign,,,null,,,,,,,,,,,,,,,,,,,
null,,learn_phase(without_color)4,2122127,,,,black_plus_sign,,,null,object_13c.png,object_03c.png,,,,,,,,,,,,,,,,,
null,,black_cross(without_color)4,2123018,,,,green,,,null,object_13c.png,object_03c.png,,,,,,,,,,,,,,,,,
null,,rt_plussign_withcolor4,2123521,,,,green,,,null,object_13c.png,object_03c.png,,,,,,,,,,,,,,,,,
983.6000000238419,,rt_thecrossant_black4,2124648,,,,black_plus_sign,,,50,,,1,,,,,,,1,,,,,,,,,
null,,color_black4,2124752,,,,black_plus_sign,,,null,,,,,,,,,,,,,,,,,,,
null,,learn_phase(without_color)4,2128260,,,,black_plus_sign,,,null,object_05c.png,object_01a.png,,,,,,,,,,,,,,,,,
null,,black_cross(without_color)4,2128705,,,,green,,,null,object_05c.png,object_01a.png,,,,,,,,,,,,,,,,,
null,,rt_plussign_withcolor4,2129208,,,,green,,,null,object_05c.png,object_01a.png,,,,,,,,,,,,,,,,,
1131.6000000238419,,rt_thecrossant_black4,2130779,,,,black_plus_sign,,,50,,,1,,,,,,,1,,,,,,,,,
null,,color_black4,2130883,,,,black_plus_sign,,,null,,,,,,,,,,,,,,,,,,,
null,,learn_phase(without_color)4,2134389,,,,black_plus_sign,,,null,object_14c.png,object_08b.png,,,,,,,,,,,,,,,,,
null,,black_cross(without_color)4,2135003,,,,green,,,null,object_14c.png,object_08b.png,,,,,,,,,,,,,,,,,
null,,rt_plussign_withcolor4,2135511,,,,green,,,null,object_14c.png,object_08b.png,,,,,,,,,,,,,,,,,
607.5,,rt_thecrossant_black4,2136912,,,,black_plus_sign,,,50,,,1,,,,,,,1,,,,,,,,,
null,,color_black4,2137016,,,,black_plus_sign,,,null,,,,,,,,,,,,,,,,,,,
null,,learn_phase(without_color)4,2140527,,,,black_plus_sign,,,null,object_03a.png,object_14c.png,,,,,,,,,,,,,,,,,
null,,black_cross(without_color)4,2140960,,,,green,,,null,object_03a.png,object_14c.png,,,,,,,,,,,,,,,,,
null,,rt_plussign_withcolor4,2141464,,,,green,,,null,object_03a.png,object_14c.png,,,,,,,,,,,,,,,,,
808.7000000178814,,rt_thecrossant_black4,2143041,,,,black_plus_sign,,,50,,,1,,,,,,,1,,,,,,,,,
null,,color_black4,2143150,,,,black_plus_sign,,,null,,,,,,,,,,,,,,,,,,,
null,,learn_phase(without_color)4,2146661,,,,black_plus_sign,,,null,object_12c.png,object_06b.png,,,,,,,,,,,,,,,,,
null,,black_cross(without_color)4,2147516,,,,blue,,,null,object_12c.png,object_06b.png,,,,,,,,,,,,,,,,,
null,,rt_plussign_withcolor4,2148019,,,,blue,,,null,object_12c.png,object_06b.png,,,,,,,,,,,,,,,,,
587.4000000059605,,rt_thecrossant_black4,2149180,,,,black_plus_sign,,,49,,,1,,,,,,,1,,,,,,,,,
null,,color_black4,2149286,,,,black_plus_sign,,,null,,,,,,,,,,,,,,,,,,,
null,,learn_phase(without_color)4,2152798,,,,black_plus_sign,,,null,object_03b.png,object_11b.png,,,,,,,,,,,,,,,,,
null,,black_cross(without_color)4,2153402,,,,green,,,null,object_03b.png,object_11b.png,,,,,,,,,,,,,,,,,
null,,rt_plussign_withcolor4,2153911,,,,green,,,null,object_03b.png,object_11b.png,,,,,,,,,,,,,,,,,
1101.0999999940395,,rt_thecrossant_black4,2155328,,,,black_plus_sign,,,50,,,1,,,,,,,1,,,,,,,,,
null,,color_black4,2155434,,,,black_plus_sign,,,null,,,,,,,,,,,,,,,,,,,
null,,learn_phase(without_color)4,2158940,,,,black_plus_sign,,,null,object_02b.png,object_04b.png,,,,,,,,,,,,,,,,,
null,,black_cross(without_color)4,2159985,,,,blue,,,null,object_02b.png,object_04b.png,,,,,,,,,,,,,,,,,
477,,rt_plussign_withcolor4,2160488,,,,blue,,,49,object_02b.png,object_04b.png,,,,,,,,,,,,,,,,,
null,,rt_thecrossant_black4,2161458,,,,black_plus_sign,,,null,,,1,,,,,,,1,,,,,,,,,
null,,color_black4,2161567,,,,black_plus_sign,,,null,,,,,,,,,,,,,,,,,,,
null,,learn_phase(without_color)4,2165097,,,,black_plus_sign,,,null,object_06c.png,object_01c.png,,,,,,,,,,,,,,,,,
null,,black_cross(without_color)4,2166198,,,,blue,,,null,object_06c.png,object_01c.png,,,,,,,,,,,,,,,,,
null,,rt_plussign_withcolor4,2166701,,,,blue,,,null,object_06c.png,object_01c.png,,,,,,,,,,,,,,,,,
1192.2999999821186,,rt_thecrossant_black4,2167613,,,,black_plus_sign,,,49,,,1,,,,,,,1,,,,,,,,,
null,,color_black4,2167718,,,,black_plus_sign,,,null,,,,,,,,,,,,,,,,,,,
null,,learn_phase(without_color)4,2171223,,,,black_plus_sign,,,null,object_12b.png,object_04b.png,,,,,,,,,,,,,,,,,
null,,black_cross(without_color)4,2172174,,,,green,,,null,object_12b.png,object_04b.png,,,,,,,,,,,,,,,,,
null,,rt_plussign_withcolor4,2172678,,,,green,,,null,object_12b.png,object_04b.png,,,,,,,,,,,,,,,,,
1227.5999999940395,,rt_thecrossant_black4,2173743,,,,black_plus_sign,,,50,,,1,,,,,,,1,,,,,,,,,
null,,color_black4,2173846,,,,black_plus_sign,,,null,,,,,,,,,,,,,,,,,,,
null,,learn_phase(without_color)4,2177360,,,,black_plus_sign,,,null,object_07b.png,object_11c.png,,,,,,,,,,,,,,,,,
null,,black_cross(without_color)4,2178027,,,,green,,,null,object_07b.png,object_11c.png,,,,,,,,,,,,,,,,,
480.7999999821186,,rt_plussign_withcolor4,2178529,,,,green,,,50,object_07b.png,object_11c.png,,,,,,,,,,,,,,,,,
null,,rt_thecrossant_black4,2179872,,,,black_plus_sign,,,null,,,1,,,,,,,1,,,,,,,,,
null,,color_black4,2179978,,,,black_plus_sign,,,null,,,,,,,,,,,,,,,,,,,
null,,learn_phase(without_color)4,2183490,,,,black_plus_sign,,,null,object_03c.png,object_09b.png,,,,,,,,,,,,,,,,,
null,,black_cross(without_color)4,2184581,,,,blue,,,null,object_03c.png,object_09b.png,,,,,,,,,,,,,,,,,
null,,rt_plussign_withcolor4,2185091,,,,blue,,,null,object_03c.png,object_09b.png,,,,,,,,,,,,,,,,,
776.5,,rt_thecrossant_black4,2186020,,,,black_plus_sign,,,49,,,1,,,,,,,1,,,,,,,,,
null,,color_black4,2186125,,,,black_plus_sign,,,null,,,,,,,,,,,,,,,,,,,
null,,learn_phase(without_color)4,2189631,,,,black_plus_sign,,,null,object_05a.png,object_07b.png,,,,,,,,,,,,,,,,,
null,,black_cross(without_color)4,2190442,,,,green,,,null,object_05a.png,object_07b.png,,,,,,,,,,,,,,,,,
null,,rt_plussign_withcolor4,2190945,,,,green,,,null,object_05a.png,object_07b.png,,,,,,,,,,,,,,,,,
1714.199999988079,,rt_thecrossant_black4,2192143,,,,black_plus_sign,,,50,,,1,,,,,,,1,,,,,,,,,
null,,color_black4,2192248,,,,black_plus_sign,,,null,,,,,,,,,,,,,,,,,,,
null,,learn_phase(without_color)4,2195765,,,,black_plus_sign,,,null,object_04c.png,object_14b.png,,,,,,,,,,,,,,,,,
null,,black_cross(without_color)4,2196642,,,,green,,,null,object_04c.png,object_14b.png,,,,,,,,,,,,,,,,,
null,,rt_plussign_withcolor4,2197146,,,,green,,,null,object_04c.png,object_14b.png,,,,,,,,,,,,,,,,,
1144.5,,rt_thecrossant_black4,2198291,,,,black_plus_sign,,,50,,,1,,,,,,,1,,,,,,,,,
null,,color_black4,2198395,,,,black_plus_sign,,,null,,,,,,,,,,,,,,,,,,,
null,,learn_phase(without_color)4,2201902,,,,black_plus_sign,,,null,object_04c.png,object_13b.png,,,,,,,,,,,,,,,,,
null,,black_cross(without_color)4,2202621,,,,blue,,,null,object_04c.png,object_13b.png,,,,,,,,,,,,,,,,,
null,,rt_plussign_withcolor4,2203125,,,,blue,,,null,object_04c.png,object_13b.png,,,,,,,,,,,,,,,,,
1178.5999999940395,,rt_thecrossant_black4,2204422,,,,black_plus_sign,,,49,,,1,,,,,,,1,,,,,,,,,
null,,color_black4,2204527,,,,black_plus_sign,,,null,,,,,,,,,,,,,,,,,,,
null,,learn_phase(without_color)4,2208034,,,,black_plus_sign,,,null,object_02a.png,object_10a.png,,,,,,,,,,,,,,,,,
null,,black_cross(without_color)4,2208996,,,,green,,,null,object_02a.png,object_10a.png,,,,,,,,,,,,,,,,,
null,,rt_plussign_withcolor4,2209506,,,,green,,,null,object_02a.png,object_10a.png,,,,,,,,,,,,,,,,,
830,,rt_thecrossant_black4,2210552,,,,black_plus_sign,,,50,,,1,,,,,,,1,,,,,,,,,
null,,color_black4,2210656,,,,black_plus_sign,,,null,,,,,,,,,,,,,,,,,,,
null,,learn_phase(without_color)4,2214170,,,,black_plus_sign,,,null,object_05b.png,object_15a.png,,,,,,,,,,,,,,,,,
null,,black_cross(without_color)4,2214815,,,,green,,,null,object_05b.png,object_15a.png,,,,,,,,,,,,,,,,,
null,,rt_plussign_withcolor4,2215318,,,,green,,,null,object_05b.png,object_15a.png,,,,,,,,,,,,,,,,,
1272.6000000238419,,rt_thecrossant_black4,2216683,,,,black_plus_sign,,,50,,,1,,,,,,,1,,,,,,,,,
null,,color_black4,2216788,,,,black_plus_sign,,,null,,,,,,,,,,,,,,,,,,,
null,,learn_phase(without_color)4,2220301,,,,black_plus_sign,,,null,object_01c.png,object_08c.png,,,,,,,,,,,,,,,,,
null,,black_cross(without_color)4,2221160,,,,green,,,null,object_01c.png,object_08c.png,,,,,,,,,,,,,,,,,
null,,rt_plussign_withcolor4,2221669,,,,green,,,null,object_01c.png,object_08c.png,,,,,,,,,,,,,,,,,
772.5,,rt_thecrossant_black4,2222826,,,,black_plus_sign,,,50,,,1,,,,,,,1,,,,,,,,,
null,,color_black4,2222932,,,,black_plus_sign,,,null,,,,,,,,,,,,,,,,,,,
null,,learn_phase(without_color)4,2226445,,,,black_plus_sign,,,null,object_11b.png,object_13a.png,,,,,,,,,,,,,,,,,
null,,black_cross(without_color)4,2226963,,,,blue,,,null,object_11b.png,object_13a.png,,,,,,,,,,,,,,,,,
477.09999999403954,,rt_plussign_withcolor4,2227466,,,,blue,,,49,object_11b.png,object_13a.png,,,,,,,,,,,,,,,,,
null,,rt_thecrossant_black4,2228965,,,,black_plus_sign,,,null,,,1,,,,,,,1,,,,,,,,,
null,,color_black4,2229070,,,,black_plus_sign,,,null,,,,,,,,,,,,,,,,,,,
null,,learn_phase(without_color)4,2232576,,,,black_plus_sign,,,null,object_06a.png,object_12a.png,,,,,,,,,,,,,,,,,
null,,black_cross(without_color)4,2233549,,,,blue,,,null,object_06a.png,object_12a.png,,,,,,,,,,,,,,,,,
477.80000001192093,,rt_plussign_withcolor4,2234052,,,,blue,,,49,object_06a.png,object_12a.png,,,,,,,,,,,,,,,,,
null,,rt_thecrossant_black4,2235095,,,,black_plus_sign,,,null,,,1,,,,,,,1,,,,,,,,,
null,,color_black4,2235199,,,,black_plus_sign,,,null,,,,,,,,,,,,,,,,,,,
null,,learn_phase(without_color)4,2238712,,,,black_plus_sign,,,null,object_02a.png,object_11a.png,,,,,,,,,,,,,,,,,
null,,black_cross(without_color)4,2239189,,,,blue,,,null,object_02a.png,object_11a.png,,,,,,,,,,,,,,,,,
null,,rt_plussign_withcolor4,2239698,,,,blue,,,null,object_02a.png,object_11a.png,,,,,,,,,,,,,,,,,
1125.699999988079,,rt_thecrossant_black4,2241241,,,,black_plus_sign,,,49,,,1,,,,,,,1,,,,,,,,,
null,,color_black4,2241345,,,,black_plus_sign,,,null,,,,,,,,,,,,,,,,,,,
null,,learn_phase(without_color)4,2244859,,,,black_plus_sign,,,null,object_07c.png,object_06b.png,,,,,,,,,,,,,,,,,
null,,black_cross(without_color)4,2245615,,,,blue,,,null,object_07c.png,object_06b.png,,,,,,,,,,,,,,,,,
504.19999998807907,,rt_plussign_withcolor4,2246125,,,,blue,,,49,object_07c.png,object_06b.png,,,,,,,,,,,,,,,,,
null,,rt_thecrossant_black4,2247385,,,,black_plus_sign,,,null,,,1,,,,,,,1,,,,,,,,,
null,,color_black4,2247511,,,,black_plus_sign,,,null,,,,,,,,,,,,,,,,,,,
null,,thebreak,2247616,,,,<p></p>,,,null,,,,,,,,,,,,,,,,,,,
26339.100000023842,,intro_0,2273959,,,,instruct,,,32,,,,,,,,,,,,,,,,,,,
4553.5999999940395,,directmemory_phase4,2278515,,,,object_12b.png,,,49,,,1,,object_04b.png,object_06b.png,object_14b.png,object_04b.png,,0.9230769230769231,1,,,,,,,,
3635.300000011921,,directmemory_phase4,2282156,,,,object_08b.png,,,50,,,1,,object_15b.png,object_14c.png,object_06b.png,object_14c.png,,0.9239130434782609,1,,,,,,,,
7760.299999982119,,directmemory_phase4,2289922,,,,object_09a.png,,,51,,,1,,object_03c.png,object_05a.png,object_07a.png,object_07a.png,,0.9247311827956989,1,,,,,,,,
4754.5,,directmemory_phase4,2294684,,,,object_07b.png,,,50,,,1,,object_05c.png,object_11c.png,object_12a.png,object_11c.png,,0.925531914893617,1,,,,,,,,
9062.09999999404,,directmemory_phase4,2303752,,,,object_11a.png,,,49,,,1,,object_02a.png,object_04b.png,object_01b.png,object_02a.png,,0.9263157894736842,1,,,,,,,,
6240.100000023842,,directmemory_phase4,2309999,,,,object_12c.png,,,51,,,1,,object_03c.png,object_14b.png,object_06b.png,object_06b.png,,0.9270833333333334,1,,,,,,,,
2583.4000000059605,,directmemory_phase4,2312589,,,,object_02b.png,,,51,,,1,,object_15a.png,object_04a.png,object_04b.png,object_04b.png,,0.9278350515463918,1,,,,,,,,
3944.2000000178814,,directmemory_phase4,2316540,,,,object_05b.png,,,49,,,1,,object_15a.png,object_09c.png,object_10a.png,object_15a.png,,0.9285714285714286,1,,,,,,,,
8945.59999999404,,directmemory_phase4,2325492,,,,object_03c.png,,,50,,,1,,object_15c.png,object_13c.png,object_02b.png,object_13c.png,,0.9292929292929293,1,,,,,,,,
7906.5999999940395,,directmemory_phase4,2333404,,,,object_09c.png,,,50,,,1,,object_15a.png,object_15b.png,object_11a.png,object_15b.png,,0.93,1,,,,,,,,
1357.0999999940395,,directmemory_phase4,2334766,,,,object_12a.png,,,49,,,1,,object_06a.png,object_09c.png,object_11a.png,object_06a.png,,0.9306930693069307,1,,,,,,,,
4812.5999999940395,,directmemory_phase4,2339586,,,,object_05c.png,,,51,,,1,,object_08c.png,object_04c.png,object_01b.png,object_01b.png,,0.9313725490196079,1,,,,,,,,
2841,,directmemory_phase4,2342432,,,,object_02c.png,,,50,,,1,,object_12c.png,object_09c.png,object_02a.png,object_09c.png,,0.9320388349514563,1,,,,,,,,
6254.4000000059605,,directmemory_phase4,2348691,,,,object_04c.png,,,50,,,1,,object_06b.png,object_13b.png,object_15b.png,object_13b.png,,0.9326923076923077,1,,,,,,,,
2308.800000011921,,directmemory_phase4,2351010,,,,object_11b.png,,,49,,,1,,object_03b.png,object_11c.png,object_09c.png,object_03b.png,,0.9333333333333333,1,,,,,,,,
4183.9000000059605,,directmemory_phase4,2355201,,,,object_06c.png,,,51,,,1,,object_06a.png,object_13a.png,object_01c.png,object_01c.png,,0.9339622641509434,1,,,,,,,,
2946.9000000059605,,directmemory_phase4,2358154,,,,object_10a.png,,,50,,,1,,object_01a.png,object_02a.png,object_15a.png,object_02a.png,,0.9345794392523364,1,,,,,,,,
8537.299999982119,,directmemory_phase4,2366698,,,,object_05a.png,,,50,,,1,,object_14b.png,object_07b.png,object_03c.png,object_07b.png,,0.9351851851851852,1,,,,,,,,
5656.5,,directmemory_phase4,2372360,,,,object_07a.png,,,49,,,1,,object_10b.png,object_12a.png,object_09c.png,object_10b.png,,0.9357798165137615,1,,,,,,,,
3842,,directmemory_phase4,2376207,,,,object_15a.png,,,51,,,1,,object_07c.png,object_05c.png,object_14a.png,object_14a.png,,0.9363636363636364,1,,,,,,,,
3103,,directmemory_phase4,2379316,,,,object_08a.png,,,50,,,1,,object_02c.png,object_15c.png,object_04c.png,object_15c.png,,0.9369369369369369,1,,,,,,,,
6786.9000000059605,,directmemory_phase4,2386110,,,,object_08c.png,,,51,,,1,,object_07a.png,object_02b.png,object_01c.png,object_01c.png,,0.9375,1,,,,,,,,
3716.5,,directmemory_phase4,2389832,,,,object_13a.png,,,51,,,1,,object_15a.png,object_02c.png,object_11b.png,object_11b.png,,0.9380530973451328,1,,,,,,,,
4307.4000000059605,,directmemory_phase4,2394145,,,,object_07c.png,,,50,,,1,,object_13b.png,object_06b.png,object_04b.png,object_06b.png,,0.9385964912280702,1,,,,,,,,
5664.5,,directmemory_phase4,2399816,,,,object_01a.png,,,51,,,1,,object_07a.png,object_06c.png,object_05c.png,object_05c.png,,0.9391304347826087,1,,,,,,,,
3132.5,,directmemory_phase4,2402954,,,,object_10c.png,,,50,,,1,,object_14b.png,object_06a.png,object_04b.png,object_06a.png,,0.9396551724137931,1,,,,,,,,
7398.300000011921,,directmemory_phase4,2410359,,,,object_03a.png,,,50,,,1,,object_08a.png,object_14c.png,object_04b.png,object_14c.png,,0.9401709401709402,1,,,,,,,,
7316.299999982119,,directmemory_phase4,2417682,,,,object_15c.png,,,49,,,1,,object_04a.png,object_08c.png,object_09c.png,object_04a.png,,0.940677966101695,1,,,,,,,,
3247.5,,directmemory_phase4,2420936,,,,object_09b.png,,,50,,,1,,object_01a.png,object_03c.png,object_02a.png,object_03c.png,,0.9411764705882353,1,,,,,,,,
5050.9000000059605,,directmemory_phase4,2425993,,,,object_14b.png,,,50,,,1,,object_09b.png,object_04c.png,object_02a.png,object_04c.png,,0.9416666666666667,1,,,,,,,,
null,,thebreak,2426099,,,,<p></p>,,,null,,,,,,,,,,,,,,,,,,,
5039.199999988079,,intro_0,2431142,,,,instruct,,,32,,,,,,,,,,,,,,,,,,,
22000,,intro_1,2453144,,,,instruct,,,32,,,,,,,,,,,,,,,,,,,
2655.800000011921,,intro_2,2455804,,,,instruct,,,32,,,,,,,,,,,,,,,,,,,
,,intro_3,2467874,,,,instruct,,,,,,,,,,,,,,,,,,,,,,
46523.80000001192,,intro_4,2514402,,,,instruct,,,32,,,,,,,,,,,,,,,,,,,
10303.40000000596,,inference_phase,2524694,,,,object_01b.png,,,50,object_01a.png,object_09a.png,0,,,,,object_01a.png,,0,,object_04c.png,,,,,,,
7558.300000011921,,inference_phase,2532259,,,,object_04a.png,,,50,object_10a.png,object_15a.png,1,,,,,object_08a.png,,0.5,,object_08a.png,,,,,,,
9035.300000011921,,inference_phase,2541299,,,,object_13b.png,,,49,object_14b.png,object_13a.png,1,,,,,object_14b.png,,0.6666666666666666,,object_09c.png,,,,,,,
9280.5,,inference_phase,2550586,,,,object_09b.png,,,49,object_13c.png,object_12a.png,1,,,,,object_13c.png,,0.75,,object_06a.png,,,,,,,
8260.09999999404,,inference_phase,2558851,,,,object_02b.png,,,51,object_02c.png,object_09c.png,0,,,,,object_12b.png,,0.6,,object_12b.png,,,,,,,
8810.100000023842,,inference_phase,2567667,,,,object_07c.png,,,49,object_10a.png,object_11b.png,0,,,,,object_12c.png,,0.5,,object_12c.png,,,,,,,
7535.300000011921,,inference_phase,2575208,,,,object_13a.png,,,51,object_04b.png,object_03b.png,1,,,,,object_03b.png,,0.5714285714285714,,object_10b.png,,,,,,,
6257.5,,inference_phase,2581471,,,,object_06c.png,,,51,object_05c.png,object_08c.png,1,,,,,object_08c.png,,0.625,,object_11a.png,,,,,,,
8682.59999999404,,inference_phase,2590144,,,,object_12a.png,,,49,object_10c.png,object_06c.png,1,,,,,object_10c.png,,0.6666666666666666,,object_01c.png,,,,,,,
8050.100000023842,,inference_phase,2598199,,,,object_03a.png,,,50,object_07a.png,object_11c.png,1,,,,,object_08b.png,,0.7,,object_08b.png,,,,,,,
8027,,inference_phase,2606231,,,,object_10b.png,,,51,object_05b.png,object_09a.png,1,,,,,object_09a.png,,0.7272727272727273,,object_01c.png,,,,,,,
7757.4000000059605,,inference_phase,2613995,,,,object_10a.png,,,49,object_03c.png,object_15b.png,0,,,,,object_11a.png,,0.6666666666666666,,object_11a.png,,,,,,,
9078.899999976158,,inference_phase,2623079,,,,object_15b.png,,,49,object_01a.png,object_02c.png,0,,,,,object_02c.png,,0.6153846153846154,,object_04b.png,,,,,,,
4156.199999988079,,inference_phase,2627240,,,,object_05b.png,,,50,object_07b.png,object_11a.png,1,,,,,object_14a.png,,0.6428571428571429,,object_14a.png,,,,,,,
5048.799999982119,,inference_phase,2632294,,,,object_05a.png,,,49,object_11c.png,object_11a.png,1,,,,,object_11c.png,,0.6666666666666666,,object_06b.png,,,,,,,
,,survey,2842141,,,,survey-questions,,,,,,,,,,,,,,,,none,high,no,i just picture it with various things around me,some of the trials are easier because some are just to match each colour together and some resemble object i'm familiar with,no,not really
