rt,responses,trial_type,time_elapsed,identifier_a,identifier_b,identifier_c,tasktype,browser_type,local_time,UTC_time,stimulus,button_pressed,response,key_press,stimulus_left,stimulus_right,accuracy,practice_cumulative_accuracy,stimulus_down_left,stimulus_down_mid,stimulus_down_right,stimulus_correct,prac_weighted_accuracy,cumulative_accuracy,failed_practice,weighted_accuracy,stimulus_middle,problems,smooth,distraction,strategies,easier,similar,comments,detectfocus,breakfocus,completion_code
9719.70000000298,{worker_id:65a2cd1b1d1724a7eba41cd3},id_enter,9721,object_10c.png; object_02b.png; object_11a.png; object_04a.png; object_05b.png; object_03a.png; object_10b.png; object_08c.png; object_02a.png; object_06c.png; object_13a.png; object_12c.png; object_07a.png; object_05c.png; object_07b.png,object_09b.png; object_01b.png; object_01c.png; object_06a.png; object_14a.png; object_14c.png; object_11b.png; object_02c.png; object_09c.png; object_14b.png; object_03c.png; object_04b.png; object_12a.png; object_09a.png; object_15a.png,object_08b.png; object_07c.png; object_15c.png; object_13b.png; object_11c.png; object_15b.png; object_03b.png; object_06b.png; object_04c.png; object_05a.png; object_10a.png; object_08a.png; object_12b.png; object_01a.png; object_13c.png,blocked,Mozilla/5.0 (Windows NT 10.0; Win64; x64) AppleWebKit/537.36 (KHTML, like Gecko) Chrome/136.0.0.0 Safari/537.36,5/11/2025, 6:01:24 PM,2025-05-11 22:01:24.725,,,,,,,,,,,,,,,,,,,,,,,,,,,
21889.60000000149,,make_fullscreen,31618,,,,,,,,fullscreen,0,,,,,,,,,,,,,,,,,,,,,,,,,
17234.79999999702,,instruct_1,48854,,,,,,,,instruct,0,Next,,,,,,,,,,,,,,,,,,,,,,,,
19087.29999999702,,instruct_2,67943,,,,,,,,instruct,1,Next,,,,,,,,,,,,,,,,,,,,,,,,
33967.5,,instruct_3,101911,,,,,,,,instruct,1,Next,,,,,,,,,,,,,,,,,,,,,,,,
38091.89999999851,,instruct_4,140005,,,,,,,,instruct,1,Next,,,,,,,,,,,,,,,,,,,,,,,,
27749.39999999851,,instruct_5,167755,,,,,,,,instruct,1,Next,,,,,,,,,,,,,,,,,,,,,,,,
6553.39999999851,,instruct_6,174310,,,,,,,,instruct,1,Next,,,,,,,,,,,,,,,,,,,,,,,,
71918.29999999702,,instruct_7,246229,,,,,,,,instruct,1,Next,,,,,,,,,,,,,,,,,,,,,,,,
null,,prac_atten_color_black,246645,,,,,,,,black_plus_sign,,,null,,,,,,,,,,,,,,,,,,,,,,,
887.1000000014901,,prac_atten_color,247634,,,,,,,,<p style='position:absolute;top: 50%;right: 50%;transform: translate(50%, -50%);font-size: 125px;color: blue;'>+</p>,,,49,,,,,,,,,,,,,,,,,,,,,,,
null,,prac_atten_color_black,249635,,,,,,,,black_plus_sign,,,null,,,,,,,,,,,,,,,,,,,,,,,
null,,prac_atten_color_black,250049,,,,,,,,black_plus_sign,,,null,,,,,,,,,,,,,,,,,,,,,,,
682.1000000014901,,prac_atten_color,251106,,,,,,,,<p style='position:absolute;top: 50%;right: 50%;transform: translate(50%, -50%);font-size: 125px;color: green;'>+</p>,,,50,,,,,,,,,,,,,,,,,,,,,,,
null,,prac_atten_color_black,253108,,,,,,,,black_plus_sign,,,null,,,,,,,,,,,,,,,,,,,,,,,
null,,prac_atten_color_black,253455,,,,,,,,black_plus_sign,,,null,,,,,,,,,,,,,,,,,,,,,,,
null,,prac_atten_color,253986,,,,,,,,<p style='position:absolute;top: 50%;right: 50%;transform: translate(50%, -50%);font-size: 125px;color: green;'>+</p>,,,null,,,,,,,,,,,,,,,,,,,,,,,
226.70000000298023,,prac_atten_color_black,255989,,,,,,,,black_plus_sign,,,50,,,,,,,,,,,,,,,,,,,,,,,
null,,prac_atten_color_black,256861,,,,,,,,black_plus_sign,,,null,,,,,,,,,,,,,,,,,,,,,,,
649.1000000014901,,prac_atten_color,257806,,,,,,,,<p style='position:absolute;top: 50%;right: 50%;transform: translate(50%, -50%);font-size: 125px;color: blue;'>+</p>,,,49,,,,,,,,,,,,,,,,,,,,,,,
null,,prac_atten_color_black,259807,,,,,,,,black_plus_sign,,,null,,,,,,,,,,,,,,,,,,,,,,,
null,,prac_atten_color_black,260265,,,,,,,,black_plus_sign,,,null,,,,,,,,,,,,,,,,,,,,,,,
null,,prac_atten_color,260910,,,,,,,,<p style='position:absolute;top: 50%;right: 50%;transform: translate(50%, -50%);font-size: 125px;color: green;'>+</p>,,,null,,,,,,,,,,,,,,,,,,,,,,,
199,,prac_atten_color_black,262912,,,,,,,,black_plus_sign,,,50,,,,,,,,,,,,,,,,,,,,,,,
null,,prac_atten_color_black,263671,,,,,,,,black_plus_sign,,,null,,,,,,,,,,,,,,,,,,,,,,,
null,,prac_atten_color,264230,,,,,,,,<p style='position:absolute;top: 50%;right: 50%;transform: translate(50%, -50%);font-size: 125px;color: green;'>+</p>,,,null,,,,,,,,,,,,,,,,,,,,,,,
165.60000000149012,,prac_atten_color_black,266231,,,,,,,,black_plus_sign,,,50,,,,,,,,,,,,,,,,,,,,,,,
null,,prac_atten_color_black,267081,,,,,,,,black_plus_sign,,,null,,,,,,,,,,,,,,,,,,,,,,,
635.6000000014901,,prac_atten_color,267730,,,,,,,,<p style='position:absolute;top: 50%;right: 50%;transform: translate(50%, -50%);font-size: 125px;color: blue;'>+</p>,,,50,,,,,,,,,,,,,,,,,,,,,,,
null,,prac_atten_color_black,269731,,,,,,,,black_plus_sign,,,null,,,,,,,,,,,,,,,,,,,,,,,
8330.89999999851,,attentioncheck_help,278064,,,,,,,,instruct,,,32,,,,,,,,,,,,,,,,,,,,,,,
null,,prac_atten_color_black,278834,,,,,,,,black_plus_sign,,,null,,,,,,,,,,,,,,,,,,,,,,,
null,,prac_atten_color,279393,,,,,,,,<p style='position:absolute;top: 50%;right: 50%;transform: translate(50%, -50%);font-size: 125px;color: green;'>+</p>,,,null,,,,,,,,,,,,,,,,,,,,,,,
1140.2999999970198,,prac_atten_color_black,281395,,,,,,,,black_plus_sign,,,50,,,,,,,,,,,,,,,,,,,,,,,
null,,prac_atten_color_black,282241,,,,,,,,black_plus_sign,,,null,,,,,,,,,,,,,,,,,,,,,,,
671.2999999970198,,prac_atten_color,283165,,,,,,,,<p style='position:absolute;top: 50%;right: 50%;transform: translate(50%, -50%);font-size: 125px;color: blue;'>+</p>,,,49,,,,,,,,,,,,,,,,,,,,,,,
null,,prac_atten_color_black,285166,,,,,,,,black_plus_sign,,,null,,,,,,,,,,,,,,,,,,,,,,,
null,,prac_atten_color_black,285647,,,,,,,,black_plus_sign,,,null,,,,,,,,,,,,,,,,,,,,,,,
802.0999999940395,,prac_atten_color,286744,,,,,,,,<p style='position:absolute;top: 50%;right: 50%;transform: translate(50%, -50%);font-size: 125px;color: blue;'>+</p>,,,49,,,,,,,,,,,,,,,,,,,,,,,
null,,prac_atten_color_black,288745,,,,,,,,black_plus_sign,,,null,,,,,,,,,,,,,,,,,,,,,,,
8531.79999999702,,attentioncheck_feedback,297278,,,,,,,,cross_check_feedback,0,,,,,,,,,,,,,,,,,,,,,,,,,
8208.5,,last_instruct,305487,,,,,,,,instruct,,,32,,,,,,,,,,,,,,,,,,,,,,,
null,,prac_learn_phase(without_color),308989,,,,,,,,black_plus_sign,,,null,object_03a.png,object_14c.png,,,,,,,,,,,,,,,,,,,,,
null,,prac_black_cross(without_color),309471,,,,,,,,green,,,null,object_03a.png,object_14c.png,,,,,,,,,,,,,,,,,,,,,
null,,prac_rt_plussign_withcolor,309973,,,,,,,,green,,,null,object_03a.png,object_14c.png,,,,,,,,,,,,,,,,,,,,,
1585.8999999985099,,prac_rt_thecrossant_black,311495,,,,,,,,black_plus_sign,,,50,,,1,1,,,,,,,,,,,,,,,,,,,
null,,prac_color_black,311597,,,,,,,,black_plus_sign,,,null,,,,,,,,,,,,,,,,,,,,,,,
null,,prac_learn_phase(without_color),315098,,,,,,,,black_plus_sign,,,null,object_07a.png,object_12a.png,,,,,,,,,,,,,,,,,,,,,
null,,black_cross(without_color)1,315692,,,,,,,,blue,,,null,object_03a.png,object_14c.png,,,,,,,,,,,,,,,,,,,,,
null,,prac_rt_plussign_withcolor,316194,,,,,,,,blue,,,null,object_07a.png,object_12a.png,,,,,,,,,,,,,,,,,,,,,
702,,prac_rt_thecrossant_black,317650,,,,,,,,black_plus_sign,,,50,,,0,0.5,,,,,,,,,,,,,,,,,,,
null,,prac_color_black,317752,,,,,,,,black_plus_sign,,,null,,,,,,,,,,,,,,,,,,,,,,,
null,,prac_learn_phase(without_color),321254,,,,,,,,black_plus_sign,,,null,object_04a.png,object_06a.png,,,,,,,,,,,,,,,,,,,,,
null,,black_cross(without_color)1,321847,,,,,,,,blue,,,null,object_03a.png,object_14c.png,,,,,,,,,,,,,,,,,,,,,
null,,prac_rt_plussign_withcolor,322348,,,,,,,,blue,,,null,object_04a.png,object_06a.png,,,,,,,,,,,,,,,,,,,,,
1168.3000000044703,,prac_rt_thecrossant_black,323930,,,,,,,,black_plus_sign,,,49,,,1,0.6666666666666666,,,,,,,,,,,,,,,,,,,
null,,prac_color_black,324032,,,,,,,,black_plus_sign,,,null,,,,,,,,,,,,,,,,,,,,,,,
null,,prac_learn_phase(without_color),327534,,,,,,,,black_plus_sign,,,null,object_05b.png,object_14a.png,,,,,,,,,,,,,,,,,,,,,
null,,black_cross(without_color)1,328128,,,,,,,,blue,,,null,object_03a.png,object_14c.png,,,,,,,,,,,,,,,,,,,,,
null,,prac_rt_plussign_withcolor,328629,,,,,,,,blue,,,null,object_05b.png,object_14a.png,,,,,,,,,,,,,,,,,,,,,
861.1000000014901,,prac_rt_thecrossant_black,330148,,,,,,,,black_plus_sign,,,49,,,1,0.75,,,,,,,,,,,,,,,,,,,
null,,prac_color_black,330250,,,,,,,,black_plus_sign,,,null,,,,,,,,,,,,,,,,,,,,,,,
4253.20000000298,,instruct_dir_01,334505,,,,,,,,instruct,0,Next,,,,,,,,,,,,,,,,,,,,,,,,
8272.60000000149,,instruct_dir_2,342778,,,,,,,,instruct,1,Next,,,,,,,,,,,,,,,,,,,,,,,,
8504.60000000149,,instruct_dir_3,351284,,,,,,,,instruct,1,Next,,,,,,,,,,,,,,,,,,,,,,,,
7063.5,,instruct_dir_4,358348,,,,,,,,instruct,1,Start,,,,,,,,,,,,,,,,,,,,,,,,
null,,thebreak,358450,,,,,,,,<p></p>,,,null,,,,,,,,,,,,,,,,,,,,,,,
3418.10000000149,,intro_0,361869,,,,,,,,instruct,,,32,,,,,,,,,,,,,,,,,,,,,,,
7130.89999999851,,prac_directmemory_phase,369001,,,,,,,,practice/object_03b.png,,,49,,,0,,practice/object_04a.png,practice/object_03a.png,practice/object_02a.png,practice/object_03a.png,0,0,,,,,,,,,,,,,
4099.29999999702,,prac_directmemory_phase,373103,,,,,,,,practice/object_01b.png,,,50,,,1,,practice/object_03a.png,practice/object_01a.png,practice/object_02a.png,practice/object_01a.png,1,0.5,,,,,,,,,,,,,
3218,,prac_directmemory_phase,376322,,,,,,,,practice/object_04b.png,,,51,,,0,,practice/object_04a.png,practice/object_03a.png,practice/object_02a.png,practice/object_04a.png,0,0.3333333333333333,,,,,,,,,,,,,
4073.8000000044703,,prac_directmemory_phase,380397,,,,,,,,practice/object_02b.png,,,50,,,1,,practice/object_01a.png,practice/object_02a.png,practice/object_04a.png,practice/object_02a.png,1,0.5,,,,,,,,,,,,,
10031.5,,practice_feedback_force_restart,390429,,,,,,,,practice_feedback,0,,,,,,,,,,,,,1,,,,,,,,,,,,
3341,,last_instruct,393771,,,,,,,,instruct,,,32,,,,,,,,,,,,,,,,,,,,,,,
null,,prac_learn_phase(without_color),397273,,,,,,,,black_plus_sign,,,null,object_03a.png,object_14c.png,,,,,,,,,,,,,,,,,,,,,
null,,prac_black_cross(without_color),398185,,,,,,,,green,,,null,object_03a.png,object_14c.png,,,,,,,,,,,,,,,,,,,,,
null,,prac_rt_plussign_withcolor,398687,,,,,,,,green,,,null,object_03a.png,object_14c.png,,,,,,,,,,,,,,,,,,,,,
null,,prac_rt_thecrossant_black,399778,,,,,,,,black_plus_sign,,,null,,,,0.75,,,,,,,,,,,,,,,,,,,
null,,prac_color_black,399879,,,,,,,,black_plus_sign,,,null,,,,,,,,,,,,,,,,,,,,,,,
null,,prac_learn_phase(without_color),403382,,,,,,,,black_plus_sign,,,null,object_07a.png,object_12a.png,,,,,,,,,,,,,,,,,,,,,
null,,black_cross(without_color)1,403986,,,,,,,,blue,,,null,object_03a.png,object_14c.png,,,,,,,,,,,,,,,,,,,,,
null,,prac_rt_plussign_withcolor,404487,,,,,,,,blue,,,null,object_07a.png,object_12a.png,,,,,,,,,,,,,,,,,,,,,
1929,,prac_rt_thecrossant_black,406069,,,,,,,,black_plus_sign,,,49,,,1,0.8,,,,,,,,,,,,,,,,,,,
null,,prac_color_black,406170,,,,,,,,black_plus_sign,,,null,,,,,,,,,,,,,,,,,,,,,,,
null,,prac_learn_phase(without_color),409673,,,,,,,,black_plus_sign,,,null,object_04a.png,object_06a.png,,,,,,,,,,,,,,,,,,,,,
null,,black_cross(without_color)1,410267,,,,,,,,blue,,,null,object_03a.png,object_14c.png,,,,,,,,,,,,,,,,,,,,,
null,,prac_rt_plussign_withcolor,410768,,,,,,,,blue,,,null,object_04a.png,object_06a.png,,,,,,,,,,,,,,,,,,,,,
838.8999999985099,,prac_rt_thecrossant_black,411923,,,,,,,,black_plus_sign,,,49,,,1,0.8333333333333334,,,,,,,,,,,,,,,,,,,
null,,prac_color_black,412031,,,,,,,,black_plus_sign,,,null,,,,,,,,,,,,,,,,,,,,,,,
null,,prac_learn_phase(without_color),415534,,,,,,,,black_plus_sign,,,null,object_05b.png,object_14a.png,,,,,,,,,,,,,,,,,,,,,
null,,black_cross(without_color)1,416128,,,,,,,,blue,,,null,object_03a.png,object_14c.png,,,,,,,,,,,,,,,,,,,,,
null,,prac_rt_plussign_withcolor,416630,,,,,,,,blue,,,null,object_05b.png,object_14a.png,,,,,,,,,,,,,,,,,,,,,
1580.8999999985099,,prac_rt_thecrossant_black,417821,,,,,,,,black_plus_sign,,,49,,,1,0.8571428571428571,,,,,,,,,,,,,,,,,,,
null,,prac_color_black,417924,,,,,,,,black_plus_sign,,,null,,,,,,,,,,,,,,,,,,,,,,,
1632.3000000044703,,instruct_dir_01,419557,,,,,,,,instruct,0,Next,,,,,,,,,,,,,,,,,,,,,,,,
1920.3999999985099,,instruct_dir_2,421478,,,,,,,,instruct,1,Next,,,,,,,,,,,,,,,,,,,,,,,,
2437.7000000029802,,instruct_dir_3,423916,,,,,,,,instruct,1,Next,,,,,,,,,,,,,,,,,,,,,,,,
3681.2999999970198,,instruct_dir_4,427599,,,,,,,,instruct,1,Start,,,,,,,,,,,,,,,,,,,,,,,,
null,,thebreak,427700,,,,,,,,<p></p>,,,null,,,,,,,,,,,,,,,,,,,,,,,
2323.10000000149,,intro_0,430024,,,,,,,,instruct,,,32,,,,,,,,,,,,,,,,,,,,,,,
3829.1999999955297,,prac_directmemory_phase,433854,,,,,,,,practice/object_03b.png,,,51,,,0,,practice/object_04a.png,practice/object_03a.png,practice/object_02a.png,practice/object_03a.png,0,0,,,,,,,,,,,,,
2579.2999999970198,,prac_directmemory_phase,436435,,,,,,,,practice/object_01b.png,,,50,,,1,,practice/object_03a.png,practice/object_01a.png,practice/object_02a.png,practice/object_01a.png,1,0.5,,,,,,,,,,,,,
3070,,prac_directmemory_phase,439506,,,,,,,,practice/object_04b.png,,,49,,,1,,practice/object_04a.png,practice/object_03a.png,practice/object_02a.png,practice/object_04a.png,1,0.6666666666666666,,,,,,,,,,,,,
4124.10000000149,,prac_directmemory_phase,443631,,,,,,,,practice/object_02b.png,,,50,,,1,,practice/object_01a.png,practice/object_02a.png,practice/object_04a.png,practice/object_02a.png,1,0.75,,,,,,,,,,,,,
18684.39999999851,,practice_feedback,462317,,,,,,,,practice_feedback,1,,,,,,,,,,,,,,,,,,,,,,,,,
15989.89999999851,,proceed_actualTask,478307,,,,,,,,proceed_actualTask,1,Continue,,,,,,,,,,,,,,,,,,,,,,,,
8667.89999999851,,last_inst,486976,,,,,,,,last_inst,,,32,,,,,,,,,,,,,,,,,,,,,,,
null,,learn_phase(without_color)1,490478,,,,,,,,black_plus_sign,,,null,object_03a.png,object_14c.png,,,,,,,,,,,,,,,,,,,,,
null,,black_cross(without_color)1,491072,,,,,,,,blue,,,null,object_03a.png,object_14c.png,,,,,,,,,,,,,,,,,,,,,
null,,rt_plussign_withcolor1,491574,,,,,,,,blue,,,null,object_03a.png,object_14c.png,,,,,,,,,,,,,,,,,,,,,
1436.8000000044703,,rt_thecrossant_black1,492983,,,,,,,,black_plus_sign,,,49,,,1,,,,,,,1,,,,,,,,,,,,,
null,,color_black1,493086,,,,,,,,black_plus_sign,,,null,,,,,,,,,,,,,,,,,,,,,,,
null,,learn_phase(without_color)1,496588,,,,,,,,black_plus_sign,,,null,object_07a.png,object_12a.png,,,,,,,,,,,,,,,,,,,,,
null,,black_cross(without_color)1,497434,,,,,,,,blue,,,null,object_07a.png,object_12a.png,,,,,,,,,,,,,,,,,,,,,
null,,rt_plussign_withcolor1,497935,,,,,,,,blue,,,null,object_07a.png,object_12a.png,,,,,,,,,,,,,,,,,,,,,
1361.7000000029802,,rt_thecrossant_black1,499093,,,,,,,,black_plus_sign,,,49,,,1,,,,,,,1,,,,,,,,,,,,,
null,,color_black1,499194,,,,,,,,black_plus_sign,,,null,,,,,,,,,,,,,,,,,,,,,,,
null,,learn_phase(without_color)1,502697,,,,,,,,black_plus_sign,,,null,object_04a.png,object_06a.png,,,,,,,,,,,,,,,,,,,,,
null,,black_cross(without_color)1,503156,,,,,,,,blue,,,null,object_04a.png,object_06a.png,,,,,,,,,,,,,,,,,,,,,
null,,rt_plussign_withcolor1,503658,,,,,,,,blue,,,null,object_04a.png,object_06a.png,,,,,,,,,,,,,,,,,,,,,
1138.8000000044703,,rt_thecrossant_black1,505207,,,,,,,,black_plus_sign,,,49,,,1,,,,,,,1,,,,,,,,,,,,,
null,,color_black1,505310,,,,,,,,black_plus_sign,,,null,,,,,,,,,,,,,,,,,,,,,,,
null,,learn_phase(without_color)1,508812,,,,,,,,black_plus_sign,,,null,object_05b.png,object_14a.png,,,,,,,,,,,,,,,,,,,,,
null,,black_cross(without_color)1,509421,,,,,,,,green,,,null,object_05b.png,object_14a.png,,,,,,,,,,,,,,,,,,,,,
null,,rt_plussign_withcolor1,509924,,,,,,,,green,,,null,object_05b.png,object_14a.png,,,,,,,,,,,,,,,,,,,,,
851.3999999985099,,rt_thecrossant_black1,511320,,,,,,,,black_plus_sign,,,50,,,1,,,,,,,1,,,,,,,,,,,,,
null,,color_black1,511421,,,,,,,,black_plus_sign,,,null,,,,,,,,,,,,,,,,,,,,,,,
null,,learn_phase(without_color)1,514922,,,,,,,,black_plus_sign,,,null,object_02a.png,object_09c.png,,,,,,,,,,,,,,,,,,,,,
null,,black_cross(without_color)1,515622,,,,,,,,green,,,null,object_02a.png,object_09c.png,,,,,,,,,,,,,,,,,,,,,
null,,rt_plussign_withcolor1,516124,,,,,,,,green,,,null,object_02a.png,object_09c.png,,,,,,,,,,,,,,,,,,,,,
1882.2999999970198,,rt_thecrossant_black1,517428,,,,,,,,black_plus_sign,,,50,,,1,,,,,,,1,,,,,,,,,,,,,
null,,color_black1,517529,,,,,,,,black_plus_sign,,,null,,,,,,,,,,,,,,,,,,,,,,,
null,,learn_phase(without_color)1,521031,,,,,,,,black_plus_sign,,,null,object_11a.png,object_01c.png,,,,,,,,,,,,,,,,,,,,,
null,,black_cross(without_color)1,521910,,,,,,,,green,,,null,object_11a.png,object_01c.png,,,,,,,,,,,,,,,,,,,,,
null,,rt_plussign_withcolor1,522412,,,,,,,,green,,,null,object_11a.png,object_01c.png,,,,,,,,,,,,,,,,,,,,,
1556.3000000044703,,rt_thecrossant_black1,523538,,,,,,,,black_plus_sign,,,50,,,1,,,,,,,1,,,,,,,,,,,,,
null,,color_black1,523639,,,,,,,,black_plus_sign,,,null,,,,,,,,,,,,,,,,,,,,,,,
null,,learn_phase(without_color)1,527140,,,,,,,,black_plus_sign,,,null,object_12c.png,object_04b.png,,,,,,,,,,,,,,,,,,,,,
null,,black_cross(without_color)1,528118,,,,,,,,blue,,,null,object_12c.png,object_04b.png,,,,,,,,,,,,,,,,,,,,,
null,,rt_plussign_withcolor1,528621,,,,,,,,blue,,,null,object_12c.png,object_04b.png,,,,,,,,,,,,,,,,,,,,,
1269.3999999985099,,rt_thecrossant_black1,529648,,,,,,,,black_plus_sign,,,49,,,1,,,,,,,1,,,,,,,,,,,,,
null,,color_black1,529750,,,,,,,,black_plus_sign,,,null,,,,,,,,,,,,,,,,,,,,,,,
null,,learn_phase(without_color)1,533252,,,,,,,,black_plus_sign,,,null,object_05c.png,object_09a.png,,,,,,,,,,,,,,,,,,,,,
null,,black_cross(without_color)1,533707,,,,,,,,green,,,null,object_05c.png,object_09a.png,,,,,,,,,,,,,,,,,,,,,
null,,rt_plussign_withcolor1,534208,,,,,,,,green,,,null,object_05c.png,object_09a.png,,,,,,,,,,,,,,,,,,,,,
1926.6999999955297,,rt_thecrossant_black1,535758,,,,,,,,black_plus_sign,,,50,,,1,,,,,,,1,,,,,,,,,,,,,
null,,color_black1,535861,,,,,,,,black_plus_sign,,,null,,,,,,,,,,,,,,,,,,,,,,,
null,,learn_phase(without_color)1,539363,,,,,,,,black_plus_sign,,,null,object_10b.png,object_11b.png,,,,,,,,,,,,,,,,,,,,,
null,,black_cross(without_color)1,539766,,,,,,,,blue,,,null,object_10b.png,object_11b.png,,,,,,,,,,,,,,,,,,,,,
null,,rt_plussign_withcolor1,540267,,,,,,,,blue,,,null,object_10b.png,object_11b.png,,,,,,,,,,,,,,,,,,,,,
888.7999999970198,,rt_thecrossant_black1,541870,,,,,,,,black_plus_sign,,,49,,,1,,,,,,,1,,,,,,,,,,,,,
null,,color_black1,541972,,,,,,,,black_plus_sign,,,null,,,,,,,,,,,,,,,,,,,,,,,
null,,learn_phase(without_color)1,545474,,,,,,,,black_plus_sign,,,null,object_06c.png,object_14b.png,,,,,,,,,,,,,,,,,,,,,
null,,black_cross(without_color)1,546070,,,,,,,,blue,,,null,object_06c.png,object_14b.png,,,,,,,,,,,,,,,,,,,,,
null,,rt_plussign_withcolor1,546570,,,,,,,,blue,,,null,object_06c.png,object_14b.png,,,,,,,,,,,,,,,,,,,,,
932.1000000014901,,rt_thecrossant_black1,547977,,,,,,,,black_plus_sign,,,49,,,1,,,,,,,1,,,,,,,,,,,,,
null,,color_black1,548079,,,,,,,,black_plus_sign,,,null,,,,,,,,,,,,,,,,,,,,,,,
null,,learn_phase(without_color)1,551581,,,,,,,,black_plus_sign,,,null,object_08c.png,object_02c.png,,,,,,,,,,,,,,,,,,,,,
null,,black_cross(without_color)1,552287,,,,,,,,green,,,null,object_08c.png,object_02c.png,,,,,,,,,,,,,,,,,,,,,
null,,rt_plussign_withcolor1,552789,,,,,,,,green,,,null,object_08c.png,object_02c.png,,,,,,,,,,,,,,,,,,,,,
976.3999999985099,,rt_thecrossant_black1,554099,,,,,,,,black_plus_sign,,,50,,,1,,,,,,,1,,,,,,,,,,,,,
null,,color_black1,554201,,,,,,,,black_plus_sign,,,null,,,,,,,,,,,,,,,,,,,,,,,
null,,learn_phase(without_color)1,557703,,,,,,,,black_plus_sign,,,null,object_10c.png,object_09b.png,,,,,,,,,,,,,,,,,,,,,
null,,black_cross(without_color)1,558698,,,,,,,,green,,,null,object_10c.png,object_09b.png,,,,,,,,,,,,,,,,,,,,,
null,,rt_plussign_withcolor1,559200,,,,,,,,green,,,null,object_10c.png,object_09b.png,,,,,,,,,,,,,,,,,,,,,
1748.5,,rt_thecrossant_black1,560208,,,,,,,,black_plus_sign,,,50,,,1,,,,,,,1,,,,,,,,,,,,,
null,,color_black1,560311,,,,,,,,black_plus_sign,,,null,,,,,,,,,,,,,,,,,,,,,,,
null,,learn_phase(without_color)1,563812,,,,,,,,black_plus_sign,,,null,object_02b.png,object_01b.png,,,,,,,,,,,,,,,,,,,,,
null,,black_cross(without_color)1,564360,,,,,,,,green,,,null,object_02b.png,object_01b.png,,,,,,,,,,,,,,,,,,,,,
null,,rt_plussign_withcolor1,564863,,,,,,,,green,,,null,object_02b.png,object_01b.png,,,,,,,,,,,,,,,,,,,,,
1544.8999999985099,,rt_thecrossant_black1,566319,,,,,,,,black_plus_sign,,,50,,,1,,,,,,,1,,,,,,,,,,,,,
null,,color_black1,566420,,,,,,,,black_plus_sign,,,null,,,,,,,,,,,,,,,,,,,,,,,
null,,learn_phase(without_color)1,569938,,,,,,,,black_plus_sign,,,null,object_07b.png,object_15a.png,,,,,,,,,,,,,,,,,,,,,
null,,black_cross(without_color)1,570418,,,,,,,,green,,,null,object_07b.png,object_15a.png,,,,,,,,,,,,,,,,,,,,,
null,,rt_plussign_withcolor1,570921,,,,,,,,green,,,null,object_07b.png,object_15a.png,,,,,,,,,,,,,,,,,,,,,
888.8000000044703,,rt_thecrossant_black1,572444,,,,,,,,black_plus_sign,,,50,,,1,,,,,,,1,,,,,,,,,,,,,
null,,color_black1,572546,,,,,,,,black_plus_sign,,,null,,,,,,,,,,,,,,,,,,,,,,,
null,,learn_phase(without_color)1,576049,,,,,,,,black_plus_sign,,,null,object_13a.png,object_03c.png,,,,,,,,,,,,,,,,,,,,,
null,,black_cross(without_color)1,576460,,,,,,,,blue,,,null,object_13a.png,object_03c.png,,,,,,,,,,,,,,,,,,,,,
null,,rt_plussign_withcolor1,576961,,,,,,,,blue,,,null,object_13a.png,object_03c.png,,,,,,,,,,,,,,,,,,,,,
961.5,,rt_thecrossant_black1,578556,,,,,,,,black_plus_sign,,,49,,,1,,,,,,,1,,,,,,,,,,,,,
null,,color_black1,578659,,,,,,,,black_plus_sign,,,null,,,,,,,,,,,,,,,,,,,,,,,
null,,thebreak,578763,,,,,,,,<p></p>,,,null,,,,,,,,,,,,,,,,,,,,,,,
2028.1999999955297,,intro_0,580792,,,,,,,,instruct,,,32,,,,,,,,,,,,,,,,,,,,,,,
5219.60000000149,,directmemory_phase1,586012,,,,,,,,object_01b.png,,,50,,,1,,object_07a.png,object_02b.png,object_10b.png,object_02b.png,,1,,1,,,,,,,,,,,
5574,,directmemory_phase1,591588,,,,,,,,object_12a.png,,,50,,,1,,object_12c.png,object_07a.png,object_05c.png,object_07a.png,,1,,1,,,,,,,,,,,
5543,,directmemory_phase1,597132,,,,,,,,object_03c.png,,,51,,,0,,object_06c.png,object_13a.png,object_05b.png,object_13a.png,,0.6666666666666666,,0,,,,,,,,,,,
5100.69999999553,,directmemory_phase1,602235,,,,,,,,object_11b.png,,,51,,,0,,object_10b.png,object_08c.png,object_12c.png,object_10b.png,,0.5,,0,,,,,,,,,,,
4655.19999999553,,directmemory_phase1,606892,,,,,,,,object_09b.png,,,50,,,0,,object_10b.png,object_05c.png,object_10c.png,object_10c.png,,0.4,,0,,,,,,,,,,,
3881.0999999940395,,directmemory_phase1,610775,,,,,,,,object_09c.png,,,50,,,1,,object_02b.png,object_02a.png,object_03a.png,object_02a.png,,0.5,,1,,,,,,,,,,,
4056.60000000149,,directmemory_phase1,614833,,,,,,,,object_06a.png,,,50,,,1,,object_02a.png,object_04a.png,object_11a.png,object_04a.png,,0.5714285714285714,,1,,,,,,,,,,,
3952.2000000029802,,directmemory_phase1,618788,,,,,,,,object_01c.png,,,50,,,1,,object_05b.png,object_11a.png,object_13a.png,object_11a.png,,0.625,,1,,,,,,,,,,,
4610.60000000149,,directmemory_phase1,623400,,,,,,,,object_09a.png,,,51,,,1,,object_06c.png,object_03a.png,object_05c.png,object_05c.png,,0.6666666666666666,,1,,,,,,,,,,,
4810.4000000059605,,directmemory_phase1,628212,,,,,,,,object_14b.png,,,49,,,0,,object_13a.png,object_06c.png,object_10c.png,object_06c.png,,0.6,,0,,,,,,,,,,,
3667.2000000029802,,directmemory_phase1,631881,,,,,,,,object_15a.png,,,51,,,1,,object_02b.png,object_03a.png,object_07b.png,object_07b.png,,0.6363636363636364,,1,,,,,,,,,,,
4532.30000000447,,directmemory_phase1,636415,,,,,,,,object_14a.png,,,49,,,1,,object_05b.png,object_03a.png,object_10c.png,object_05b.png,,0.6666666666666666,,1,,,,,,,,,,,
4084.60000000149,,directmemory_phase1,640500,,,,,,,,object_04b.png,,,50,,,0,,object_12c.png,object_02b.png,object_06c.png,object_12c.png,,0.6153846153846154,,0,,,,,,,,,,,
4129.5,,directmemory_phase1,644631,,,,,,,,object_02c.png,,,51,,,1,,object_04a.png,object_05b.png,object_08c.png,object_08c.png,,0.6428571428571429,,1,,,,,,,,,,,
2448.5,,directmemory_phase1,647081,,,,,,,,object_14c.png,,,49,,,1,,object_03a.png,object_02a.png,object_05c.png,object_03a.png,,0.6666666666666666,,1,,,,,,,,,,,
null,,thebreak,647183,,,,,,,,<p></p>,,,null,,,,,,,,,,,,,,,,,,,,,,,
3272.8000000044703,,intro_0,650457,,,,,,,,instruct,,,32,,,,,,,,,,,,,,,,,,,,,,,
null,,learn_phase(without_color)2,653959,,,,,,,,black_plus_sign,,,null,object_10c.png,object_09b.png,,,,,,,,,,,,,,,,,,,,,
null,,black_cross(without_color)2,654583,,,,,,,,blue,,,null,object_10c.png,object_09b.png,,,,,,,,,,,,,,,,,,,,,
null,,rt_plussign_withcolor2,655085,,,,,,,,blue,,,null,object_10c.png,object_09b.png,,,,,,,,,,,,,,,,,,,,,
1105.6000000014901,,rt_thecrossant_black2,656465,,,,,,,,black_plus_sign,,,49,,,1,,,,,,,1,,,,,,,,,,,,,
null,,color_black2,656567,,,,,,,,black_plus_sign,,,null,,,,,,,,,,,,,,,,,,,,,,,
null,,learn_phase(without_color)2,660070,,,,,,,,black_plus_sign,,,null,object_03a.png,object_14c.png,,,,,,,,,,,,,,,,,,,,,
null,,black_cross(without_color)2,660839,,,,,,,,green,,,null,object_03a.png,object_14c.png,,,,,,,,,,,,,,,,,,,,,
null,,rt_plussign_withcolor2,661340,,,,,,,,green,,,null,object_03a.png,object_14c.png,,,,,,,,,,,,,,,,,,,,,
1122.6000000014901,,rt_thecrossant_black2,662575,,,,,,,,black_plus_sign,,,50,,,1,,,,,,,1,,,,,,,,,,,,,
null,,color_black2,662677,,,,,,,,black_plus_sign,,,null,,,,,,,,,,,,,,,,,,,,,,,
null,,learn_phase(without_color)2,666180,,,,,,,,black_plus_sign,,,null,object_04a.png,object_06a.png,,,,,,,,,,,,,,,,,,,,,
null,,black_cross(without_color)2,667034,,,,,,,,green,,,null,object_04a.png,object_06a.png,,,,,,,,,,,,,,,,,,,,,
null,,rt_plussign_withcolor2,667536,,,,,,,,green,,,null,object_04a.png,object_06a.png,,,,,,,,,,,,,,,,,,,,,
1200.8999999985099,,rt_thecrossant_black2,668685,,,,,,,,black_plus_sign,,,50,,,1,,,,,,,1,,,,,,,,,,,,,
null,,color_black2,668788,,,,,,,,black_plus_sign,,,null,,,,,,,,,,,,,,,,,,,,,,,
null,,learn_phase(without_color)2,672290,,,,,,,,black_plus_sign,,,null,object_07a.png,object_12a.png,,,,,,,,,,,,,,,,,,,,,
null,,black_cross(without_color)2,672928,,,,,,,,blue,,,null,object_07a.png,object_12a.png,,,,,,,,,,,,,,,,,,,,,
null,,rt_plussign_withcolor2,673429,,,,,,,,blue,,,null,object_07a.png,object_12a.png,,,,,,,,,,,,,,,,,,,,,
1254.7999999970198,,rt_thecrossant_black2,674795,,,,,,,,black_plus_sign,,,49,,,1,,,,,,,1,,,,,,,,,,,,,
null,,color_black2,674896,,,,,,,,black_plus_sign,,,null,,,,,,,,,,,,,,,,,,,,,,,
null,,learn_phase(without_color)2,678398,,,,,,,,black_plus_sign,,,null,object_02a.png,object_09c.png,,,,,,,,,,,,,,,,,,,,,
null,,black_cross(without_color)2,679149,,,,,,,,blue,,,null,object_02a.png,object_09c.png,,,,,,,,,,,,,,,,,,,,,
null,,rt_plussign_withcolor2,679651,,,,,,,,blue,,,null,object_02a.png,object_09c.png,,,,,,,,,,,,,,,,,,,,,
1153.8999999985099,,rt_thecrossant_black2,680903,,,,,,,,black_plus_sign,,,49,,,1,,,,,,,1,,,,,,,,,,,,,
null,,color_black2,681005,,,,,,,,black_plus_sign,,,null,,,,,,,,,,,,,,,,,,,,,,,
null,,learn_phase(without_color)2,684509,,,,,,,,black_plus_sign,,,null,object_05b.png,object_14a.png,,,,,,,,,,,,,,,,,,,,,
null,,black_cross(without_color)2,685007,,,,,,,,blue,,,null,object_05b.png,object_14a.png,,,,,,,,,,,,,,,,,,,,,
null,,rt_plussign_withcolor2,685511,,,,,,,,blue,,,null,object_05b.png,object_14a.png,,,,,,,,,,,,,,,,,,,,,
1177.8000000044703,,rt_thecrossant_black2,687016,,,,,,,,black_plus_sign,,,49,,,1,,,,,,,1,,,,,,,,,,,,,
null,,color_black2,687118,,,,,,,,black_plus_sign,,,null,,,,,,,,,,,,,,,,,,,,,,,
null,,learn_phase(without_color)2,690620,,,,,,,,black_plus_sign,,,null,object_08c.png,object_02c.png,,,,,,,,,,,,,,,,,,,,,
null,,black_cross(without_color)2,691558,,,,,,,,blue,,,null,object_08c.png,object_02c.png,,,,,,,,,,,,,,,,,,,,,
null,,rt_plussign_withcolor2,692060,,,,,,,,blue,,,null,object_08c.png,object_02c.png,,,,,,,,,,,,,,,,,,,,,
1004.1000000014901,,rt_thecrossant_black2,693125,,,,,,,,black_plus_sign,,,49,,,1,,,,,,,1,,,,,,,,,,,,,
null,,color_black2,693227,,,,,,,,black_plus_sign,,,null,,,,,,,,,,,,,,,,,,,,,,,
null,,learn_phase(without_color)2,696731,,,,,,,,black_plus_sign,,,null,object_06c.png,object_14b.png,,,,,,,,,,,,,,,,,,,,,
null,,black_cross(without_color)2,697703,,,,,,,,green,,,null,object_06c.png,object_14b.png,,,,,,,,,,,,,,,,,,,,,
null,,rt_plussign_withcolor2,698204,,,,,,,,green,,,null,object_06c.png,object_14b.png,,,,,,,,,,,,,,,,,,,,,
1639.3000000044703,,rt_thecrossant_black2,699236,,,,,,,,black_plus_sign,,,50,,,1,,,,,,,1,,,,,,,,,,,,,
null,,color_black2,699338,,,,,,,,black_plus_sign,,,null,,,,,,,,,,,,,,,,,,,,,,,
null,,learn_phase(without_color)2,702840,,,,,,,,black_plus_sign,,,null,object_02b.png,object_01b.png,,,,,,,,,,,,,,,,,,,,,
null,,black_cross(without_color)2,703862,,,,,,,,green,,,null,object_02b.png,object_01b.png,,,,,,,,,,,,,,,,,,,,,
null,,rt_plussign_withcolor2,704363,,,,,,,,green,,,null,object_02b.png,object_01b.png,,,,,,,,,,,,,,,,,,,,,
1386.5,,rt_thecrossant_black2,705344,,,,,,,,black_plus_sign,,,50,,,1,,,,,,,1,,,,,,,,,,,,,
null,,color_black2,705447,,,,,,,,black_plus_sign,,,null,,,,,,,,,,,,,,,,,,,,,,,
null,,learn_phase(without_color)2,708949,,,,,,,,black_plus_sign,,,null,object_10b.png,object_11b.png,,,,,,,,,,,,,,,,,,,,,
null,,black_cross(without_color)2,709730,,,,,,,,green,,,null,object_10b.png,object_11b.png,,,,,,,,,,,,,,,,,,,,,
null,,rt_plussign_withcolor2,710232,,,,,,,,green,,,null,object_10b.png,object_11b.png,,,,,,,,,,,,,,,,,,,,,
1496.3999999985099,,rt_thecrossant_black2,711455,,,,,,,,black_plus_sign,,,50,,,1,,,,,,,1,,,,,,,,,,,,,
null,,color_black2,711558,,,,,,,,black_plus_sign,,,null,,,,,,,,,,,,,,,,,,,,,,,
null,,learn_phase(without_color)2,715060,,,,,,,,black_plus_sign,,,null,object_07b.png,object_15a.png,,,,,,,,,,,,,,,,,,,,,
null,,black_cross(without_color)2,715521,,,,,,,,blue,,,null,object_07b.png,object_15a.png,,,,,,,,,,,,,,,,,,,,,
null,,rt_plussign_withcolor2,716023,,,,,,,,blue,,,null,object_07b.png,object_15a.png,,,,,,,,,,,,,,,,,,,,,
1427.5,,rt_thecrossant_black2,717566,,,,,,,,black_plus_sign,,,49,,,1,,,,,,,1,,,,,,,,,,,,,
null,,color_black2,717667,,,,,,,,black_plus_sign,,,null,,,,,,,,,,,,,,,,,,,,,,,
null,,learn_phase(without_color)2,721169,,,,,,,,black_plus_sign,,,null,object_12c.png,object_04b.png,,,,,,,,,,,,,,,,,,,,,
null,,black_cross(without_color)2,722142,,,,,,,,green,,,null,object_12c.png,object_04b.png,,,,,,,,,,,,,,,,,,,,,
null,,rt_plussign_withcolor2,722644,,,,,,,,green,,,null,object_12c.png,object_04b.png,,,,,,,,,,,,,,,,,,,,,
1046.6000000014901,,rt_thecrossant_black2,723674,,,,,,,,black_plus_sign,,,50,,,1,,,,,,,1,,,,,,,,,,,,,
null,,color_black2,723776,,,,,,,,black_plus_sign,,,null,,,,,,,,,,,,,,,,,,,,,,,
null,,learn_phase(without_color)2,727278,,,,,,,,black_plus_sign,,,null,object_05c.png,object_09a.png,,,,,,,,,,,,,,,,,,,,,
null,,black_cross(without_color)2,728016,,,,,,,,blue,,,null,object_05c.png,object_09a.png,,,,,,,,,,,,,,,,,,,,,
null,,rt_plussign_withcolor2,728518,,,,,,,,blue,,,null,object_05c.png,object_09a.png,,,,,,,,,,,,,,,,,,,,,
1338.6000000014901,,rt_thecrossant_black2,729782,,,,,,,,black_plus_sign,,,49,,,1,,,,,,,1,,,,,,,,,,,,,
null,,color_black2,729885,,,,,,,,black_plus_sign,,,null,,,,,,,,,,,,,,,,,,,,,,,
null,,learn_phase(without_color)2,733388,,,,,,,,black_plus_sign,,,null,object_11a.png,object_01c.png,,,,,,,,,,,,,,,,,,,,,
null,,black_cross(without_color)2,734245,,,,,,,,green,,,null,object_11a.png,object_01c.png,,,,,,,,,,,,,,,,,,,,,
null,,rt_plussign_withcolor2,734747,,,,,,,,green,,,null,object_11a.png,object_01c.png,,,,,,,,,,,,,,,,,,,,,
1087.5,,rt_thecrossant_black2,735893,,,,,,,,black_plus_sign,,,50,,,1,,,,,,,1,,,,,,,,,,,,,
null,,color_black2,735996,,,,,,,,black_plus_sign,,,null,,,,,,,,,,,,,,,,,,,,,,,
null,,learn_phase(without_color)2,739497,,,,,,,,black_plus_sign,,,null,object_13a.png,object_03c.png,,,,,,,,,,,,,,,,,,,,,
null,,black_cross(without_color)2,739991,,,,,,,,blue,,,null,object_13a.png,object_03c.png,,,,,,,,,,,,,,,,,,,,,
null,,rt_plussign_withcolor2,740493,,,,,,,,blue,,,null,object_13a.png,object_03c.png,,,,,,,,,,,,,,,,,,,,,
1298.5,,rt_thecrossant_black2,742001,,,,,,,,black_plus_sign,,,49,,,1,,,,,,,1,,,,,,,,,,,,,
null,,color_black2,742104,,,,,,,,black_plus_sign,,,null,,,,,,,,,,,,,,,,,,,,,,,
null,,thebreak,742206,,,,,,,,<p></p>,,,null,,,,,,,,,,,,,,,,,,,,,,,
1843.8999999985099,,intro_0,744051,,,,,,,,instruct,,,32,,,,,,,,,,,,,,,,,,,,,,,
4449.5,,directmemory_phase2,748502,,,,,,,,object_01c.png,,,50,,,0,,object_04a.png,object_06c.png,object_11a.png,object_11a.png,,0.625,,0,,,,,,,,,,,
5052.79999999702,,directmemory_phase2,753556,,,,,,,,object_02c.png,,,49,,,1,,object_08c.png,object_12c.png,object_05b.png,object_08c.png,,0.6470588235294118,,1,,,,,,,,,,,
3339.10000000149,,directmemory_phase2,756897,,,,,,,,object_04b.png,,,49,,,1,,object_12c.png,object_10c.png,object_06c.png,object_12c.png,,0.6666666666666666,,1,,,,,,,,,,,
3062,,directmemory_phase2,759960,,,,,,,,object_09c.png,,,49,,,1,,object_02a.png,object_03a.png,object_10b.png,object_02a.png,,0.6842105263157895,,1,,,,,,,,,,,
3173.2999999970198,,directmemory_phase2,763135,,,,,,,,object_12a.png,,,51,,,1,,object_04a.png,object_03a.png,object_07a.png,object_07a.png,,0.7,,1,,,,,,,,,,,
4313.69999999553,,directmemory_phase2,767450,,,,,,,,object_03c.png,,,51,,,1,,object_06c.png,object_04a.png,object_13a.png,object_13a.png,,0.7142857142857143,,1,,,,,,,,,,,
3860.89999999851,,directmemory_phase2,771312,,,,,,,,object_14b.png,,,49,,,0,,object_13a.png,object_06c.png,object_05b.png,object_06c.png,,0.6818181818181818,,0,,,,,,,,,,,
4152.79999999702,,directmemory_phase2,775467,,,,,,,,object_09b.png,,,49,,,1,,object_10c.png,object_04a.png,object_05b.png,object_10c.png,,0.6956521739130435,,1,,,,,,,,,,,
3335,,directmemory_phase2,778803,,,,,,,,object_14c.png,,,49,,,1,,object_03a.png,object_07a.png,object_02b.png,object_03a.png,,0.7083333333333334,,1,,,,,,,,,,,
5761.10000000149,,directmemory_phase2,784566,,,,,,,,object_11b.png,,,51,,,0,,object_03a.png,object_10b.png,object_13a.png,object_10b.png,,0.68,,0,,,,,,,,,,,
4423.30000000447,,directmemory_phase2,788991,,,,,,,,object_01b.png,,,49,,,1,,object_02b.png,object_10b.png,object_13a.png,object_02b.png,,0.6923076923076923,,1,,,,,,,,,,,
2251.10000000149,,directmemory_phase2,791243,,,,,,,,object_14a.png,,,50,,,1,,object_10c.png,object_05b.png,object_08c.png,object_05b.png,,0.7037037037037037,,1,,,,,,,,,,,
2782.3000000044703,,directmemory_phase2,794027,,,,,,,,object_15a.png,,,49,,,1,,object_07b.png,object_06c.png,object_02a.png,object_07b.png,,0.7142857142857143,,1,,,,,,,,,,,
4267.60000000149,,directmemory_phase2,798296,,,,,,,,object_06a.png,,,51,,,1,,object_05b.png,object_08c.png,object_04a.png,object_04a.png,,0.7241379310344828,,1,,,,,,,,,,,
3090.1999999955297,,directmemory_phase2,801388,,,,,,,,object_09a.png,,,50,,,0,,object_10b.png,object_11a.png,object_05c.png,object_05c.png,,0.7,,0,,,,,,,,,,,
null,,thebreak,801489,,,,,,,,<p></p>,,,null,,,,,,,,,,,,,,,,,,,,,,,
3437.3000000044703,,intro_0,804928,,,,,,,,instruct,,,32,,,,,,,,,,,,,,,,,,,,,,,
null,,learn_phase(without_color)3,808430,,,,,,,,black_plus_sign,,,null,object_03a.png,object_14c.png,,,,,,,,,,,,,,,,,,,,,
null,,black_cross(without_color)3,809528,,,,,,,,blue,,,null,object_03a.png,object_14c.png,,,,,,,,,,,,,,,,,,,,,
null,,rt_plussign_withcolor3,810030,,,,,,,,blue,,,null,object_03a.png,object_14c.png,,,,,,,,,,,,,,,,,,,,,
1725.5,,rt_thecrossant_black3,810935,,,,,,,,black_plus_sign,,,49,,,1,,,,,,,1,,,,,,,,,,,,,
null,,color_black3,811038,,,,,,,,black_plus_sign,,,null,,,,,,,,,,,,,,,,,,,,,,,
null,,learn_phase(without_color)3,814541,,,,,,,,black_plus_sign,,,null,object_12c.png,object_04b.png,,,,,,,,,,,,,,,,,,,,,
null,,black_cross(without_color)3,815523,,,,,,,,green,,,null,object_12c.png,object_04b.png,,,,,,,,,,,,,,,,,,,,,
null,,rt_plussign_withcolor3,816025,,,,,,,,green,,,null,object_12c.png,object_04b.png,,,,,,,,,,,,,,,,,,,,,
1541,,rt_thecrossant_black3,817049,,,,,,,,black_plus_sign,,,50,,,1,,,,,,,1,,,,,,,,,,,,,
null,,color_black3,817151,,,,,,,,black_plus_sign,,,null,,,,,,,,,,,,,,,,,,,,,,,
null,,learn_phase(without_color)3,820654,,,,,,,,black_plus_sign,,,null,object_07b.png,object_15a.png,,,,,,,,,,,,,,,,,,,,,
null,,black_cross(without_color)3,821687,,,,,,,,blue,,,null,object_07b.png,object_15a.png,,,,,,,,,,,,,,,,,,,,,
null,,rt_plussign_withcolor3,822189,,,,,,,,blue,,,null,object_07b.png,object_15a.png,,,,,,,,,,,,,,,,,,,,,
1538.6000000014901,,rt_thecrossant_black3,823162,,,,,,,,black_plus_sign,,,49,,,1,,,,,,,1,,,,,,,,,,,,,
null,,color_black3,823264,,,,,,,,black_plus_sign,,,null,,,,,,,,,,,,,,,,,,,,,,,
null,,learn_phase(without_color)3,826766,,,,,,,,black_plus_sign,,,null,object_06c.png,object_14b.png,,,,,,,,,,,,,,,,,,,,,
null,,black_cross(without_color)3,827629,,,,,,,,green,,,null,object_06c.png,object_14b.png,,,,,,,,,,,,,,,,,,,,,
null,,rt_plussign_withcolor3,828130,,,,,,,,green,,,null,object_06c.png,object_14b.png,,,,,,,,,,,,,,,,,,,,,
2060.2000000029802,,rt_thecrossant_black3,829272,,,,,,,,black_plus_sign,,,50,,,1,,,,,,,1,,,,,,,,,,,,,
null,,color_black3,829375,,,,,,,,black_plus_sign,,,null,,,,,,,,,,,,,,,,,,,,,,,
null,,learn_phase(without_color)3,832876,,,,,,,,black_plus_sign,,,null,object_04a.png,object_06a.png,,,,,,,,,,,,,,,,,,,,,
null,,black_cross(without_color)3,833657,,,,,,,,blue,,,null,object_04a.png,object_06a.png,,,,,,,,,,,,,,,,,,,,,
null,,rt_plussign_withcolor3,834158,,,,,,,,blue,,,null,object_04a.png,object_06a.png,,,,,,,,,,,,,,,,,,,,,
1295.3000000044703,,rt_thecrossant_black3,835383,,,,,,,,black_plus_sign,,,49,,,1,,,,,,,1,,,,,,,,,,,,,
null,,color_black3,835485,,,,,,,,black_plus_sign,,,null,,,,,,,,,,,,,,,,,,,,,,,
null,,learn_phase(without_color)3,838987,,,,,,,,black_plus_sign,,,null,object_05b.png,object_14a.png,,,,,,,,,,,,,,,,,,,,,
null,,black_cross(without_color)3,839600,,,,,,,,green,,,null,object_05b.png,object_14a.png,,,,,,,,,,,,,,,,,,,,,
null,,rt_plussign_withcolor3,840102,,,,,,,,green,,,null,object_05b.png,object_14a.png,,,,,,,,,,,,,,,,,,,,,
1285.8999999985099,,rt_thecrossant_black3,841501,,,,,,,,black_plus_sign,,,50,,,1,,,,,,,1,,,,,,,,,,,,,
null,,color_black3,841605,,,,,,,,black_plus_sign,,,null,,,,,,,,,,,,,,,,,,,,,,,
null,,learn_phase(without_color)3,845121,,,,,,,,black_plus_sign,,,null,object_10c.png,object_09b.png,,,,,,,,,,,,,,,,,,,,,
null,,black_cross(without_color)3,845888,,,,,,,,green,,,null,object_10c.png,object_09b.png,,,,,,,,,,,,,,,,,,,,,
null,,rt_plussign_withcolor3,846388,,,,,,,,green,,,null,object_10c.png,object_09b.png,,,,,,,,,,,,,,,,,,,,,
1589.8999999985099,,rt_thecrossant_black3,847627,,,,,,,,black_plus_sign,,,50,,,1,,,,,,,1,,,,,,,,,,,,,
null,,color_black3,847730,,,,,,,,black_plus_sign,,,null,,,,,,,,,,,,,,,,,,,,,,,
null,,learn_phase(without_color)3,851233,,,,,,,,black_plus_sign,,,null,object_02b.png,object_01b.png,,,,,,,,,,,,,,,,,,,,,
null,,black_cross(without_color)3,852231,,,,,,,,green,,,null,object_02b.png,object_01b.png,,,,,,,,,,,,,,,,,,,,,
null,,rt_plussign_withcolor3,852734,,,,,,,,green,,,null,object_02b.png,object_01b.png,,,,,,,,,,,,,,,,,,,,,
1701.3999999985099,,rt_thecrossant_black3,853738,,,,,,,,black_plus_sign,,,50,,,1,,,,,,,1,,,,,,,,,,,,,
null,,color_black3,853840,,,,,,,,black_plus_sign,,,null,,,,,,,,,,,,,,,,,,,,,,,
null,,learn_phase(without_color)3,857342,,,,,,,,black_plus_sign,,,null,object_05c.png,object_09a.png,,,,,,,,,,,,,,,,,,,,,
null,,black_cross(without_color)3,858101,,,,,,,,green,,,null,object_05c.png,object_09a.png,,,,,,,,,,,,,,,,,,,,,
null,,rt_plussign_withcolor3,858603,,,,,,,,green,,,null,object_05c.png,object_09a.png,,,,,,,,,,,,,,,,,,,,,
1562.3000000044703,,rt_thecrossant_black3,859846,,,,,,,,black_plus_sign,,,50,,,1,,,,,,,1,,,,,,,,,,,,,
null,,color_black3,859948,,,,,,,,black_plus_sign,,,null,,,,,,,,,,,,,,,,,,,,,,,
null,,learn_phase(without_color)3,863450,,,,,,,,black_plus_sign,,,null,object_02a.png,object_09c.png,,,,,,,,,,,,,,,,,,,,,
null,,black_cross(without_color)3,864501,,,,,,,,green,,,null,object_02a.png,object_09c.png,,,,,,,,,,,,,,,,,,,,,
null,,rt_plussign_withcolor3,865003,,,,,,,,green,,,null,object_02a.png,object_09c.png,,,,,,,,,,,,,,,,,,,,,
1217.6999999955297,,rt_thecrossant_black3,865958,,,,,,,,black_plus_sign,,,50,,,1,,,,,,,1,,,,,,,,,,,,,
null,,color_black3,866060,,,,,,,,black_plus_sign,,,null,,,,,,,,,,,,,,,,,,,,,,,
null,,learn_phase(without_color)3,869561,,,,,,,,black_plus_sign,,,null,object_08c.png,object_02c.png,,,,,,,,,,,,,,,,,,,,,
null,,black_cross(without_color)3,870431,,,,,,,,blue,,,null,object_08c.png,object_02c.png,,,,,,,,,,,,,,,,,,,,,
null,,rt_plussign_withcolor3,870933,,,,,,,,blue,,,null,object_08c.png,object_02c.png,,,,,,,,,,,,,,,,,,,,,
1552.7999999970198,,rt_thecrossant_black3,872068,,,,,,,,black_plus_sign,,,49,,,1,,,,,,,1,,,,,,,,,,,,,
null,,color_black3,872170,,,,,,,,black_plus_sign,,,null,,,,,,,,,,,,,,,,,,,,,,,
null,,learn_phase(without_color)3,875672,,,,,,,,black_plus_sign,,,null,object_07a.png,object_12a.png,,,,,,,,,,,,,,,,,,,,,
null,,black_cross(without_color)3,876277,,,,,,,,blue,,,null,object_07a.png,object_12a.png,,,,,,,,,,,,,,,,,,,,,
null,,rt_plussign_withcolor3,876778,,,,,,,,blue,,,null,object_07a.png,object_12a.png,,,,,,,,,,,,,,,,,,,,,
1333.1999999955297,,rt_thecrossant_black3,878179,,,,,,,,black_plus_sign,,,49,,,1,,,,,,,1,,,,,,,,,,,,,
null,,color_black3,878280,,,,,,,,black_plus_sign,,,null,,,,,,,,,,,,,,,,,,,,,,,
null,,learn_phase(without_color)3,881783,,,,,,,,black_plus_sign,,,null,object_10b.png,object_11b.png,,,,,,,,,,,,,,,,,,,,,
null,,black_cross(without_color)3,882667,,,,,,,,blue,,,null,object_10b.png,object_11b.png,,,,,,,,,,,,,,,,,,,,,
null,,rt_plussign_withcolor3,883179,,,,,,,,blue,,,null,object_10b.png,object_11b.png,,,,,,,,,,,,,,,,,,,,,
1427.6000000014901,,rt_thecrossant_black3,884300,,,,,,,,black_plus_sign,,,49,,,1,,,,,,,1,,,,,,,,,,,,,
null,,color_black3,884402,,,,,,,,black_plus_sign,,,null,,,,,,,,,,,,,,,,,,,,,,,
null,,learn_phase(without_color)3,887906,,,,,,,,black_plus_sign,,,null,object_13a.png,object_03c.png,,,,,,,,,,,,,,,,,,,,,
null,,black_cross(without_color)3,888827,,,,,,,,green,,,null,object_13a.png,object_03c.png,,,,,,,,,,,,,,,,,,,,,
null,,rt_plussign_withcolor3,889329,,,,,,,,green,,,null,object_13a.png,object_03c.png,,,,,,,,,,,,,,,,,,,,,
1144.5,,rt_thecrossant_black3,890413,,,,,,,,black_plus_sign,,,50,,,1,,,,,,,1,,,,,,,,,,,,,
null,,color_black3,890515,,,,,,,,black_plus_sign,,,null,,,,,,,,,,,,,,,,,,,,,,,
null,,learn_phase(without_color)3,894016,,,,,,,,black_plus_sign,,,null,object_11a.png,object_01c.png,,,,,,,,,,,,,,,,,,,,,
null,,black_cross(without_color)3,894595,,,,,,,,blue,,,null,object_11a.png,object_01c.png,,,,,,,,,,,,,,,,,,,,,
null,,rt_plussign_withcolor3,895096,,,,,,,,blue,,,null,object_11a.png,object_01c.png,,,,,,,,,,,,,,,,,,,,,
1356.5,,rt_thecrossant_black3,896521,,,,,,,,black_plus_sign,,,49,,,1,,,,,,,1,,,,,,,,,,,,,
null,,color_black3,896630,,,,,,,,black_plus_sign,,,null,,,,,,,,,,,,,,,,,,,,,,,
null,,thebreak,896733,,,,,,,,<p></p>,,,null,,,,,,,,,,,,,,,,,,,,,,,
1783.5,,intro_0,898518,,,,,,,,instruct,,,32,,,,,,,,,,,,,,,,,,,,,,,
2960.5,,directmemory_phase3,901479,,,,,,,,object_14a.png,,,49,,,1,,object_05b.png,object_02a.png,object_02b.png,object_05b.png,,0.7096774193548387,,1,,,,,,,,,,,
4617.30000000447,,directmemory_phase3,906097,,,,,,,,object_09b.png,,,50,,,1,,object_08c.png,object_10c.png,object_02b.png,object_10c.png,,0.71875,,1,,,,,,,,,,,
2235.5,,directmemory_phase3,908334,,,,,,,,object_04b.png,,,49,,,1,,object_12c.png,object_03a.png,object_13a.png,object_12c.png,,0.7272727272727273,,1,,,,,,,,,,,
3239.2000000029802,,directmemory_phase3,911575,,,,,,,,object_11b.png,,,51,,,1,,object_13a.png,object_08c.png,object_10b.png,object_10b.png,,0.7352941176470589,,1,,,,,,,,,,,
3057.5,,directmemory_phase3,914633,,,,,,,,object_15a.png,,,51,,,1,,object_10c.png,object_04a.png,object_07b.png,object_07b.png,,0.7428571428571429,,1,,,,,,,,,,,
3090.3000000044703,,directmemory_phase3,917725,,,,,,,,object_06a.png,,,51,,,1,,object_05c.png,object_10c.png,object_04a.png,object_04a.png,,0.75,,1,,,,,,,,,,,
2532.5,,directmemory_phase3,920258,,,,,,,,object_09c.png,,,51,,,1,,object_10c.png,object_10b.png,object_02a.png,object_02a.png,,0.7567567567567568,,1,,,,,,,,,,,
2785.10000000149,,directmemory_phase3,923045,,,,,,,,object_02c.png,,,49,,,1,,object_08c.png,object_10b.png,object_12c.png,object_08c.png,,0.7631578947368421,,1,,,,,,,,,,,
3688.7000000029802,,directmemory_phase3,926735,,,,,,,,object_14b.png,,,49,,,1,,object_06c.png,object_10b.png,object_08c.png,object_06c.png,,0.7692307692307693,,1,,,,,,,,,,,
4976.30000000447,,directmemory_phase3,931712,,,,,,,,object_01b.png,,,49,,,1,,object_02b.png,object_04a.png,object_11a.png,object_02b.png,,0.775,,1,,,,,,,,,,,
2331,,directmemory_phase3,934044,,,,,,,,object_12a.png,,,49,,,1,,object_07a.png,object_02b.png,object_06c.png,object_07a.png,,0.7804878048780488,,1,,,,,,,,,,,
2501,,directmemory_phase3,936547,,,,,,,,object_01c.png,,,51,,,1,,object_05c.png,object_03a.png,object_11a.png,object_11a.png,,0.7857142857142857,,1,,,,,,,,,,,
3397,,directmemory_phase3,939945,,,,,,,,object_03c.png,,,51,,,1,,object_06c.png,object_07a.png,object_13a.png,object_13a.png,,0.7906976744186046,,1,,,,,,,,,,,
3012.7000000029802,,directmemory_phase3,942959,,,,,,,,object_09a.png,,,49,,,1,,object_05c.png,object_12c.png,object_13a.png,object_05c.png,,0.7954545454545454,,1,,,,,,,,,,,
5366.19999999553,,directmemory_phase3,948326,,,,,,,,object_14c.png,,,51,,,1,,object_04a.png,object_12c.png,object_03a.png,object_03a.png,,0.8,,1,,,,,,,,,,,
null,,thebreak,948428,,,,,,,,<p></p>,,,null,,,,,,,,,,,,,,,,,,,,,,,
4086.10000000149,,intro_0,952515,,,,,,,,instruct,,,32,,,,,,,,,,,,,,,,,,,,,,,
null,,learn_phase(without_color)4,956017,,,,,,,,black_plus_sign,,,null,object_04a.png,object_06a.png,,,,,,,,,,,,,,,,,,,,,
null,,black_cross(without_color)4,956794,,,,,,,,green,,,null,object_04a.png,object_06a.png,,,,,,,,,,,,,,,,,,,,,
null,,rt_plussign_withcolor4,957296,,,,,,,,green,,,null,object_04a.png,object_06a.png,,,,,,,,,,,,,,,,,,,,,
1206.6000000014901,,rt_thecrossant_black4,958523,,,,,,,,black_plus_sign,,,50,,,1,,,,,,,1,,,,,,,,,,,,,
null,,color_black4,958626,,,,,,,,black_plus_sign,,,null,,,,,,,,,,,,,,,,,,,,,,,
null,,learn_phase(without_color)4,962128,,,,,,,,black_plus_sign,,,null,object_07b.png,object_15a.png,,,,,,,,,,,,,,,,,,,,,
null,,black_cross(without_color)4,962816,,,,,,,,blue,,,null,object_07b.png,object_15a.png,,,,,,,,,,,,,,,,,,,,,
null,,rt_plussign_withcolor4,963320,,,,,,,,blue,,,null,object_07b.png,object_15a.png,,,,,,,,,,,,,,,,,,,,,
1078.5,,rt_thecrossant_black4,964637,,,,,,,,black_plus_sign,,,49,,,1,,,,,,,1,,,,,,,,,,,,,
null,,color_black4,964740,,,,,,,,black_plus_sign,,,null,,,,,,,,,,,,,,,,,,,,,,,
null,,learn_phase(without_color)4,968243,,,,,,,,black_plus_sign,,,null,object_03a.png,object_14c.png,,,,,,,,,,,,,,,,,,,,,
null,,black_cross(without_color)4,969174,,,,,,,,green,,,null,object_03a.png,object_14c.png,,,,,,,,,,,,,,,,,,,,,
null,,rt_plussign_withcolor4,969675,,,,,,,,green,,,null,object_03a.png,object_14c.png,,,,,,,,,,,,,,,,,,,,,
1005.7999999970198,,rt_thecrossant_black4,970748,,,,,,,,black_plus_sign,,,50,,,1,,,,,,,1,,,,,,,,,,,,,
null,,color_black4,970850,,,,,,,,black_plus_sign,,,null,,,,,,,,,,,,,,,,,,,,,,,
null,,learn_phase(without_color)4,974353,,,,,,,,black_plus_sign,,,null,object_08c.png,object_02c.png,,,,,,,,,,,,,,,,,,,,,
null,,black_cross(without_color)4,975007,,,,,,,,blue,,,null,object_08c.png,object_02c.png,,,,,,,,,,,,,,,,,,,,,
null,,rt_plussign_withcolor4,975509,,,,,,,,blue,,,null,object_08c.png,object_02c.png,,,,,,,,,,,,,,,,,,,,,
1330.1999999955297,,rt_thecrossant_black4,976860,,,,,,,,black_plus_sign,,,49,,,1,,,,,,,1,,,,,,,,,,,,,
null,,color_black4,976962,,,,,,,,black_plus_sign,,,null,,,,,,,,,,,,,,,,,,,,,,,
null,,learn_phase(without_color)4,980466,,,,,,,,black_plus_sign,,,null,object_02a.png,object_09c.png,,,,,,,,,,,,,,,,,,,,,
null,,black_cross(without_color)4,980886,,,,,,,,green,,,null,object_02a.png,object_09c.png,,,,,,,,,,,,,,,,,,,,,
null,,rt_plussign_withcolor4,981388,,,,,,,,green,,,null,object_02a.png,object_09c.png,,,,,,,,,,,,,,,,,,,,,
1522.1000000014901,,rt_thecrossant_black4,982974,,,,,,,,black_plus_sign,,,50,,,1,,,,,,,1,,,,,,,,,,,,,
null,,color_black4,983075,,,,,,,,black_plus_sign,,,null,,,,,,,,,,,,,,,,,,,,,,,
null,,learn_phase(without_color)4,986578,,,,,,,,black_plus_sign,,,null,object_11a.png,object_01c.png,,,,,,,,,,,,,,,,,,,,,
null,,black_cross(without_color)4,987191,,,,,,,,green,,,null,object_11a.png,object_01c.png,,,,,,,,,,,,,,,,,,,,,
null,,rt_plussign_withcolor4,987693,,,,,,,,green,,,null,object_11a.png,object_01c.png,,,,,,,,,,,,,,,,,,,,,
1043.5,,rt_thecrossant_black4,989085,,,,,,,,black_plus_sign,,,50,,,1,,,,,,,1,,,,,,,,,,,,,
null,,color_black4,989187,,,,,,,,black_plus_sign,,,null,,,,,,,,,,,,,,,,,,,,,,,
null,,learn_phase(without_color)4,992690,,,,,,,,black_plus_sign,,,null,object_06c.png,object_14b.png,,,,,,,,,,,,,,,,,,,,,
null,,black_cross(without_color)4,993585,,,,,,,,green,,,null,object_06c.png,object_14b.png,,,,,,,,,,,,,,,,,,,,,
null,,rt_plussign_withcolor4,994087,,,,,,,,green,,,null,object_06c.png,object_14b.png,,,,,,,,,,,,,,,,,,,,,
1053.1999999955297,,rt_thecrossant_black4,995197,,,,,,,,black_plus_sign,,,50,,,1,,,,,,,1,,,,,,,,,,,,,
null,,color_black4,995300,,,,,,,,black_plus_sign,,,null,,,,,,,,,,,,,,,,,,,,,,,
null,,learn_phase(without_color)4,998803,,,,,,,,black_plus_sign,,,null,object_12c.png,object_04b.png,,,,,,,,,,,,,,,,,,,,,
null,,black_cross(without_color)4,999425,,,,,,,,blue,,,null,object_12c.png,object_04b.png,,,,,,,,,,,,,,,,,,,,,
null,,rt_plussign_withcolor4,999928,,,,,,,,blue,,,null,object_12c.png,object_04b.png,,,,,,,,,,,,,,,,,,,,,
1251.3000000044703,,rt_thecrossant_black4,1001309,,,,,,,,black_plus_sign,,,49,,,1,,,,,,,1,,,,,,,,,,,,,
null,,color_black4,1001410,,,,,,,,black_plus_sign,,,null,,,,,,,,,,,,,,,,,,,,,,,
null,,learn_phase(without_color)4,1004913,,,,,,,,black_plus_sign,,,null,object_07a.png,object_12a.png,,,,,,,,,,,,,,,,,,,,,
null,,black_cross(without_color)4,1005937,,,,,,,,green,,,null,object_07a.png,object_12a.png,,,,,,,,,,,,,,,,,,,,,
null,,rt_plussign_withcolor4,1006439,,,,,,,,green,,,null,object_07a.png,object_12a.png,,,,,,,,,,,,,,,,,,,,,
null,,rt_thecrossant_black4,1007420,,,,,,,,black_plus_sign,,,null,,,,,,,,,,1,,,,,,,,,,,,,
null,,color_black4,1007522,,,,,,,,black_plus_sign,,,null,,,,,,,,,,,,,,,,,,,,,,,
null,,learn_phase(without_color)4,1011024,,,,,,,,black_plus_sign,,,null,object_05c.png,object_09a.png,,,,,,,,,,,,,,,,,,,,,
null,,black_cross(without_color)4,1011555,,,,,,,,blue,,,null,object_05c.png,object_09a.png,,,,,,,,,,,,,,,,,,,,,
null,,rt_plussign_withcolor4,1012057,,,,,,,,blue,,,null,object_05c.png,object_09a.png,,,,,,,,,,,,,,,,,,,,,
1330.7000000029802,,rt_thecrossant_black4,1013529,,,,,,,,black_plus_sign,,,49,,,1,,,,,,,1,,,,,,,,,,,,,
null,,color_black4,1013631,,,,,,,,black_plus_sign,,,null,,,,,,,,,,,,,,,,,,,,,,,
null,,learn_phase(without_color)4,1017134,,,,,,,,black_plus_sign,,,null,object_10b.png,object_11b.png,,,,,,,,,,,,,,,,,,,,,
null,,black_cross(without_color)4,1018051,,,,,,,,green,,,null,object_10b.png,object_11b.png,,,,,,,,,,,,,,,,,,,,,
null,,rt_plussign_withcolor4,1018554,,,,,,,,green,,,null,object_10b.png,object_11b.png,,,,,,,,,,,,,,,,,,,,,
845.9000000059605,,rt_thecrossant_black4,1019639,,,,,,,,black_plus_sign,,,50,,,1,,,,,,,1,,,,,,,,,,,,,
null,,color_black4,1019741,,,,,,,,black_plus_sign,,,null,,,,,,,,,,,,,,,,,,,,,,,
null,,learn_phase(without_color)4,1023259,,,,,,,,black_plus_sign,,,null,object_10c.png,object_09b.png,,,,,,,,,,,,,,,,,,,,,
null,,black_cross(without_color)4,1024280,,,,,,,,blue,,,null,object_10c.png,object_09b.png,,,,,,,,,,,,,,,,,,,,,
null,,rt_plussign_withcolor4,1024781,,,,,,,,blue,,,null,object_10c.png,object_09b.png,,,,,,,,,,,,,,,,,,,,,
1338.1000000014901,,rt_thecrossant_black4,1025765,,,,,,,,black_plus_sign,,,49,,,1,,,,,,,1,,,,,,,,,,,,,
null,,color_black4,1025868,,,,,,,,black_plus_sign,,,null,,,,,,,,,,,,,,,,,,,,,,,
null,,learn_phase(without_color)4,1029370,,,,,,,,black_plus_sign,,,null,object_05b.png,object_14a.png,,,,,,,,,,,,,,,,,,,,,
null,,black_cross(without_color)4,1029983,,,,,,,,blue,,,null,object_05b.png,object_14a.png,,,,,,,,,,,,,,,,,,,,,
null,,rt_plussign_withcolor4,1030485,,,,,,,,blue,,,null,object_05b.png,object_14a.png,,,,,,,,,,,,,,,,,,,,,
2041.1999999955297,,rt_thecrossant_black4,1031890,,,,,,,,black_plus_sign,,,49,,,1,,,,,,,1,,,,,,,,,,,,,
null,,color_black4,1031993,,,,,,,,black_plus_sign,,,null,,,,,,,,,,,,,,,,,,,,,,,
null,,learn_phase(without_color)4,1035495,,,,,,,,black_plus_sign,,,null,object_13a.png,object_03c.png,,,,,,,,,,,,,,,,,,,,,
null,,black_cross(without_color)4,1036311,,,,,,,,blue,,,null,object_13a.png,object_03c.png,,,,,,,,,,,,,,,,,,,,,
null,,rt_plussign_withcolor4,1036813,,,,,,,,blue,,,null,object_13a.png,object_03c.png,,,,,,,,,,,,,,,,,,,,,
1155.6000000014901,,rt_thecrossant_black4,1038003,,,,,,,,black_plus_sign,,,49,,,1,,,,,,,1,,,,,,,,,,,,,
null,,color_black4,1038107,,,,,,,,black_plus_sign,,,null,,,,,,,,,,,,,,,,,,,,,,,
null,,learn_phase(without_color)4,1041609,,,,,,,,black_plus_sign,,,null,object_02b.png,object_01b.png,,,,,,,,,,,,,,,,,,,,,
null,,black_cross(without_color)4,1042328,,,,,,,,green,,,null,object_02b.png,object_01b.png,,,,,,,,,,,,,,,,,,,,,
null,,rt_plussign_withcolor4,1042830,,,,,,,,green,,,null,object_02b.png,object_01b.png,,,,,,,,,,,,,,,,,,,,,
1645.8000000044703,,rt_thecrossant_black4,1044116,,,,,,,,black_plus_sign,,,50,,,1,,,,,,,1,,,,,,,,,,,,,
null,,color_black4,1044218,,,,,,,,black_plus_sign,,,null,,,,,,,,,,,,,,,,,,,,,,,
null,,thebreak,1044321,,,,,,,,<p></p>,,,null,,,,,,,,,,,,,,,,,,,,,,,
1629.6000000014901,,intro_0,1045952,,,,,,,,instruct,,,32,,,,,,,,,,,,,,,,,,,,,,,
4140.5,,directmemory_phase4,1050093,,,,,,,,object_03c.png,,,51,,,1,,object_05b.png,object_10c.png,object_13a.png,object_13a.png,,0.8043478260869565,,1,,,,,,,,,,,
8083.89999999851,,directmemory_phase4,1058178,,,,,,,,object_14b.png,,,51,,,1,,object_13a.png,object_02a.png,object_06c.png,object_06c.png,,0.8085106382978723,,1,,,,,,,,,,,
3659.2000000029802,,directmemory_phase4,1061839,,,,,,,,object_11b.png,,,49,,,1,,object_10b.png,object_07a.png,object_04a.png,object_10b.png,,0.8125,,1,,,,,,,,,,,
5655.30000000447,,directmemory_phase4,1067495,,,,,,,,object_14c.png,,,50,,,0,,object_06c.png,object_02b.png,object_03a.png,object_03a.png,,0.7959183673469388,,0,,,,,,,,,,,
4474.89999999851,,directmemory_phase4,1071971,,,,,,,,object_01b.png,,,51,,,1,,object_06c.png,object_10c.png,object_02b.png,object_02b.png,,0.8,,1,,,,,,,,,,,
3195.60000000149,,directmemory_phase4,1075168,,,,,,,,object_14a.png,,,51,,,1,,object_03a.png,object_05c.png,object_05b.png,object_05b.png,,0.803921568627451,,1,,,,,,,,,,,
2622.39999999851,,directmemory_phase4,1077792,,,,,,,,object_15a.png,,,50,,,1,,object_10c.png,object_07b.png,object_02b.png,object_07b.png,,0.8076923076923077,,1,,,,,,,,,,,
2131.5,,directmemory_phase4,1079925,,,,,,,,object_01c.png,,,49,,,1,,object_11a.png,object_10b.png,object_08c.png,object_11a.png,,0.8113207547169812,,1,,,,,,,,,,,
2568.7999999970198,,directmemory_phase4,1082495,,,,,,,,object_09c.png,,,49,,,1,,object_02a.png,object_05c.png,object_12c.png,object_02a.png,,0.8148148148148148,,1,,,,,,,,,,,
2111.89999999851,,directmemory_phase4,1084608,,,,,,,,object_04b.png,,,50,,,1,,object_07a.png,object_12c.png,object_02b.png,object_12c.png,,0.8181818181818182,,1,,,,,,,,,,,
2316.39999999851,,directmemory_phase4,1086925,,,,,,,,object_12a.png,,,51,,,1,,object_05b.png,object_10b.png,object_07a.png,object_07a.png,,0.8214285714285714,,1,,,,,,,,,,,
2950.39999999851,,directmemory_phase4,1089877,,,,,,,,object_09a.png,,,51,,,1,,object_04a.png,object_10c.png,object_05c.png,object_05c.png,,0.8245614035087719,,1,,,,,,,,,,,
4085,,directmemory_phase4,1093963,,,,,,,,object_06a.png,,,51,,,1,,object_05c.png,object_08c.png,object_04a.png,object_04a.png,,0.8275862068965517,,1,,,,,,,,,,,
2714.8000000044703,,directmemory_phase4,1096679,,,,,,,,object_02c.png,,,50,,,1,,object_06c.png,object_08c.png,object_03a.png,object_08c.png,,0.8305084745762712,,1,,,,,,,,,,,
3329.1999999955297,,directmemory_phase4,1100010,,,,,,,,object_09b.png,,,49,,,1,,object_10c.png,object_11a.png,object_13a.png,object_10c.png,,0.8333333333333334,,1,,,,,,,,,,,
null,,thebreak,1100113,,,,,,,,<p></p>,,,null,,,,,,,,,,,,,,,,,,,,,,,
5221.89999999851,,intro_0,1105335,,,,,,,,instruct,,,32,,,,,,,,,,,,,,,,,,,,,,,
null,,learn_phase(without_color)5,1108837,,,,,,,,black_plus_sign,,,null,object_03c.png,object_10a.png,,,,,,,,,,,,,,,,,,,,,
null,,black_cross(without_color)5,1109338,,,,,,,,blue,,,null,object_03c.png,object_10a.png,,,,,,,,,,,,,,,,,,,,,
null,,rt_plussign_withcolor5,1109840,,,,,,,,blue,,,null,object_03c.png,object_10a.png,,,,,,,,,,,,,,,,,,,,,
1485,,rt_thecrossant_black5,1111348,,,,,,,,black_plus_sign,,,49,,,1,,,,,,,1,,,,,,,,,,,,,
null,,color_black5,1111449,,,,,,,,black_plus_sign,,,null,,,,,,,,,,,,,,,,,,,,,,,
null,,learn_phase(without_color)5,1114951,,,,,,,,black_plus_sign,,,null,object_14b.png,object_05a.png,,,,,,,,,,,,,,,,,,,,,
null,,black_cross(without_color)5,1116045,,,,,,,,green,,,null,object_14b.png,object_05a.png,,,,,,,,,,,,,,,,,,,,,
null,,rt_plussign_withcolor5,1116546,,,,,,,,green,,,null,object_14b.png,object_05a.png,,,,,,,,,,,,,,,,,,,,,
824.8999999985099,,rt_thecrossant_black5,1117458,,,,,,,,black_plus_sign,,,50,,,1,,,,,,,1,,,,,,,,,,,,,
null,,color_black5,1117560,,,,,,,,black_plus_sign,,,null,,,,,,,,,,,,,,,,,,,,,,,
null,,learn_phase(without_color)5,1121064,,,,,,,,black_plus_sign,,,null,object_14a.png,object_11c.png,,,,,,,,,,,,,,,,,,,,,
null,,black_cross(without_color)5,1121489,,,,,,,,blue,,,null,object_14a.png,object_11c.png,,,,,,,,,,,,,,,,,,,,,
null,,rt_plussign_withcolor5,1121991,,,,,,,,blue,,,null,object_14a.png,object_11c.png,,,,,,,,,,,,,,,,,,,,,
1500.1000000014901,,rt_thecrossant_black5,1123571,,,,,,,,black_plus_sign,,,49,,,1,,,,,,,1,,,,,,,,,,,,,
null,,color_black5,1123674,,,,,,,,black_plus_sign,,,null,,,,,,,,,,,,,,,,,,,,,,,
null,,learn_phase(without_color)5,1127178,,,,,,,,black_plus_sign,,,null,object_09b.png,object_08b.png,,,,,,,,,,,,,,,,,,,,,
null,,black_cross(without_color)5,1127646,,,,,,,,blue,,,null,object_09b.png,object_08b.png,,,,,,,,,,,,,,,,,,,,,
null,,rt_plussign_withcolor5,1128147,,,,,,,,blue,,,null,object_09b.png,object_08b.png,,,,,,,,,,,,,,,,,,,,,
1015.1000000014901,,rt_thecrossant_black5,1129684,,,,,,,,black_plus_sign,,,49,,,1,,,,,,,1,,,,,,,,,,,,,
null,,color_black5,1129787,,,,,,,,black_plus_sign,,,null,,,,,,,,,,,,,,,,,,,,,,,
null,,learn_phase(without_color)5,1133289,,,,,,,,black_plus_sign,,,null,object_01c.png,object_15c.png,,,,,,,,,,,,,,,,,,,,,
null,,black_cross(without_color)5,1133833,,,,,,,,green,,,null,object_01c.png,object_15c.png,,,,,,,,,,,,,,,,,,,,,
null,,rt_plussign_withcolor5,1134336,,,,,,,,green,,,null,object_01c.png,object_15c.png,,,,,,,,,,,,,,,,,,,,,
890,,rt_thecrossant_black5,1135801,,,,,,,,black_plus_sign,,,50,,,1,,,,,,,1,,,,,,,,,,,,,
null,,color_black5,1135909,,,,,,,,black_plus_sign,,,null,,,,,,,,,,,,,,,,,,,,,,,
null,,learn_phase(without_color)5,1139411,,,,,,,,black_plus_sign,,,null,object_09c.png,object_04c.png,,,,,,,,,,,,,,,,,,,,,
null,,black_cross(without_color)5,1140017,,,,,,,,green,,,null,object_09c.png,object_04c.png,,,,,,,,,,,,,,,,,,,,,
null,,rt_plussign_withcolor5,1140519,,,,,,,,green,,,null,object_09c.png,object_04c.png,,,,,,,,,,,,,,,,,,,,,
954.8999999985099,,rt_thecrossant_black5,1141919,,,,,,,,black_plus_sign,,,50,,,1,,,,,,,1,,,,,,,,,,,,,
null,,color_black5,1142021,,,,,,,,black_plus_sign,,,null,,,,,,,,,,,,,,,,,,,,,,,
null,,learn_phase(without_color)5,1145525,,,,,,,,black_plus_sign,,,null,object_06a.png,object_13b.png,,,,,,,,,,,,,,,,,,,,,
null,,black_cross(without_color)5,1146027,,,,,,,,green,,,null,object_06a.png,object_13b.png,,,,,,,,,,,,,,,,,,,,,
null,,rt_plussign_withcolor5,1146528,,,,,,,,green,,,null,object_06a.png,object_13b.png,,,,,,,,,,,,,,,,,,,,,
930.3000000044703,,rt_thecrossant_black5,1148038,,,,,,,,black_plus_sign,,,50,,,1,,,,,,,1,,,,,,,,,,,,,
null,,color_black5,1148140,,,,,,,,black_plus_sign,,,null,,,,,,,,,,,,,,,,,,,,,,,
null,,learn_phase(without_color)5,1151643,,,,,,,,black_plus_sign,,,null,object_01b.png,object_07c.png,,,,,,,,,,,,,,,,,,,,,
null,,black_cross(without_color)5,1152531,,,,,,,,green,,,null,object_01b.png,object_07c.png,,,,,,,,,,,,,,,,,,,,,
null,,rt_plussign_withcolor5,1153033,,,,,,,,green,,,null,object_01b.png,object_07c.png,,,,,,,,,,,,,,,,,,,,,
717,,rt_thecrossant_black5,1154149,,,,,,,,black_plus_sign,,,50,,,1,,,,,,,1,,,,,,,,,,,,,
null,,color_black5,1154253,,,,,,,,black_plus_sign,,,null,,,,,,,,,,,,,,,,,,,,,,,
null,,learn_phase(without_color)5,1157755,,,,,,,,black_plus_sign,,,null,object_04b.png,object_08a.png,,,,,,,,,,,,,,,,,,,,,
null,,black_cross(without_color)5,1158191,,,,,,,,green,,,null,object_04b.png,object_08a.png,,,,,,,,,,,,,,,,,,,,,
null,,rt_plussign_withcolor5,1158693,,,,,,,,green,,,null,object_04b.png,object_08a.png,,,,,,,,,,,,,,,,,,,,,
1430.3999999985099,,rt_thecrossant_black5,1160264,,,,,,,,black_plus_sign,,,50,,,1,,,,,,,1,,,,,,,,,,,,,
null,,color_black5,1160366,,,,,,,,black_plus_sign,,,null,,,,,,,,,,,,,,,,,,,,,,,
null,,learn_phase(without_color)5,1163867,,,,,,,,black_plus_sign,,,null,object_12a.png,object_12b.png,,,,,,,,,,,,,,,,,,,,,
null,,black_cross(without_color)5,1164475,,,,,,,,blue,,,null,object_12a.png,object_12b.png,,,,,,,,,,,,,,,,,,,,,
null,,rt_plussign_withcolor5,1164977,,,,,,,,blue,,,null,object_12a.png,object_12b.png,,,,,,,,,,,,,,,,,,,,,
1108.3999999985099,,rt_thecrossant_black5,1166373,,,,,,,,black_plus_sign,,,49,,,1,,,,,,,1,,,,,,,,,,,,,
null,,color_black5,1166476,,,,,,,,black_plus_sign,,,null,,,,,,,,,,,,,,,,,,,,,,,
null,,learn_phase(without_color)5,1169977,,,,,,,,black_plus_sign,,,null,object_15a.png,object_13c.png,,,,,,,,,,,,,,,,,,,,,
null,,black_cross(without_color)5,1170610,,,,,,,,blue,,,null,object_15a.png,object_13c.png,,,,,,,,,,,,,,,,,,,,,
null,,rt_plussign_withcolor5,1171112,,,,,,,,blue,,,null,object_15a.png,object_13c.png,,,,,,,,,,,,,,,,,,,,,
1855.6000000014901,,rt_thecrossant_black5,1172484,,,,,,,,black_plus_sign,,,49,,,1,,,,,,,1,,,,,,,,,,,,,
null,,color_black5,1172586,,,,,,,,black_plus_sign,,,null,,,,,,,,,,,,,,,,,,,,,,,
null,,learn_phase(without_color)5,1176089,,,,,,,,black_plus_sign,,,null,object_14c.png,object_15b.png,,,,,,,,,,,,,,,,,,,,,
null,,black_cross(without_color)5,1176778,,,,,,,,blue,,,null,object_14c.png,object_15b.png,,,,,,,,,,,,,,,,,,,,,
null,,rt_plussign_withcolor5,1177281,,,,,,,,blue,,,null,object_14c.png,object_15b.png,,,,,,,,,,,,,,,,,,,,,
1283.6000000014901,,rt_thecrossant_black5,1178596,,,,,,,,black_plus_sign,,,49,,,1,,,,,,,1,,,,,,,,,,,,,
null,,color_black5,1178698,,,,,,,,black_plus_sign,,,null,,,,,,,,,,,,,,,,,,,,,,,
null,,learn_phase(without_color)5,1182200,,,,,,,,black_plus_sign,,,null,object_02c.png,object_06b.png,,,,,,,,,,,,,,,,,,,,,
null,,black_cross(without_color)5,1182962,,,,,,,,green,,,null,object_02c.png,object_06b.png,,,,,,,,,,,,,,,,,,,,,
null,,rt_plussign_withcolor5,1183464,,,,,,,,green,,,null,object_02c.png,object_06b.png,,,,,,,,,,,,,,,,,,,,,
988.1000000014901,,rt_thecrossant_black5,1184706,,,,,,,,black_plus_sign,,,50,,,1,,,,,,,1,,,,,,,,,,,,,
null,,color_black5,1184809,,,,,,,,black_plus_sign,,,null,,,,,,,,,,,,,,,,,,,,,,,
null,,learn_phase(without_color)5,1188311,,,,,,,,black_plus_sign,,,null,object_11b.png,object_03b.png,,,,,,,,,,,,,,,,,,,,,
null,,black_cross(without_color)5,1189154,,,,,,,,blue,,,null,object_11b.png,object_03b.png,,,,,,,,,,,,,,,,,,,,,
null,,rt_plussign_withcolor5,1189656,,,,,,,,blue,,,null,object_11b.png,object_03b.png,,,,,,,,,,,,,,,,,,,,,
1194.3999999985099,,rt_thecrossant_black5,1190818,,,,,,,,black_plus_sign,,,49,,,1,,,,,,,1,,,,,,,,,,,,,
null,,color_black5,1190922,,,,,,,,black_plus_sign,,,null,,,,,,,,,,,,,,,,,,,,,,,
null,,learn_phase(without_color)5,1194425,,,,,,,,black_plus_sign,,,null,object_09a.png,object_01a.png,,,,,,,,,,,,,,,,,,,,,
null,,black_cross(without_color)5,1195025,,,,,,,,green,,,null,object_09a.png,object_01a.png,,,,,,,,,,,,,,,,,,,,,
null,,rt_plussign_withcolor5,1195526,,,,,,,,green,,,null,object_09a.png,object_01a.png,,,,,,,,,,,,,,,,,,,,,
1597.6999999955297,,rt_thecrossant_black5,1196930,,,,,,,,black_plus_sign,,,50,,,1,,,,,,,1,,,,,,,,,,,,,
null,,color_black5,1197033,,,,,,,,black_plus_sign,,,null,,,,,,,,,,,,,,,,,,,,,,,
null,,thebreak,1197137,,,,,,,,<p></p>,,,null,,,,,,,,,,,,,,,,,,,,,,,
1665.7000000029802,,intro_0,1198803,,,,,,,,instruct,,,32,,,,,,,,,,,,,,,,,,,,,,,
6825,,directmemory_phase5,1205629,,,,,,,,object_13b.png,,,51,,,0,,object_06a.png,object_01b.png,object_09a.png,object_06a.png,,0.819672131147541,,0,,,,,,,,,,,
4061.7000000029802,,directmemory_phase5,1209691,,,,,,,,object_13c.png,,,51,,,1,,object_02c.png,object_06a.png,object_15a.png,object_15a.png,,0.8225806451612904,,1,,,,,,,,,,,
3990.2999999970198,,directmemory_phase5,1213684,,,,,,,,object_15c.png,,,49,,,1,,object_01c.png,object_06a.png,object_09a.png,object_01c.png,,0.8253968253968254,,1,,,,,,,,,,,
5721.5,,directmemory_phase5,1219407,,,,,,,,object_01a.png,,,49,,,0,,object_14c.png,object_09a.png,object_04b.png,object_09a.png,,0.8125,,0,,,,,,,,,,,
3718.1999999955297,,directmemory_phase5,1223127,,,,,,,,object_07c.png,,,49,,,0,,object_09c.png,object_12a.png,object_01b.png,object_01b.png,,0.8,,0,,,,,,,,,,,
2898.2999999970198,,directmemory_phase5,1226028,,,,,,,,object_10a.png,,,51,,,0,,object_01b.png,object_03c.png,object_06a.png,object_03c.png,,0.7878787878787878,,0,,,,,,,,,,,
3586,,directmemory_phase5,1229616,,,,,,,,object_05a.png,,,49,,,1,,object_14b.png,object_14a.png,object_02c.png,object_14b.png,,0.7910447761194029,,1,,,,,,,,,,,
5338.60000000149,,directmemory_phase5,1234955,,,,,,,,object_04c.png,,,50,,,1,,object_02c.png,object_09c.png,object_03c.png,object_09c.png,,0.7941176470588235,,1,,,,,,,,,,,
5163.30000000447,,directmemory_phase5,1240121,,,,,,,,object_15b.png,,,51,,,0,,object_11b.png,object_14c.png,object_09a.png,object_14c.png,,0.782608695652174,,0,,,,,,,,,,,
4376.29999999702,,directmemory_phase5,1244500,,,,,,,,object_08b.png,,,51,,,1,,object_14a.png,object_09a.png,object_09b.png,object_09b.png,,0.7857142857142857,,1,,,,,,,,,,,
2858.39999999851,,directmemory_phase5,1247359,,,,,,,,object_06b.png,,,50,,,1,,object_01c.png,object_02c.png,object_14c.png,object_02c.png,,0.7887323943661971,,1,,,,,,,,,,,
3976.10000000149,,directmemory_phase5,1251337,,,,,,,,object_12b.png,,,50,,,1,,object_14b.png,object_12a.png,object_14a.png,object_12a.png,,0.7916666666666666,,1,,,,,,,,,,,
3538.7999999970198,,directmemory_phase5,1254878,,,,,,,,object_03b.png,,,49,,,1,,object_11b.png,object_04b.png,object_06a.png,object_11b.png,,0.7945205479452054,,1,,,,,,,,,,,
4860.70000000298,,directmemory_phase5,1259740,,,,,,,,object_08a.png,,,49,,,1,,object_04b.png,object_14b.png,object_09a.png,object_04b.png,,0.7972972972972973,,1,,,,,,,,,,,
4086.7999999970198,,directmemory_phase5,1263828,,,,,,,,object_11c.png,,,49,,,0,,object_03c.png,object_14a.png,object_06a.png,object_14a.png,,0.7866666666666666,,0,,,,,,,,,,,
null,,thebreak,1263931,,,,,,,,<p></p>,,,null,,,,,,,,,,,,,,,,,,,,,,,
4728.70000000298,,intro_0,1268661,,,,,,,,instruct,,,32,,,,,,,,,,,,,,,,,,,,,,,
null,,learn_phase(without_color)6,1272163,,,,,,,,black_plus_sign,,,null,object_09c.png,object_04c.png,,,,,,,,,,,,,,,,,,,,,
null,,black_cross(without_color)6,1272994,,,,,,,,green,,,null,object_09c.png,object_04c.png,,,,,,,,,,,,,,,,,,,,,
null,,rt_plussign_withcolor6,1273495,,,,,,,,green,,,null,object_09c.png,object_04c.png,,,,,,,,,,,,,,,,,,,,,
1853.8999999985099,,rt_thecrossant_black6,1274671,,,,,,,,black_plus_sign,,,50,,,1,,,,,,,1,,,,,,,,,,,,,
null,,color_black6,1274784,,,,,,,,black_plus_sign,,,null,,,,,,,,,,,,,,,,,,,,,,,
null,,learn_phase(without_color)6,1278287,,,,,,,,black_plus_sign,,,null,object_09b.png,object_08b.png,,,,,,,,,,,,,,,,,,,,,
null,,black_cross(without_color)6,1278778,,,,,,,,blue,,,null,object_09b.png,object_08b.png,,,,,,,,,,,,,,,,,,,,,
null,,rt_plussign_withcolor6,1279282,,,,,,,,blue,,,null,object_09b.png,object_08b.png,,,,,,,,,,,,,,,,,,,,,
1394.6999999955297,,rt_thecrossant_black6,1280798,,,,,,,,black_plus_sign,,,49,,,1,,,,,,,1,,,,,,,,,,,,,
null,,color_black6,1280899,,,,,,,,black_plus_sign,,,null,,,,,,,,,,,,,,,,,,,,,,,
null,,learn_phase(without_color)6,1284403,,,,,,,,black_plus_sign,,,null,object_14a.png,object_11c.png,,,,,,,,,,,,,,,,,,,,,
null,,black_cross(without_color)6,1285223,,,,,,,,green,,,null,object_14a.png,object_11c.png,,,,,,,,,,,,,,,,,,,,,
null,,rt_plussign_withcolor6,1285725,,,,,,,,green,,,null,object_14a.png,object_11c.png,,,,,,,,,,,,,,,,,,,,,
1006.8999999985099,,rt_thecrossant_black6,1286910,,,,,,,,black_plus_sign,,,50,,,1,,,,,,,1,,,,,,,,,,,,,
null,,color_black6,1287013,,,,,,,,black_plus_sign,,,null,,,,,,,,,,,,,,,,,,,,,,,
null,,learn_phase(without_color)6,1290515,,,,,,,,black_plus_sign,,,null,object_15a.png,object_13c.png,,,,,,,,,,,,,,,,,,,,,
null,,black_cross(without_color)6,1291140,,,,,,,,blue,,,null,object_15a.png,object_13c.png,,,,,,,,,,,,,,,,,,,,,
null,,rt_plussign_withcolor6,1291641,,,,,,,,blue,,,null,object_15a.png,object_13c.png,,,,,,,,,,,,,,,,,,,,,
1305.3000000044703,,rt_thecrossant_black6,1293019,,,,,,,,black_plus_sign,,,49,,,1,,,,,,,1,,,,,,,,,,,,,
null,,color_black6,1293122,,,,,,,,black_plus_sign,,,null,,,,,,,,,,,,,,,,,,,,,,,
null,,learn_phase(without_color)6,1296625,,,,,,,,black_plus_sign,,,null,object_14b.png,object_05a.png,,,,,,,,,,,,,,,,,,,,,
null,,black_cross(without_color)6,1297119,,,,,,,,blue,,,null,object_14b.png,object_05a.png,,,,,,,,,,,,,,,,,,,,,
null,,rt_plussign_withcolor6,1297620,,,,,,,,blue,,,null,object_14b.png,object_05a.png,,,,,,,,,,,,,,,,,,,,,
1019.9000000059605,,rt_thecrossant_black6,1299130,,,,,,,,black_plus_sign,,,49,,,1,,,,,,,1,,,,,,,,,,,,,
null,,color_black6,1299231,,,,,,,,black_plus_sign,,,null,,,,,,,,,,,,,,,,,,,,,,,
null,,learn_phase(without_color)6,1302735,,,,,,,,black_plus_sign,,,null,object_06a.png,object_13b.png,,,,,,,,,,,,,,,,,,,,,
null,,black_cross(without_color)6,1303547,,,,,,,,blue,,,null,object_06a.png,object_13b.png,,,,,,,,,,,,,,,,,,,,,
null,,rt_plussign_withcolor6,1304048,,,,,,,,blue,,,null,object_06a.png,object_13b.png,,,,,,,,,,,,,,,,,,,,,
962.7000000029802,,rt_thecrossant_black6,1305240,,,,,,,,black_plus_sign,,,49,,,1,,,,,,,1,,,,,,,,,,,,,
null,,color_black6,1305342,,,,,,,,black_plus_sign,,,null,,,,,,,,,,,,,,,,,,,,,,,
null,,learn_phase(without_color)6,1308845,,,,,,,,black_plus_sign,,,null,object_12a.png,object_12b.png,,,,,,,,,,,,,,,,,,,,,
null,,black_cross(without_color)6,1309734,,,,,,,,blue,,,null,object_12a.png,object_12b.png,,,,,,,,,,,,,,,,,,,,,
null,,rt_plussign_withcolor6,1310241,,,,,,,,blue,,,null,object_12a.png,object_12b.png,,,,,,,,,,,,,,,,,,,,,
1263.6000000014901,,rt_thecrossant_black6,1311358,,,,,,,,black_plus_sign,,,49,,,1,,,,,,,1,,,,,,,,,,,,,
null,,color_black6,1311460,,,,,,,,black_plus_sign,,,null,,,,,,,,,,,,,,,,,,,,,,,
null,,learn_phase(without_color)6,1314962,,,,,,,,black_plus_sign,,,null,object_11b.png,object_03b.png,,,,,,,,,,,,,,,,,,,,,
null,,black_cross(without_color)6,1315693,,,,,,,,green,,,null,object_11b.png,object_03b.png,,,,,,,,,,,,,,,,,,,,,
null,,rt_plussign_withcolor6,1316195,,,,,,,,green,,,null,object_11b.png,object_03b.png,,,,,,,,,,,,,,,,,,,,,
1222.8999999985099,,rt_thecrossant_black6,1317469,,,,,,,,black_plus_sign,,,50,,,1,,,,,,,1,,,,,,,,,,,,,
null,,color_black6,1317570,,,,,,,,black_plus_sign,,,null,,,,,,,,,,,,,,,,,,,,,,,
null,,learn_phase(without_color)6,1321073,,,,,,,,black_plus_sign,,,null,object_01c.png,object_15c.png,,,,,,,,,,,,,,,,,,,,,
null,,black_cross(without_color)6,1322011,,,,,,,,green,,,null,object_01c.png,object_15c.png,,,,,,,,,,,,,,,,,,,,,
null,,rt_plussign_withcolor6,1322513,,,,,,,,green,,,null,object_01c.png,object_15c.png,,,,,,,,,,,,,,,,,,,,,
1242.7999999970198,,rt_thecrossant_black6,1323593,,,,,,,,black_plus_sign,,,50,,,1,,,,,,,1,,,,,,,,,,,,,
null,,color_black6,1323695,,,,,,,,black_plus_sign,,,null,,,,,,,,,,,,,,,,,,,,,,,
null,,learn_phase(without_color)6,1327197,,,,,,,,black_plus_sign,,,null,object_14c.png,object_15b.png,,,,,,,,,,,,,,,,,,,,,
null,,black_cross(without_color)6,1327842,,,,,,,,blue,,,null,object_14c.png,object_15b.png,,,,,,,,,,,,,,,,,,,,,
null,,rt_plussign_withcolor6,1328344,,,,,,,,blue,,,null,object_14c.png,object_15b.png,,,,,,,,,,,,,,,,,,,,,
1434.5,,rt_thecrossant_black6,1329703,,,,,,,,black_plus_sign,,,49,,,1,,,,,,,1,,,,,,,,,,,,,
null,,color_black6,1329805,,,,,,,,black_plus_sign,,,null,,,,,,,,,,,,,,,,,,,,,,,
null,,learn_phase(without_color)6,1333308,,,,,,,,black_plus_sign,,,null,object_02c.png,object_06b.png,,,,,,,,,,,,,,,,,,,,,
null,,black_cross(without_color)6,1334269,,,,,,,,green,,,null,object_02c.png,object_06b.png,,,,,,,,,,,,,,,,,,,,,
null,,rt_plussign_withcolor6,1334771,,,,,,,,green,,,null,object_02c.png,object_06b.png,,,,,,,,,,,,,,,,,,,,,
935.6999999955297,,rt_thecrossant_black6,1335815,,,,,,,,black_plus_sign,,,50,,,1,,,,,,,1,,,,,,,,,,,,,
null,,color_black6,1335917,,,,,,,,black_plus_sign,,,null,,,,,,,,,,,,,,,,,,,,,,,
null,,learn_phase(without_color)6,1339420,,,,,,,,black_plus_sign,,,null,object_09a.png,object_01a.png,,,,,,,,,,,,,,,,,,,,,
null,,black_cross(without_color)6,1340276,,,,,,,,blue,,,null,object_09a.png,object_01a.png,,,,,,,,,,,,,,,,,,,,,
null,,rt_plussign_withcolor6,1340778,,,,,,,,blue,,,null,object_09a.png,object_01a.png,,,,,,,,,,,,,,,,,,,,,
1787.1000000014901,,rt_thecrossant_black6,1341928,,,,,,,,black_plus_sign,,,49,,,1,,,,,,,1,,,,,,,,,,,,,
null,,color_black6,1342030,,,,,,,,black_plus_sign,,,null,,,,,,,,,,,,,,,,,,,,,,,
null,,learn_phase(without_color)6,1345533,,,,,,,,black_plus_sign,,,null,object_01b.png,object_07c.png,,,,,,,,,,,,,,,,,,,,,
null,,black_cross(without_color)6,1346414,,,,,,,,blue,,,null,object_01b.png,object_07c.png,,,,,,,,,,,,,,,,,,,,,
null,,rt_plussign_withcolor6,1346916,,,,,,,,blue,,,null,object_01b.png,object_07c.png,,,,,,,,,,,,,,,,,,,,,
1514,,rt_thecrossant_black6,1348038,,,,,,,,black_plus_sign,,,49,,,1,,,,,,,1,,,,,,,,,,,,,
null,,color_black6,1348141,,,,,,,,black_plus_sign,,,null,,,,,,,,,,,,,,,,,,,,,,,
null,,learn_phase(without_color)6,1351645,,,,,,,,black_plus_sign,,,null,object_04b.png,object_08a.png,,,,,,,,,,,,,,,,,,,,,
null,,black_cross(without_color)6,1352409,,,,,,,,green,,,null,object_04b.png,object_08a.png,,,,,,,,,,,,,,,,,,,,,
null,,rt_plussign_withcolor6,1352911,,,,,,,,green,,,null,object_04b.png,object_08a.png,,,,,,,,,,,,,,,,,,,,,
1927.1000000014901,,rt_thecrossant_black6,1354151,,,,,,,,black_plus_sign,,,50,,,1,,,,,,,1,,,,,,,,,,,,,
null,,color_black6,1354253,,,,,,,,black_plus_sign,,,null,,,,,,,,,,,,,,,,,,,,,,,
null,,learn_phase(without_color)6,1357756,,,,,,,,black_plus_sign,,,null,object_03c.png,object_10a.png,,,,,,,,,,,,,,,,,,,,,
null,,black_cross(without_color)6,1358458,,,,,,,,green,,,null,object_03c.png,object_10a.png,,,,,,,,,,,,,,,,,,,,,
null,,rt_plussign_withcolor6,1358960,,,,,,,,green,,,null,object_03c.png,object_10a.png,,,,,,,,,,,,,,,,,,,,,
1440.6000000014901,,rt_thecrossant_black6,1360262,,,,,,,,black_plus_sign,,,50,,,1,,,,,,,1,,,,,,,,,,,,,
null,,color_black6,1360363,,,,,,,,black_plus_sign,,,null,,,,,,,,,,,,,,,,,,,,,,,
null,,thebreak,1360466,,,,,,,,<p></p>,,,null,,,,,,,,,,,,,,,,,,,,,,,
1778,,intro_0,1362245,,,,,,,,instruct,,,32,,,,,,,,,,,,,,,,,,,,,,,
3375.5,,directmemory_phase6,1365621,,,,,,,,object_12b.png,,,49,,,1,,object_12a.png,object_03c.png,object_01b.png,object_12a.png,,0.7894736842105263,,1,,,,,,,,,,,
3425.8000000044703,,directmemory_phase6,1369047,,,,,,,,object_15b.png,,,51,,,1,,object_01c.png,object_12a.png,object_14c.png,object_14c.png,,0.7922077922077922,,1,,,,,,,,,,,
2668.10000000149,,directmemory_phase6,1371717,,,,,,,,object_08a.png,,,51,,,1,,object_03c.png,object_09a.png,object_04b.png,object_04b.png,,0.7948717948717948,,1,,,,,,,,,,,
2480.8000000044703,,directmemory_phase6,1374199,,,,,,,,object_07c.png,,,50,,,1,,object_02c.png,object_01b.png,object_09c.png,object_01b.png,,0.7974683544303798,,1,,,,,,,,,,,
3327.5,,directmemory_phase6,1377529,,,,,,,,object_03b.png,,,49,,,1,,object_11b.png,object_09b.png,object_09a.png,object_11b.png,,0.8,,1,,,,,,,,,,,
2387.7000000029802,,directmemory_phase6,1379919,,,,,,,,object_11c.png,,,51,,,1,,object_14c.png,object_02c.png,object_14a.png,object_14a.png,,0.8024691358024691,,1,,,,,,,,,,,
4474.30000000447,,directmemory_phase6,1384395,,,,,,,,object_01a.png,,,50,,,0,,object_09a.png,object_09b.png,object_09c.png,object_09a.png,,0.7926829268292683,,0,,,,,,,,,,,
3645.4000000059605,,directmemory_phase6,1388041,,,,,,,,object_08b.png,,,49,,,1,,object_09b.png,object_14c.png,object_14a.png,object_09b.png,,0.7951807228915663,,1,,,,,,,,,,,
4567.4000000059605,,directmemory_phase6,1392610,,,,,,,,object_15c.png,,,51,,,1,,object_14c.png,object_06a.png,object_01c.png,object_01c.png,,0.7976190476190477,,1,,,,,,,,,,,
3726.5,,directmemory_phase6,1396338,,,,,,,,object_13c.png,,,49,,,1,,object_15a.png,object_09b.png,object_01c.png,object_15a.png,,0.8,,1,,,,,,,,,,,
4290.89999999851,,directmemory_phase6,1400630,,,,,,,,object_13b.png,,,50,,,1,,object_14c.png,object_06a.png,object_14a.png,object_06a.png,,0.8023255813953488,,1,,,,,,,,,,,
2171.6999999955297,,directmemory_phase6,1402803,,,,,,,,object_06b.png,,,50,,,1,,object_12a.png,object_02c.png,object_11b.png,object_02c.png,,0.8045977011494253,,1,,,,,,,,,,,
3967,,directmemory_phase6,1406772,,,,,,,,object_05a.png,,,49,,,1,,object_14b.png,object_06a.png,object_12a.png,object_14b.png,,0.8068181818181818,,1,,,,,,,,,,,
2562.39999999851,,directmemory_phase6,1409336,,,,,,,,object_10a.png,,,51,,,1,,object_04b.png,object_09a.png,object_03c.png,object_03c.png,,0.8089887640449438,,1,,,,,,,,,,,
2201.89999999851,,directmemory_phase6,1411539,,,,,,,,object_04c.png,,,49,,,1,,object_09c.png,object_12a.png,object_14a.png,object_09c.png,,0.8111111111111111,,1,,,,,,,,,,,
null,,thebreak,1411641,,,,,,,,<p></p>,,,null,,,,,,,,,,,,,,,,,,,,,,,
28135.10000000149,,intro_0,1439778,,,,,,,,instruct,,,32,,,,,,,,,,,,,,,,,,,,,,,
null,,learn_phase(without_color)7,1443279,,,,,,,,black_plus_sign,,,null,object_09a.png,object_01a.png,,,,,,,,,,,,,,,,,,,,,
null,,black_cross(without_color)7,1444106,,,,,,,,green,,,null,object_09a.png,object_01a.png,,,,,,,,,,,,,,,,,,,,,
null,,rt_plussign_withcolor7,1444618,,,,,,,,green,,,null,object_09a.png,object_01a.png,,,,,,,,,,,,,,,,,,,,,
1152.1000000014901,,rt_thecrossant_black7,1445801,,,,,,,,black_plus_sign,,,50,,,1,,,,,,,1,,,,,,,,,,,,,
null,,color_black7,1445904,,,,,,,,black_plus_sign,,,null,,,,,,,,,,,,,,,,,,,,,,,
null,,learn_phase(without_color)7,1449406,,,,,,,,black_plus_sign,,,null,object_11b.png,object_03b.png,,,,,,,,,,,,,,,,,,,,,
null,,black_cross(without_color)7,1450301,,,,,,,,green,,,null,object_11b.png,object_03b.png,,,,,,,,,,,,,,,,,,,,,
null,,rt_plussign_withcolor7,1450803,,,,,,,,green,,,null,object_11b.png,object_03b.png,,,,,,,,,,,,,,,,,,,,,
1238.1000000014901,,rt_thecrossant_black7,1451913,,,,,,,,black_plus_sign,,,50,,,1,,,,,,,1,,,,,,,,,,,,,
null,,color_black7,1452015,,,,,,,,black_plus_sign,,,null,,,,,,,,,,,,,,,,,,,,,,,
null,,learn_phase(without_color)7,1455517,,,,,,,,black_plus_sign,,,null,object_14b.png,object_05a.png,,,,,,,,,,,,,,,,,,,,,
null,,black_cross(without_color)7,1456354,,,,,,,,blue,,,null,object_14b.png,object_05a.png,,,,,,,,,,,,,,,,,,,,,
null,,rt_plussign_withcolor7,1456856,,,,,,,,blue,,,null,object_14b.png,object_05a.png,,,,,,,,,,,,,,,,,,,,,
1621.8000000044703,,rt_thecrossant_black7,1458022,,,,,,,,black_plus_sign,,,49,,,1,,,,,,,1,,,,,,,,,,,,,
null,,color_black7,1458125,,,,,,,,black_plus_sign,,,null,,,,,,,,,,,,,,,,,,,,,,,
null,,learn_phase(without_color)7,1461627,,,,,,,,black_plus_sign,,,null,object_02c.png,object_06b.png,,,,,,,,,,,,,,,,,,,,,
null,,black_cross(without_color)7,1462074,,,,,,,,green,,,null,object_02c.png,object_06b.png,,,,,,,,,,,,,,,,,,,,,
null,,rt_plussign_withcolor7,1462576,,,,,,,,green,,,null,object_02c.png,object_06b.png,,,,,,,,,,,,,,,,,,,,,
1179.3999999985099,,rt_thecrossant_black7,1464134,,,,,,,,black_plus_sign,,,50,,,1,,,,,,,1,,,,,,,,,,,,,
null,,color_black7,1464236,,,,,,,,black_plus_sign,,,null,,,,,,,,,,,,,,,,,,,,,,,
null,,learn_phase(without_color)7,1467738,,,,,,,,black_plus_sign,,,null,object_04b.png,object_08a.png,,,,,,,,,,,,,,,,,,,,,
null,,black_cross(without_color)7,1468786,,,,,,,,blue,,,null,object_04b.png,object_08a.png,,,,,,,,,,,,,,,,,,,,,
null,,rt_plussign_withcolor7,1469295,,,,,,,,blue,,,null,object_04b.png,object_08a.png,,,,,,,,,,,,,,,,,,,,,
1193.8999999985099,,rt_thecrossant_black7,1470252,,,,,,,,black_plus_sign,,,49,,,1,,,,,,,1,,,,,,,,,,,,,
null,,color_black7,1470354,,,,,,,,black_plus_sign,,,null,,,,,,,,,,,,,,,,,,,,,,,
null,,learn_phase(without_color)7,1473857,,,,,,,,black_plus_sign,,,null,object_09b.png,object_08b.png,,,,,,,,,,,,,,,,,,,,,
null,,black_cross(without_color)7,1474622,,,,,,,,green,,,null,object_09b.png,object_08b.png,,,,,,,,,,,,,,,,,,,,,
null,,rt_plussign_withcolor7,1475123,,,,,,,,green,,,null,object_09b.png,object_08b.png,,,,,,,,,,,,,,,,,,,,,
1450.7999999970198,,rt_thecrossant_black7,1476375,,,,,,,,black_plus_sign,,,50,,,1,,,,,,,1,,,,,,,,,,,,,
null,,color_black7,1476478,,,,,,,,black_plus_sign,,,null,,,,,,,,,,,,,,,,,,,,,,,
null,,learn_phase(without_color)7,1479980,,,,,,,,black_plus_sign,,,null,object_12a.png,object_12b.png,,,,,,,,,,,,,,,,,,,,,
null,,black_cross(without_color)7,1480698,,,,,,,,blue,,,null,object_12a.png,object_12b.png,,,,,,,,,,,,,,,,,,,,,
null,,rt_plussign_withcolor7,1481199,,,,,,,,blue,,,null,object_12a.png,object_12b.png,,,,,,,,,,,,,,,,,,,,,
1255.1000000014901,,rt_thecrossant_black7,1482486,,,,,,,,black_plus_sign,,,49,,,1,,,,,,,1,,,,,,,,,,,,,
null,,color_black7,1482589,,,,,,,,black_plus_sign,,,null,,,,,,,,,,,,,,,,,,,,,,,
null,,learn_phase(without_color)7,1486092,,,,,,,,black_plus_sign,,,null,object_01b.png,object_07c.png,,,,,,,,,,,,,,,,,,,,,
null,,black_cross(without_color)7,1486793,,,,,,,,green,,,null,object_01b.png,object_07c.png,,,,,,,,,,,,,,,,,,,,,
null,,rt_plussign_withcolor7,1487301,,,,,,,,green,,,null,object_01b.png,object_07c.png,,,,,,,,,,,,,,,,,,,,,
1423.3999999985099,,rt_thecrossant_black7,1488605,,,,,,,,black_plus_sign,,,50,,,1,,,,,,,1,,,,,,,,,,,,,
null,,color_black7,1488707,,,,,,,,black_plus_sign,,,null,,,,,,,,,,,,,,,,,,,,,,,
null,,learn_phase(without_color)7,1492209,,,,,,,,black_plus_sign,,,null,object_09c.png,object_04c.png,,,,,,,,,,,,,,,,,,,,,
null,,black_cross(without_color)7,1493194,,,,,,,,blue,,,null,object_09c.png,object_04c.png,,,,,,,,,,,,,,,,,,,,,
null,,rt_plussign_withcolor7,1493696,,,,,,,,blue,,,null,object_09c.png,object_04c.png,,,,,,,,,,,,,,,,,,,,,
1082.5,,rt_thecrossant_black7,1494717,,,,,,,,black_plus_sign,,,49,,,1,,,,,,,1,,,,,,,,,,,,,
null,,color_black7,1494819,,,,,,,,black_plus_sign,,,null,,,,,,,,,,,,,,,,,,,,,,,
null,,learn_phase(without_color)7,1498322,,,,,,,,black_plus_sign,,,null,object_01c.png,object_15c.png,,,,,,,,,,,,,,,,,,,,,
null,,black_cross(without_color)7,1499321,,,,,,,,blue,,,null,object_01c.png,object_15c.png,,,,,,,,,,,,,,,,,,,,,
null,,rt_plussign_withcolor7,1499823,,,,,,,,blue,,,null,object_01c.png,object_15c.png,,,,,,,,,,,,,,,,,,,,,
1725.8000000044703,,rt_thecrossant_black7,1500828,,,,,,,,black_plus_sign,,,49,,,1,,,,,,,1,,,,,,,,,,,,,
null,,color_black7,1500929,,,,,,,,black_plus_sign,,,null,,,,,,,,,,,,,,,,,,,,,,,
null,,learn_phase(without_color)7,1504431,,,,,,,,black_plus_sign,,,null,object_14a.png,object_11c.png,,,,,,,,,,,,,,,,,,,,,
null,,black_cross(without_color)7,1505306,,,,,,,,green,,,null,object_14a.png,object_11c.png,,,,,,,,,,,,,,,,,,,,,
null,,rt_plussign_withcolor7,1505809,,,,,,,,green,,,null,object_14a.png,object_11c.png,,,,,,,,,,,,,,,,,,,,,
1428.8000000044703,,rt_thecrossant_black7,1506952,,,,,,,,black_plus_sign,,,50,,,1,,,,,,,1,,,,,,,,,,,,,
null,,color_black7,1507054,,,,,,,,black_plus_sign,,,null,,,,,,,,,,,,,,,,,,,,,,,
null,,learn_phase(without_color)7,1510557,,,,,,,,black_plus_sign,,,null,object_03c.png,object_10a.png,,,,,,,,,,,,,,,,,,,,,
null,,black_cross(without_color)7,1511052,,,,,,,,green,,,null,object_03c.png,object_10a.png,,,,,,,,,,,,,,,,,,,,,
null,,rt_plussign_withcolor7,1511554,,,,,,,,green,,,null,object_03c.png,object_10a.png,,,,,,,,,,,,,,,,,,,,,
1844.5,,rt_thecrossant_black7,1513062,,,,,,,,black_plus_sign,,,50,,,1,,,,,,,1,,,,,,,,,,,,,
null,,color_black7,1513165,,,,,,,,black_plus_sign,,,null,,,,,,,,,,,,,,,,,,,,,,,
null,,learn_phase(without_color)7,1516668,,,,,,,,black_plus_sign,,,null,object_15a.png,object_13c.png,,,,,,,,,,,,,,,,,,,,,
null,,black_cross(without_color)7,1517657,,,,,,,,blue,,,null,object_15a.png,object_13c.png,,,,,,,,,,,,,,,,,,,,,
null,,rt_plussign_withcolor7,1518159,,,,,,,,blue,,,null,object_15a.png,object_13c.png,,,,,,,,,,,,,,,,,,,,,
1188.5999999940395,,rt_thecrossant_black7,1519173,,,,,,,,black_plus_sign,,,49,,,1,,,,,,,1,,,,,,,,,,,,,
null,,color_black7,1519274,,,,,,,,black_plus_sign,,,null,,,,,,,,,,,,,,,,,,,,,,,
null,,learn_phase(without_color)7,1522776,,,,,,,,black_plus_sign,,,null,object_06a.png,object_13b.png,,,,,,,,,,,,,,,,,,,,,
null,,black_cross(without_color)7,1523307,,,,,,,,blue,,,null,object_06a.png,object_13b.png,,,,,,,,,,,,,,,,,,,,,
null,,rt_plussign_withcolor7,1523809,,,,,,,,blue,,,null,object_06a.png,object_13b.png,,,,,,,,,,,,,,,,,,,,,
1760.7999999970198,,rt_thecrossant_black7,1525282,,,,,,,,black_plus_sign,,,49,,,1,,,,,,,1,,,,,,,,,,,,,
null,,color_black7,1525383,,,,,,,,black_plus_sign,,,null,,,,,,,,,,,,,,,,,,,,,,,
null,,learn_phase(without_color)7,1528886,,,,,,,,black_plus_sign,,,null,object_14c.png,object_15b.png,,,,,,,,,,,,,,,,,,,,,
null,,black_cross(without_color)7,1529752,,,,,,,,green,,,null,object_14c.png,object_15b.png,,,,,,,,,,,,,,,,,,,,,
null,,rt_plussign_withcolor7,1530253,,,,,,,,green,,,null,object_14c.png,object_15b.png,,,,,,,,,,,,,,,,,,,,,
922.6000000014901,,rt_thecrossant_black7,1531391,,,,,,,,black_plus_sign,,,50,,,1,,,,,,,1,,,,,,,,,,,,,
null,,color_black7,1531494,,,,,,,,black_plus_sign,,,null,,,,,,,,,,,,,,,,,,,,,,,
null,,thebreak,1531596,,,,,,,,<p></p>,,,null,,,,,,,,,,,,,,,,,,,,,,,
1580.3999999985099,,intro_0,1533177,,,,,,,,instruct,,,32,,,,,,,,,,,,,,,,,,,,,,,
3808.60000000149,,directmemory_phase7,1536986,,,,,,,,object_10a.png,,,50,,,1,,object_04b.png,object_03c.png,object_11b.png,object_03c.png,,0.8131868131868132,,1,,,,,,,,,,,
2535.5999999940395,,directmemory_phase7,1539523,,,,,,,,object_15b.png,,,49,,,1,,object_14c.png,object_02c.png,object_14b.png,object_14c.png,,0.8152173913043478,,1,,,,,,,,,,,
1970.1000000014901,,directmemory_phase7,1541495,,,,,,,,object_06b.png,,,49,,,1,,object_02c.png,object_11b.png,object_09a.png,object_02c.png,,0.8172043010752689,,1,,,,,,,,,,,
2429.5,,directmemory_phase7,1543926,,,,,,,,object_07c.png,,,50,,,1,,object_14c.png,object_01b.png,object_14a.png,object_01b.png,,0.8191489361702128,,1,,,,,,,,,,,
4054,,directmemory_phase7,1547981,,,,,,,,object_13c.png,,,51,,,1,,object_02c.png,object_03c.png,object_15a.png,object_15a.png,,0.8210526315789474,,1,,,,,,,,,,,
2961,,directmemory_phase7,1550943,,,,,,,,object_13b.png,,,50,,,1,,object_04b.png,object_06a.png,object_09c.png,object_06a.png,,0.8229166666666666,,1,,,,,,,,,,,
2030.5,,directmemory_phase7,1552975,,,,,,,,object_04c.png,,,49,,,1,,object_09c.png,object_06a.png,object_04b.png,object_09c.png,,0.8247422680412371,,1,,,,,,,,,,,
3324.2999999970198,,directmemory_phase7,1556301,,,,,,,,object_03b.png,,,51,,,1,,object_09c.png,object_01c.png,object_11b.png,object_11b.png,,0.826530612244898,,1,,,,,,,,,,,
2105.3000000044703,,directmemory_phase7,1558408,,,,,,,,object_11c.png,,,51,,,1,,object_12a.png,object_03c.png,object_14a.png,object_14a.png,,0.8282828282828283,,1,,,,,,,,,,,
3835,,directmemory_phase7,1562246,,,,,,,,object_05a.png,,,51,,,1,,object_12a.png,object_06a.png,object_14b.png,object_14b.png,,0.83,,1,,,,,,,,,,,
3741.4000000059605,,directmemory_phase7,1565989,,,,,,,,object_08a.png,,,51,,,1,,object_06a.png,object_11b.png,object_04b.png,object_04b.png,,0.8316831683168316,,1,,,,,,,,,,,
2836.7999999970198,,directmemory_phase7,1568827,,,,,,,,object_08b.png,,,49,,,1,,object_09b.png,object_02c.png,object_03c.png,object_09b.png,,0.8333333333333334,,1,,,,,,,,,,,
4516,,directmemory_phase7,1573345,,,,,,,,object_01a.png,,,49,,,1,,object_09a.png,object_02c.png,object_11b.png,object_09a.png,,0.8349514563106796,,1,,,,,,,,,,,
4510.39999999851,,directmemory_phase7,1577857,,,,,,,,object_15c.png,,,49,,,0,,object_01b.png,object_01c.png,object_09b.png,object_01c.png,,0.8269230769230769,,0,,,,,,,,,,,
3256.1999999955297,,directmemory_phase7,1581114,,,,,,,,object_12b.png,,,49,,,1,,object_12a.png,object_01b.png,object_14c.png,object_12a.png,,0.8285714285714286,,1,,,,,,,,,,,
null,,thebreak,1581216,,,,,,,,<p></p>,,,null,,,,,,,,,,,,,,,,,,,,,,,
3932,,intro_0,1585150,,,,,,,,instruct,,,32,,,,,,,,,,,,,,,,,,,,,,,
null,,learn_phase(without_color)8,1588652,,,,,,,,black_plus_sign,,,null,object_01b.png,object_07c.png,,,,,,,,,,,,,,,,,,,,,
null,,black_cross(without_color)8,1589647,,,,,,,,blue,,,null,object_01b.png,object_07c.png,,,,,,,,,,,,,,,,,,,,,
null,,rt_plussign_withcolor8,1590149,,,,,,,,blue,,,null,object_01b.png,object_07c.png,,,,,,,,,,,,,,,,,,,,,
1358.1000000014901,,rt_thecrossant_black8,1591159,,,,,,,,black_plus_sign,,,49,,,1,,,,,,,1,,,,,,,,,,,,,
null,,color_black8,1591262,,,,,,,,black_plus_sign,,,null,,,,,,,,,,,,,,,,,,,,,,,
null,,learn_phase(without_color)8,1594764,,,,,,,,black_plus_sign,,,null,object_09a.png,object_01a.png,,,,,,,,,,,,,,,,,,,,,
null,,black_cross(without_color)8,1595681,,,,,,,,blue,,,null,object_09a.png,object_01a.png,,,,,,,,,,,,,,,,,,,,,
null,,rt_plussign_withcolor8,1596182,,,,,,,,blue,,,null,object_09a.png,object_01a.png,,,,,,,,,,,,,,,,,,,,,
1432.3999999985099,,rt_thecrossant_black8,1597269,,,,,,,,black_plus_sign,,,49,,,1,,,,,,,1,,,,,,,,,,,,,
null,,color_black8,1597371,,,,,,,,black_plus_sign,,,null,,,,,,,,,,,,,,,,,,,,,,,
null,,learn_phase(without_color)8,1600874,,,,,,,,black_plus_sign,,,null,object_04b.png,object_08a.png,,,,,,,,,,,,,,,,,,,,,
null,,black_cross(without_color)8,1601411,,,,,,,,green,,,null,object_04b.png,object_08a.png,,,,,,,,,,,,,,,,,,,,,
null,,rt_plussign_withcolor8,1601913,,,,,,,,green,,,null,object_04b.png,object_08a.png,,,,,,,,,,,,,,,,,,,,,
1486.2000000029802,,rt_thecrossant_black8,1603393,,,,,,,,black_plus_sign,,,50,,,1,,,,,,,1,,,,,,,,,,,,,
null,,color_black8,1603497,,,,,,,,black_plus_sign,,,null,,,,,,,,,,,,,,,,,,,,,,,
null,,learn_phase(without_color)8,1606999,,,,,,,,black_plus_sign,,,null,object_02c.png,object_06b.png,,,,,,,,,,,,,,,,,,,,,
null,,black_cross(without_color)8,1607463,,,,,,,,blue,,,null,object_02c.png,object_06b.png,,,,,,,,,,,,,,,,,,,,,
null,,rt_plussign_withcolor8,1607965,,,,,,,,blue,,,null,object_02c.png,object_06b.png,,,,,,,,,,,,,,,,,,,,,
1097.6000000014901,,rt_thecrossant_black8,1609506,,,,,,,,black_plus_sign,,,49,,,1,,,,,,,1,,,,,,,,,,,,,
null,,color_black8,1609607,,,,,,,,black_plus_sign,,,null,,,,,,,,,,,,,,,,,,,,,,,
null,,learn_phase(without_color)8,1613109,,,,,,,,black_plus_sign,,,null,object_01c.png,object_15c.png,,,,,,,,,,,,,,,,,,,,,
null,,black_cross(without_color)8,1614023,,,,,,,,blue,,,null,object_01c.png,object_15c.png,,,,,,,,,,,,,,,,,,,,,
null,,rt_plussign_withcolor8,1614524,,,,,,,,blue,,,null,object_01c.png,object_15c.png,,,,,,,,,,,,,,,,,,,,,
988.7000000029802,,rt_thecrossant_black8,1615616,,,,,,,,black_plus_sign,,,49,,,1,,,,,,,1,,,,,,,,,,,,,
null,,color_black8,1615719,,,,,,,,black_plus_sign,,,null,,,,,,,,,,,,,,,,,,,,,,,
null,,learn_phase(without_color)8,1619221,,,,,,,,black_plus_sign,,,null,object_06a.png,object_13b.png,,,,,,,,,,,,,,,,,,,,,
null,,black_cross(without_color)8,1619864,,,,,,,,green,,,null,object_06a.png,object_13b.png,,,,,,,,,,,,,,,,,,,,,
null,,rt_plussign_withcolor8,1620366,,,,,,,,green,,,null,object_06a.png,object_13b.png,,,,,,,,,,,,,,,,,,,,,
1640.7999999970198,,rt_thecrossant_black8,1621728,,,,,,,,black_plus_sign,,,50,,,1,,,,,,,1,,,,,,,,,,,,,
null,,color_black8,1621830,,,,,,,,black_plus_sign,,,null,,,,,,,,,,,,,,,,,,,,,,,
null,,learn_phase(without_color)8,1625331,,,,,,,,black_plus_sign,,,null,object_09c.png,object_04c.png,,,,,,,,,,,,,,,,,,,,,
null,,black_cross(without_color)8,1625813,,,,,,,,green,,,null,object_09c.png,object_04c.png,,,,,,,,,,,,,,,,,,,,,
null,,rt_plussign_withcolor8,1626315,,,,,,,,green,,,null,object_09c.png,object_04c.png,,,,,,,,,,,,,,,,,,,,,
965.2000000029802,,rt_thecrossant_black8,1627836,,,,,,,,black_plus_sign,,,50,,,1,,,,,,,1,,,,,,,,,,,,,
null,,color_black8,1627938,,,,,,,,black_plus_sign,,,null,,,,,,,,,,,,,,,,,,,,,,,
null,,learn_phase(without_color)8,1631440,,,,,,,,black_plus_sign,,,null,object_12a.png,object_12b.png,,,,,,,,,,,,,,,,,,,,,
null,,black_cross(without_color)8,1631871,,,,,,,,green,,,null,object_12a.png,object_12b.png,,,,,,,,,,,,,,,,,,,,,
null,,rt_plussign_withcolor8,1632372,,,,,,,,green,,,null,object_12a.png,object_12b.png,,,,,,,,,,,,,,,,,,,,,
728.7000000029802,,rt_thecrossant_black8,1633946,,,,,,,,black_plus_sign,,,50,,,1,,,,,,,1,,,,,,,,,,,,,
null,,color_black8,1634048,,,,,,,,black_plus_sign,,,null,,,,,,,,,,,,,,,,,,,,,,,
null,,learn_phase(without_color)8,1637551,,,,,,,,black_plus_sign,,,null,object_11b.png,object_03b.png,,,,,,,,,,,,,,,,,,,,,
null,,black_cross(without_color)8,1638321,,,,,,,,green,,,null,object_11b.png,object_03b.png,,,,,,,,,,,,,,,,,,,,,
null,,rt_plussign_withcolor8,1638822,,,,,,,,green,,,null,object_11b.png,object_03b.png,,,,,,,,,,,,,,,,,,,,,
849.3000000044703,,rt_thecrossant_black8,1640058,,,,,,,,black_plus_sign,,,50,,,1,,,,,,,1,,,,,,,,,,,,,
null,,color_black8,1640161,,,,,,,,black_plus_sign,,,null,,,,,,,,,,,,,,,,,,,,,,,
null,,learn_phase(without_color)8,1643664,,,,,,,,black_plus_sign,,,null,object_14c.png,object_15b.png,,,,,,,,,,,,,,,,,,,,,
null,,black_cross(without_color)8,1644202,,,,,,,,blue,,,null,object_14c.png,object_15b.png,,,,,,,,,,,,,,,,,,,,,
null,,rt_plussign_withcolor8,1644703,,,,,,,,blue,,,null,object_14c.png,object_15b.png,,,,,,,,,,,,,,,,,,,,,
1215,,rt_thecrossant_black8,1646178,,,,,,,,black_plus_sign,,,49,,,1,,,,,,,1,,,,,,,,,,,,,
null,,color_black8,1646280,,,,,,,,black_plus_sign,,,null,,,,,,,,,,,,,,,,,,,,,,,
null,,learn_phase(without_color)8,1649783,,,,,,,,black_plus_sign,,,null,object_09b.png,object_08b.png,,,,,,,,,,,,,,,,,,,,,
null,,black_cross(without_color)8,1650747,,,,,,,,blue,,,null,object_09b.png,object_08b.png,,,,,,,,,,,,,,,,,,,,,
null,,rt_plussign_withcolor8,1651249,,,,,,,,blue,,,null,object_09b.png,object_08b.png,,,,,,,,,,,,,,,,,,,,,
849.1000000014901,,rt_thecrossant_black8,1652288,,,,,,,,black_plus_sign,,,49,,,1,,,,,,,1,,,,,,,,,,,,,
null,,color_black8,1652390,,,,,,,,black_plus_sign,,,null,,,,,,,,,,,,,,,,,,,,,,,
null,,learn_phase(without_color)8,1655893,,,,,,,,black_plus_sign,,,null,object_14a.png,object_11c.png,,,,,,,,,,,,,,,,,,,,,
null,,black_cross(without_color)8,1656881,,,,,,,,green,,,null,object_14a.png,object_11c.png,,,,,,,,,,,,,,,,,,,,,
null,,rt_plussign_withcolor8,1657384,,,,,,,,green,,,null,object_14a.png,object_11c.png,,,,,,,,,,,,,,,,,,,,,
1665.5,,rt_thecrossant_black8,1658410,,,,,,,,black_plus_sign,,,50,,,1,,,,,,,1,,,,,,,,,,,,,
null,,color_black8,1658511,,,,,,,,black_plus_sign,,,null,,,,,,,,,,,,,,,,,,,,,,,
null,,learn_phase(without_color)8,1662014,,,,,,,,black_plus_sign,,,null,object_14b.png,object_05a.png,,,,,,,,,,,,,,,,,,,,,
null,,black_cross(without_color)8,1662515,,,,,,,,blue,,,null,object_14b.png,object_05a.png,,,,,,,,,,,,,,,,,,,,,
null,,rt_plussign_withcolor8,1663016,,,,,,,,blue,,,null,object_14b.png,object_05a.png,,,,,,,,,,,,,,,,,,,,,
1407.5,,rt_thecrossant_black8,1664519,,,,,,,,black_plus_sign,,,49,,,1,,,,,,,1,,,,,,,,,,,,,
null,,color_black8,1664622,,,,,,,,black_plus_sign,,,null,,,,,,,,,,,,,,,,,,,,,,,
null,,learn_phase(without_color)8,1668139,,,,,,,,black_plus_sign,,,null,object_03c.png,object_10a.png,,,,,,,,,,,,,,,,,,,,,
null,,black_cross(without_color)8,1668571,,,,,,,,blue,,,null,object_03c.png,object_10a.png,,,,,,,,,,,,,,,,,,,,,
null,,rt_plussign_withcolor8,1669074,,,,,,,,blue,,,null,object_03c.png,object_10a.png,,,,,,,,,,,,,,,,,,,,,
1355.8999999985099,,rt_thecrossant_black8,1670649,,,,,,,,black_plus_sign,,,49,,,1,,,,,,,1,,,,,,,,,,,,,
null,,color_black8,1670752,,,,,,,,black_plus_sign,,,null,,,,,,,,,,,,,,,,,,,,,,,
null,,learn_phase(without_color)8,1674254,,,,,,,,black_plus_sign,,,null,object_15a.png,object_13c.png,,,,,,,,,,,,,,,,,,,,,
null,,black_cross(without_color)8,1675228,,,,,,,,blue,,,null,object_15a.png,object_13c.png,,,,,,,,,,,,,,,,,,,,,
null,,rt_plussign_withcolor8,1675730,,,,,,,,blue,,,null,object_15a.png,object_13c.png,,,,,,,,,,,,,,,,,,,,,
1179.7000000029802,,rt_thecrossant_black8,1676760,,,,,,,,black_plus_sign,,,49,,,1,,,,,,,1,,,,,,,,,,,,,
null,,color_black8,1676863,,,,,,,,black_plus_sign,,,null,,,,,,,,,,,,,,,,,,,,,,,
null,,thebreak,1676966,,,,,,,,<p></p>,,,null,,,,,,,,,,,,,,,,,,,,,,,
1477.0999999940395,,intro_0,1678444,,,,,,,,instruct,,,32,,,,,,,,,,,,,,,,,,,,,,,
2371,,directmemory_phase8,1680815,,,,,,,,object_15b.png,,,49,,,1,,object_14c.png,object_09b.png,object_03c.png,object_14c.png,,0.8301886792452831,,1,,,,,,,,,,,
2773.10000000149,,directmemory_phase8,1683590,,,,,,,,object_10a.png,,,51,,,1,,object_02c.png,object_09b.png,object_03c.png,object_03c.png,,0.8317757009345794,,1,,,,,,,,,,,
1975,,directmemory_phase8,1685566,,,,,,,,object_06b.png,,,49,,,1,,object_02c.png,object_14c.png,object_03c.png,object_02c.png,,0.8333333333333334,,1,,,,,,,,,,,
3129,,directmemory_phase8,1688697,,,,,,,,object_01a.png,,,50,,,1,,object_11b.png,object_09a.png,object_04b.png,object_09a.png,,0.8348623853211009,,1,,,,,,,,,,,
5293.9000000059605,,directmemory_phase8,1693992,,,,,,,,object_13b.png,,,51,,,1,,object_03c.png,object_14c.png,object_06a.png,object_06a.png,,0.8363636363636363,,1,,,,,,,,,,,
3382.4000000059605,,directmemory_phase8,1697376,,,,,,,,object_15c.png,,,49,,,1,,object_01c.png,object_14c.png,object_12a.png,object_01c.png,,0.8378378378378378,,1,,,,,,,,,,,
2038.3000000044703,,directmemory_phase8,1699416,,,,,,,,object_04c.png,,,49,,,1,,object_09c.png,object_09a.png,object_12a.png,object_09c.png,,0.8392857142857143,,1,,,,,,,,,,,
2631.0999999940395,,directmemory_phase8,1702049,,,,,,,,object_05a.png,,,49,,,1,,object_14b.png,object_12a.png,object_01b.png,object_14b.png,,0.8407079646017699,,1,,,,,,,,,,,
2828.4000000059605,,directmemory_phase8,1704880,,,,,,,,object_03b.png,,,50,,,1,,object_09b.png,object_11b.png,object_14b.png,object_11b.png,,0.8421052631578947,,1,,,,,,,,,,,
1882.5999999940395,,directmemory_phase8,1706764,,,,,,,,object_07c.png,,,49,,,1,,object_01b.png,object_06a.png,object_14b.png,object_01b.png,,0.8434782608695652,,1,,,,,,,,,,,
5021.79999999702,,directmemory_phase8,1711788,,,,,,,,object_13c.png,,,49,,,1,,object_15a.png,object_01c.png,object_02c.png,object_15a.png,,0.8448275862068966,,1,,,,,,,,,,,
2368.10000000149,,directmemory_phase8,1714157,,,,,,,,object_08b.png,,,51,,,1,,object_03c.png,object_06a.png,object_09b.png,object_09b.png,,0.8461538461538461,,1,,,,,,,,,,,
2687.5,,directmemory_phase8,1716847,,,,,,,,object_08a.png,,,50,,,1,,object_11b.png,object_04b.png,object_09a.png,object_04b.png,,0.847457627118644,,1,,,,,,,,,,,
2086,,directmemory_phase8,1718934,,,,,,,,object_12b.png,,,49,,,1,,object_12a.png,object_14b.png,object_04b.png,object_12a.png,,0.8487394957983193,,1,,,,,,,,,,,
2024,,directmemory_phase8,1720960,,,,,,,,object_11c.png,,,51,,,1,,object_11b.png,object_09b.png,object_14a.png,object_14a.png,,0.85,,1,,,,,,,,,,,
null,,thebreak,1721063,,,,,,,,<p></p>,,,null,,,,,,,,,,,,,,,,,,,,,,,
20695,,intro_0,1741759,,,,,,,,instruct,,,32,,,,,,,,,,,,,,,,,,,,,,,
43684.5,,intro_1,1785445,,,,,,,,instruct,,,32,,,,,,,,,,,,,,,,,,,,,,,
10672.89999999851,,intro_2,1796118,,,,,,,,instruct,,,32,,,,,,,,,,,,,,,,,,,,,,,
,,intro_3,1836313,,,,,,,,instruct,,,,,,,,,,,,,,,,,,,,,,,,,,
10311,,intro_4,1846625,,,,,,,,instruct,,,32,,,,,,,,,,,,,,,,,,,,,,,
null,,thebreak,1846727,,,,,,,,<p></p>,,,null,,,,,,,,,,,,,,,,,,,,,,,
3933.5999999940395,,intro_0,1850661,,,,,,,,instruct,,,32,,,,,,,,,,,,,,,,,,,,,,,
13674.30000000447,,intro_1,1864336,,,,,,,,instruct,,,32,,,,,,,,,,,,,,,,,,,,,,,
3553.2999999970198,,intro_2,1867890,,,,,,,,instruct,,,32,,,,,,,,,,,,,,,,,,,,,,,
,,intro_3,1881470,,,,,,,,instruct,,,,,,,,,,,,,,,,,,,,,,,,,,
5387.69999999553,,intro_4,1886859,,,,,,,,instruct,,,32,,,,,,,,,,,,,,,,,,,,,,,
9126,,inference_phase,1895986,,,,,,,,object_15c.png,,,50,object_03a.png,object_08c.png,1,,,,,object_11a.png,,1,,,object_11a.png,,,,,,,,,,
6337.5,,inference_phase,1902326,,,,,,,,object_12b.png,,,49,object_07a.png,object_08c.png,1,,,,,object_07a.png,,1,,,object_02a.png,,,,,,,,,,
7253,,inference_phase,1909580,,,,,,,,object_11c.png,,,50,object_08c.png,object_11a.png,1,,,,,object_05b.png,,1,,,object_05b.png,,,,,,,,,,
7271.39999999851,,inference_phase,1916853,,,,,,,,object_03b.png,,,51,object_07a.png,object_10b.png,1,,,,,object_10b.png,,1,,,object_13a.png,,,,,,,,,,
5831.30000000447,,inference_phase,1922686,,,,,,,,object_10a.png,,,49,object_06c.png,object_02b.png,0,,,,,object_13a.png,,0.8,,,object_13a.png,,,,,,,,,,
6315.20000000298,,inference_phase,1929004,,,,,,,,object_15b.png,,,51,object_10b.png,object_03a.png,1,,,,,object_03a.png,,0.8333333333333334,,,object_12c.png,,,,,,,,,,
