rt,responses,trial_type,time_elapsed,identifier_a,identifier_b,identifier_c,tasktype,browser_type,local_time,UTC_time,stimulus,button_pressed,response,key_press,stimulus_left,stimulus_right,accuracy,practice_cumulative_accuracy,stimulus_down_left,stimulus_down_mid,stimulus_down_right,stimulus_correct,prac_weighted_accuracy,cumulative_accuracy,weighted_accuracy,stimulus_middle,problems,smooth,distraction,strategies,easier,similar,comments,detectfocus,breakfocus,completion_code
11957,{worker_id:67cf70ec9741a100ffc7f570},id_enter,11962,object_07b.png; object_12b.png; object_02b.png; object_04b.png; object_03c.png; object_04a.png; object_13b.png; object_09a.png; object_02a.png; object_14b.png; object_11c.png; object_10c.png; object_13a.png; object_08b.png; object_11a.png,object_05c.png; object_01a.png; object_09c.png; object_11b.png; object_12c.png; object_07a.png; object_13c.png; object_02c.png; object_03a.png; object_06a.png; object_05b.png; object_03b.png; object_07c.png; object_01c.png; object_15b.png,object_06c.png; object_08c.png; object_14c.png; object_05a.png; object_06b.png; object_09b.png; object_15c.png; object_04c.png; object_01b.png; object_10b.png; object_14a.png; object_08a.png; object_12a.png; object_15a.png; object_10a.png,blocked,Mozilla/5.0 (Windows NT 10.0; Win64; x64) AppleWebKit/537.36 (KHTML, like Gecko) Chrome/134.0.0.0 Safari/537.36,5/11/2025, 6:56:11 PM,2025-05-11 23:56:11.013,,,,,,,,,,,,,,,,,,,,,,,,,,
5993.5,,make_fullscreen,17973,,,,,,,,fullscreen,0,,,,,,,,,,,,,,,,,,,,,,,,
1785.800000011921,,instruct_1,19764,,,,,,,,instruct,0,Next,,,,,,,,,,,,,,,,,,,,,,,
1436.7999999970198,,instruct_2,21205,,,,,,,,instruct,1,Next,,,,,,,,,,,,,,,,,,,,,,,
1274.2999999970198,,instruct_3,22483,,,,,,,,instruct,1,Next,,,,,,,,,,,,,,,,,,,,,,,
3542.7000000029802,,instruct_4,26029,,,,,,,,instruct,1,Next,,,,,,,,,,,,,,,,,,,,,,,
2014.3999999910593,,instruct_5,28046,,,,,,,,instruct,1,Next,,,,,,,,,,,,,,,,,,,,,,,
1009.7000000029802,,instruct_6,29059,,,,,,,,instruct,1,Next,,,,,,,,,,,,,,,,,,,,,,,
1286.9000000059605,,instruct_7,30350,,,,,,,,instruct,1,Next,,,,,,,,,,,,,,,,,,,,,,,
null,,prac_atten_color_black,31255,,,,,,,,black_plus_sign,,,null,,,,,,,,,,,,,,,,,,,,,,
0.5999999940395355,,prac_atten_color,31771,,,,,,,,<p style='position:absolute;top: 50%;right: 50%;transform: translate(50%, -50%);font-size: 125px;color: blue;'>+</p>,,,50,,,,,,,,,,,,,,,,,,,,,,
30.700000002980232,,prac_atten_color_black,33777,,,,,,,,black_plus_sign,,,49,,,,,,,,,,,,,,,,,,,,,,
null,,prac_atten_color_black,34678,,,,,,,,black_plus_sign,,,null,,,,,,,,,,,,,,,,,,,,,,
345.29999999701977,,prac_atten_color,35538,,,,,,,,<p style='position:absolute;top: 50%;right: 50%;transform: translate(50%, -50%);font-size: 125px;color: green;'>+</p>,,,50,,,,,,,,,,,,,,,,,,,,,,
null,,prac_atten_color_black,37541,,,,,,,,black_plus_sign,,,null,,,,,,,,,,,,,,,,,,,,,,
null,,prac_atten_color_black,38102,,,,,,,,black_plus_sign,,,null,,,,,,,,,,,,,,,,,,,,,,
509.70000000298023,,prac_atten_color,39024,,,,,,,,<p style='position:absolute;top: 50%;right: 50%;transform: translate(50%, -50%);font-size: 125px;color: green;'>+</p>,,,50,,,,,,,,,,,,,,,,,,,,,,
null,,prac_atten_color_black,41031,,,,,,,,black_plus_sign,,,null,,,,,,,,,,,,,,,,,,,,,,
null,,prac_atten_color_black,41530,,,,,,,,black_plus_sign,,,null,,,,,,,,,,,,,,,,,,,,,,
null,,prac_atten_color,42014,,,,,,,,<p style='position:absolute;top: 50%;right: 50%;transform: translate(50%, -50%);font-size: 125px;color: blue;'>+</p>,,,null,,,,,,,,,,,,,,,,,,,,,,
49.3999999910593,,prac_atten_color_black,44019,,,,,,,,black_plus_sign,,,49,,,,,,,,,,,,,,,,,,,,,,
null,,prac_atten_color_black,44953,,,,,,,,black_plus_sign,,,null,,,,,,,,,,,,,,,,,,,,,,
438.70000000298023,,prac_atten_color,46032,,,,,,,,<p style='position:absolute;top: 50%;right: 50%;transform: translate(50%, -50%);font-size: 125px;color: green;'>+</p>,,,50,,,,,,,,,,,,,,,,,,,,,,
null,,prac_atten_color_black,48047,,,,,,,,black_plus_sign,,,null,,,,,,,,,,,,,,,,,,,,,,
null,,prac_atten_color_black,48391,,,,,,,,black_plus_sign,,,null,,,,,,,,,,,,,,,,,,,,,,
609.4000000059605,,prac_atten_color,49112,,,,,,,,<p style='position:absolute;top: 50%;right: 50%;transform: translate(50%, -50%);font-size: 125px;color: green;'>+</p>,,,49,,,,,,,,,,,,,,,,,,,,,,
159.8999999910593,,prac_atten_color_black,51128,,,,,,,,black_plus_sign,,,50,,,,,,,,,,,,,,,,,,,,,,
null,,prac_atten_color_black,51830,,,,,,,,black_plus_sign,,,null,,,,,,,,,,,,,,,,,,,,,,
378,,prac_atten_color,52661,,,,,,,,<p style='position:absolute;top: 50%;right: 50%;transform: translate(50%, -50%);font-size: 125px;color: blue;'>+</p>,,,49,,,,,,,,,,,,,,,,,,,,,,
null,,prac_atten_color_black,54667,,,,,,,,black_plus_sign,,,null,,,,,,,,,,,,,,,,,,,,,,
null,,prac_atten_color_black,55260,,,,,,,,black_plus_sign,,,null,,,,,,,,,,,,,,,,,,,,,,
477.29999999701977,,prac_atten_color,56351,,,,,,,,<p style='position:absolute;top: 50%;right: 50%;transform: translate(50%, -50%);font-size: 125px;color: green;'>+</p>,,,50,,,,,,,,,,,,,,,,,,,,,,
null,,prac_atten_color_black,58366,,,,,,,,black_plus_sign,,,null,,,,,,,,,,,,,,,,,,,,,,
null,,prac_atten_color_black,58695,,,,,,,,black_plus_sign,,,null,,,,,,,,,,,,,,,,,,,,,,
null,,prac_atten_color,59257,,,,,,,,<p style='position:absolute;top: 50%;right: 50%;transform: translate(50%, -50%);font-size: 125px;color: blue;'>+</p>,,,null,,,,,,,,,,,,,,,,,,,,,,
74.80000001192093,,prac_atten_color_black,61270,,,,,,,,black_plus_sign,,,49,,,,,,,,,,,,,,,,,,,,,,
null,,prac_atten_color_black,62133,,,,,,,,black_plus_sign,,,null,,,,,,,,,,,,,,,,,,,,,,
427.40000000596046,,prac_atten_color,62899,,,,,,,,<p style='position:absolute;top: 50%;right: 50%;transform: translate(50%, -50%);font-size: 125px;color: blue;'>+</p>,,,50,,,,,,,,,,,,,,,,,,,,,,
null,,prac_atten_color_black,64904,,,,,,,,black_plus_sign,,,null,,,,,,,,,,,,,,,,,,,,,,
3736.7000000029802,,attentioncheck_feedback,68645,,,,,,,,cross_check_feedback,0,,,,,,,,,,,,,,,,,,,,,,,,
964.5,,last_instruct,69611,,,,,,,,instruct,,,32,,,,,,,,,,,,,,,,,,,,,,
null,,prac_learn_phase(without_color),73129,,,,,,,,black_plus_sign,,,null,object_04b.png,object_11b.png,,,,,,,,,,,,,,,,,,,,
null,,prac_black_cross(without_color),73853,,,,,,,,green,,,null,object_04b.png,object_11b.png,,,,,,,,,,,,,,,,,,,,
null,,prac_rt_plussign_withcolor,74369,,,,,,,,green,,,null,object_04b.png,object_11b.png,,,,,,,,,,,,,,,,,,,,
861.2999999970198,,prac_rt_thecrossant_black,75667,,,,,,,,black_plus_sign,,,50,,,1,1,,,,,,,,,,,,,,,,,,
null,,prac_color_black,75777,,,,,,,,black_plus_sign,,,null,,,,,,,,,,,,,,,,,,,,,,
null,,prac_learn_phase(without_color),79295,,,,,,,,black_plus_sign,,,null,object_13b.png,object_13c.png,,,,,,,,,,,,,,,,,,,,
null,,black_cross(without_color)1,80012,,,,,,,,green,,,null,object_04b.png,object_11b.png,,,,,,,,,,,,,,,,,,,,
490.20000000298023,,prac_rt_plussign_withcolor,80514,,,,,,,,green,,,50,object_13b.png,object_13c.png,,,,,,,,,,,,,,,,,,,,
null,,prac_rt_thecrossant_black,81998,,,,,,,,black_plus_sign,,,null,,,1,1,,,,,,,,,,,,,,,,,,
null,,prac_color_black,82102,,,,,,,,black_plus_sign,,,null,,,,,,,,,,,,,,,,,,,,,,
null,,prac_learn_phase(without_color),85616,,,,,,,,black_plus_sign,,,null,object_07b.png,object_05c.png,,,,,,,,,,,,,,,,,,,,
null,,black_cross(without_color)1,86334,,,,,,,,green,,,null,object_04b.png,object_11b.png,,,,,,,,,,,,,,,,,,,,
509.1000000089407,,prac_rt_plussign_withcolor,86847,,,,,,,,green,,,50,object_07b.png,object_05c.png,,,,,,,,,,,,,,,,,,,,
null,,prac_rt_thecrossant_black,88071,,,,,,,,black_plus_sign,,,null,,,1,1,,,,,,,,,,,,,,,,,,
null,,prac_color_black,88180,,,,,,,,black_plus_sign,,,null,,,,,,,,,,,,,,,,,,,,,,
null,,prac_learn_phase(without_color),91696,,,,,,,,black_plus_sign,,,null,object_14b.png,object_06a.png,,,,,,,,,,,,,,,,,,,,
null,,black_cross(without_color)1,92401,,,,,,,,green,,,null,object_04b.png,object_11b.png,,,,,,,,,,,,,,,,,,,,
null,,prac_rt_plussign_withcolor,92904,,,,,,,,blue,,,null,object_14b.png,object_06a.png,,,,,,,,,,,,,,,,,,,,
1004.2000000029802,,prac_rt_thecrossant_black,94400,,,,,,,,black_plus_sign,,,50,,,0,0.75,,,,,,,,,,,,,,,,,,
null,,prac_color_black,94510,,,,,,,,black_plus_sign,,,null,,,,,,,,,,,,,,,,,,,,,,
19623.5,,instruct_dir_01,114137,,,,,,,,instruct,0,Next,,,,,,,,,,,,,,,,,,,,,,,
1953.0999999940395,,instruct_dir_2,116095,,,,,,,,instruct,1,Next,,,,,,,,,,,,,,,,,,,,,,,
3490.2999999970198,,instruct_dir_3,119589,,,,,,,,instruct,1,Next,,,,,,,,,,,,,,,,,,,,,,,
958,,instruct_dir_4,120551,,,,,,,,instruct,1,Start,,,,,,,,,,,,,,,,,,,,,,,
null,,thebreak,120668,,,,,,,,<p></p>,,,null,,,,,,,,,,,,,,,,,,,,,,
1268.5999999940395,,intro_0,121939,,,,,,,,instruct,,,32,,,,,,,,,,,,,,,,,,,,,,
5182.4000000059605,,prac_directmemory_phase,127124,,,,,,,,practice/object_02b.png,,,51,,,1,,practice/object_03a.png,practice/object_04a.png,practice/object_02a.png,practice/object_02a.png,1,1,,,,,,,,,,,,
5511.9000000059605,,prac_directmemory_phase,132639,,,,,,,,practice/object_04b.png,,,50,,,1,,practice/object_02a.png,practice/object_04a.png,practice/object_03a.png,practice/object_04a.png,1,1,,,,,,,,,,,,
4731.0999999940395,,prac_directmemory_phase,137375,,,,,,,,practice/object_03b.png,,,50,,,1,,practice/object_02a.png,practice/object_03a.png,practice/object_01a.png,practice/object_03a.png,1,1,,,,,,,,,,,,
9686,,prac_directmemory_phase,147065,,,,,,,,practice/object_01b.png,,,49,,,1,,practice/object_01a.png,practice/object_04a.png,practice/object_03a.png,practice/object_01a.png,1,1,,,,,,,,,,,,
13817.79999999702,,practice_feedback,160887,,,,,,,,practice_feedback,1,,,,,,,,,,,,,,,,,,,,,,,,
18919.90000000596,,proceed_actualTask,179810,,,,,,,,proceed_actualTask,1,Continue,,,,,,,,,,,,,,,,,,,,,,,
1338.2999999970198,,last_inst,181151,,,,,,,,last_inst,,,32,,,,,,,,,,,,,,,,,,,,,,
null,,learn_phase(without_color)1,184666,,,,,,,,black_plus_sign,,,null,object_04b.png,object_11b.png,,,,,,,,,,,,,,,,,,,,
null,,black_cross(without_color)1,185382,,,,,,,,green,,,null,object_04b.png,object_11b.png,,,,,,,,,,,,,,,,,,,,
441.70000000298023,,rt_plussign_withcolor1,185898,,,,,,,,green,,,49,object_04b.png,object_11b.png,,,,,,,,,,,,,,,,,,,,
null,,rt_thecrossant_black1,187208,,,,,,,,black_plus_sign,,,50,,,0,,,,,,,0,,,,,,,,,,,,
null,,warning_page,192216,,,,,,,,warning,,,null,,,,,,,,,,,,,,,,,,,,,,
null,,color_black1,192326,,,,,,,,black_plus_sign,,,null,,,,,,,,,,,,,,,,,,,,,,
null,,learn_phase(without_color)1,195835,,,,,,,,black_plus_sign,,,null,object_13b.png,object_13c.png,,,,,,,,,,,,,,,,,,,,
null,,black_cross(without_color)1,196659,,,,,,,,green,,,null,object_13b.png,object_13c.png,,,,,,,,,,,,,,,,,,,,
null,,rt_plussign_withcolor1,197173,,,,,,,,green,,,null,object_13b.png,object_13c.png,,,,,,,,,,,,,,,,,,,,
855.6000000089407,,rt_thecrossant_black1,198366,,,,,,,,black_plus_sign,,,49,,,0,,,,,,,0,,,,,,,,,,,,
null,,warning_page,203377,,,,,,,,warning,,,null,,,,,,,,,,,,,,,,,,,,,,
null,,color_black1,203484,,,,,,,,black_plus_sign,,,null,,,,,,,,,,,,,,,,,,,,,,
null,,learn_phase(without_color)1,206994,,,,,,,,black_plus_sign,,,null,object_07b.png,object_05c.png,,,,,,,,,,,,,,,,,,,,
null,,black_cross(without_color)1,207603,,,,,,,,green,,,null,object_07b.png,object_05c.png,,,,,,,,,,,,,,,,,,,,
null,,rt_plussign_withcolor1,208120,,,,,,,,green,,,null,object_07b.png,object_05c.png,,,,,,,,,,,,,,,,,,,,
927.7000000029802,,rt_thecrossant_black1,209523,,,,,,,,black_plus_sign,,,50,,,1,,,,,,,0.3333333333333333,,,,,,,,,,,,
null,,color_black1,209633,,,,,,,,black_plus_sign,,,null,,,,,,,,,,,,,,,,,,,,,,
null,,learn_phase(without_color)1,213149,,,,,,,,black_plus_sign,,,null,object_14b.png,object_06a.png,,,,,,,,,,,,,,,,,,,,
null,,black_cross(without_color)1,213694,,,,,,,,blue,,,null,object_14b.png,object_06a.png,,,,,,,,,,,,,,,,,,,,
469.69999998807907,,rt_plussign_withcolor1,214198,,,,,,,,blue,,,49,object_14b.png,object_06a.png,,,,,,,,,,,,,,,,,,,,
null,,rt_thecrossant_black1,215685,,,,,,,,black_plus_sign,,,null,,,1,,,,,,,0.5,,,,,,,,,,,,
null,,color_black1,215794,,,,,,,,black_plus_sign,,,null,,,,,,,,,,,,,,,,,,,,,,
null,,learn_phase(without_color)1,219307,,,,,,,,black_plus_sign,,,null,object_12b.png,object_01a.png,,,,,,,,,,,,,,,,,,,,
null,,black_cross(without_color)1,219872,,,,,,,,blue,,,null,object_12b.png,object_01a.png,,,,,,,,,,,,,,,,,,,,
null,,rt_plussign_withcolor1,220387,,,,,,,,blue,,,null,object_12b.png,object_01a.png,,,,,,,,,,,,,,,,,,,,
689.7999999970198,,rt_thecrossant_black1,221851,,,,,,,,black_plus_sign,,,50,,,0,,,,,,,0.4,,,,,,,,,,,,
null,,color_black1,221961,,,,,,,,black_plus_sign,,,null,,,,,,,,,,,,,,,,,,,,,,
null,,learn_phase(without_color)1,225480,,,,,,,,black_plus_sign,,,null,object_11c.png,object_05b.png,,,,,,,,,,,,,,,,,,,,
null,,black_cross(without_color)1,226231,,,,,,,,green,,,null,object_11c.png,object_05b.png,,,,,,,,,,,,,,,,,,,,
null,,rt_plussign_withcolor1,226746,,,,,,,,green,,,null,object_11c.png,object_05b.png,,,,,,,,,,,,,,,,,,,,
724.2000000029802,,rt_thecrossant_black1,228010,,,,,,,,black_plus_sign,,,50,,,1,,,,,,,0.5,,,,,,,,,,,,
null,,color_black1,228119,,,,,,,,black_plus_sign,,,null,,,,,,,,,,,,,,,,,,,,,,
null,,learn_phase(without_color)1,231628,,,,,,,,black_plus_sign,,,null,object_09a.png,object_02c.png,,,,,,,,,,,,,,,,,,,,
null,,black_cross(without_color)1,232301,,,,,,,,green,,,null,object_09a.png,object_02c.png,,,,,,,,,,,,,,,,,,,,
null,,rt_plussign_withcolor1,232816,,,,,,,,green,,,null,object_09a.png,object_02c.png,,,,,,,,,,,,,,,,,,,,
957.5999999940395,,rt_thecrossant_black1,234164,,,,,,,,black_plus_sign,,,49,,,0,,,,,,,0.42857142857142855,,,,,,,,,,,,
null,,color_black1,234273,,,,,,,,black_plus_sign,,,null,,,,,,,,,,,,,,,,,,,,,,
null,,learn_phase(without_color)1,237791,,,,,,,,black_plus_sign,,,null,object_08b.png,object_01c.png,,,,,,,,,,,,,,,,,,,,
null,,black_cross(without_color)1,238826,,,,,,,,green,,,null,object_08b.png,object_01c.png,,,,,,,,,,,,,,,,,,,,
433.59999999403954,,rt_plussign_withcolor1,239332,,,,,,,,green,,,50,object_08b.png,object_01c.png,,,,,,,,,,,,,,,,,,,,
null,,rt_thecrossant_black1,240307,,,,,,,,black_plus_sign,,,null,,,1,,,,,,,0.5,,,,,,,,,,,,
null,,color_black1,240418,,,,,,,,black_plus_sign,,,null,,,,,,,,,,,,,,,,,,,,,,
null,,learn_phase(without_color)1,243929,,,,,,,,black_plus_sign,,,null,object_11a.png,object_15b.png,,,,,,,,,,,,,,,,,,,,
null,,black_cross(without_color)1,244679,,,,,,,,blue,,,null,object_11a.png,object_15b.png,,,,,,,,,,,,,,,,,,,,
null,,rt_plussign_withcolor1,245195,,,,,,,,blue,,,null,object_11a.png,object_15b.png,,,,,,,,,,,,,,,,,,,,
1218.1000000089407,,rt_thecrossant_black1,246479,,,,,,,,black_plus_sign,,,49,,,1,,,,,,,0.5555555555555556,,,,,,,,,,,,
null,,color_black1,246586,,,,,,,,black_plus_sign,,,null,,,,,,,,,,,,,,,,,,,,,,
null,,learn_phase(without_color)1,250099,,,,,,,,black_plus_sign,,,null,object_13a.png,object_07c.png,,,,,,,,,,,,,,,,,,,,
null,,black_cross(without_color)1,250551,,,,,,,,blue,,,null,object_13a.png,object_07c.png,,,,,,,,,,,,,,,,,,,,
null,,rt_plussign_withcolor1,251065,,,,,,,,blue,,,null,object_13a.png,object_07c.png,,,,,,,,,,,,,,,,,,,,
1079.2999999970198,,rt_thecrossant_black1,252647,,,,,,,,black_plus_sign,,,49,,,1,,,,,,,0.6,,,,,,,,,,,,
null,,color_black1,252757,,,,,,,,black_plus_sign,,,null,,,,,,,,,,,,,,,,,,,,,,
null,,learn_phase(without_color)1,256267,,,,,,,,black_plus_sign,,,null,object_02a.png,object_03a.png,,,,,,,,,,,,,,,,,,,,
null,,black_cross(without_color)1,257160,,,,,,,,blue,,,null,object_02a.png,object_03a.png,,,,,,,,,,,,,,,,,,,,
null,,rt_plussign_withcolor1,257678,,,,,,,,blue,,,null,object_02a.png,object_03a.png,,,,,,,,,,,,,,,,,,,,
731.5,,rt_thecrossant_black1,258813,,,,,,,,black_plus_sign,,,49,,,1,,,,,,,0.6363636363636364,,,,,,,,,,,,
null,,color_black1,258922,,,,,,,,black_plus_sign,,,null,,,,,,,,,,,,,,,,,,,,,,
null,,learn_phase(without_color)1,262441,,,,,,,,black_plus_sign,,,null,object_03c.png,object_12c.png,,,,,,,,,,,,,,,,,,,,
null,,black_cross(without_color)1,263471,,,,,,,,blue,,,null,object_03c.png,object_12c.png,,,,,,,,,,,,,,,,,,,,
null,,rt_plussign_withcolor1,263984,,,,,,,,blue,,,null,object_03c.png,object_12c.png,,,,,,,,,,,,,,,,,,,,
1070.2999999970198,,rt_thecrossant_black1,264980,,,,,,,,black_plus_sign,,,49,,,1,,,,,,,0.6666666666666666,,,,,,,,,,,,
null,,color_black1,265090,,,,,,,,black_plus_sign,,,null,,,,,,,,,,,,,,,,,,,,,,
null,,learn_phase(without_color)1,268599,,,,,,,,black_plus_sign,,,null,object_04a.png,object_07a.png,,,,,,,,,,,,,,,,,,,,
null,,black_cross(without_color)1,269128,,,,,,,,blue,,,null,object_04a.png,object_07a.png,,,,,,,,,,,,,,,,,,,,
null,,rt_plussign_withcolor1,269641,,,,,,,,blue,,,null,object_04a.png,object_07a.png,,,,,,,,,,,,,,,,,,,,
1217,,rt_thecrossant_black1,271133,,,,,,,,black_plus_sign,,,49,,,1,,,,,,,0.6923076923076923,,,,,,,,,,,,
null,,color_black1,271242,,,,,,,,black_plus_sign,,,null,,,,,,,,,,,,,,,,,,,,,,
null,,learn_phase(without_color)1,274754,,,,,,,,black_plus_sign,,,null,object_10c.png,object_03b.png,,,,,,,,,,,,,,,,,,,,
null,,black_cross(without_color)1,275538,,,,,,,,green,,,null,object_10c.png,object_03b.png,,,,,,,,,,,,,,,,,,,,
501.5,,rt_plussign_withcolor1,276043,,,,,,,,green,,,50,object_10c.png,object_03b.png,,,,,,,,,,,,,,,,,,,,
null,,rt_thecrossant_black1,277272,,,,,,,,black_plus_sign,,,null,,,1,,,,,,,0.7142857142857143,,,,,,,,,,,,
null,,color_black1,277380,,,,,,,,black_plus_sign,,,null,,,,,,,,,,,,,,,,,,,,,,
null,,learn_phase(without_color)1,280895,,,,,,,,black_plus_sign,,,null,object_02b.png,object_09c.png,,,,,,,,,,,,,,,,,,,,
null,,black_cross(without_color)1,281739,,,,,,,,blue,,,null,object_02b.png,object_09c.png,,,,,,,,,,,,,,,,,,,,
null,,rt_plussign_withcolor1,282255,,,,,,,,blue,,,null,object_02b.png,object_09c.png,,,,,,,,,,,,,,,,,,,,
923.7999999970198,,rt_thecrossant_black1,283435,,,,,,,,black_plus_sign,,,49,,,1,,,,,,,0.7333333333333333,,,,,,,,,,,,
null,,color_black1,283545,,,,,,,,black_plus_sign,,,null,,,,,,,,,,,,,,,,,,,,,,
null,,thebreak,283652,,,,,,,,<p></p>,,,null,,,,,,,,,,,,,,,,,,,,,,
20334.09999999404,,intro_0,303988,,,,,,,,instruct,,,32,,,,,,,,,,,,,,,,,,,,,,
null,,directmemory_phase1,318992,,,,,,,,object_01c.png,,,null,,,0,,object_13b.png,object_14b.png,object_08b.png,object_08b.png,,0,0,,,,,,,,,,,
null,,warning_page,324001,,,,,,,,warning,,,null,,,,,,,,,,,,,,,,,,,,,,
4281.100000008941,,directmemory_phase1,328285,,,,,,,,object_02c.png,,,50,,,1,,object_12b.png,object_09a.png,object_04a.png,object_09a.png,,0.5,1,,,,,,,,,,,
4653.5999999940395,,directmemory_phase1,332943,,,,,,,,object_15b.png,,,50,,,0,,object_13a.png,object_10c.png,object_11a.png,object_11a.png,,0.3333333333333333,0,,,,,,,,,,,
2884.5,,directmemory_phase1,335831,,,,,,,,object_07c.png,,,50,,,1,,object_12b.png,object_13a.png,object_13b.png,object_13a.png,,0.5,1,,,,,,,,,,,
5778.100000008941,,directmemory_phase1,341614,,,,,,,,object_01a.png,,,49,,,1,,object_12b.png,object_04b.png,object_14b.png,object_12b.png,,0.6,1,,,,,,,,,,,
5644.79999999702,,directmemory_phase1,347264,,,,,,,,object_03a.png,,,51,,,0,,object_02a.png,object_09a.png,object_14b.png,object_02a.png,,0.5,0,,,,,,,,,,,
6184.79999999702,,directmemory_phase1,353453,,,,,,,,object_13c.png,,,50,,,0,,object_13b.png,object_11c.png,object_03c.png,object_13b.png,,0.42857142857142855,0,,,,,,,,,,,
0.7999999970197678,,directmemory_phase1,353457,,,,,,,,object_05b.png,,,49,,,0,,object_04a.png,object_08b.png,object_11c.png,object_11c.png,,0.375,0,,,,,,,,,,,
7597.399999991059,,directmemory_phase1,361058,,,,,,,,object_05c.png,,,50,,,1,,object_03c.png,object_07b.png,object_13b.png,object_07b.png,,0.4444444444444444,1,,,,,,,,,,,
8904.59999999404,,directmemory_phase1,369968,,,,,,,,object_11b.png,,,51,,,1,,object_13a.png,object_08b.png,object_04b.png,object_04b.png,,0.5,1,,,,,,,,,,,
5095.9000000059605,,directmemory_phase1,375069,,,,,,,,object_12c.png,,,51,,,1,,object_12b.png,object_02b.png,object_03c.png,object_03c.png,,0.5454545454545454,1,,,,,,,,,,,
4416.5,,directmemory_phase1,379490,,,,,,,,object_09c.png,,,51,,,1,,object_09a.png,object_14b.png,object_02b.png,object_02b.png,,0.5833333333333334,1,,,,,,,,,,,
4770.20000000298,,directmemory_phase1,384265,,,,,,,,object_07a.png,,,49,,,1,,object_04a.png,object_07b.png,object_04b.png,object_04a.png,,0.6153846153846154,1,,,,,,,,,,,
4449.0999999940395,,directmemory_phase1,388718,,,,,,,,object_06a.png,,,50,,,1,,object_09a.png,object_14b.png,object_13b.png,object_14b.png,,0.6428571428571429,1,,,,,,,,,,,
9308.79999999702,,directmemory_phase1,398031,,,,,,,,object_03b.png,,,50,,,0,,object_10c.png,object_11c.png,object_08b.png,object_10c.png,,0.6,0,,,,,,,,,,,
null,,thebreak,398146,,,,,,,,<p></p>,,,null,,,,,,,,,,,,,,,,,,,,,,
13097.5,,intro_0,411246,,,,,,,,instruct,,,32,,,,,,,,,,,,,,,,,,,,,,
null,,learn_phase(without_color)2,414758,,,,,,,,black_plus_sign,,,null,object_08b.png,object_01c.png,,,,,,,,,,,,,,,,,,,,
null,,black_cross(without_color)2,415603,,,,,,,,green,,,null,object_08b.png,object_01c.png,,,,,,,,,,,,,,,,,,,,
403.40000000596046,,rt_plussign_withcolor2,416107,,,,,,,,green,,,49,object_08b.png,object_01c.png,,,,,,,,,,,,,,,,,,,,
null,,rt_thecrossant_black2,417281,,,,,,,,black_plus_sign,,,50,,,0,,,,,,,0,,,,,,,,,,,,
null,,color_black2,417389,,,,,,,,black_plus_sign,,,null,,,,,,,,,,,,,,,,,,,,,,
null,,learn_phase(without_color)2,420896,,,,,,,,black_plus_sign,,,null,object_12b.png,object_01a.png,,,,,,,,,,,,,,,,,,,,
null,,black_cross(without_color)2,421526,,,,,,,,blue,,,null,object_12b.png,object_01a.png,,,,,,,,,,,,,,,,,,,,
null,,rt_plussign_withcolor2,422043,,,,,,,,blue,,,null,object_12b.png,object_01a.png,,,,,,,,,,,,,,,,,,,,
1143.9000000059605,,rt_thecrossant_black2,423429,,,,,,,,black_plus_sign,,,49,,,1,,,,,,,0.5,,,,,,,,,,,,
null,,color_black2,423538,,,,,,,,black_plus_sign,,,null,,,,,,,,,,,,,,,,,,,,,,
null,,learn_phase(without_color)2,427047,,,,,,,,black_plus_sign,,,null,object_04b.png,object_11b.png,,,,,,,,,,,,,,,,,,,,
null,,black_cross(without_color)2,428004,,,,,,,,blue,,,null,object_04b.png,object_11b.png,,,,,,,,,,,,,,,,,,,,
489.09999999403954,,rt_plussign_withcolor2,428507,,,,,,,,blue,,,49,object_04b.png,object_11b.png,,,,,,,,,,,,,,,,,,,,
null,,rt_thecrossant_black2,429573,,,,,,,,black_plus_sign,,,null,,,1,,,,,,,0.6666666666666666,,,,,,,,,,,,
null,,color_black2,429683,,,,,,,,black_plus_sign,,,null,,,,,,,,,,,,,,,,,,,,,,
null,,learn_phase(without_color)2,433189,,,,,,,,black_plus_sign,,,null,object_13b.png,object_13c.png,,,,,,,,,,,,,,,,,,,,
null,,black_cross(without_color)2,433849,,,,,,,,blue,,,null,object_13b.png,object_13c.png,,,,,,,,,,,,,,,,,,,,
null,,rt_plussign_withcolor2,434365,,,,,,,,blue,,,null,object_13b.png,object_13c.png,,,,,,,,,,,,,,,,,,,,
1090.4000000059605,,rt_thecrossant_black2,435727,,,,,,,,black_plus_sign,,,49,,,1,,,,,,,0.75,,,,,,,,,,,,
null,,color_black2,435837,,,,,,,,black_plus_sign,,,null,,,,,,,,,,,,,,,,,,,,,,
null,,learn_phase(without_color)2,439345,,,,,,,,black_plus_sign,,,null,object_03c.png,object_12c.png,,,,,,,,,,,,,,,,,,,,
null,,black_cross(without_color)2,440123,,,,,,,,green,,,null,object_03c.png,object_12c.png,,,,,,,,,,,,,,,,,,,,
null,,rt_plussign_withcolor2,440637,,,,,,,,green,,,null,object_03c.png,object_12c.png,,,,,,,,,,,,,,,,,,,,
970.7999999970198,,rt_thecrossant_black2,441892,,,,,,,,black_plus_sign,,,50,,,1,,,,,,,0.8,,,,,,,,,,,,
null,,color_black2,442001,,,,,,,,black_plus_sign,,,null,,,,,,,,,,,,,,,,,,,,,,
null,,learn_phase(without_color)2,445519,,,,,,,,black_plus_sign,,,null,object_09a.png,object_02c.png,,,,,,,,,,,,,,,,,,,,
null,,black_cross(without_color)2,446507,,,,,,,,blue,,,null,object_09a.png,object_02c.png,,,,,,,,,,,,,,,,,,,,
null,,rt_plussign_withcolor2,447023,,,,,,,,blue,,,null,object_09a.png,object_02c.png,,,,,,,,,,,,,,,,,,,,
927.7000000029802,,rt_thecrossant_black2,448058,,,,,,,,black_plus_sign,,,49,,,1,,,,,,,0.8333333333333334,,,,,,,,,,,,
null,,color_black2,448167,,,,,,,,black_plus_sign,,,null,,,,,,,,,,,,,,,,,,,,,,
null,,learn_phase(without_color)2,451679,,,,,,,,black_plus_sign,,,null,object_04a.png,object_07a.png,,,,,,,,,,,,,,,,,,,,
null,,black_cross(without_color)2,452507,,,,,,,,blue,,,null,object_04a.png,object_07a.png,,,,,,,,,,,,,,,,,,,,
null,,rt_plussign_withcolor2,453011,,,,,,,,blue,,,null,object_04a.png,object_07a.png,,,,,,,,,,,,,,,,,,,,
1179.5999999940395,,rt_thecrossant_black2,454196,,,,,,,,black_plus_sign,,,49,,,1,,,,,,,0.8571428571428571,,,,,,,,,,,,
null,,color_black2,454305,,,,,,,,black_plus_sign,,,null,,,,,,,,,,,,,,,,,,,,,,
null,,learn_phase(without_color)2,457822,,,,,,,,black_plus_sign,,,null,object_02b.png,object_09c.png,,,,,,,,,,,,,,,,,,,,
null,,black_cross(without_color)2,458679,,,,,,,,blue,,,null,object_02b.png,object_09c.png,,,,,,,,,,,,,,,,,,,,
473.29999999701977,,rt_plussign_withcolor2,459197,,,,,,,,blue,,,49,object_02b.png,object_09c.png,,,,,,,,,,,,,,,,,,,,
null,,rt_thecrossant_black2,460352,,,,,,,,black_plus_sign,,,null,,,1,,,,,,,0.875,,,,,,,,,,,,
null,,color_black2,460461,,,,,,,,black_plus_sign,,,null,,,,,,,,,,,,,,,,,,,,,,
null,,learn_phase(without_color)2,463966,,,,,,,,black_plus_sign,,,null,object_10c.png,object_03b.png,,,,,,,,,,,,,,,,,,,,
null,,black_cross(without_color)2,464971,,,,,,,,green,,,null,object_10c.png,object_03b.png,,,,,,,,,,,,,,,,,,,,
423.90000000596046,,rt_plussign_withcolor2,465486,,,,,,,,green,,,50,object_10c.png,object_03b.png,,,,,,,,,,,,,,,,,,,,
null,,rt_thecrossant_black2,466515,,,,,,,,black_plus_sign,,,null,,,1,,,,,,,0.8888888888888888,,,,,,,,,,,,
null,,color_black2,466624,,,,,,,,black_plus_sign,,,null,,,,,,,,,,,,,,,,,,,,,,
null,,learn_phase(without_color)2,470132,,,,,,,,black_plus_sign,,,null,object_07b.png,object_05c.png,,,,,,,,,,,,,,,,,,,,
null,,black_cross(without_color)2,471051,,,,,,,,green,,,null,object_07b.png,object_05c.png,,,,,,,,,,,,,,,,,,,,
474.6000000089407,,rt_plussign_withcolor2,471553,,,,,,,,green,,,49,object_07b.png,object_05c.png,,,,,,,,,,,,,,,,,,,,
null,,rt_thecrossant_black2,472646,,,,,,,,black_plus_sign,,,50,,,0,,,,,,,0.8,,,,,,,,,,,,
null,,color_black2,472757,,,,,,,,black_plus_sign,,,null,,,,,,,,,,,,,,,,,,,,,,
null,,learn_phase(without_color)2,476276,,,,,,,,black_plus_sign,,,null,object_13a.png,object_07c.png,,,,,,,,,,,,,,,,,,,,
null,,black_cross(without_color)2,476696,,,,,,,,green,,,null,object_13a.png,object_07c.png,,,,,,,,,,,,,,,,,,,,
null,,rt_plussign_withcolor2,477212,,,,,,,,green,,,null,object_13a.png,object_07c.png,,,,,,,,,,,,,,,,,,,,
1227.5999999940395,,rt_thecrossant_black2,478818,,,,,,,,black_plus_sign,,,50,,,1,,,,,,,0.8181818181818182,,,,,,,,,,,,
null,,color_black2,478926,,,,,,,,black_plus_sign,,,null,,,,,,,,,,,,,,,,,,,,,,
null,,learn_phase(without_color)2,482433,,,,,,,,black_plus_sign,,,null,object_11a.png,object_15b.png,,,,,,,,,,,,,,,,,,,,
null,,black_cross(without_color)2,483478,,,,,,,,blue,,,null,object_11a.png,object_15b.png,,,,,,,,,,,,,,,,,,,,
null,,rt_plussign_withcolor2,483992,,,,,,,,blue,,,null,object_11a.png,object_15b.png,,,,,,,,,,,,,,,,,,,,
613.6000000089407,,rt_thecrossant_black2,484961,,,,,,,,black_plus_sign,,,49,,,1,,,,,,,0.8333333333333334,,,,,,,,,,,,
null,,color_black2,485070,,,,,,,,black_plus_sign,,,null,,,,,,,,,,,,,,,,,,,,,,
null,,learn_phase(without_color)2,488586,,,,,,,,black_plus_sign,,,null,object_14b.png,object_06a.png,,,,,,,,,,,,,,,,,,,,
null,,black_cross(without_color)2,489192,,,,,,,,blue,,,null,object_14b.png,object_06a.png,,,,,,,,,,,,,,,,,,,,
null,,rt_plussign_withcolor2,489706,,,,,,,,blue,,,null,object_14b.png,object_06a.png,,,,,,,,,,,,,,,,,,,,
1139.8999999910593,,rt_thecrossant_black2,491126,,,,,,,,black_plus_sign,,,49,,,1,,,,,,,0.8461538461538461,,,,,,,,,,,,
null,,color_black2,491235,,,,,,,,black_plus_sign,,,null,,,,,,,,,,,,,,,,,,,,,,
null,,learn_phase(without_color)2,494747,,,,,,,,black_plus_sign,,,null,object_02a.png,object_03a.png,,,,,,,,,,,,,,,,,,,,
null,,black_cross(without_color)2,495513,,,,,,,,green,,,null,object_02a.png,object_03a.png,,,,,,,,,,,,,,,,,,,,
478.09999999403954,,rt_plussign_withcolor2,496016,,,,,,,,green,,,49,object_02a.png,object_03a.png,,,,,,,,,,,,,,,,,,,,
null,,rt_thecrossant_black2,497276,,,,,,,,black_plus_sign,,,50,,,0,,,,,,,0.7857142857142857,,,,,,,,,,,,
null,,color_black2,497386,,,,,,,,black_plus_sign,,,null,,,,,,,,,,,,,,,,,,,,,,
null,,learn_phase(without_color)2,500905,,,,,,,,black_plus_sign,,,null,object_11c.png,object_05b.png,,,,,,,,,,,,,,,,,,,,
null,,black_cross(without_color)2,502002,,,,,,,,blue,,,null,object_11c.png,object_05b.png,,,,,,,,,,,,,,,,,,,,
null,,rt_plussign_withcolor2,502505,,,,,,,,blue,,,null,object_11c.png,object_05b.png,,,,,,,,,,,,,,,,,,,,
1025.3999999910593,,rt_thecrossant_black2,503423,,,,,,,,black_plus_sign,,,49,,,1,,,,,,,0.8,,,,,,,,,,,,
null,,color_black2,503533,,,,,,,,black_plus_sign,,,null,,,,,,,,,,,,,,,,,,,,,,
null,,thebreak,503637,,,,,,,,<p></p>,,,null,,,,,,,,,,,,,,,,,,,,,,
64748.09999999404,,intro_0,568388,,,,,,,,instruct,,,32,,,,,,,,,,,,,,,,,,,,,,
3897.2999999970198,,directmemory_phase2,572288,,,,,,,,object_01a.png,,,50,,,1,,object_02a.png,object_12b.png,object_03c.png,object_12b.png,,0.625,1,,,,,,,,,,,
3700.8999999910593,,directmemory_phase2,575993,,,,,,,,object_02c.png,,,50,,,0,,object_09a.png,object_11c.png,object_10c.png,object_09a.png,,0.5882352941176471,0,,,,,,,,,,,
6144.79999999702,,directmemory_phase2,582142,,,,,,,,object_05b.png,,,51,,,1,,object_04b.png,object_12b.png,object_11c.png,object_11c.png,,0.6111111111111112,1,,,,,,,,,,,
9906.79999999702,,directmemory_phase2,592053,,,,,,,,object_01c.png,,,51,,,1,,object_11c.png,object_13a.png,object_08b.png,object_08b.png,,0.631578947368421,1,,,,,,,,,,,
4098.100000008941,,directmemory_phase2,596154,,,,,,,,object_07a.png,,,51,,,1,,object_02a.png,object_13b.png,object_04a.png,object_04a.png,,0.65,1,,,,,,,,,,,
6987.100000008941,,directmemory_phase2,603146,,,,,,,,object_12c.png,,,51,,,0,,object_03c.png,object_13b.png,object_11c.png,object_03c.png,,0.6190476190476191,0,,,,,,,,,,,
4093.6000000089407,,directmemory_phase2,607245,,,,,,,,object_06a.png,,,51,,,1,,object_10c.png,object_04a.png,object_14b.png,object_14b.png,,0.6363636363636364,1,,,,,,,,,,,
5178.5,,directmemory_phase2,612428,,,,,,,,object_15b.png,,,50,,,1,,object_13b.png,object_11a.png,object_02a.png,object_11a.png,,0.6521739130434783,1,,,,,,,,,,,
5656.399999991059,,directmemory_phase2,618089,,,,,,,,object_03a.png,,,51,,,1,,object_08b.png,object_02b.png,object_02a.png,object_02a.png,,0.6666666666666666,1,,,,,,,,,,,
6639.79999999702,,directmemory_phase2,624733,,,,,,,,object_05c.png,,,49,,,1,,object_07b.png,object_14b.png,object_03c.png,object_07b.png,,0.68,1,,,,,,,,,,,
4558.899999991059,,directmemory_phase2,629295,,,,,,,,object_13c.png,,,49,,,1,,object_13b.png,object_07b.png,object_12b.png,object_13b.png,,0.6923076923076923,1,,,,,,,,,,,
2555.5,,directmemory_phase2,631855,,,,,,,,object_11b.png,,,49,,,1,,object_04b.png,object_07b.png,object_02a.png,object_04b.png,,0.7037037037037037,1,,,,,,,,,,,
2237.7999999970198,,directmemory_phase2,634098,,,,,,,,object_07c.png,,,51,,,1,,object_12b.png,object_08b.png,object_13a.png,object_13a.png,,0.7142857142857143,1,,,,,,,,,,,
3057.2999999970198,,directmemory_phase2,637159,,,,,,,,object_03b.png,,,51,,,0,,object_02a.png,object_10c.png,object_04b.png,object_10c.png,,0.6896551724137931,0,,,,,,,,,,,
6981,,directmemory_phase2,644142,,,,,,,,object_09c.png,,,50,,,0,,object_13b.png,object_03c.png,object_02b.png,object_02b.png,,0.6666666666666666,0,,,,,,,,,,,
null,,thebreak,644248,,,,,,,,<p></p>,,,null,,,,,,,,,,,,,,,,,,,,,,
1457.5999999940395,,intro_0,645708,,,,,,,,instruct,,,32,,,,,,,,,,,,,,,,,,,,,,
null,,learn_phase(without_color)3,649213,,,,,,,,black_plus_sign,,,null,object_13b.png,object_13c.png,,,,,,,,,,,,,,,,,,,,
null,,black_cross(without_color)3,649948,,,,,,,,green,,,null,object_13b.png,object_13c.png,,,,,,,,,,,,,,,,,,,,
null,,rt_plussign_withcolor3,650466,,,,,,,,green,,,null,object_13b.png,object_13c.png,,,,,,,,,,,,,,,,,,,,
1293.6000000089407,,rt_thecrossant_black3,651753,,,,,,,,black_plus_sign,,,49,,,0,,,,,,,0,,,,,,,,,,,,
null,,color_black3,651863,,,,,,,,black_plus_sign,,,null,,,,,,,,,,,,,,,,,,,,,,
null,,learn_phase(without_color)3,655379,,,,,,,,black_plus_sign,,,null,object_12b.png,object_01a.png,,,,,,,,,,,,,,,,,,,,
null,,black_cross(without_color)3,656221,,,,,,,,green,,,null,object_12b.png,object_01a.png,,,,,,,,,,,,,,,,,,,,
null,,rt_plussign_withcolor3,656734,,,,,,,,green,,,null,object_12b.png,object_01a.png,,,,,,,,,,,,,,,,,,,,
929.0999999940395,,rt_thecrossant_black3,657915,,,,,,,,black_plus_sign,,,50,,,1,,,,,,,0.5,,,,,,,,,,,,
null,,color_black3,658025,,,,,,,,black_plus_sign,,,null,,,,,,,,,,,,,,,,,,,,,,
null,,learn_phase(without_color)3,661537,,,,,,,,black_plus_sign,,,null,object_02b.png,object_09c.png,,,,,,,,,,,,,,,,,,,,
null,,black_cross(without_color)3,662213,,,,,,,,green,,,null,object_02b.png,object_09c.png,,,,,,,,,,,,,,,,,,,,
null,,rt_plussign_withcolor3,662716,,,,,,,,green,,,null,object_02b.png,object_09c.png,,,,,,,,,,,,,,,,,,,,
1360.699999988079,,rt_thecrossant_black3,664056,,,,,,,,black_plus_sign,,,50,,,1,,,,,,,0.6666666666666666,,,,,,,,,,,,
null,,color_black3,664165,,,,,,,,black_plus_sign,,,null,,,,,,,,,,,,,,,,,,,,,,
null,,learn_phase(without_color)3,667684,,,,,,,,black_plus_sign,,,null,object_08b.png,object_01c.png,,,,,,,,,,,,,,,,,,,,
null,,black_cross(without_color)3,668675,,,,,,,,blue,,,null,object_08b.png,object_01c.png,,,,,,,,,,,,,,,,,,,,
253,,rt_plussign_withcolor3,669192,,,,,,,,blue,,,49,object_08b.png,object_01c.png,,,,,,,,,,,,,,,,,,,,
null,,rt_thecrossant_black3,670218,,,,,,,,black_plus_sign,,,null,,,1,,,,,,,0.75,,,,,,,,,,,,
null,,color_black3,670327,,,,,,,,black_plus_sign,,,null,,,,,,,,,,,,,,,,,,,,,,
null,,learn_phase(without_color)3,673837,,,,,,,,black_plus_sign,,,null,object_03c.png,object_12c.png,,,,,,,,,,,,,,,,,,,,
null,,black_cross(without_color)3,674644,,,,,,,,green,,,null,object_03c.png,object_12c.png,,,,,,,,,,,,,,,,,,,,
null,,rt_plussign_withcolor3,675160,,,,,,,,green,,,null,object_03c.png,object_12c.png,,,,,,,,,,,,,,,,,,,,
1141.2999999970198,,rt_thecrossant_black3,676384,,,,,,,,black_plus_sign,,,50,,,1,,,,,,,0.8,,,,,,,,,,,,
null,,color_black3,676494,,,,,,,,black_plus_sign,,,null,,,,,,,,,,,,,,,,,,,,,,
null,,learn_phase(without_color)3,680002,,,,,,,,black_plus_sign,,,null,object_02a.png,object_03a.png,,,,,,,,,,,,,,,,,,,,
null,,black_cross(without_color)3,680441,,,,,,,,blue,,,null,object_02a.png,object_03a.png,,,,,,,,,,,,,,,,,,,,
null,,rt_plussign_withcolor3,680944,,,,,,,,blue,,,null,object_02a.png,object_03a.png,,,,,,,,,,,,,,,,,,,,
1052.2999999970198,,rt_thecrossant_black3,682526,,,,,,,,black_plus_sign,,,50,,,0,,,,,,,0.6666666666666666,,,,,,,,,,,,
null,,color_black3,682635,,,,,,,,black_plus_sign,,,null,,,,,,,,,,,,,,,,,,,,,,
null,,learn_phase(without_color)3,686152,,,,,,,,black_plus_sign,,,null,object_14b.png,object_06a.png,,,,,,,,,,,,,,,,,,,,
null,,black_cross(without_color)3,687147,,,,,,,,green,,,null,object_14b.png,object_06a.png,,,,,,,,,,,,,,,,,,,,
500.3999999910593,,rt_plussign_withcolor3,687652,,,,,,,,green,,,50,object_14b.png,object_06a.png,,,,,,,,,,,,,,,,,,,,
null,,rt_thecrossant_black3,688683,,,,,,,,black_plus_sign,,,null,,,1,,,,,,,0.7142857142857143,,,,,,,,,,,,
null,,color_black3,688790,,,,,,,,black_plus_sign,,,null,,,,,,,,,,,,,,,,,,,,,,
null,,learn_phase(without_color)3,692304,,,,,,,,black_plus_sign,,,null,object_11c.png,object_05b.png,,,,,,,,,,,,,,,,,,,,
null,,black_cross(without_color)3,692974,,,,,,,,blue,,,null,object_11c.png,object_05b.png,,,,,,,,,,,,,,,,,,,,
null,,rt_plussign_withcolor3,693487,,,,,,,,blue,,,null,object_11c.png,object_05b.png,,,,,,,,,,,,,,,,,,,,
1229.8999999910593,,rt_thecrossant_black3,694832,,,,,,,,black_plus_sign,,,49,,,1,,,,,,,0.75,,,,,,,,,,,,
null,,color_black3,694936,,,,,,,,black_plus_sign,,,null,,,,,,,,,,,,,,,,,,,,,,
null,,learn_phase(without_color)3,698445,,,,,,,,black_plus_sign,,,null,object_13a.png,object_07c.png,,,,,,,,,,,,,,,,,,,,
null,,black_cross(without_color)3,699231,,,,,,,,blue,,,null,object_13a.png,object_07c.png,,,,,,,,,,,,,,,,,,,,
null,,rt_plussign_withcolor3,699736,,,,,,,,blue,,,null,object_13a.png,object_07c.png,,,,,,,,,,,,,,,,,,,,
759.2999999970198,,rt_thecrossant_black3,700961,,,,,,,,black_plus_sign,,,49,,,1,,,,,,,0.7777777777777778,,,,,,,,,,,,
null,,color_black3,701069,,,,,,,,black_plus_sign,,,null,,,,,,,,,,,,,,,,,,,,,,
null,,learn_phase(without_color)3,704578,,,,,,,,black_plus_sign,,,null,object_11a.png,object_15b.png,,,,,,,,,,,,,,,,,,,,
null,,black_cross(without_color)3,705630,,,,,,,,blue,,,null,object_11a.png,object_15b.png,,,,,,,,,,,,,,,,,,,,
null,,rt_plussign_withcolor3,706145,,,,,,,,blue,,,null,object_11a.png,object_15b.png,,,,,,,,,,,,,,,,,,,,
1032.2000000029802,,rt_thecrossant_black3,707113,,,,,,,,black_plus_sign,,,49,,,1,,,,,,,0.8,,,,,,,,,,,,
null,,color_black3,707221,,,,,,,,black_plus_sign,,,null,,,,,,,,,,,,,,,,,,,,,,
null,,learn_phase(without_color)3,710740,,,,,,,,black_plus_sign,,,null,object_04a.png,object_07a.png,,,,,,,,,,,,,,,,,,,,
null,,black_cross(without_color)3,711649,,,,,,,,green,,,null,object_04a.png,object_07a.png,,,,,,,,,,,,,,,,,,,,
null,,rt_plussign_withcolor3,712153,,,,,,,,green,,,null,object_04a.png,object_07a.png,,,,,,,,,,,,,,,,,,,,
1211,,rt_thecrossant_black3,713253,,,,,,,,black_plus_sign,,,49,,,0,,,,,,,0.7272727272727273,,,,,,,,,,,,
null,,warning_page,718273,,,,,,,,warning,,,null,,,,,,,,,,,,,,,,,,,,,,
null,,color_black3,718381,,,,,,,,black_plus_sign,,,null,,,,,,,,,,,,,,,,,,,,,,
null,,learn_phase(without_color)3,721894,,,,,,,,black_plus_sign,,,null,object_04b.png,object_11b.png,,,,,,,,,,,,,,,,,,,,
null,,black_cross(without_color)3,722864,,,,,,,,blue,,,null,object_04b.png,object_11b.png,,,,,,,,,,,,,,,,,,,,
null,,rt_plussign_withcolor3,723382,,,,,,,,blue,,,null,object_04b.png,object_11b.png,,,,,,,,,,,,,,,,,,,,
1084.5,,rt_thecrossant_black3,724427,,,,,,,,black_plus_sign,,,49,,,1,,,,,,,0.75,,,,,,,,,,,,
null,,color_black3,724537,,,,,,,,black_plus_sign,,,null,,,,,,,,,,,,,,,,,,,,,,
null,,learn_phase(without_color)3,728055,,,,,,,,black_plus_sign,,,null,object_09a.png,object_02c.png,,,,,,,,,,,,,,,,,,,,
null,,black_cross(without_color)3,728682,,,,,,,,blue,,,null,object_09a.png,object_02c.png,,,,,,,,,,,,,,,,,,,,
null,,rt_plussign_withcolor3,729198,,,,,,,,blue,,,null,object_09a.png,object_02c.png,,,,,,,,,,,,,,,,,,,,
1121.2000000029802,,rt_thecrossant_black3,730591,,,,,,,,black_plus_sign,,,49,,,1,,,,,,,0.7692307692307693,,,,,,,,,,,,
null,,color_black3,730703,,,,,,,,black_plus_sign,,,null,,,,,,,,,,,,,,,,,,,,,,
null,,learn_phase(without_color)3,734208,,,,,,,,black_plus_sign,,,null,object_07b.png,object_05c.png,,,,,,,,,,,,,,,,,,,,
null,,black_cross(without_color)3,735275,,,,,,,,blue,,,null,object_07b.png,object_05c.png,,,,,,,,,,,,,,,,,,,,
null,,rt_plussign_withcolor3,735789,,,,,,,,blue,,,null,object_07b.png,object_05c.png,,,,,,,,,,,,,,,,,,,,
901.9000000059605,,rt_thecrossant_black3,736744,,,,,,,,black_plus_sign,,,49,,,1,,,,,,,0.7857142857142857,,,,,,,,,,,,
null,,color_black3,736853,,,,,,,,black_plus_sign,,,null,,,,,,,,,,,,,,,,,,,,,,
null,,learn_phase(without_color)3,740359,,,,,,,,black_plus_sign,,,null,object_10c.png,object_03b.png,,,,,,,,,,,,,,,,,,,,
null,,black_cross(without_color)3,741283,,,,,,,,green,,,null,object_10c.png,object_03b.png,,,,,,,,,,,,,,,,,,,,
null,,rt_plussign_withcolor3,741801,,,,,,,,green,,,null,object_10c.png,object_03b.png,,,,,,,,,,,,,,,,,,,,
1275.6000000089407,,rt_thecrossant_black3,742912,,,,,,,,black_plus_sign,,,50,,,1,,,,,,,0.8,,,,,,,,,,,,
null,,color_black3,743023,,,,,,,,black_plus_sign,,,null,,,,,,,,,,,,,,,,,,,,,,
null,,thebreak,743127,,,,,,,,<p></p>,,,null,,,,,,,,,,,,,,,,,,,,,,
32381.70000000298,,intro_0,775512,,,,,,,,instruct,,,32,,,,,,,,,,,,,,,,,,,,,,
1852.5999999940395,,directmemory_phase3,777367,,,,,,,,object_07c.png,,,50,,,1,,object_12b.png,object_13a.png,object_07b.png,object_13a.png,,0.6774193548387096,1,,,,,,,,,,,
1749.7000000029802,,directmemory_phase3,779121,,,,,,,,object_01a.png,,,49,,,1,,object_12b.png,object_07b.png,object_10c.png,object_12b.png,,0.6875,1,,,,,,,,,,,
4995.29999999702,,directmemory_phase3,784122,,,,,,,,object_07a.png,,,51,,,1,,object_09a.png,object_10c.png,object_04a.png,object_04a.png,,0.696969696969697,1,,,,,,,,,,,
1988.5,,directmemory_phase3,786115,,,,,,,,object_05c.png,,,50,,,1,,object_14b.png,object_07b.png,object_11c.png,object_07b.png,,0.7058823529411765,1,,,,,,,,,,,
6126.9000000059605,,directmemory_phase3,792246,,,,,,,,object_01c.png,,,51,,,1,,object_13a.png,object_04b.png,object_08b.png,object_08b.png,,0.7142857142857143,1,,,,,,,,,,,
7917.800000011921,,directmemory_phase3,800168,,,,,,,,object_03a.png,,,49,,,1,,object_02a.png,object_08b.png,object_02b.png,object_02a.png,,0.7222222222222222,1,,,,,,,,,,,
4059.3999999910593,,directmemory_phase3,804232,,,,,,,,object_11b.png,,,49,,,1,,object_04b.png,object_04a.png,object_13b.png,object_04b.png,,0.7297297297297297,1,,,,,,,,,,,
3619.5,,directmemory_phase3,807857,,,,,,,,object_02c.png,,,51,,,1,,object_08b.png,object_10c.png,object_09a.png,object_09a.png,,0.7368421052631579,1,,,,,,,,,,,
5568.29999999702,,directmemory_phase3,813430,,,,,,,,object_03b.png,,,49,,,1,,object_10c.png,object_09a.png,object_04a.png,object_10c.png,,0.7435897435897436,1,,,,,,,,,,,
3092.7999999970198,,directmemory_phase3,816527,,,,,,,,object_09c.png,,,50,,,1,,object_12b.png,object_02b.png,object_13a.png,object_02b.png,,0.75,1,,,,,,,,,,,
7062.0999999940395,,directmemory_phase3,823592,,,,,,,,object_13c.png,,,50,,,0,,object_03c.png,object_04a.png,object_13b.png,object_13b.png,,0.7317073170731707,0,,,,,,,,,,,
3563.699999988079,,directmemory_phase3,827160,,,,,,,,object_05b.png,,,51,,,1,,object_13b.png,object_02b.png,object_11c.png,object_11c.png,,0.7380952380952381,1,,,,,,,,,,,
7651,,directmemory_phase3,834816,,,,,,,,object_12c.png,,,51,,,0,,object_03c.png,object_09a.png,object_14b.png,object_03c.png,,0.7209302325581395,0,,,,,,,,,,,
4571.79999999702,,directmemory_phase3,839393,,,,,,,,object_06a.png,,,49,,,1,,object_14b.png,object_13b.png,object_10c.png,object_14b.png,,0.7272727272727273,1,,,,,,,,,,,
8747.59999999404,,directmemory_phase3,848144,,,,,,,,object_15b.png,,,51,,,1,,object_14b.png,object_13a.png,object_11a.png,object_11a.png,,0.7333333333333333,1,,,,,,,,,,,
null,,thebreak,848258,,,,,,,,<p></p>,,,null,,,,,,,,,,,,,,,,,,,,,,
10124.10000000894,,intro_0,858385,,,,,,,,instruct,,,32,,,,,,,,,,,,,,,,,,,,,,
null,,learn_phase(without_color)4,861892,,,,,,,,black_plus_sign,,,null,object_08b.png,object_01c.png,,,,,,,,,,,,,,,,,,,,
null,,black_cross(without_color)4,862490,,,,,,,,blue,,,null,object_08b.png,object_01c.png,,,,,,,,,,,,,,,,,,,,
null,,rt_plussign_withcolor4,863005,,,,,,,,blue,,,null,object_08b.png,object_01c.png,,,,,,,,,,,,,,,,,,,,
749.7000000029802,,rt_thecrossant_black4,864434,,,,,,,,black_plus_sign,,,49,,,1,,,,,,,1,,,,,,,,,,,,
null,,color_black4,864543,,,,,,,,black_plus_sign,,,null,,,,,,,,,,,,,,,,,,,,,,
null,,learn_phase(without_color)4,868057,,,,,,,,black_plus_sign,,,null,object_02a.png,object_03a.png,,,,,,,,,,,,,,,,,,,,
null,,black_cross(without_color)4,868655,,,,,,,,blue,,,null,object_02a.png,object_03a.png,,,,,,,,,,,,,,,,,,,,
null,,rt_plussign_withcolor4,869170,,,,,,,,blue,,,null,object_02a.png,object_03a.png,,,,,,,,,,,,,,,,,,,,
882,,rt_thecrossant_black4,870583,,,,,,,,black_plus_sign,,,49,,,1,,,,,,,1,,,,,,,,,,,,
null,,color_black4,870691,,,,,,,,black_plus_sign,,,null,,,,,,,,,,,,,,,,,,,,,,
null,,learn_phase(without_color)4,874205,,,,,,,,black_plus_sign,,,null,object_02b.png,object_09c.png,,,,,,,,,,,,,,,,,,,,
null,,black_cross(without_color)4,874934,,,,,,,,green,,,null,object_02b.png,object_09c.png,,,,,,,,,,,,,,,,,,,,
null,,rt_plussign_withcolor4,875449,,,,,,,,green,,,null,object_02b.png,object_09c.png,,,,,,,,,,,,,,,,,,,,
785.9000000059605,,rt_thecrossant_black4,876729,,,,,,,,black_plus_sign,,,49,,,0,,,,,,,0.6666666666666666,,,,,,,,,,,,
null,,warning_page,881741,,,,,,,,warning,,,null,,,,,,,,,,,,,,,,,,,,,,
null,,color_black4,881850,,,,,,,,black_plus_sign,,,null,,,,,,,,,,,,,,,,,,,,,,
null,,learn_phase(without_color)4,885359,,,,,,,,black_plus_sign,,,null,object_13a.png,object_07c.png,,,,,,,,,,,,,,,,,,,,
null,,black_cross(without_color)4,885810,,,,,,,,green,,,null,object_13a.png,object_07c.png,,,,,,,,,,,,,,,,,,,,
503,,rt_plussign_withcolor4,886317,,,,,,,,green,,,50,object_13a.png,object_07c.png,,,,,,,,,,,,,,,,,,,,
null,,rt_thecrossant_black4,887890,,,,,,,,black_plus_sign,,,null,,,1,,,,,,,0.75,,,,,,,,,,,,
null,,color_black4,887999,,,,,,,,black_plus_sign,,,null,,,,,,,,,,,,,,,,,,,,,,
null,,learn_phase(without_color)4,891517,,,,,,,,black_plus_sign,,,null,object_04b.png,object_11b.png,,,,,,,,,,,,,,,,,,,,
null,,black_cross(without_color)4,891982,,,,,,,,green,,,null,object_04b.png,object_11b.png,,,,,,,,,,,,,,,,,,,,
null,,rt_plussign_withcolor4,892498,,,,,,,,green,,,null,object_04b.png,object_11b.png,,,,,,,,,,,,,,,,,,,,
737.1000000089407,,rt_thecrossant_black4,894048,,,,,,,,black_plus_sign,,,49,,,0,,,,,,,0.6,,,,,,,,,,,,
null,,warning_page,899066,,,,,,,,warning,,,null,,,,,,,,,,,,,,,,,,,,,,
null,,color_black4,899177,,,,,,,,black_plus_sign,,,null,,,,,,,,,,,,,,,,,,,,,,
null,,learn_phase(without_color)4,902684,,,,,,,,black_plus_sign,,,null,object_13b.png,object_13c.png,,,,,,,,,,,,,,,,,,,,
null,,black_cross(without_color)4,903590,,,,,,,,green,,,null,object_13b.png,object_13c.png,,,,,,,,,,,,,,,,,,,,
480.5,,rt_plussign_withcolor4,904093,,,,,,,,green,,,50,object_13b.png,object_13c.png,,,,,,,,,,,,,,,,,,,,
null,,rt_thecrossant_black4,905217,,,,,,,,black_plus_sign,,,null,,,1,,,,,,,0.6666666666666666,,,,,,,,,,,,
null,,color_black4,905326,,,,,,,,black_plus_sign,,,null,,,,,,,,,,,,,,,,,,,,,,
null,,learn_phase(without_color)4,908842,,,,,,,,black_plus_sign,,,null,object_10c.png,object_03b.png,,,,,,,,,,,,,,,,,,,,
null,,black_cross(without_color)4,909563,,,,,,,,blue,,,null,object_10c.png,object_03b.png,,,,,,,,,,,,,,,,,,,,
null,,rt_plussign_withcolor4,910079,,,,,,,,blue,,,null,object_10c.png,object_03b.png,,,,,,,,,,,,,,,,,,,,
1014,,rt_thecrossant_black4,911381,,,,,,,,black_plus_sign,,,49,,,1,,,,,,,0.7142857142857143,,,,,,,,,,,,
null,,color_black4,911489,,,,,,,,black_plus_sign,,,null,,,,,,,,,,,,,,,,,,,,,,
null,,learn_phase(without_color)4,915004,,,,,,,,black_plus_sign,,,null,object_11c.png,object_05b.png,,,,,,,,,,,,,,,,,,,,
null,,black_cross(without_color)4,916022,,,,,,,,green,,,null,object_11c.png,object_05b.png,,,,,,,,,,,,,,,,,,,,
null,,rt_plussign_withcolor4,916527,,,,,,,,green,,,null,object_11c.png,object_05b.png,,,,,,,,,,,,,,,,,,,,
846,,rt_thecrossant_black4,917540,,,,,,,,black_plus_sign,,,50,,,1,,,,,,,0.75,,,,,,,,,,,,
null,,color_black4,917650,,,,,,,,black_plus_sign,,,null,,,,,,,,,,,,,,,,,,,,,,
null,,learn_phase(without_color)4,921163,,,,,,,,black_plus_sign,,,null,object_12b.png,object_01a.png,,,,,,,,,,,,,,,,,,,,
null,,black_cross(without_color)4,921994,,,,,,,,blue,,,null,object_12b.png,object_01a.png,,,,,,,,,,,,,,,,,,,,
null,,rt_plussign_withcolor4,922499,,,,,,,,blue,,,null,object_12b.png,object_01a.png,,,,,,,,,,,,,,,,,,,,
1161.699999988079,,rt_thecrossant_black4,923701,,,,,,,,black_plus_sign,,,49,,,1,,,,,,,0.7777777777777778,,,,,,,,,,,,
null,,color_black4,923812,,,,,,,,black_plus_sign,,,null,,,,,,,,,,,,,,,,,,,,,,
null,,learn_phase(without_color)4,927318,,,,,,,,black_plus_sign,,,null,object_09a.png,object_02c.png,,,,,,,,,,,,,,,,,,,,
null,,black_cross(without_color)4,928203,,,,,,,,blue,,,null,object_09a.png,object_02c.png,,,,,,,,,,,,,,,,,,,,
482.40000000596046,,rt_plussign_withcolor4,928705,,,,,,,,blue,,,49,object_09a.png,object_02c.png,,,,,,,,,,,,,,,,,,,,
null,,rt_thecrossant_black4,929840,,,,,,,,black_plus_sign,,,null,,,1,,,,,,,0.8,,,,,,,,,,,,
null,,color_black4,929948,,,,,,,,black_plus_sign,,,null,,,,,,,,,,,,,,,,,,,,,,
null,,learn_phase(without_color)4,933467,,,,,,,,black_plus_sign,,,null,object_14b.png,object_06a.png,,,,,,,,,,,,,,,,,,,,
null,,black_cross(without_color)4,934369,,,,,,,,green,,,null,object_14b.png,object_06a.png,,,,,,,,,,,,,,,,,,,,
null,,rt_plussign_withcolor4,934884,,,,,,,,green,,,null,object_14b.png,object_06a.png,,,,,,,,,,,,,,,,,,,,
1254.5999999940395,,rt_thecrossant_black4,936006,,,,,,,,black_plus_sign,,,50,,,1,,,,,,,0.8181818181818182,,,,,,,,,,,,
null,,color_black4,936116,,,,,,,,black_plus_sign,,,null,,,,,,,,,,,,,,,,,,,,,,
null,,learn_phase(without_color)4,939632,,,,,,,,black_plus_sign,,,null,object_04a.png,object_07a.png,,,,,,,,,,,,,,,,,,,,
null,,black_cross(without_color)4,940271,,,,,,,,green,,,null,object_04a.png,object_07a.png,,,,,,,,,,,,,,,,,,,,
null,,rt_plussign_withcolor4,940787,,,,,,,,green,,,null,object_04a.png,object_07a.png,,,,,,,,,,,,,,,,,,,,
1085.4000000059605,,rt_thecrossant_black4,942179,,,,,,,,black_plus_sign,,,49,,,0,,,,,,,0.75,,,,,,,,,,,,
null,,warning_page,947192,,,,,,,,warning,,,null,,,,,,,,,,,,,,,,,,,,,,
null,,color_black4,947300,,,,,,,,black_plus_sign,,,null,,,,,,,,,,,,,,,,,,,,,,
null,,learn_phase(without_color)4,950807,,,,,,,,black_plus_sign,,,null,object_11a.png,object_15b.png,,,,,,,,,,,,,,,,,,,,
null,,black_cross(without_color)4,951889,,,,,,,,green,,,null,object_11a.png,object_15b.png,,,,,,,,,,,,,,,,,,,,
null,,rt_plussign_withcolor4,952392,,,,,,,,green,,,null,object_11a.png,object_15b.png,,,,,,,,,,,,,,,,,,,,
780.1999999880791,,rt_thecrossant_black4,953329,,,,,,,,black_plus_sign,,,50,,,1,,,,,,,0.7692307692307693,,,,,,,,,,,,
null,,color_black4,953433,,,,,,,,black_plus_sign,,,null,,,,,,,,,,,,,,,,,,,,,,
null,,learn_phase(without_color)4,956950,,,,,,,,black_plus_sign,,,null,object_03c.png,object_12c.png,,,,,,,,,,,,,,,,,,,,
null,,black_cross(without_color)4,957514,,,,,,,,green,,,null,object_03c.png,object_12c.png,,,,,,,,,,,,,,,,,,,,
null,,rt_plussign_withcolor4,958017,,,,,,,,green,,,null,object_03c.png,object_12c.png,,,,,,,,,,,,,,,,,,,,
1338.2000000029802,,rt_thecrossant_black4,959478,,,,,,,,black_plus_sign,,,50,,,1,,,,,,,0.7857142857142857,,,,,,,,,,,,
null,,color_black4,959588,,,,,,,,black_plus_sign,,,null,,,,,,,,,,,,,,,,,,,,,,
null,,learn_phase(without_color)4,963102,,,,,,,,black_plus_sign,,,null,object_07b.png,object_05c.png,,,,,,,,,,,,,,,,,,,,
null,,black_cross(without_color)4,963586,,,,,,,,blue,,,null,object_07b.png,object_05c.png,,,,,,,,,,,,,,,,,,,,
null,,rt_plussign_withcolor4,964102,,,,,,,,blue,,,null,object_07b.png,object_05c.png,,,,,,,,,,,,,,,,,,,,
864.2000000029802,,rt_thecrossant_black4,965639,,,,,,,,black_plus_sign,,,49,,,1,,,,,,,0.8,,,,,,,,,,,,
null,,color_black4,965749,,,,,,,,black_plus_sign,,,null,,,,,,,,,,,,,,,,,,,,,,
null,,thebreak,965852,,,,,,,,<p></p>,,,null,,,,,,,,,,,,,,,,,,,,,,
11331.20000000298,,intro_0,977185,,,,,,,,instruct,,,32,,,,,,,,,,,,,,,,,,,,,,
2905.8999999910593,,directmemory_phase4,980094,,,,,,,,object_12c.png,,,51,,,1,,object_13a.png,object_08b.png,object_03c.png,object_03c.png,,0.7391304347826086,1,,,,,,,,,,,
7781.699999988079,,directmemory_phase4,987880,,,,,,,,object_03b.png,,,51,,,0,,object_10c.png,object_04b.png,object_02b.png,object_10c.png,,0.723404255319149,0,,,,,,,,,,,
5491.9000000059605,,directmemory_phase4,993375,,,,,,,,object_15b.png,,,49,,,1,,object_11a.png,object_02a.png,object_07b.png,object_11a.png,,0.7291666666666666,1,,,,,,,,,,,
2111.699999988079,,directmemory_phase4,995491,,,,,,,,object_05c.png,,,49,,,1,,object_07b.png,object_04b.png,object_03c.png,object_07b.png,,0.7346938775510204,1,,,,,,,,,,,
7394.100000008941,,directmemory_phase4,1002889,,,,,,,,object_05b.png,,,51,,,1,,object_04a.png,object_07b.png,object_11c.png,object_11c.png,,0.74,1,,,,,,,,,,,
3080.800000011921,,directmemory_phase4,1005974,,,,,,,,object_11b.png,,,50,,,1,,object_13a.png,object_04b.png,object_10c.png,object_04b.png,,0.7450980392156863,1,,,,,,,,,,,
2478.5,,directmemory_phase4,1008458,,,,,,,,object_07c.png,,,51,,,1,,object_11c.png,object_04a.png,object_13a.png,object_13a.png,,0.75,1,,,,,,,,,,,
9598.70000000298,,directmemory_phase4,1018061,,,,,,,,object_03a.png,,,50,,,1,,object_04a.png,object_02a.png,object_02b.png,object_02a.png,,0.7547169811320755,1,,,,,,,,,,,
1617,,directmemory_phase4,1019683,,,,,,,,object_02c.png,,,49,,,1,,object_09a.png,object_04a.png,object_10c.png,object_09a.png,,0.7592592592592593,1,,,,,,,,,,,
4014.4000000059605,,directmemory_phase4,1023702,,,,,,,,object_07a.png,,,50,,,1,,object_04b.png,object_04a.png,object_12b.png,object_04a.png,,0.7636363636363637,1,,,,,,,,,,,
8374.5,,directmemory_phase4,1032082,,,,,,,,object_06a.png,,,50,,,1,,object_13b.png,object_14b.png,object_13a.png,object_14b.png,,0.7678571428571429,1,,,,,,,,,,,
6461.79999999702,,directmemory_phase4,1038549,,,,,,,,object_01c.png,,,51,,,1,,object_12b.png,object_04b.png,object_08b.png,object_08b.png,,0.7719298245614035,1,,,,,,,,,,,
2010.2999999970198,,directmemory_phase4,1040564,,,,,,,,object_01a.png,,,49,,,0,,object_08b.png,object_07b.png,object_12b.png,object_12b.png,,0.7586206896551724,0,,,,,,,,,,,
4581.399999991059,,directmemory_phase4,1045150,,,,,,,,object_13c.png,,,50,,,1,,object_02a.png,object_13b.png,object_03c.png,object_13b.png,,0.7627118644067796,1,,,,,,,,,,,
2617.9000000059605,,directmemory_phase4,1047773,,,,,,,,object_09c.png,,,50,,,1,,object_10c.png,object_02b.png,object_14b.png,object_02b.png,,0.7666666666666667,1,,,,,,,,,,,
null,,thebreak,1047884,,,,,,,,<p></p>,,,null,,,,,,,,,,,,,,,,,,,,,,
2126.4000000059605,,intro_0,1050014,,,,,,,,instruct,,,32,,,,,,,,,,,,,,,,,,,,,,
null,,learn_phase(without_color)5,1053523,,,,,,,,black_plus_sign,,,null,object_05b.png,object_14a.png,,,,,,,,,,,,,,,,,,,,
null,,black_cross(without_color)5,1054425,,,,,,,,blue,,,null,object_05b.png,object_14a.png,,,,,,,,,,,,,,,,,,,,
null,,rt_plussign_withcolor5,1054935,,,,,,,,blue,,,null,object_05b.png,object_14a.png,,,,,,,,,,,,,,,,,,,,
1219,,rt_thecrossant_black5,1056046,,,,,,,,black_plus_sign,,,49,,,1,,,,,,,1,,,,,,,,,,,,
null,,color_black5,1056156,,,,,,,,black_plus_sign,,,null,,,,,,,,,,,,,,,,,,,,,,
null,,learn_phase(without_color)5,1059676,,,,,,,,black_plus_sign,,,null,object_06a.png,object_10b.png,,,,,,,,,,,,,,,,,,,,
null,,black_cross(without_color)5,1060236,,,,,,,,green,,,null,object_06a.png,object_10b.png,,,,,,,,,,,,,,,,,,,,
null,,rt_plussign_withcolor5,1060749,,,,,,,,green,,,null,object_06a.png,object_10b.png,,,,,,,,,,,,,,,,,,,,
1061.5999999940395,,rt_thecrossant_black5,1062201,,,,,,,,black_plus_sign,,,50,,,1,,,,,,,1,,,,,,,,,,,,
null,,color_black5,1062309,,,,,,,,black_plus_sign,,,null,,,,,,,,,,,,,,,,,,,,,,
null,,learn_phase(without_color)5,1065826,,,,,,,,black_plus_sign,,,null,object_09c.png,object_14c.png,,,,,,,,,,,,,,,,,,,,
null,,black_cross(without_color)5,1066575,,,,,,,,blue,,,null,object_09c.png,object_14c.png,,,,,,,,,,,,,,,,,,,,
472.90000000596046,,rt_plussign_withcolor5,1067083,,,,,,,,blue,,,49,object_09c.png,object_14c.png,,,,,,,,,,,,,,,,,,,,
null,,rt_thecrossant_black5,1068358,,,,,,,,black_plus_sign,,,null,,,1,,,,,,,1,,,,,,,,,,,,
null,,color_black5,1068469,,,,,,,,black_plus_sign,,,null,,,,,,,,,,,,,,,,,,,,,,
null,,learn_phase(without_color)5,1071985,,,,,,,,black_plus_sign,,,null,object_07a.png,object_09b.png,,,,,,,,,,,,,,,,,,,,
null,,black_cross(without_color)5,1072762,,,,,,,,green,,,null,object_07a.png,object_09b.png,,,,,,,,,,,,,,,,,,,,
null,,rt_plussign_withcolor5,1073278,,,,,,,,green,,,null,object_07a.png,object_09b.png,,,,,,,,,,,,,,,,,,,,
1026.4000000059605,,rt_thecrossant_black5,1074528,,,,,,,,black_plus_sign,,,50,,,1,,,,,,,1,,,,,,,,,,,,
null,,color_black5,1074636,,,,,,,,black_plus_sign,,,null,,,,,,,,,,,,,,,,,,,,,,
null,,learn_phase(without_color)5,1078154,,,,,,,,black_plus_sign,,,null,object_05c.png,object_06c.png,,,,,,,,,,,,,,,,,,,,
null,,black_cross(without_color)5,1078682,,,,,,,,blue,,,null,object_05c.png,object_06c.png,,,,,,,,,,,,,,,,,,,,
null,,rt_plussign_withcolor5,1079195,,,,,,,,blue,,,null,object_05c.png,object_06c.png,,,,,,,,,,,,,,,,,,,,
868.4000000059605,,rt_thecrossant_black5,1080693,,,,,,,,black_plus_sign,,,49,,,1,,,,,,,1,,,,,,,,,,,,
null,,color_black5,1080802,,,,,,,,black_plus_sign,,,null,,,,,,,,,,,,,,,,,,,,,,
null,,learn_phase(without_color)5,1084317,,,,,,,,black_plus_sign,,,null,object_03b.png,object_08a.png,,,,,,,,,,,,,,,,,,,,
null,,black_cross(without_color)5,1085056,,,,,,,,green,,,null,object_03b.png,object_08a.png,,,,,,,,,,,,,,,,,,,,
null,,rt_plussign_withcolor5,1085568,,,,,,,,green,,,null,object_03b.png,object_08a.png,,,,,,,,,,,,,,,,,,,,
761,,rt_thecrossant_black5,1086857,,,,,,,,black_plus_sign,,,50,,,1,,,,,,,1,,,,,,,,,,,,
null,,color_black5,1086968,,,,,,,,black_plus_sign,,,null,,,,,,,,,,,,,,,,,,,,,,
null,,learn_phase(without_color)5,1090478,,,,,,,,black_plus_sign,,,null,object_15b.png,object_10a.png,,,,,,,,,,,,,,,,,,,,
null,,black_cross(without_color)5,1091541,,,,,,,,blue,,,null,object_15b.png,object_10a.png,,,,,,,,,,,,,,,,,,,,
null,,rt_plussign_withcolor5,1092044,,,,,,,,blue,,,null,object_15b.png,object_10a.png,,,,,,,,,,,,,,,,,,,,
999.2000000029802,,rt_thecrossant_black5,1093010,,,,,,,,black_plus_sign,,,49,,,1,,,,,,,1,,,,,,,,,,,,
null,,color_black5,1093118,,,,,,,,black_plus_sign,,,null,,,,,,,,,,,,,,,,,,,,,,
null,,learn_phase(without_color)5,1096637,,,,,,,,black_plus_sign,,,null,object_07c.png,object_12a.png,,,,,,,,,,,,,,,,,,,,
null,,black_cross(without_color)5,1097635,,,,,,,,blue,,,null,object_07c.png,object_12a.png,,,,,,,,,,,,,,,,,,,,
null,,rt_plussign_withcolor5,1098148,,,,,,,,blue,,,null,object_07c.png,object_12a.png,,,,,,,,,,,,,,,,,,,,
1205,,rt_thecrossant_black5,1099176,,,,,,,,black_plus_sign,,,49,,,1,,,,,,,1,,,,,,,,,,,,
null,,color_black5,1099285,,,,,,,,black_plus_sign,,,null,,,,,,,,,,,,,,,,,,,,,,
null,,learn_phase(without_color)5,1102789,,,,,,,,black_plus_sign,,,null,object_03a.png,object_01b.png,,,,,,,,,,,,,,,,,,,,
null,,black_cross(without_color)5,1103411,,,,,,,,blue,,,null,object_03a.png,object_01b.png,,,,,,,,,,,,,,,,,,,,
null,,rt_plussign_withcolor5,1103923,,,,,,,,blue,,,null,object_03a.png,object_01b.png,,,,,,,,,,,,,,,,,,,,
1504.7000000029802,,rt_thecrossant_black5,1105333,,,,,,,,black_plus_sign,,,49,,,1,,,,,,,1,,,,,,,,,,,,
null,,color_black5,1105442,,,,,,,,black_plus_sign,,,null,,,,,,,,,,,,,,,,,,,,,,
null,,learn_phase(without_color)5,1108952,,,,,,,,black_plus_sign,,,null,object_13c.png,object_15c.png,,,,,,,,,,,,,,,,,,,,
null,,black_cross(without_color)5,1109734,,,,,,,,blue,,,null,object_13c.png,object_15c.png,,,,,,,,,,,,,,,,,,,,
null,,rt_plussign_withcolor5,1110251,,,,,,,,blue,,,null,object_13c.png,object_15c.png,,,,,,,,,,,,,,,,,,,,
951.2000000029802,,rt_thecrossant_black5,1111490,,,,,,,,black_plus_sign,,,49,,,1,,,,,,,1,,,,,,,,,,,,
null,,color_black5,1111598,,,,,,,,black_plus_sign,,,null,,,,,,,,,,,,,,,,,,,,,,
null,,learn_phase(without_color)5,1115107,,,,,,,,black_plus_sign,,,null,object_02c.png,object_04c.png,,,,,,,,,,,,,,,,,,,,
null,,black_cross(without_color)5,1115989,,,,,,,,blue,,,null,object_02c.png,object_04c.png,,,,,,,,,,,,,,,,,,,,
null,,rt_plussign_withcolor5,1116507,,,,,,,,blue,,,null,object_02c.png,object_04c.png,,,,,,,,,,,,,,,,,,,,
1050.5999999940395,,rt_thecrossant_black5,1117651,,,,,,,,black_plus_sign,,,49,,,1,,,,,,,1,,,,,,,,,,,,
null,,color_black5,1117762,,,,,,,,black_plus_sign,,,null,,,,,,,,,,,,,,,,,,,,,,
null,,learn_phase(without_color)5,1121274,,,,,,,,black_plus_sign,,,null,object_12c.png,object_06b.png,,,,,,,,,,,,,,,,,,,,
null,,black_cross(without_color)5,1122200,,,,,,,,green,,,null,object_12c.png,object_06b.png,,,,,,,,,,,,,,,,,,,,
null,,rt_plussign_withcolor5,1122713,,,,,,,,green,,,null,object_12c.png,object_06b.png,,,,,,,,,,,,,,,,,,,,
1165.5999999940395,,rt_thecrossant_black5,1123806,,,,,,,,black_plus_sign,,,50,,,1,,,,,,,1,,,,,,,,,,,,
null,,color_black5,1123916,,,,,,,,black_plus_sign,,,null,,,,,,,,,,,,,,,,,,,,,,
null,,learn_phase(without_color)5,1127426,,,,,,,,black_plus_sign,,,null,object_01a.png,object_08c.png,,,,,,,,,,,,,,,,,,,,
null,,black_cross(without_color)5,1128003,,,,,,,,green,,,null,object_01a.png,object_08c.png,,,,,,,,,,,,,,,,,,,,
null,,rt_plussign_withcolor5,1128514,,,,,,,,green,,,null,object_01a.png,object_08c.png,,,,,,,,,,,,,,,,,,,,
1122.8999999910593,,rt_thecrossant_black5,1129968,,,,,,,,black_plus_sign,,,50,,,1,,,,,,,1,,,,,,,,,,,,
null,,color_black5,1130076,,,,,,,,black_plus_sign,,,null,,,,,,,,,,,,,,,,,,,,,,
null,,learn_phase(without_color)5,1133587,,,,,,,,black_plus_sign,,,null,object_01c.png,object_15a.png,,,,,,,,,,,,,,,,,,,,
null,,black_cross(without_color)5,1134250,,,,,,,,blue,,,null,object_01c.png,object_15a.png,,,,,,,,,,,,,,,,,,,,
null,,rt_plussign_withcolor5,1134764,,,,,,,,blue,,,null,object_01c.png,object_15a.png,,,,,,,,,,,,,,,,,,,,
917.0999999940395,,rt_thecrossant_black5,1136124,,,,,,,,black_plus_sign,,,49,,,1,,,,,,,1,,,,,,,,,,,,
null,,color_black5,1136233,,,,,,,,black_plus_sign,,,null,,,,,,,,,,,,,,,,,,,,,,
null,,learn_phase(without_color)5,1139743,,,,,,,,black_plus_sign,,,null,object_11b.png,object_05a.png,,,,,,,,,,,,,,,,,,,,
null,,black_cross(without_color)5,1140572,,,,,,,,green,,,null,object_11b.png,object_05a.png,,,,,,,,,,,,,,,,,,,,
null,,rt_plussign_withcolor5,1141088,,,,,,,,green,,,null,object_11b.png,object_05a.png,,,,,,,,,,,,,,,,,,,,
956,,rt_thecrossant_black5,1142278,,,,,,,,black_plus_sign,,,50,,,1,,,,,,,1,,,,,,,,,,,,
null,,color_black5,1142386,,,,,,,,black_plus_sign,,,null,,,,,,,,,,,,,,,,,,,,,,
null,,thebreak,1142491,,,,,,,,<p></p>,,,null,,,,,,,,,,,,,,,,,,,,,,
1315.199999988079,,intro_0,1143809,,,,,,,,instruct,,,32,,,,,,,,,,,,,,,,,,,,,,
2367,,directmemory_phase5,1146180,,,,,,,,object_04c.png,,,51,,,1,,object_09c.png,object_01c.png,object_02c.png,object_02c.png,,0.7704918032786885,1,,,,,,,,,,,
3792.8999999910593,,directmemory_phase5,1149978,,,,,,,,object_05a.png,,,50,,,1,,object_05c.png,object_11b.png,object_01a.png,object_11b.png,,0.7741935483870968,1,,,,,,,,,,,
1336.699999988079,,directmemory_phase5,1151321,,,,,,,,object_06c.png,,,51,,,0,,object_05c.png,object_13c.png,object_11b.png,object_05c.png,,0.7619047619047619,0,,,,,,,,,,,
2590.9000000059605,,directmemory_phase5,1153917,,,,,,,,object_15a.png,,,51,,,0,,object_01c.png,object_05c.png,object_06a.png,object_01c.png,,0.75,0,,,,,,,,,,,
1847.8999999910593,,directmemory_phase5,1155770,,,,,,,,object_10a.png,,,49,,,1,,object_15b.png,object_02c.png,object_01c.png,object_15b.png,,0.7538461538461538,1,,,,,,,,,,,
2357.7999999970198,,directmemory_phase5,1158133,,,,,,,,object_08c.png,,,50,,,1,,object_01c.png,object_01a.png,object_03b.png,object_01a.png,,0.7575757575757576,1,,,,,,,,,,,
2066.9000000059605,,directmemory_phase5,1160205,,,,,,,,object_14a.png,,,49,,,1,,object_05b.png,object_07c.png,object_13c.png,object_05b.png,,0.7611940298507462,1,,,,,,,,,,,
4710.0999999940395,,directmemory_phase5,1164920,,,,,,,,object_10b.png,,,51,,,1,,object_01a.png,object_05b.png,object_06a.png,object_06a.png,,0.7647058823529411,1,,,,,,,,,,,
2835.5,,directmemory_phase5,1167760,,,,,,,,object_14c.png,,,49,,,1,,object_09c.png,object_01a.png,object_05b.png,object_09c.png,,0.7681159420289855,1,,,,,,,,,,,
1713.699999988079,,directmemory_phase5,1169479,,,,,,,,object_15c.png,,,50,,,0,,object_13c.png,object_01a.png,object_09c.png,object_13c.png,,0.7571428571428571,0,,,,,,,,,,,
4481.600000008941,,directmemory_phase5,1173966,,,,,,,,object_01b.png,,,51,,,0,,object_03a.png,object_05c.png,object_07c.png,object_03a.png,,0.7464788732394366,0,,,,,,,,,,,
3539.4000000059605,,directmemory_phase5,1177511,,,,,,,,object_09b.png,,,51,,,1,,object_13c.png,object_01c.png,object_07a.png,object_07a.png,,0.75,1,,,,,,,,,,,
5341.5999999940395,,directmemory_phase5,1182859,,,,,,,,object_08a.png,,,49,,,1,,object_03b.png,object_05c.png,object_01a.png,object_03b.png,,0.7534246575342466,1,,,,,,,,,,,
2368.7999999970198,,directmemory_phase5,1185233,,,,,,,,object_12a.png,,,50,,,1,,object_09c.png,object_07c.png,object_03b.png,object_07c.png,,0.7567567567567568,1,,,,,,,,,,,
4976.29999999702,,directmemory_phase5,1190216,,,,,,,,object_06b.png,,,51,,,1,,object_09c.png,object_02c.png,object_12c.png,object_12c.png,,0.76,1,,,,,,,,,,,
null,,thebreak,1190328,,,,,,,,<p></p>,,,null,,,,,,,,,,,,,,,,,,,,,,
1566.7000000029802,,intro_0,1191898,,,,,,,,instruct,,,32,,,,,,,,,,,,,,,,,,,,,,
null,,learn_phase(without_color)6,1195402,,,,,,,,black_plus_sign,,,null,object_07c.png,object_12a.png,,,,,,,,,,,,,,,,,,,,
null,,black_cross(without_color)6,1196291,,,,,,,,green,,,null,object_07c.png,object_12a.png,,,,,,,,,,,,,,,,,,,,
null,,rt_plussign_withcolor6,1196795,,,,,,,,green,,,null,object_07c.png,object_12a.png,,,,,,,,,,,,,,,,,,,,
1032.5999999940395,,rt_thecrossant_black6,1197922,,,,,,,,black_plus_sign,,,50,,,1,,,,,,,1,,,,,,,,,,,,
null,,color_black6,1198031,,,,,,,,black_plus_sign,,,null,,,,,,,,,,,,,,,,,,,,,,
null,,learn_phase(without_color)6,1201549,,,,,,,,black_plus_sign,,,null,object_02c.png,object_04c.png,,,,,,,,,,,,,,,,,,,,
null,,black_cross(without_color)6,1201982,,,,,,,,green,,,null,object_02c.png,object_04c.png,,,,,,,,,,,,,,,,,,,,
null,,rt_plussign_withcolor6,1202499,,,,,,,,green,,,null,object_02c.png,object_04c.png,,,,,,,,,,,,,,,,,,,,
1359.199999988079,,rt_thecrossant_black6,1204091,,,,,,,,black_plus_sign,,,50,,,1,,,,,,,1,,,,,,,,,,,,
null,,color_black6,1204200,,,,,,,,black_plus_sign,,,null,,,,,,,,,,,,,,,,,,,,,,
null,,learn_phase(without_color)6,1207719,,,,,,,,black_plus_sign,,,null,object_03a.png,object_01b.png,,,,,,,,,,,,,,,,,,,,
null,,black_cross(without_color)6,1208346,,,,,,,,blue,,,null,object_03a.png,object_01b.png,,,,,,,,,,,,,,,,,,,,
null,,rt_plussign_withcolor6,1208853,,,,,,,,blue,,,null,object_03a.png,object_01b.png,,,,,,,,,,,,,,,,,,,,
702.5,,rt_thecrossant_black6,1210252,,,,,,,,black_plus_sign,,,50,,,0,,,,,,,0.6666666666666666,,,,,,,,,,,,
null,,warning_page,1215270,,,,,,,,warning,,,null,,,,,,,,,,,,,,,,,,,,,,
null,,color_black6,1215379,,,,,,,,black_plus_sign,,,null,,,,,,,,,,,,,,,,,,,,,,
null,,learn_phase(without_color)6,1218895,,,,,,,,black_plus_sign,,,null,object_13c.png,object_15c.png,,,,,,,,,,,,,,,,,,,,
null,,black_cross(without_color)6,1219533,,,,,,,,green,,,null,object_13c.png,object_15c.png,,,,,,,,,,,,,,,,,,,,
null,,rt_plussign_withcolor6,1220047,,,,,,,,green,,,null,object_13c.png,object_15c.png,,,,,,,,,,,,,,,,,,,,
767.6000000089407,,rt_thecrossant_black6,1221421,,,,,,,,black_plus_sign,,,50,,,1,,,,,,,0.75,,,,,,,,,,,,
null,,color_black6,1221531,,,,,,,,black_plus_sign,,,null,,,,,,,,,,,,,,,,,,,,,,
null,,learn_phase(without_color)6,1225038,,,,,,,,black_plus_sign,,,null,object_05c.png,object_06c.png,,,,,,,,,,,,,,,,,,,,
null,,black_cross(without_color)6,1225897,,,,,,,,blue,,,null,object_05c.png,object_06c.png,,,,,,,,,,,,,,,,,,,,
null,,rt_plussign_withcolor6,1226413,,,,,,,,blue,,,null,object_05c.png,object_06c.png,,,,,,,,,,,,,,,,,,,,
896.2000000029802,,rt_thecrossant_black6,1227566,,,,,,,,black_plus_sign,,,49,,,1,,,,,,,0.8,,,,,,,,,,,,
null,,color_black6,1227674,,,,,,,,black_plus_sign,,,null,,,,,,,,,,,,,,,,,,,,,,
null,,learn_phase(without_color)6,1231192,,,,,,,,black_plus_sign,,,null,object_07a.png,object_09b.png,,,,,,,,,,,,,,,,,,,,
null,,black_cross(without_color)6,1231990,,,,,,,,green,,,null,object_07a.png,object_09b.png,,,,,,,,,,,,,,,,,,,,
null,,rt_plussign_withcolor6,1232505,,,,,,,,green,,,null,object_07a.png,object_09b.png,,,,,,,,,,,,,,,,,,,,
1155.5,,rt_thecrossant_black6,1233735,,,,,,,,black_plus_sign,,,50,,,1,,,,,,,0.8333333333333334,,,,,,,,,,,,
null,,color_black6,1233846,,,,,,,,black_plus_sign,,,null,,,,,,,,,,,,,,,,,,,,,,
null,,learn_phase(without_color)6,1237362,,,,,,,,black_plus_sign,,,null,object_01c.png,object_15a.png,,,,,,,,,,,,,,,,,,,,
null,,black_cross(without_color)6,1238313,,,,,,,,blue,,,null,object_01c.png,object_15a.png,,,,,,,,,,,,,,,,,,,,
null,,rt_plussign_withcolor6,1238830,,,,,,,,blue,,,null,object_01c.png,object_15a.png,,,,,,,,,,,,,,,,,,,,
1081,,rt_thecrossant_black6,1239905,,,,,,,,black_plus_sign,,,49,,,1,,,,,,,0.8571428571428571,,,,,,,,,,,,
null,,color_black6,1240015,,,,,,,,black_plus_sign,,,null,,,,,,,,,,,,,,,,,,,,,,
null,,learn_phase(without_color)6,1243531,,,,,,,,black_plus_sign,,,null,object_09c.png,object_14c.png,,,,,,,,,,,,,,,,,,,,
null,,black_cross(without_color)6,1244174,,,,,,,,green,,,null,object_09c.png,object_14c.png,,,,,,,,,,,,,,,,,,,,
null,,rt_plussign_withcolor6,1244688,,,,,,,,green,,,null,object_09c.png,object_14c.png,,,,,,,,,,,,,,,,,,,,
1119.6000000089407,,rt_thecrossant_black6,1246081,,,,,,,,black_plus_sign,,,50,,,1,,,,,,,0.875,,,,,,,,,,,,
null,,color_black6,1246190,,,,,,,,black_plus_sign,,,null,,,,,,,,,,,,,,,,,,,,,,
null,,learn_phase(without_color)6,1249709,,,,,,,,black_plus_sign,,,null,object_06a.png,object_10b.png,,,,,,,,,,,,,,,,,,,,
null,,black_cross(without_color)6,1250439,,,,,,,,green,,,null,object_06a.png,object_10b.png,,,,,,,,,,,,,,,,,,,,
null,,rt_plussign_withcolor6,1250951,,,,,,,,green,,,null,object_06a.png,object_10b.png,,,,,,,,,,,,,,,,,,,,
899.7999999970198,,rt_thecrossant_black6,1252235,,,,,,,,black_plus_sign,,,50,,,1,,,,,,,0.8888888888888888,,,,,,,,,,,,
null,,color_black6,1252343,,,,,,,,black_plus_sign,,,null,,,,,,,,,,,,,,,,,,,,,,
null,,learn_phase(without_color)6,1255861,,,,,,,,black_plus_sign,,,null,object_01a.png,object_08c.png,,,,,,,,,,,,,,,,,,,,
null,,black_cross(without_color)6,1256376,,,,,,,,blue,,,null,object_01a.png,object_08c.png,,,,,,,,,,,,,,,,,,,,
null,,rt_plussign_withcolor6,1256888,,,,,,,,blue,,,null,object_01a.png,object_08c.png,,,,,,,,,,,,,,,,,,,,
1033.6000000089407,,rt_thecrossant_black6,1258408,,,,,,,,black_plus_sign,,,49,,,1,,,,,,,0.9,,,,,,,,,,,,
null,,color_black6,1258518,,,,,,,,black_plus_sign,,,null,,,,,,,,,,,,,,,,,,,,,,
null,,learn_phase(without_color)6,1262029,,,,,,,,black_plus_sign,,,null,object_12c.png,object_06b.png,,,,,,,,,,,,,,,,,,,,
null,,black_cross(without_color)6,1262860,,,,,,,,blue,,,null,object_12c.png,object_06b.png,,,,,,,,,,,,,,,,,,,,
null,,rt_plussign_withcolor6,1263375,,,,,,,,blue,,,null,object_12c.png,object_06b.png,,,,,,,,,,,,,,,,,,,,
749.2999999970198,,rt_thecrossant_black6,1264577,,,,,,,,black_plus_sign,,,49,,,1,,,,,,,0.9090909090909091,,,,,,,,,,,,
null,,color_black6,1264687,,,,,,,,black_plus_sign,,,null,,,,,,,,,,,,,,,,,,,,,,
null,,learn_phase(without_color)6,1268201,,,,,,,,black_plus_sign,,,null,object_15b.png,object_10a.png,,,,,,,,,,,,,,,,,,,,
null,,black_cross(without_color)6,1269142,,,,,,,,green,,,null,object_15b.png,object_10a.png,,,,,,,,,,,,,,,,,,,,
null,,rt_plussign_withcolor6,1269658,,,,,,,,green,,,null,object_15b.png,object_10a.png,,,,,,,,,,,,,,,,,,,,
1030,,rt_thecrossant_black6,1270738,,,,,,,,black_plus_sign,,,50,,,1,,,,,,,0.9166666666666666,,,,,,,,,,,,
null,,color_black6,1270848,,,,,,,,black_plus_sign,,,null,,,,,,,,,,,,,,,,,,,,,,
null,,learn_phase(without_color)6,1274357,,,,,,,,black_plus_sign,,,null,object_05b.png,object_14a.png,,,,,,,,,,,,,,,,,,,,
null,,black_cross(without_color)6,1275213,,,,,,,,blue,,,null,object_05b.png,object_14a.png,,,,,,,,,,,,,,,,,,,,
null,,rt_plussign_withcolor6,1275726,,,,,,,,blue,,,null,object_05b.png,object_14a.png,,,,,,,,,,,,,,,,,,,,
1114.6000000089407,,rt_thecrossant_black6,1276897,,,,,,,,black_plus_sign,,,49,,,1,,,,,,,0.9230769230769231,,,,,,,,,,,,
null,,color_black6,1277004,,,,,,,,black_plus_sign,,,null,,,,,,,,,,,,,,,,,,,,,,
null,,learn_phase(without_color)6,1280523,,,,,,,,black_plus_sign,,,null,object_11b.png,object_05a.png,,,,,,,,,,,,,,,,,,,,
null,,black_cross(without_color)6,1280996,,,,,,,,green,,,null,object_11b.png,object_05a.png,,,,,,,,,,,,,,,,,,,,
null,,rt_plussign_withcolor6,1281513,,,,,,,,green,,,null,object_11b.png,object_05a.png,,,,,,,,,,,,,,,,,,,,
1093.7999999970198,,rt_thecrossant_black6,1283065,,,,,,,,black_plus_sign,,,50,,,1,,,,,,,0.9285714285714286,,,,,,,,,,,,
null,,color_black6,1283174,,,,,,,,black_plus_sign,,,null,,,,,,,,,,,,,,,,,,,,,,
null,,learn_phase(without_color)6,1286694,,,,,,,,black_plus_sign,,,null,object_03b.png,object_08a.png,,,,,,,,,,,,,,,,,,,,
null,,black_cross(without_color)6,1287479,,,,,,,,green,,,null,object_03b.png,object_08a.png,,,,,,,,,,,,,,,,,,,,
null,,rt_plussign_withcolor6,1287994,,,,,,,,green,,,null,object_03b.png,object_08a.png,,,,,,,,,,,,,,,,,,,,
644.6000000089407,,rt_thecrossant_black6,1289230,,,,,,,,black_plus_sign,,,50,,,1,,,,,,,0.9333333333333333,,,,,,,,,,,,
null,,color_black6,1289338,,,,,,,,black_plus_sign,,,null,,,,,,,,,,,,,,,,,,,,,,
null,,thebreak,1289446,,,,,,,,<p></p>,,,null,,,,,,,,,,,,,,,,,,,,,,
953.7999999970198,,intro_0,1290403,,,,,,,,instruct,,,32,,,,,,,,,,,,,,,,,,,,,,
8618.29999999702,,directmemory_phase6,1299024,,,,,,,,object_05a.png,,,51,,,0,,object_11b.png,object_07a.png,object_03b.png,object_11b.png,,0.75,0,,,,,,,,,,,
1266.5999999940395,,directmemory_phase6,1300295,,,,,,,,object_04c.png,,,49,,,1,,object_02c.png,object_12c.png,object_05b.png,object_02c.png,,0.7532467532467533,1,,,,,,,,,,,
1677,,directmemory_phase6,1301977,,,,,,,,object_14a.png,,,49,,,1,,object_05b.png,object_03a.png,object_07a.png,object_05b.png,,0.7564102564102564,1,,,,,,,,,,,
5523.199999988079,,directmemory_phase6,1307506,,,,,,,,object_08a.png,,,49,,,1,,object_03b.png,object_03a.png,object_13c.png,object_03b.png,,0.759493670886076,1,,,,,,,,,,,
4291.300000011921,,directmemory_phase6,1311802,,,,,,,,object_01b.png,,,49,,,1,,object_03a.png,object_01a.png,object_05c.png,object_03a.png,,0.7625,1,,,,,,,,,,,
4703.9000000059605,,directmemory_phase6,1316511,,,,,,,,object_06c.png,,,50,,,1,,object_05b.png,object_05c.png,object_01a.png,object_05c.png,,0.7654320987654321,1,,,,,,,,,,,
7743.79999999702,,directmemory_phase6,1324261,,,,,,,,object_10b.png,,,50,,,1,,object_03b.png,object_06a.png,object_02c.png,object_06a.png,,0.7682926829268293,1,,,,,,,,,,,
2023.800000011921,,directmemory_phase6,1326290,,,,,,,,object_12a.png,,,51,,,1,,object_06a.png,object_09c.png,object_07c.png,object_07c.png,,0.7710843373493976,1,,,,,,,,,,,
3178.2999999970198,,directmemory_phase6,1329474,,,,,,,,object_09b.png,,,49,,,1,,object_07a.png,object_06a.png,object_01a.png,object_07a.png,,0.7738095238095238,1,,,,,,,,,,,
6670.5,,directmemory_phase6,1336150,,,,,,,,object_15c.png,,,49,,,0,,object_02c.png,object_06a.png,object_13c.png,object_13c.png,,0.7647058823529411,0,,,,,,,,,,,
2845.300000011921,,directmemory_phase6,1339001,,,,,,,,object_08c.png,,,51,,,1,,object_03b.png,object_01c.png,object_01a.png,object_01a.png,,0.7674418604651163,1,,,,,,,,,,,
4944.4000000059605,,directmemory_phase6,1343950,,,,,,,,object_14c.png,,,51,,,0,,object_05b.png,object_09c.png,object_06a.png,object_09c.png,,0.7586206896551724,0,,,,,,,,,,,
1997.7000000029802,,directmemory_phase6,1345953,,,,,,,,object_10a.png,,,49,,,1,,object_15b.png,object_12c.png,object_07a.png,object_15b.png,,0.7613636363636364,1,,,,,,,,,,,
2443.9000000059605,,directmemory_phase6,1348403,,,,,,,,object_06b.png,,,51,,,1,,object_06a.png,object_05b.png,object_12c.png,object_12c.png,,0.7640449438202247,1,,,,,,,,,,,
1623.5,,directmemory_phase6,1350032,,,,,,,,object_15a.png,,,49,,,1,,object_01c.png,object_03a.png,object_06a.png,object_01c.png,,0.7666666666666667,1,,,,,,,,,,,
null,,thebreak,1350144,,,,,,,,<p></p>,,,null,,,,,,,,,,,,,,,,,,,,,,
1138.2999999970198,,intro_0,1351285,,,,,,,,instruct,,,32,,,,,,,,,,,,,,,,,,,,,,
null,,learn_phase(without_color)7,1354796,,,,,,,,black_plus_sign,,,null,object_05b.png,object_14a.png,,,,,,,,,,,,,,,,,,,,
null,,black_cross(without_color)7,1355437,,,,,,,,blue,,,null,object_05b.png,object_14a.png,,,,,,,,,,,,,,,,,,,,
null,,rt_plussign_withcolor7,1355950,,,,,,,,blue,,,null,object_05b.png,object_14a.png,,,,,,,,,,,,,,,,,,,,
917.8000000119209,,rt_thecrossant_black7,1357343,,,,,,,,black_plus_sign,,,49,,,1,,,,,,,1,,,,,,,,,,,,
null,,color_black7,1357452,,,,,,,,black_plus_sign,,,null,,,,,,,,,,,,,,,,,,,,,,
null,,learn_phase(without_color)7,1360961,,,,,,,,black_plus_sign,,,null,object_06a.png,object_10b.png,,,,,,,,,,,,,,,,,,,,
null,,black_cross(without_color)7,1361629,,,,,,,,green,,,null,object_06a.png,object_10b.png,,,,,,,,,,,,,,,,,,,,
null,,rt_plussign_withcolor7,1362148,,,,,,,,green,,,null,object_06a.png,object_10b.png,,,,,,,,,,,,,,,,,,,,
749.0999999940395,,rt_thecrossant_black7,1363503,,,,,,,,black_plus_sign,,,50,,,1,,,,,,,1,,,,,,,,,,,,
null,,color_black7,1363612,,,,,,,,black_plus_sign,,,null,,,,,,,,,,,,,,,,,,,,,,
null,,learn_phase(without_color)7,1367127,,,,,,,,black_plus_sign,,,null,object_07c.png,object_12a.png,,,,,,,,,,,,,,,,,,,,
null,,black_cross(without_color)7,1368032,,,,,,,,green,,,null,object_07c.png,object_12a.png,,,,,,,,,,,,,,,,,,,,
null,,rt_plussign_withcolor7,1368538,,,,,,,,green,,,null,object_07c.png,object_12a.png,,,,,,,,,,,,,,,,,,,,
830,,rt_thecrossant_black7,1369657,,,,,,,,black_plus_sign,,,50,,,1,,,,,,,1,,,,,,,,,,,,
null,,color_black7,1369767,,,,,,,,black_plus_sign,,,null,,,,,,,,,,,,,,,,,,,,,,
null,,learn_phase(without_color)7,1373276,,,,,,,,black_plus_sign,,,null,object_09c.png,object_14c.png,,,,,,,,,,,,,,,,,,,,
null,,black_cross(without_color)7,1374347,,,,,,,,blue,,,null,object_09c.png,object_14c.png,,,,,,,,,,,,,,,,,,,,
null,,rt_plussign_withcolor7,1374864,,,,,,,,blue,,,null,object_09c.png,object_14c.png,,,,,,,,,,,,,,,,,,,,
1179.5999999940395,,rt_thecrossant_black7,1375820,,,,,,,,black_plus_sign,,,49,,,1,,,,,,,1,,,,,,,,,,,,
null,,color_black7,1375928,,,,,,,,black_plus_sign,,,null,,,,,,,,,,,,,,,,,,,,,,
null,,learn_phase(without_color)7,1379443,,,,,,,,black_plus_sign,,,null,object_13c.png,object_15c.png,,,,,,,,,,,,,,,,,,,,
null,,black_cross(without_color)7,1379959,,,,,,,,green,,,null,object_13c.png,object_15c.png,,,,,,,,,,,,,,,,,,,,
null,,rt_plussign_withcolor7,1380474,,,,,,,,green,,,null,object_13c.png,object_15c.png,,,,,,,,,,,,,,,,,,,,
1296.5,,rt_thecrossant_black7,1381987,,,,,,,,black_plus_sign,,,50,,,1,,,,,,,1,,,,,,,,,,,,
null,,color_black7,1382097,,,,,,,,black_plus_sign,,,null,,,,,,,,,,,,,,,,,,,,,,
null,,learn_phase(without_color)7,1385613,,,,,,,,black_plus_sign,,,null,object_01c.png,object_15a.png,,,,,,,,,,,,,,,,,,,,
null,,black_cross(without_color)7,1386705,,,,,,,,green,,,null,object_01c.png,object_15a.png,,,,,,,,,,,,,,,,,,,,
null,,rt_plussign_withcolor7,1387211,,,,,,,,green,,,null,object_01c.png,object_15a.png,,,,,,,,,,,,,,,,,,,,
660.7999999970198,,rt_thecrossant_black7,1388133,,,,,,,,black_plus_sign,,,50,,,1,,,,,,,1,,,,,,,,,,,,
null,,color_black7,1388243,,,,,,,,black_plus_sign,,,null,,,,,,,,,,,,,,,,,,,,,,
null,,learn_phase(without_color)7,1391763,,,,,,,,black_plus_sign,,,null,object_01a.png,object_08c.png,,,,,,,,,,,,,,,,,,,,
null,,black_cross(without_color)7,1392356,,,,,,,,green,,,null,object_01a.png,object_08c.png,,,,,,,,,,,,,,,,,,,,
null,,rt_plussign_withcolor7,1392869,,,,,,,,green,,,null,object_01a.png,object_08c.png,,,,,,,,,,,,,,,,,,,,
1518.2999999970198,,rt_thecrossant_black7,1394311,,,,,,,,black_plus_sign,,,50,,,1,,,,,,,1,,,,,,,,,,,,
null,,color_black7,1394422,,,,,,,,black_plus_sign,,,null,,,,,,,,,,,,,,,,,,,,,,
null,,learn_phase(without_color)7,1397936,,,,,,,,black_plus_sign,,,null,object_05c.png,object_06c.png,,,,,,,,,,,,,,,,,,,,
null,,black_cross(without_color)7,1398730,,,,,,,,green,,,null,object_05c.png,object_06c.png,,,,,,,,,,,,,,,,,,,,
null,,rt_plussign_withcolor7,1399244,,,,,,,,green,,,null,object_05c.png,object_06c.png,,,,,,,,,,,,,,,,,,,,
702.5,,rt_thecrossant_black7,1400475,,,,,,,,black_plus_sign,,,50,,,1,,,,,,,1,,,,,,,,,,,,
null,,color_black7,1400584,,,,,,,,black_plus_sign,,,null,,,,,,,,,,,,,,,,,,,,,,
null,,learn_phase(without_color)7,1404096,,,,,,,,black_plus_sign,,,null,object_15b.png,object_10a.png,,,,,,,,,,,,,,,,,,,,
null,,black_cross(without_color)7,1404863,,,,,,,,blue,,,null,object_15b.png,object_10a.png,,,,,,,,,,,,,,,,,,,,
null,,rt_plussign_withcolor7,1405375,,,,,,,,blue,,,null,object_15b.png,object_10a.png,,,,,,,,,,,,,,,,,,,,
1061.1000000089407,,rt_thecrossant_black7,1406637,,,,,,,,black_plus_sign,,,49,,,1,,,,,,,1,,,,,,,,,,,,
null,,color_black7,1406742,,,,,,,,black_plus_sign,,,null,,,,,,,,,,,,,,,,,,,,,,
null,,learn_phase(without_color)7,1410257,,,,,,,,black_plus_sign,,,null,object_02c.png,object_04c.png,,,,,,,,,,,,,,,,,,,,
null,,black_cross(without_color)7,1411258,,,,,,,,green,,,null,object_02c.png,object_04c.png,,,,,,,,,,,,,,,,,,,,
null,,rt_plussign_withcolor7,1411774,,,,,,,,green,,,null,object_02c.png,object_04c.png,,,,,,,,,,,,,,,,,,,,
902,,rt_thecrossant_black7,1412788,,,,,,,,black_plus_sign,,,50,,,1,,,,,,,1,,,,,,,,,,,,
null,,color_black7,1412899,,,,,,,,black_plus_sign,,,null,,,,,,,,,,,,,,,,,,,,,,
null,,learn_phase(without_color)7,1416418,,,,,,,,black_plus_sign,,,null,object_12c.png,object_06b.png,,,,,,,,,,,,,,,,,,,,
null,,black_cross(without_color)7,1417059,,,,,,,,green,,,null,object_12c.png,object_06b.png,,,,,,,,,,,,,,,,,,,,
null,,rt_plussign_withcolor7,1417563,,,,,,,,green,,,null,object_12c.png,object_06b.png,,,,,,,,,,,,,,,,,,,,
1235.8999999910593,,rt_thecrossant_black7,1418955,,,,,,,,black_plus_sign,,,50,,,1,,,,,,,1,,,,,,,,,,,,
null,,color_black7,1419062,,,,,,,,black_plus_sign,,,null,,,,,,,,,,,,,,,,,,,,,,
null,,learn_phase(without_color)7,1422582,,,,,,,,black_plus_sign,,,null,object_03a.png,object_01b.png,,,,,,,,,,,,,,,,,,,,
null,,black_cross(without_color)7,1423658,,,,,,,,green,,,null,object_03a.png,object_01b.png,,,,,,,,,,,,,,,,,,,,
null,,rt_plussign_withcolor7,1424173,,,,,,,,green,,,null,object_03a.png,object_01b.png,,,,,,,,,,,,,,,,,,,,
867.2000000029802,,rt_thecrossant_black7,1425113,,,,,,,,black_plus_sign,,,50,,,1,,,,,,,1,,,,,,,,,,,,
null,,color_black7,1425225,,,,,,,,black_plus_sign,,,null,,,,,,,,,,,,,,,,,,,,,,
null,,learn_phase(without_color)7,1428745,,,,,,,,black_plus_sign,,,null,object_03b.png,object_08a.png,,,,,,,,,,,,,,,,,,,,
null,,black_cross(without_color)7,1429264,,,,,,,,green,,,null,object_03b.png,object_08a.png,,,,,,,,,,,,,,,,,,,,
null,,rt_plussign_withcolor7,1429778,,,,,,,,green,,,null,object_03b.png,object_08a.png,,,,,,,,,,,,,,,,,,,,
1541.7000000029802,,rt_thecrossant_black7,1431290,,,,,,,,black_plus_sign,,,50,,,1,,,,,,,1,,,,,,,,,,,,
null,,color_black7,1431399,,,,,,,,black_plus_sign,,,null,,,,,,,,,,,,,,,,,,,,,,
null,,learn_phase(without_color)7,1434910,,,,,,,,black_plus_sign,,,null,object_11b.png,object_05a.png,,,,,,,,,,,,,,,,,,,,
null,,black_cross(without_color)7,1435335,,,,,,,,green,,,null,object_11b.png,object_05a.png,,,,,,,,,,,,,,,,,,,,
null,,rt_plussign_withcolor7,1435853,,,,,,,,green,,,null,object_11b.png,object_05a.png,,,,,,,,,,,,,,,,,,,,
873.7000000029802,,rt_thecrossant_black7,1437459,,,,,,,,black_plus_sign,,,50,,,1,,,,,,,1,,,,,,,,,,,,
null,,color_black7,1437567,,,,,,,,black_plus_sign,,,null,,,,,,,,,,,,,,,,,,,,,,
null,,learn_phase(without_color)7,1441088,,,,,,,,black_plus_sign,,,null,object_07a.png,object_09b.png,,,,,,,,,,,,,,,,,,,,
null,,black_cross(without_color)7,1442108,,,,,,,,green,,,null,object_07a.png,object_09b.png,,,,,,,,,,,,,,,,,,,,
null,,rt_plussign_withcolor7,1442613,,,,,,,,green,,,null,object_07a.png,object_09b.png,,,,,,,,,,,,,,,,,,,,
695.2999999970198,,rt_thecrossant_black7,1443619,,,,,,,,black_plus_sign,,,50,,,1,,,,,,,1,,,,,,,,,,,,
null,,color_black7,1443727,,,,,,,,black_plus_sign,,,null,,,,,,,,,,,,,,,,,,,,,,
null,,thebreak,1443832,,,,,,,,<p></p>,,,null,,,,,,,,,,,,,,,,,,,,,,
793.2000000029802,,intro_0,1444629,,,,,,,,instruct,,,32,,,,,,,,,,,,,,,,,,,,,,
7155.4000000059605,,directmemory_phase7,1451787,,,,,,,,object_15c.png,,,50,,,1,,object_01c.png,object_13c.png,object_09c.png,object_13c.png,,0.7692307692307693,1,,,,,,,,,,,
1522.8999999910593,,directmemory_phase7,1453316,,,,,,,,object_10b.png,,,51,,,0,,object_03b.png,object_06a.png,object_02c.png,object_06a.png,,0.7608695652173914,0,,,,,,,,,,,
1723.5,,directmemory_phase7,1455045,,,,,,,,object_05a.png,,,51,,,1,,object_09c.png,object_05b.png,object_11b.png,object_11b.png,,0.7634408602150538,1,,,,,,,,,,,
8028.70000000298,,directmemory_phase7,1463080,,,,,,,,object_10a.png,,,49,,,0,,object_05b.png,object_15b.png,object_12c.png,object_15b.png,,0.7553191489361702,0,,,,,,,,,,,
5854.0999999940395,,directmemory_phase7,1468940,,,,,,,,object_14a.png,,,51,,,1,,object_01a.png,object_03b.png,object_05b.png,object_05b.png,,0.7578947368421053,1,,,,,,,,,,,
5738.5,,directmemory_phase7,1474683,,,,,,,,object_14c.png,,,51,,,0,,object_03a.png,object_09c.png,object_01c.png,object_09c.png,,0.75,0,,,,,,,,,,,
1286.8999999910593,,directmemory_phase7,1475976,,,,,,,,object_04c.png,,,51,,,1,,object_06a.png,object_01a.png,object_02c.png,object_02c.png,,0.7525773195876289,1,,,,,,,,,,,
1495.6000000089407,,directmemory_phase7,1477477,,,,,,,,object_15a.png,,,49,,,1,,object_01c.png,object_05b.png,object_11b.png,object_01c.png,,0.7551020408163265,1,,,,,,,,,,,
1456.7999999970198,,directmemory_phase7,1478939,,,,,,,,object_01b.png,,,49,,,1,,object_03a.png,object_03b.png,object_07c.png,object_03a.png,,0.7575757575757576,1,,,,,,,,,,,
6442.29999999702,,directmemory_phase7,1485387,,,,,,,,object_06c.png,,,49,,,0,,object_13c.png,object_11b.png,object_05c.png,object_05c.png,,0.75,0,,,,,,,,,,,
1386.2999999970198,,directmemory_phase7,1486778,,,,,,,,object_06b.png,,,51,,,1,,object_02c.png,object_11b.png,object_12c.png,object_12c.png,,0.7524752475247525,1,,,,,,,,,,,
1901.9000000059605,,directmemory_phase7,1488685,,,,,,,,object_08a.png,,,51,,,1,,object_05b.png,object_01a.png,object_03b.png,object_03b.png,,0.7549019607843137,1,,,,,,,,,,,
1371.6000000089407,,directmemory_phase7,1490059,,,,,,,,object_12a.png,,,50,,,1,,object_07a.png,object_07c.png,object_06a.png,object_07c.png,,0.7572815533980582,1,,,,,,,,,,,
1769.1000000089407,,directmemory_phase7,1491834,,,,,,,,object_09b.png,,,51,,,1,,object_05c.png,object_09c.png,object_07a.png,object_07a.png,,0.7596153846153846,1,,,,,,,,,,,
1375.0999999940395,,directmemory_phase7,1493214,,,,,,,,object_08c.png,,,51,,,1,,object_12c.png,object_05b.png,object_01a.png,object_01a.png,,0.7619047619047619,1,,,,,,,,,,,
null,,thebreak,1493325,,,,,,,,<p></p>,,,null,,,,,,,,,,,,,,,,,,,,,,
854.7999999970198,,intro_0,1494183,,,,,,,,instruct,,,32,,,,,,,,,,,,,,,,,,,,,,
null,,learn_phase(without_color)8,1497692,,,,,,,,black_plus_sign,,,null,object_01a.png,object_08c.png,,,,,,,,,,,,,,,,,,,,
null,,black_cross(without_color)8,1498389,,,,,,,,blue,,,null,object_01a.png,object_08c.png,,,,,,,,,,,,,,,,,,,,
null,,rt_plussign_withcolor8,1498903,,,,,,,,blue,,,null,object_01a.png,object_08c.png,,,,,,,,,,,,,,,,,,,,
1369.6000000089407,,rt_thecrossant_black8,1500232,,,,,,,,black_plus_sign,,,49,,,1,,,,,,,1,,,,,,,,,,,,
null,,color_black8,1500344,,,,,,,,black_plus_sign,,,null,,,,,,,,,,,,,,,,,,,,,,
null,,learn_phase(without_color)8,1503855,,,,,,,,black_plus_sign,,,null,object_05b.png,object_14a.png,,,,,,,,,,,,,,,,,,,,
null,,black_cross(without_color)8,1504804,,,,,,,,green,,,null,object_05b.png,object_14a.png,,,,,,,,,,,,,,,,,,,,
null,,rt_plussign_withcolor8,1505320,,,,,,,,green,,,null,object_05b.png,object_14a.png,,,,,,,,,,,,,,,,,,,,
920.2000000029802,,rt_thecrossant_black8,1506397,,,,,,,,black_plus_sign,,,50,,,1,,,,,,,1,,,,,,,,,,,,
null,,color_black8,1506506,,,,,,,,black_plus_sign,,,null,,,,,,,,,,,,,,,,,,,,,,
null,,learn_phase(without_color)8,1510024,,,,,,,,black_plus_sign,,,null,object_03a.png,object_01b.png,,,,,,,,,,,,,,,,,,,,
null,,black_cross(without_color)8,1511086,,,,,,,,green,,,null,object_03a.png,object_01b.png,,,,,,,,,,,,,,,,,,,,
null,,rt_plussign_withcolor8,1511602,,,,,,,,green,,,null,object_03a.png,object_01b.png,,,,,,,,,,,,,,,,,,,,
1238.2999999970198,,rt_thecrossant_black8,1512556,,,,,,,,black_plus_sign,,,50,,,1,,,,,,,1,,,,,,,,,,,,
null,,color_black8,1512665,,,,,,,,black_plus_sign,,,null,,,,,,,,,,,,,,,,,,,,,,
null,,learn_phase(without_color)8,1516185,,,,,,,,black_plus_sign,,,null,object_09c.png,object_14c.png,,,,,,,,,,,,,,,,,,,,
null,,black_cross(without_color)8,1516903,,,,,,,,green,,,null,object_09c.png,object_14c.png,,,,,,,,,,,,,,,,,,,,
null,,rt_plussign_withcolor8,1517420,,,,,,,,green,,,null,object_09c.png,object_14c.png,,,,,,,,,,,,,,,,,,,,
1346.8999999910593,,rt_thecrossant_black8,1518734,,,,,,,,black_plus_sign,,,50,,,1,,,,,,,1,,,,,,,,,,,,
null,,color_black8,1518842,,,,,,,,black_plus_sign,,,null,,,,,,,,,,,,,,,,,,,,,,
null,,learn_phase(without_color)8,1522354,,,,,,,,black_plus_sign,,,null,object_07c.png,object_12a.png,,,,,,,,,,,,,,,,,,,,
null,,black_cross(without_color)8,1523220,,,,,,,,blue,,,null,object_07c.png,object_12a.png,,,,,,,,,,,,,,,,,,,,
null,,rt_plussign_withcolor8,1523733,,,,,,,,blue,,,null,object_07c.png,object_12a.png,,,,,,,,,,,,,,,,,,,,
1103.9000000059605,,rt_thecrossant_black8,1524882,,,,,,,,black_plus_sign,,,49,,,1,,,,,,,1,,,,,,,,,,,,
null,,color_black8,1524991,,,,,,,,black_plus_sign,,,null,,,,,,,,,,,,,,,,,,,,,,
null,,learn_phase(without_color)8,1528506,,,,,,,,black_plus_sign,,,null,object_06a.png,object_10b.png,,,,,,,,,,,,,,,,,,,,
null,,black_cross(without_color)8,1529328,,,,,,,,blue,,,null,object_06a.png,object_10b.png,,,,,,,,,,,,,,,,,,,,
null,,rt_plussign_withcolor8,1529845,,,,,,,,blue,,,null,object_06a.png,object_10b.png,,,,,,,,,,,,,,,,,,,,
1174.5,,rt_thecrossant_black8,1531046,,,,,,,,black_plus_sign,,,49,,,1,,,,,,,1,,,,,,,,,,,,
null,,color_black8,1531154,,,,,,,,black_plus_sign,,,null,,,,,,,,,,,,,,,,,,,,,,
null,,learn_phase(without_color)8,1534668,,,,,,,,black_plus_sign,,,null,object_15b.png,object_10a.png,,,,,,,,,,,,,,,,,,,,
null,,black_cross(without_color)8,1535430,,,,,,,,green,,,null,object_15b.png,object_10a.png,,,,,,,,,,,,,,,,,,,,
null,,rt_plussign_withcolor8,1535948,,,,,,,,green,,,null,object_15b.png,object_10a.png,,,,,,,,,,,,,,,,,,,,
1094.5,,rt_thecrossant_black8,1537210,,,,,,,,black_plus_sign,,,50,,,1,,,,,,,1,,,,,,,,,,,,
null,,color_black8,1537320,,,,,,,,black_plus_sign,,,null,,,,,,,,,,,,,,,,,,,,,,
null,,learn_phase(without_color)8,1540838,,,,,,,,black_plus_sign,,,null,object_07a.png,object_09b.png,,,,,,,,,,,,,,,,,,,,
null,,black_cross(without_color)8,1541312,,,,,,,,green,,,null,object_07a.png,object_09b.png,,,,,,,,,,,,,,,,,,,,
null,,rt_plussign_withcolor8,1541829,,,,,,,,green,,,null,object_07a.png,object_09b.png,,,,,,,,,,,,,,,,,,,,
1075.0999999940395,,rt_thecrossant_black8,1543376,,,,,,,,black_plus_sign,,,50,,,1,,,,,,,1,,,,,,,,,,,,
null,,color_black8,1543485,,,,,,,,black_plus_sign,,,null,,,,,,,,,,,,,,,,,,,,,,
null,,learn_phase(without_color)8,1546997,,,,,,,,black_plus_sign,,,null,object_05c.png,object_06c.png,,,,,,,,,,,,,,,,,,,,
null,,black_cross(without_color)8,1547438,,,,,,,,blue,,,null,object_05c.png,object_06c.png,,,,,,,,,,,,,,,,,,,,
null,,rt_plussign_withcolor8,1547954,,,,,,,,blue,,,null,object_05c.png,object_06c.png,,,,,,,,,,,,,,,,,,,,
812.2999999970198,,rt_thecrossant_black8,1549548,,,,,,,,black_plus_sign,,,49,,,1,,,,,,,1,,,,,,,,,,,,
null,,color_black8,1549652,,,,,,,,black_plus_sign,,,null,,,,,,,,,,,,,,,,,,,,,,
null,,learn_phase(without_color)8,1553162,,,,,,,,black_plus_sign,,,null,object_02c.png,object_04c.png,,,,,,,,,,,,,,,,,,,,
null,,black_cross(without_color)8,1554195,,,,,,,,blue,,,null,object_02c.png,object_04c.png,,,,,,,,,,,,,,,,,,,,
null,,rt_plussign_withcolor8,1554710,,,,,,,,blue,,,null,object_02c.png,object_04c.png,,,,,,,,,,,,,,,,,,,,
1089.5,,rt_thecrossant_black8,1555695,,,,,,,,black_plus_sign,,,49,,,1,,,,,,,1,,,,,,,,,,,,
null,,color_black8,1555803,,,,,,,,black_plus_sign,,,null,,,,,,,,,,,,,,,,,,,,,,
null,,learn_phase(without_color)8,1559324,,,,,,,,black_plus_sign,,,null,object_11b.png,object_05a.png,,,,,,,,,,,,,,,,,,,,
null,,black_cross(without_color)8,1559795,,,,,,,,green,,,null,object_11b.png,object_05a.png,,,,,,,,,,,,,,,,,,,,
null,,rt_plussign_withcolor8,1560308,,,,,,,,green,,,null,object_11b.png,object_05a.png,,,,,,,,,,,,,,,,,,,,
1779.7999999970198,,rt_thecrossant_black8,1561872,,,,,,,,black_plus_sign,,,50,,,1,,,,,,,1,,,,,,,,,,,,
null,,color_black8,1561981,,,,,,,,black_plus_sign,,,null,,,,,,,,,,,,,,,,,,,,,,
null,,learn_phase(without_color)8,1565489,,,,,,,,black_plus_sign,,,null,object_12c.png,object_06b.png,,,,,,,,,,,,,,,,,,,,
null,,black_cross(without_color)8,1566130,,,,,,,,blue,,,null,object_12c.png,object_06b.png,,,,,,,,,,,,,,,,,,,,
null,,rt_plussign_withcolor8,1566646,,,,,,,,blue,,,null,object_12c.png,object_06b.png,,,,,,,,,,,,,,,,,,,,
833.5,,rt_thecrossant_black8,1568028,,,,,,,,black_plus_sign,,,49,,,1,,,,,,,1,,,,,,,,,,,,
null,,color_black8,1568132,,,,,,,,black_plus_sign,,,null,,,,,,,,,,,,,,,,,,,,,,
null,,learn_phase(without_color)8,1571640,,,,,,,,black_plus_sign,,,null,object_13c.png,object_15c.png,,,,,,,,,,,,,,,,,,,,
null,,black_cross(without_color)8,1572567,,,,,,,,blue,,,null,object_13c.png,object_15c.png,,,,,,,,,,,,,,,,,,,,
null,,rt_plussign_withcolor8,1573080,,,,,,,,blue,,,null,object_13c.png,object_15c.png,,,,,,,,,,,,,,,,,,,,
1149.4000000059605,,rt_thecrossant_black8,1574172,,,,,,,,black_plus_sign,,,49,,,1,,,,,,,1,,,,,,,,,,,,
null,,color_black8,1574283,,,,,,,,black_plus_sign,,,null,,,,,,,,,,,,,,,,,,,,,,
null,,learn_phase(without_color)8,1577789,,,,,,,,black_plus_sign,,,null,object_03b.png,object_08a.png,,,,,,,,,,,,,,,,,,,,
null,,black_cross(without_color)8,1578270,,,,,,,,blue,,,null,object_03b.png,object_08a.png,,,,,,,,,,,,,,,,,,,,
null,,rt_plussign_withcolor8,1578787,,,,,,,,blue,,,null,object_03b.png,object_08a.png,,,,,,,,,,,,,,,,,,,,
1267.2000000029802,,rt_thecrossant_black8,1580329,,,,,,,,black_plus_sign,,,49,,,1,,,,,,,1,,,,,,,,,,,,
null,,color_black8,1580441,,,,,,,,black_plus_sign,,,null,,,,,,,,,,,,,,,,,,,,,,
null,,learn_phase(without_color)8,1583955,,,,,,,,black_plus_sign,,,null,object_01c.png,object_15a.png,,,,,,,,,,,,,,,,,,,,
null,,black_cross(without_color)8,1584580,,,,,,,,green,,,null,object_01c.png,object_15a.png,,,,,,,,,,,,,,,,,,,,
null,,rt_plussign_withcolor8,1585094,,,,,,,,green,,,null,object_01c.png,object_15a.png,,,,,,,,,,,,,,,,,,,,
726,,rt_thecrossant_black8,1586488,,,,,,,,black_plus_sign,,,50,,,1,,,,,,,1,,,,,,,,,,,,
null,,color_black8,1586594,,,,,,,,black_plus_sign,,,null,,,,,,,,,,,,,,,,,,,,,,
null,,thebreak,1586700,,,,,,,,<p></p>,,,null,,,,,,,,,,,,,,,,,,,,,,
697.3000000119209,,intro_0,1587401,,,,,,,,instruct,,,32,,,,,,,,,,,,,,,,,,,,,,
1296.9000000059605,,directmemory_phase8,1588701,,,,,,,,object_08a.png,,,51,,,1,,object_01c.png,object_07c.png,object_03b.png,object_03b.png,,0.7641509433962265,1,,,,,,,,,,,
2550.6000000089407,,directmemory_phase8,1591258,,,,,,,,object_06c.png,,,51,,,1,,object_01a.png,object_05b.png,object_05c.png,object_05c.png,,0.7663551401869159,1,,,,,,,,,,,
2469.7999999970198,,directmemory_phase8,1593734,,,,,,,,object_10b.png,,,49,,,1,,object_06a.png,object_05c.png,object_12c.png,object_06a.png,,0.7685185185185185,1,,,,,,,,,,,
1851.0999999940395,,directmemory_phase8,1595591,,,,,,,,object_10a.png,,,51,,,1,,object_11b.png,object_09c.png,object_15b.png,object_15b.png,,0.7706422018348624,1,,,,,,,,,,,
5275.399999991059,,directmemory_phase8,1600873,,,,,,,,object_14c.png,,,51,,,1,,object_01a.png,object_11b.png,object_09c.png,object_09c.png,,0.7727272727272727,1,,,,,,,,,,,
2678.4000000059605,,directmemory_phase8,1603558,,,,,,,,object_09b.png,,,51,,,1,,object_13c.png,object_11b.png,object_07a.png,object_07a.png,,0.7747747747747747,1,,,,,,,,,,,
1378.9000000059605,,directmemory_phase8,1604943,,,,,,,,object_12a.png,,,49,,,1,,object_07c.png,object_01a.png,object_09c.png,object_07c.png,,0.7767857142857143,1,,,,,,,,,,,
1236.3999999910593,,directmemory_phase8,1606186,,,,,,,,object_15a.png,,,49,,,1,,object_01c.png,object_11b.png,object_13c.png,object_01c.png,,0.7787610619469026,1,,,,,,,,,,,
1473.8999999910593,,directmemory_phase8,1607666,,,,,,,,object_08c.png,,,50,,,1,,object_09c.png,object_01a.png,object_03a.png,object_01a.png,,0.7807017543859649,1,,,,,,,,,,,
2233.0999999940395,,directmemory_phase8,1609905,,,,,,,,object_15c.png,,,50,,,1,,object_01c.png,object_13c.png,object_09c.png,object_13c.png,,0.782608695652174,1,,,,,,,,,,,
4572.899999991059,,directmemory_phase8,1614485,,,,,,,,object_05a.png,,,49,,,1,,object_11b.png,object_01a.png,object_07a.png,object_11b.png,,0.7844827586206896,1,,,,,,,,,,,
1759.7000000029802,,directmemory_phase8,1616251,,,,,,,,object_14a.png,,,49,,,1,,object_05b.png,object_12c.png,object_07a.png,object_05b.png,,0.7863247863247863,1,,,,,,,,,,,
1749,,directmemory_phase8,1618006,,,,,,,,object_06b.png,,,50,,,0,,object_13c.png,object_01c.png,object_12c.png,object_12c.png,,0.7796610169491526,0,,,,,,,,,,,
1197.8999999910593,,directmemory_phase8,1619210,,,,,,,,object_04c.png,,,49,,,1,,object_02c.png,object_01c.png,object_05b.png,object_02c.png,,0.7815126050420168,1,,,,,,,,,,,
3006.5,,directmemory_phase8,1622222,,,,,,,,object_01b.png,,,50,,,1,,object_01a.png,object_03a.png,object_01c.png,object_03a.png,,0.7833333333333333,1,,,,,,,,,,,
null,,thebreak,1622330,,,,,,,,<p></p>,,,null,,,,,,,,,,,,,,,,,,,,,,
6036.0999999940395,,intro_0,1628370,,,,,,,,instruct,,,32,,,,,,,,,,,,,,,,,,,,,,
35771.20000000298,,intro_1,1664144,,,,,,,,instruct,,,32,,,,,,,,,,,,,,,,,,,,,,
7414.4000000059605,,intro_2,1671561,,,,,,,,instruct,,,32,,,,,,,,,,,,,,,,,,,,,,
,,intro_3,1703925,,,,,,,,instruct,,,,,,,,,,,,,,,,,,,,,,,,,
13161.20000000298,,intro_4,1717090,,,,,,,,instruct,,,32,,,,,,,,,,,,,,,,,,,,,,
5123,,inference_phase,1722217,,,,,,,,object_06b.png,,,49,object_02b.png,object_14b.png,0,,,,,object_03c.png,,0,,object_03c.png,,,,,,,,,,
3572.1000000089407,,inference_phase,1725795,,,,,,,,object_14c.png,,,50,object_02a.png,object_13a.png,1,,,,,object_02b.png,,0.5,,object_02b.png,,,,,,,,,,
3881.800000011921,,inference_phase,1729683,,,,,,,,object_05a.png,,,49,object_08b.png,object_11c.png,0,,,,,object_04b.png,,0.3333333333333333,,object_04b.png,,,,,,,,,,
4618.899999991059,,inference_phase,1734308,,,,,,,,object_10b.png,,,50,object_14b.png,object_08b.png,0,,,,,object_14b.png,,0.25,,object_10c.png,,,,,,,,,,
4186.29999999702,,inference_phase,1738500,,,,,,,,object_06c.png,,,50,object_04a.png,object_07b.png,0,,,,,object_07b.png,,0.2,,object_02b.png,,,,,,,,,,
6710,,inference_phase,1745217,,,,,,,,object_01b.png,,,50,object_02a.png,object_12b.png,0,,,,,object_02a.png,,0.16666666666666666,,object_04a.png,,,,,,,,,,
1801.2000000029802,,inference_phase,1747024,,,,,,,,object_09b.png,,,49,object_04a.png,object_03c.png,1,,,,,object_04a.png,,0.2857142857142857,,object_13a.png,,,,,,,,,,
6050.29999999702,,inference_phase,1753079,,,,,,,,object_15a.png,,,51,object_13a.png,object_08b.png,1,,,,,object_08b.png,,0.375,,object_04b.png,,,,,,,,,,
5829.399999991059,,inference_phase,1758915,,,,,,,,object_10a.png,,,50,object_11a.png,object_04b.png,0,,,,,object_11a.png,,0.3333333333333333,,object_11c.png,,,,,,,,,,
3138,,inference_phase,1762058,,,,,,,,object_08c.png,,,51,object_12b.png,object_11c.png,0,,,,,object_12b.png,,0.3,,object_07b.png,,,,,,,,,,
4383,,inference_phase,1766446,,,,,,,,object_14a.png,,,49,object_11c.png,object_04b.png,1,,,,,object_11c.png,,0.36363636363636365,,object_07b.png,,,,,,,,,,
5297.9000000059605,,inference_phase,1771750,,,,,,,,object_04c.png,,,51,object_09a.png,object_14b.png,0,,,,,object_09a.png,,0.3333333333333333,,object_12b.png,,,,,,,,,,
3755.5,,inference_phase,1775512,,,,,,,,object_08a.png,,,51,object_10c.png,object_09a.png,0,,,,,object_10c.png,,0.3076923076923077,,object_04b.png,,,,,,,,,,
2482.2999999970198,,inference_phase,1777999,,,,,,,,object_15c.png,,,50,object_14b.png,object_13a.png,1,,,,,object_13b.png,,0.35714285714285715,,object_13b.png,,,,,,,,,,
2099.699999988079,,inference_phase,1780105,,,,,,,,object_12a.png,,,49,object_13a.png,object_03c.png,1,,,,,object_13a.png,,0.4,,object_10c.png,,,,,,,,,,
,,survey,2038667,,,,,,,,survey-questions,,,,,,,,,,,,,,,,none,high,No,I made sure my eyes were fixed on the screen and the color pattern presented in each image,Yes, the trials were easy at first because the pairs were repeated, but later, they were changed.,No,Nothing at all,,,
5778.199999988079,,thank_you,2044567,,,,,,,,<p> Congratulations, you are all done!</p><p> <strong>Please click space on your keyboard to end the experiment!</strong> The secret code to enter at the beginning screen is: <strong>CIMBPENS</strong></p><p> Please make sure to submit the HIT and email uciccnl@gmail.com if you had any issues! </p><br><p>Please remember to submit this data by clicking space after copying the code. Failure of submission will lead to in-complete payment</p>,,,32,,,,,,,,,,,,,,,,,,,,1,3,C78LSMTN
