rt,responses,trial_type,time_elapsed,identifier_a,identifier_b,identifier_c,tasktype,browser_type,local_time,UTC_time,stimulus,button_pressed,response,key_press,stimulus_left,stimulus_right,accuracy,practice_cumulative_accuracy,stimulus_down_left,stimulus_down_mid,stimulus_down_right,stimulus_correct,prac_weighted_accuracy,cumulative_accuracy,failed_practice,weighted_accuracy,tooquick,stimulus_middle,problems,smooth,distraction,strategies,easier,similar,comments,detectfocus,breakfocus,completion_code
12581.09999999404,{worker_id:67eddf79a7c1d23c1535e17d},id_enter,12586,object_08c.png; object_13c.png; object_14c.png; object_05c.png; object_03c.png; object_02b.png; object_02a.png; object_04b.png; object_09b.png; object_11c.png; object_07a.png; object_03a.png; object_07b.png; object_12b.png; object_05b.png,object_01a.png; object_09c.png; object_13a.png; object_08b.png; object_01b.png; object_04c.png; object_15c.png; object_11a.png; object_08a.png; object_02c.png; object_12a.png; object_06c.png; object_11b.png; object_10c.png; object_10a.png,object_14a.png; object_03b.png; object_15a.png; object_07c.png; object_13b.png; object_01c.png; object_09a.png; object_06a.png; object_04a.png; object_12c.png; object_15b.png; object_05a.png; object_06b.png; object_10b.png; object_14b.png,blocked,Mozilla/5.0 (Windows NT 10.0; Win64; x64) AppleWebKit/537.36 (KHTML, like Gecko) Chrome/129.0.0.0 Safari/537.36,5/11/2025, 7:04:39 PM,2025-05-11 23:04:39.400,,,,,,,,,,,,,,,,,,,,,,,,,,,,
10074.5,,make_fullscreen,22703,,,,,,,,fullscreen,0,,,,,,,,,,,,,,,,,,,,,,,,,,
6305.399999976158,,instruct_1,29013,,,,,,,,instruct,0,Next,,,,,,,,,,,,,,,,,,,,,,,,,
4186.899999976158,,instruct_2,33205,,,,,,,,instruct,1,Next,,,,,,,,,,,,,,,,,,,,,,,,,
2198.4000000059605,,instruct_3,35406,,,,,,,,instruct,1,Next,,,,,,,,,,,,,,,,,,,,,,,,,
6499.5,,instruct_4,41909,,,,,,,,instruct,1,Next,,,,,,,,,,,,,,,,,,,,,,,,,
20091.29999998212,,instruct_5,62005,,,,,,,,instruct,1,Next,,,,,,,,,,,,,,,,,,,,,,,,,
4484.300000011921,,instruct_6,66493,,,,,,,,instruct,1,Next,,,,,,,,,,,,,,,,,,,,,,,,,
2761.2999999821186,,instruct_7,69258,,,,,,,,instruct,1,Next,,,,,,,,,,,,,,,,,,,,,,,,,
null,,prac_atten_color_black,69940,,,,,,,,black_plus_sign,,,null,,,,,,,,,,,,,,,,,,,,,,,,
null,,prac_atten_color,70667,,,,,,,,<p style='position:absolute;top: 50%;right: 50%;transform: translate(50%, -50%);font-size: 125px;color: blue;'>+</p>,,,null,,,,,,,,,,,,,,,,,,,,,,,,
262.09999999403954,,prac_atten_color_black,72671,,,,,,,,black_plus_sign,,,49,,,,,,,,,,,,,,,,,,,,,,,,
null,,prac_atten_color_black,73352,,,,,,,,black_plus_sign,,,null,,,,,,,,,,,,,,,,,,,,,,,,
null,,prac_atten_color,74311,,,,,,,,<p style='position:absolute;top: 50%;right: 50%;transform: translate(50%, -50%);font-size: 125px;color: green;'>+</p>,,,null,,,,,,,,,,,,,,,,,,,,,,,,
31.5,,prac_atten_color_black,76313,,,,,,,,black_plus_sign,,,50,,,,,,,,,,,,,,,,,,,,,,,,
null,,prac_atten_color_black,76762,,,,,,,,black_plus_sign,,,null,,,,,,,,,,,,,,,,,,,,,,,,
665.5999999940395,,prac_atten_color,77633,,,,,,,,<p style='position:absolute;top: 50%;right: 50%;transform: translate(50%, -50%);font-size: 125px;color: green;'>+</p>,,,50,,,,,,,,,,,,,,,,,,,,,,,,
null,,prac_atten_color_black,79635,,,,,,,,black_plus_sign,,,null,,,,,,,,,,,,,,,,,,,,,,,,
null,,prac_atten_color_black,80171,,,,,,,,black_plus_sign,,,null,,,,,,,,,,,,,,,,,,,,,,,,
null,,prac_atten_color,80917,,,,,,,,<p style='position:absolute;top: 50%;right: 50%;transform: translate(50%, -50%);font-size: 125px;color: blue;'>+</p>,,,null,,,,,,,,,,,,,,,,,,,,,,,,
3.5999999940395355,,prac_atten_color_black,82920,,,,,,,,black_plus_sign,,,49,,,,,,,,,,,,,,,,,,,,,,,,
null,,prac_atten_color_black,83580,,,,,,,,black_plus_sign,,,null,,,,,,,,,,,,,,,,,,,,,,,,
null,,prac_atten_color,84267,,,,,,,,<p style='position:absolute;top: 50%;right: 50%;transform: translate(50%, -50%);font-size: 125px;color: green;'>+</p>,,,null,,,,,,,,,,,,,,,,,,,,,,,,
34.900000005960464,,prac_atten_color_black,86270,,,,,,,,black_plus_sign,,,50,,,,,,,,,,,,,,,,,,,,,,,,
null,,prac_atten_color_black,86990,,,,,,,,black_plus_sign,,,null,,,,,,,,,,,,,,,,,,,,,,,,
null,,prac_atten_color,87633,,,,,,,,<p style='position:absolute;top: 50%;right: 50%;transform: translate(50%, -50%);font-size: 125px;color: green;'>+</p>,,,null,,,,,,,,,,,,,,,,,,,,,,,,
107.89999997615814,,prac_atten_color_black,89637,,,,,,,,black_plus_sign,,,50,,,,,,,,,,,,,,,,,,,,,,,,
null,,prac_atten_color_black,90404,,,,,,,,black_plus_sign,,,null,,,,,,,,,,,,,,,,,,,,,,,,
659.0999999940395,,prac_atten_color,91214,,,,,,,,<p style='position:absolute;top: 50%;right: 50%;transform: translate(50%, -50%);font-size: 125px;color: blue;'>+</p>,,,49,,,,,,,,,,,,,,,,,,,,,,,,
null,,prac_atten_color_black,93217,,,,,,,,black_plus_sign,,,null,,,,,,,,,,,,,,,,,,,,,,,,
null,,prac_atten_color_black,93814,,,,,,,,black_plus_sign,,,null,,,,,,,,,,,,,,,,,,,,,,,,
761.5999999940395,,prac_atten_color,94877,,,,,,,,<p style='position:absolute;top: 50%;right: 50%;transform: translate(50%, -50%);font-size: 125px;color: green;'>+</p>,,,50,,,,,,,,,,,,,,,,,,,,,,,,
null,,prac_atten_color_black,96879,,,,,,,,black_plus_sign,,,null,,,,,,,,,,,,,,,,,,,,,,,,
null,,prac_atten_color_black,97224,,,,,,,,black_plus_sign,,,null,,,,,,,,,,,,,,,,,,,,,,,,
743.0999999940395,,prac_atten_color,98254,,,,,,,,<p style='position:absolute;top: 50%;right: 50%;transform: translate(50%, -50%);font-size: 125px;color: blue;'>+</p>,,,49,,,,,,,,,,,,,,,,,,,,,,,,
null,,prac_atten_color_black,100257,,,,,,,,black_plus_sign,,,null,,,,,,,,,,,,,,,,,,,,,,,,
null,,prac_atten_color_black,100635,,,,,,,,black_plus_sign,,,null,,,,,,,,,,,,,,,,,,,,,,,,
null,,prac_atten_color,101574,,,,,,,,<p style='position:absolute;top: 50%;right: 50%;transform: translate(50%, -50%);font-size: 125px;color: blue;'>+</p>,,,null,,,,,,,,,,,,,,,,,,,,,,,,
59.599999994039536,,prac_atten_color_black,103576,,,,,,,,black_plus_sign,,,50,,,,,,,,,,,,,,,,,,,,,,,,
9893,,attentioncheck_feedback,113473,,,,,,,,cross_check_feedback,0,,,,,,,,,,,,,,,,,,,,,,,,,,
19476.70000001788,,last_instruct,132955,,,,,,,,instruct,,,32,,,,,,,,,,,,,,,,,,,,,,,,
null,,prac_learn_phase(without_color),136459,,,,,,,,black_plus_sign,,,null,object_14c.png,object_13a.png,,,,,,,,,,,,,,,,,,,,,,
null,,prac_black_cross(without_color),137221,,,,,,,,blue,,,null,object_14c.png,object_13a.png,,,,,,,,,,,,,,,,,,,,,,
null,,prac_rt_plussign_withcolor,137724,,,,,,,,blue,,,null,object_14c.png,object_13a.png,,,,,,,,,,,,,,,,,,,,,,
1382.0999999940395,,prac_rt_thecrossant_black,138968,,,,,,,,black_plus_sign,,,49,,,1,1,,,,,,,,,,,,,,,,,,,,
null,,prac_color_black,139073,,,,,,,,black_plus_sign,,,null,,,,,,,,,,,,,,,,,,,,,,,,
null,,prac_learn_phase(without_color),142578,,,,,,,,black_plus_sign,,,null,object_08c.png,object_01a.png,,,,,,,,,,,,,,,,,,,,,,
null,,black_cross(without_color)1,143188,,,,,,,,blue,,,null,object_14c.png,object_13a.png,,,,,,,,,,,,,,,,,,,,,,
null,,prac_rt_plussign_withcolor,143690,,,,,,,,blue,,,null,object_08c.png,object_01a.png,,,,,,,,,,,,,,,,,,,,,,
1028.5,,prac_rt_thecrossant_black,144705,,,,,,,,black_plus_sign,,,49,,,1,1,,,,,,,,,,,,,,,,,,,,
null,,prac_color_black,144810,,,,,,,,black_plus_sign,,,null,,,,,,,,,,,,,,,,,,,,,,,,
null,,prac_learn_phase(without_color),148314,,,,,,,,black_plus_sign,,,null,object_11c.png,object_02c.png,,,,,,,,,,,,,,,,,,,,,,
null,,black_cross(without_color)1,148923,,,,,,,,blue,,,null,object_14c.png,object_13a.png,,,,,,,,,,,,,,,,,,,,,,
null,,prac_rt_plussign_withcolor,149426,,,,,,,,blue,,,null,object_11c.png,object_02c.png,,,,,,,,,,,,,,,,,,,,,,
1407.7999999821186,,prac_rt_thecrossant_black,150487,,,,,,,,black_plus_sign,,,49,,,1,1,,,,,,,,,,,,,,,,,,,,
null,,prac_color_black,151489,,,,,,,,black_plus_sign,,,null,,,,,,,,,,,,,,,,,,,,,,,,
null,,prac_learn_phase(without_color),154990,,,,,,,,black_plus_sign,,,null,object_03c.png,object_01b.png,,,,,,,,,,,,,,,,,,,,,,
null,,black_cross(without_color)1,155597,,,,,,,,blue,,,null,object_14c.png,object_13a.png,,,,,,,,,,,,,,,,,,,,,,
null,,prac_rt_plussign_withcolor,156105,,,,,,,,blue,,,null,object_03c.png,object_01b.png,,,,,,,,,,,,,,,,,,,,,,
null,,prac_rt_thecrossant_black,157647,,,,,,,,black_plus_sign,,,null,,,,1,,,,,,,,,,,,,,,,,,,,
null,,prac_color_black,157750,,,,,,,,black_plus_sign,,,null,,,,,,,,,,,,,,,,,,,,,,,,
5577,,instruct_dir_01,163330,,,,,,,,instruct,0,Next,,,,,,,,,,,,,,,,,,,,,,,,,
4330.100000023842,,instruct_dir_2,167663,,,,,,,,instruct,1,Next,,,,,,,,,,,,,,,,,,,,,,,,,
3018.5999999940395,,instruct_dir_3,170685,,,,,,,,instruct,1,Next,,,,,,,,,,,,,,,,,,,,,,,,,
4587.4000000059605,,instruct_dir_4,175275,,,,,,,,instruct,1,Start,,,,,,,,,,,,,,,,,,,,,,,,,
null,,thebreak,175385,,,,,,,,<p></p>,,,null,,,,,,,,,,,,,,,,,,,,,,,,
2427.9000000059605,,intro_0,177815,,,,,,,,instruct,,,32,,,,,,,,,,,,,,,,,,,,,,,,
4018,,prac_directmemory_phase,181835,,,,,,,,practice/object_04b.png,,,50,,,0,,practice/object_02a.png,practice/object_01a.png,practice/object_04a.png,practice/object_04a.png,0,0,,,,,,,,,,,,,,
5132.0999999940395,,prac_directmemory_phase,186974,,,,,,,,practice/object_02b.png,,,51,,,0,,practice/object_02a.png,practice/object_01a.png,practice/object_03a.png,practice/object_02a.png,0,0,,,,,,,,,,,,,,
2440.199999988079,,prac_directmemory_phase,189418,,,,,,,,practice/object_03b.png,,,50,,,0,,practice/object_03a.png,practice/object_04a.png,practice/object_01a.png,practice/object_03a.png,0,0,,,,,,,,,,,,,,
2971,,prac_directmemory_phase,192392,,,,,,,,practice/object_01b.png,,,51,,,0,,practice/object_01a.png,practice/object_04a.png,practice/object_02a.png,practice/object_01a.png,0,0,,,,,,,,,,,,,,
17967.80000001192,,practice_feedback_force_restart,210365,,,,,,,,practice_feedback,0,,,,,,,,,,,,,1,,,,,,,,,,,,,
1394.199999988079,,last_instruct,211761,,,,,,,,instruct,,,32,,,,,,,,,,,,,,,,,,,,,,,,
null,,prac_learn_phase(without_color),215264,,,,,,,,black_plus_sign,,,null,object_14c.png,object_13a.png,,,,,,,,,,,,,,,,,,,,,,
null,,prac_black_cross(without_color),216314,,,,,,,,blue,,,null,object_14c.png,object_13a.png,,,,,,,,,,,,,,,,,,,,,,
null,,prac_rt_plussign_withcolor,216817,,,,,,,,blue,,,null,object_14c.png,object_13a.png,,,,,,,,,,,,,,,,,,,,,,
null,,prac_rt_thecrossant_black,217773,,,,,,,,black_plus_sign,,,null,,,,1,,,,,,,,,,,,,,,,,,,,
null,,warning_page,222776,,,,,,,,warning,,,null,,,,,,,,,,,,,,,,,,,,,,,,
null,,prac_color_black,222880,,,,,,,,black_plus_sign,,,null,,,,,,,,,,,,,,,,,,,,,,,,
null,,prac_learn_phase(without_color),226384,,,,,,,,black_plus_sign,,,null,object_08c.png,object_01a.png,,,,,,,,,,,,,,,,,,,,,,
null,,black_cross(without_color)1,226993,,,,,,,,blue,,,null,object_14c.png,object_13a.png,,,,,,,,,,,,,,,,,,,,,,
null,,prac_rt_plussign_withcolor,227497,,,,,,,,blue,,,null,object_08c.png,object_01a.png,,,,,,,,,,,,,,,,,,,,,,
1381.3999999761581,,prac_rt_thecrossant_black,228747,,,,,,,,black_plus_sign,,,49,,,1,1,,,,,,,,,,,,,,,,,,,,
null,,prac_color_black,228851,,,,,,,,black_plus_sign,,,null,,,,,,,,,,,,,,,,,,,,,,,,
null,,prac_learn_phase(without_color),232355,,,,,,,,black_plus_sign,,,null,object_11c.png,object_02c.png,,,,,,,,,,,,,,,,,,,,,,
null,,black_cross(without_color)1,232965,,,,,,,,blue,,,null,object_14c.png,object_13a.png,,,,,,,,,,,,,,,,,,,,,,
null,,prac_rt_plussign_withcolor,233466,,,,,,,,blue,,,null,object_11c.png,object_02c.png,,,,,,,,,,,,,,,,,,,,,,
1201.0999999940395,,prac_rt_thecrossant_black,234865,,,,,,,,black_plus_sign,,,49,,,1,1,,,,,,,,,,,,,,,,,,,,
null,,prac_color_black,234969,,,,,,,,black_plus_sign,,,null,,,,,,,,,,,,,,,,,,,,,,,,
null,,prac_learn_phase(without_color),238476,,,,,,,,black_plus_sign,,,null,object_03c.png,object_01b.png,,,,,,,,,,,,,,,,,,,,,,
null,,black_cross(without_color)1,239085,,,,,,,,blue,,,null,object_14c.png,object_13a.png,,,,,,,,,,,,,,,,,,,,,,
null,,prac_rt_plussign_withcolor,239589,,,,,,,,blue,,,null,object_03c.png,object_01b.png,,,,,,,,,,,,,,,,,,,,,,
958.2999999821186,,prac_rt_thecrossant_black,240593,,,,,,,,black_plus_sign,,,49,,,1,1,,,,,,,,,,,,,,,,,,,,
null,,prac_color_black,240697,,,,,,,,black_plus_sign,,,null,,,,,,,,,,,,,,,,,,,,,,,,
3609.300000011921,,instruct_dir_01,244309,,,,,,,,instruct,0,Next,,,,,,,,,,,,,,,,,,,,,,,,,
1926.5,,instruct_dir_2,246239,,,,,,,,instruct,1,Next,,,,,,,,,,,,,,,,,,,,,,,,,
16379.40000000596,,instruct_dir_3,262622,,,,,,,,instruct,1,Next,,,,,,,,,,,,,,,,,,,,,,,,,
3252.300000011921,,instruct_dir_4,265879,,,,,,,,instruct,1,Start,,,,,,,,,,,,,,,,,,,,,,,,,
null,,thebreak,265981,,,,,,,,<p></p>,,,null,,,,,,,,,,,,,,,,,,,,,,,,
2181.2999999821186,,intro_0,268164,,,,,,,,instruct,,,32,,,,,,,,,,,,,,,,,,,,,,,,
2585.7999999821186,,prac_directmemory_phase,270753,,,,,,,,practice/object_04b.png,,,51,,,1,,practice/object_02a.png,practice/object_01a.png,practice/object_04a.png,practice/object_04a.png,1,1,,,,,,,,,,,,,,
2492.800000011921,,prac_directmemory_phase,273251,,,,,,,,practice/object_02b.png,,,49,,,1,,practice/object_02a.png,practice/object_01a.png,practice/object_03a.png,practice/object_02a.png,1,1,,,,,,,,,,,,,,
3071.2000000178814,,prac_directmemory_phase,276326,,,,,,,,practice/object_03b.png,,,49,,,1,,practice/object_03a.png,practice/object_04a.png,practice/object_01a.png,practice/object_03a.png,1,1,,,,,,,,,,,,,,
2491.9000000059605,,prac_directmemory_phase,278822,,,,,,,,practice/object_01b.png,,,49,,,1,,practice/object_01a.png,practice/object_04a.png,practice/object_02a.png,practice/object_01a.png,1,1,,,,,,,,,,,,,,
18361.600000023842,,practice_feedback,297188,,,,,,,,practice_feedback,1,,,,,,,,,,,,,,,,,,,,,,,,,,
3170.4000000059605,,proceed_actualTask,300361,,,,,,,,proceed_actualTask,1,Continue,,,,,,,,,,,,,,,,,,,,,,,,,
23805.40000000596,,last_inst,324169,,,,,,,,last_inst,,,32,,,,,,,,,,,,,,,,,,,,,,,,
null,,learn_phase(without_color)1,327673,,,,,,,,black_plus_sign,,,null,object_14c.png,object_13a.png,,,,,,,,,,,,,,,,,,,,,,
null,,black_cross(without_color)1,328285,,,,,,,,blue,,,null,object_14c.png,object_13a.png,,,,,,,,,,,,,,,,,,,,,,
380.59999999403954,,rt_plussign_withcolor1,328789,,,,,,,,blue,,,49,object_14c.png,object_13a.png,,,,,,,,,,,,,,,,,,,,,,
null,,rt_thecrossant_black1,330192,,,,,,,,black_plus_sign,,,null,,,1,,,,,,,1,,,,,,,,,,,,,,
null,,color_black1,330317,,,,,,,,black_plus_sign,,,null,,,,,,,,,,,,,,,,,,,,,,,,
null,,learn_phase(without_color)1,333823,,,,,,,,black_plus_sign,,,null,object_08c.png,object_01a.png,,,,,,,,,,,,,,,,,,,,,,
null,,black_cross(without_color)1,334633,,,,,,,,green,,,null,object_08c.png,object_01a.png,,,,,,,,,,,,,,,,,,,,,,
null,,rt_plussign_withcolor1,335135,,,,,,,,green,,,null,object_08c.png,object_01a.png,,,,,,,,,,,,,,,,,,,,,,
845.2999999821186,,rt_thecrossant_black1,336332,,,,,,,,black_plus_sign,,,50,,,1,,,,,,,1,,,,,,,,,,,,,,
null,,color_black1,336435,,,,,,,,black_plus_sign,,,null,,,,,,,,,,,,,,,,,,,,,,,,
null,,learn_phase(without_color)1,339939,,,,,,,,black_plus_sign,,,null,object_11c.png,object_02c.png,,,,,,,,,,,,,,,,,,,,,,
null,,black_cross(without_color)1,340563,,,,,,,,blue,,,null,object_11c.png,object_02c.png,,,,,,,,,,,,,,,,,,,,,,
null,,rt_plussign_withcolor1,341065,,,,,,,,blue,,,null,object_11c.png,object_02c.png,,,,,,,,,,,,,,,,,,,,,,
1234.199999988079,,rt_thecrossant_black1,342448,,,,,,,,black_plus_sign,,,49,,,1,,,,,,,1,,,,,,,,,,,,,,
null,,color_black1,342552,,,,,,,,black_plus_sign,,,null,,,,,,,,,,,,,,,,,,,,,,,,
null,,learn_phase(without_color)1,346069,,,,,,,,black_plus_sign,,,null,object_03c.png,object_01b.png,,,,,,,,,,,,,,,,,,,,,,
null,,black_cross(without_color)1,347119,,,,,,,,blue,,,null,object_03c.png,object_01b.png,,,,,,,,,,,,,,,,,,,,,,
null,,rt_plussign_withcolor1,347626,,,,,,,,blue,,,null,object_03c.png,object_01b.png,,,,,,,,,,,,,,,,,,,,,,
1216.300000011921,,rt_thecrossant_black1,348584,,,,,,,,black_plus_sign,,,49,,,1,,,,,,,1,,,,,,,,,,,,,,
null,,color_black1,348686,,,,,,,,black_plus_sign,,,null,,,,,,,,,,,,,,,,,,,,,,,,
null,,learn_phase(without_color)1,352190,,,,,,,,black_plus_sign,,,null,object_02b.png,object_04c.png,,,,,,,,,,,,,,,,,,,,,,
null,,black_cross(without_color)1,353131,,,,,,,,green,,,null,object_02b.png,object_04c.png,,,,,,,,,,,,,,,,,,,,,,
null,,rt_plussign_withcolor1,353632,,,,,,,,green,,,null,object_02b.png,object_04c.png,,,,,,,,,,,,,,,,,,,,,,
1287.2999999821186,,rt_thecrossant_black1,354712,,,,,,,,black_plus_sign,,,50,,,1,,,,,,,1,,,,,,,,,,,,,,
null,,color_black1,354815,,,,,,,,black_plus_sign,,,null,,,,,,,,,,,,,,,,,,,,,,,,
null,,learn_phase(without_color)1,358319,,,,,,,,black_plus_sign,,,null,object_03a.png,object_06c.png,,,,,,,,,,,,,,,,,,,,,,
null,,black_cross(without_color)1,359145,,,,,,,,blue,,,null,object_03a.png,object_06c.png,,,,,,,,,,,,,,,,,,,,,,
null,,rt_plussign_withcolor1,359647,,,,,,,,blue,,,null,object_03a.png,object_06c.png,,,,,,,,,,,,,,,,,,,,,,
1354.5,,rt_thecrossant_black1,360828,,,,,,,,black_plus_sign,,,49,,,1,,,,,,,1,,,,,,,,,,,,,,
null,,color_black1,360932,,,,,,,,black_plus_sign,,,null,,,,,,,,,,,,,,,,,,,,,,,,
null,,learn_phase(without_color)1,364435,,,,,,,,black_plus_sign,,,null,object_07b.png,object_11b.png,,,,,,,,,,,,,,,,,,,,,,
null,,black_cross(without_color)1,365113,,,,,,,,blue,,,null,object_07b.png,object_11b.png,,,,,,,,,,,,,,,,,,,,,,
null,,rt_plussign_withcolor1,365625,,,,,,,,blue,,,null,object_07b.png,object_11b.png,,,,,,,,,,,,,,,,,,,,,,
1136.199999988079,,rt_thecrossant_black1,366956,,,,,,,,black_plus_sign,,,49,,,1,,,,,,,1,,,,,,,,,,,,,,
null,,color_black1,367061,,,,,,,,black_plus_sign,,,null,,,,,,,,,,,,,,,,,,,,,,,,
null,,learn_phase(without_color)1,370569,,,,,,,,black_plus_sign,,,null,object_04b.png,object_11a.png,,,,,,,,,,,,,,,,,,,,,,
null,,black_cross(without_color)1,371009,,,,,,,,blue,,,null,object_04b.png,object_11a.png,,,,,,,,,,,,,,,,,,,,,,
null,,rt_plussign_withcolor1,371511,,,,,,,,blue,,,null,object_04b.png,object_11a.png,,,,,,,,,,,,,,,,,,,,,,
1004.0999999940395,,rt_thecrossant_black1,373077,,,,,,,,black_plus_sign,,,49,,,1,,,,,,,1,,,,,,,,,,,,,,
null,,color_black1,373181,,,,,,,,black_plus_sign,,,null,,,,,,,,,,,,,,,,,,,,,,,,
null,,learn_phase(without_color)1,376684,,,,,,,,black_plus_sign,,,null,object_12b.png,object_10c.png,,,,,,,,,,,,,,,,,,,,,,
null,,black_cross(without_color)1,377535,,,,,,,,green,,,null,object_12b.png,object_10c.png,,,,,,,,,,,,,,,,,,,,,,
null,,rt_plussign_withcolor1,378038,,,,,,,,green,,,null,object_12b.png,object_10c.png,,,,,,,,,,,,,,,,,,,,,,
771.8000000119209,,rt_thecrossant_black1,379194,,,,,,,,black_plus_sign,,,50,,,1,,,,,,,1,,,,,,,,,,,,,,
null,,color_black1,379298,,,,,,,,black_plus_sign,,,null,,,,,,,,,,,,,,,,,,,,,,,,
null,,learn_phase(without_color)1,382802,,,,,,,,black_plus_sign,,,null,object_05b.png,object_10a.png,,,,,,,,,,,,,,,,,,,,,,
null,,black_cross(without_color)1,383671,,,,,,,,blue,,,null,object_05b.png,object_10a.png,,,,,,,,,,,,,,,,,,,,,,
470,,rt_plussign_withcolor1,384173,,,,,,,,blue,,,49,object_05b.png,object_10a.png,,,,,,,,,,,,,,,,,,,,,,
null,,rt_thecrossant_black1,385311,,,,,,,,black_plus_sign,,,null,,,1,,,,,,,1,,,,,,,,,,,,,,
null,,color_black1,385413,,,,,,,,black_plus_sign,,,null,,,,,,,,,,,,,,,,,,,,,,,,
null,,learn_phase(without_color)1,388917,,,,,,,,black_plus_sign,,,null,object_13c.png,object_09c.png,,,,,,,,,,,,,,,,,,,,,,
null,,black_cross(without_color)1,389424,,,,,,,,green,,,null,object_13c.png,object_09c.png,,,,,,,,,,,,,,,,,,,,,,
null,,rt_plussign_withcolor1,389936,,,,,,,,green,,,null,object_13c.png,object_09c.png,,,,,,,,,,,,,,,,,,,,,,
1266.699999988079,,rt_thecrossant_black1,391440,,,,,,,,black_plus_sign,,,50,,,1,,,,,,,1,,,,,,,,,,,,,,
null,,color_black1,391543,,,,,,,,black_plus_sign,,,null,,,,,,,,,,,,,,,,,,,,,,,,
null,,learn_phase(without_color)1,395047,,,,,,,,black_plus_sign,,,null,object_07a.png,object_12a.png,,,,,,,,,,,,,,,,,,,,,,
null,,black_cross(without_color)1,396145,,,,,,,,green,,,null,object_07a.png,object_12a.png,,,,,,,,,,,,,,,,,,,,,,
null,,rt_plussign_withcolor1,396646,,,,,,,,green,,,null,object_07a.png,object_12a.png,,,,,,,,,,,,,,,,,,,,,,
924.4000000059605,,rt_thecrossant_black1,397554,,,,,,,,black_plus_sign,,,50,,,1,,,,,,,1,,,,,,,,,,,,,,
null,,color_black1,397656,,,,,,,,black_plus_sign,,,null,,,,,,,,,,,,,,,,,,,,,,,,
null,,learn_phase(without_color)1,401160,,,,,,,,black_plus_sign,,,null,object_09b.png,object_08a.png,,,,,,,,,,,,,,,,,,,,,,
null,,black_cross(without_color)1,401824,,,,,,,,blue,,,null,object_09b.png,object_08a.png,,,,,,,,,,,,,,,,,,,,,,
null,,rt_plussign_withcolor1,402328,,,,,,,,blue,,,null,object_09b.png,object_08a.png,,,,,,,,,,,,,,,,,,,,,,
1437.800000011921,,rt_thecrossant_black1,403672,,,,,,,,black_plus_sign,,,49,,,1,,,,,,,1,,,,,,,,,,,,,,
null,,color_black1,403778,,,,,,,,black_plus_sign,,,null,,,,,,,,,,,,,,,,,,,,,,,,
null,,learn_phase(without_color)1,407281,,,,,,,,black_plus_sign,,,null,object_02a.png,object_15c.png,,,,,,,,,,,,,,,,,,,,,,
null,,black_cross(without_color)1,407937,,,,,,,,blue,,,null,object_02a.png,object_15c.png,,,,,,,,,,,,,,,,,,,,,,
null,,rt_plussign_withcolor1,408449,,,,,,,,blue,,,null,object_02a.png,object_15c.png,,,,,,,,,,,,,,,,,,,,,,
1261.800000011921,,rt_thecrossant_black1,409802,,,,,,,,black_plus_sign,,,49,,,1,,,,,,,1,,,,,,,,,,,,,,
null,,color_black1,409906,,,,,,,,black_plus_sign,,,null,,,,,,,,,,,,,,,,,,,,,,,,
null,,learn_phase(without_color)1,413410,,,,,,,,black_plus_sign,,,null,object_05c.png,object_08b.png,,,,,,,,,,,,,,,,,,,,,,
null,,black_cross(without_color)1,413826,,,,,,,,green,,,null,object_05c.png,object_08b.png,,,,,,,,,,,,,,,,,,,,,,
null,,rt_plussign_withcolor1,414331,,,,,,,,green,,,null,object_05c.png,object_08b.png,,,,,,,,,,,,,,,,,,,,,,
1145.5,,rt_thecrossant_black1,415924,,,,,,,,black_plus_sign,,,50,,,1,,,,,,,1,,,,,,,,,,,,,,
null,,color_black1,416028,,,,,,,,black_plus_sign,,,null,,,,,,,,,,,,,,,,,,,,,,,,
null,,thebreak,416135,,,,,,,,<p></p>,,,null,,,,,,,,,,,,,,,,,,,,,,,,
16637.70000001788,,intro_0,432775,,,,,,,,instruct,,,32,,,,,,,,,,,,,,,,,,,,,,,,
3091.5999999940395,,directmemory_phase1,435869,,,,,,,,object_01a.png,,,50,,,1,,object_14c.png,object_08c.png,object_12b.png,object_08c.png,,1,,1,,,,,,,,,,,,
2530.399999976158,,directmemory_phase1,438406,,,,,,,,object_04c.png,,,49,,,1,,object_02b.png,object_02a.png,object_03a.png,object_02b.png,,1,,1,,,,,,,,,,,,
4136.9000000059605,,directmemory_phase1,442547,,,,,,,,object_11a.png,,,49,,,1,,object_04b.png,object_02b.png,object_02a.png,object_04b.png,,1,,1,,,,,,,,,,,,
4723.5,,directmemory_phase1,447275,,,,,,,,object_12a.png,,,50,,,1,,object_03a.png,object_07a.png,object_04b.png,object_07a.png,,1,,1,,,,,,,,,,,,
3375.0999999940395,,directmemory_phase1,450654,,,,,,,,object_01b.png,,,51,,,1,,object_08c.png,object_12b.png,object_03c.png,object_03c.png,,1,,1,,,,,,,,,,,,
4296.200000017881,,directmemory_phase1,454955,,,,,,,,object_09c.png,,,49,,,1,,object_13c.png,object_03a.png,object_12b.png,object_13c.png,,1,,1,,,,,,,,,,,,
4045.4000000059605,,directmemory_phase1,459005,,,,,,,,object_02c.png,,,50,,,1,,object_08c.png,object_11c.png,object_02a.png,object_11c.png,,1,,1,,,,,,,,,,,,
6268.5999999940395,,directmemory_phase1,465278,,,,,,,,object_15c.png,,,51,,,1,,object_04b.png,object_13c.png,object_02a.png,object_02a.png,,1,,1,,,,,,,,,,,,
3019.7000000178814,,directmemory_phase1,468302,,,,,,,,object_13a.png,,,50,,,1,,object_05c.png,object_14c.png,object_12b.png,object_14c.png,,1,,1,,,,,,,,,,,,
7515.100000023842,,directmemory_phase1,475822,,,,,,,,object_06c.png,,,51,,,1,,object_07a.png,object_04b.png,object_03a.png,object_03a.png,,1,,1,,,,,,,,,,,,
2594.2999999821186,,directmemory_phase1,478421,,,,,,,,object_10c.png,,,51,,,1,,object_09b.png,object_03c.png,object_12b.png,object_12b.png,,1,,1,,,,,,,,,,,,
5252.300000011921,,directmemory_phase1,483677,,,,,,,,object_11b.png,,,51,,,1,,object_14c.png,object_02b.png,object_07b.png,object_07b.png,,1,,1,,,,,,,,,,,,
3760.600000023842,,directmemory_phase1,487443,,,,,,,,object_10a.png,,,49,,,1,,object_05b.png,object_02a.png,object_11c.png,object_05b.png,,1,,1,,,,,,,,,,,,
2704.2000000178814,,directmemory_phase1,490151,,,,,,,,object_08a.png,,,51,,,1,,object_13c.png,object_07b.png,object_09b.png,object_09b.png,,1,,1,,,,,,,,,,,,
4134.800000011921,,directmemory_phase1,494291,,,,,,,,object_08b.png,,,51,,,1,,object_02a.png,object_07a.png,object_05c.png,object_05c.png,,1,,1,,,,,,,,,,,,
null,,thebreak,494395,,,,,,,,<p></p>,,,null,,,,,,,,,,,,,,,,,,,,,,,,
6794.5999999940395,,intro_0,501193,,,,,,,,instruct,,,32,,,,,,,,,,,,,,,,,,,,,,,,
null,,learn_phase(without_color)2,504696,,,,,,,,black_plus_sign,,,null,object_07a.png,object_12a.png,,,,,,,,,,,,,,,,,,,,,,
null,,black_cross(without_color)2,505353,,,,,,,,green,,,null,object_07a.png,object_12a.png,,,,,,,,,,,,,,,,,,,,,,
null,,rt_plussign_withcolor2,505855,,,,,,,,green,,,null,object_07a.png,object_12a.png,,,,,,,,,,,,,,,,,,,,,,
2015.5999999940395,,rt_thecrossant_black2,507206,,,,,,,,black_plus_sign,,,50,,,1,,,,,,,1,,,,,,,,,,,,,,
null,,color_black2,507309,,,,,,,,black_plus_sign,,,null,,,,,,,,,,,,,,,,,,,,,,,,
null,,learn_phase(without_color)2,510813,,,,,,,,black_plus_sign,,,null,object_07b.png,object_11b.png,,,,,,,,,,,,,,,,,,,,,,
null,,black_cross(without_color)2,511494,,,,,,,,green,,,null,object_07b.png,object_11b.png,,,,,,,,,,,,,,,,,,,,,,
null,,rt_plussign_withcolor2,511997,,,,,,,,green,,,null,object_07b.png,object_11b.png,,,,,,,,,,,,,,,,,,,,,,
1081.199999988079,,rt_thecrossant_black2,513324,,,,,,,,black_plus_sign,,,50,,,1,,,,,,,1,,,,,,,,,,,,,,
null,,color_black2,513429,,,,,,,,black_plus_sign,,,null,,,,,,,,,,,,,,,,,,,,,,,,
null,,learn_phase(without_color)2,516933,,,,,,,,black_plus_sign,,,null,object_05b.png,object_10a.png,,,,,,,,,,,,,,,,,,,,,,
null,,black_cross(without_color)2,517561,,,,,,,,green,,,null,object_05b.png,object_10a.png,,,,,,,,,,,,,,,,,,,,,,
null,,rt_plussign_withcolor2,518064,,,,,,,,green,,,null,object_05b.png,object_10a.png,,,,,,,,,,,,,,,,,,,,,,
1075.7999999821186,,rt_thecrossant_black2,519445,,,,,,,,black_plus_sign,,,50,,,1,,,,,,,1,,,,,,,,,,,,,,
null,,color_black2,519548,,,,,,,,black_plus_sign,,,null,,,,,,,,,,,,,,,,,,,,,,,,
null,,learn_phase(without_color)2,523053,,,,,,,,black_plus_sign,,,null,object_12b.png,object_10c.png,,,,,,,,,,,,,,,,,,,,,,
null,,black_cross(without_color)2,523543,,,,,,,,blue,,,null,object_12b.png,object_10c.png,,,,,,,,,,,,,,,,,,,,,,
null,,rt_plussign_withcolor2,524045,,,,,,,,blue,,,null,object_12b.png,object_10c.png,,,,,,,,,,,,,,,,,,,,,,
1107.2999999821186,,rt_thecrossant_black2,525575,,,,,,,,black_plus_sign,,,49,,,1,,,,,,,1,,,,,,,,,,,,,,
null,,color_black2,525679,,,,,,,,black_plus_sign,,,null,,,,,,,,,,,,,,,,,,,,,,,,
null,,learn_phase(without_color)2,529183,,,,,,,,black_plus_sign,,,null,object_02b.png,object_04c.png,,,,,,,,,,,,,,,,,,,,,,
null,,black_cross(without_color)2,529880,,,,,,,,green,,,null,object_02b.png,object_04c.png,,,,,,,,,,,,,,,,,,,,,,
487.59999999403954,,rt_plussign_withcolor2,530382,,,,,,,,green,,,50,object_02b.png,object_04c.png,,,,,,,,,,,,,,,,,,,,,,
null,,rt_thecrossant_black2,531694,,,,,,,,black_plus_sign,,,null,,,1,,,,,,,1,,,,,,,,,,,,,,
null,,color_black2,531801,,,,,,,,black_plus_sign,,,null,,,,,,,,,,,,,,,,,,,,,,,,
null,,learn_phase(without_color)2,535305,,,,,,,,black_plus_sign,,,null,object_04b.png,object_11a.png,,,,,,,,,,,,,,,,,,,,,,
null,,black_cross(without_color)2,535836,,,,,,,,green,,,null,object_04b.png,object_11a.png,,,,,,,,,,,,,,,,,,,,,,
null,,rt_plussign_withcolor2,536340,,,,,,,,green,,,null,object_04b.png,object_11a.png,,,,,,,,,,,,,,,,,,,,,,
1373.199999988079,,rt_thecrossant_black2,537819,,,,,,,,black_plus_sign,,,50,,,1,,,,,,,1,,,,,,,,,,,,,,
null,,color_black2,537923,,,,,,,,black_plus_sign,,,null,,,,,,,,,,,,,,,,,,,,,,,,
null,,learn_phase(without_color)2,541427,,,,,,,,black_plus_sign,,,null,object_09b.png,object_08a.png,,,,,,,,,,,,,,,,,,,,,,
null,,black_cross(without_color)2,542160,,,,,,,,green,,,null,object_09b.png,object_08a.png,,,,,,,,,,,,,,,,,,,,,,
null,,rt_plussign_withcolor2,542662,,,,,,,,green,,,null,object_09b.png,object_08a.png,,,,,,,,,,,,,,,,,,,,,,
884.8000000119209,,rt_thecrossant_black2,543935,,,,,,,,black_plus_sign,,,50,,,1,,,,,,,1,,,,,,,,,,,,,,
null,,color_black2,544039,,,,,,,,black_plus_sign,,,null,,,,,,,,,,,,,,,,,,,,,,,,
null,,learn_phase(without_color)2,547544,,,,,,,,black_plus_sign,,,null,object_14c.png,object_13a.png,,,,,,,,,,,,,,,,,,,,,,
null,,black_cross(without_color)2,548639,,,,,,,,green,,,null,object_14c.png,object_13a.png,,,,,,,,,,,,,,,,,,,,,,
null,,rt_plussign_withcolor2,549141,,,,,,,,green,,,null,object_14c.png,object_13a.png,,,,,,,,,,,,,,,,,,,,,,
1235.5,,rt_thecrossant_black2,550052,,,,,,,,black_plus_sign,,,50,,,1,,,,,,,1,,,,,,,,,,,,,,
null,,color_black2,550156,,,,,,,,black_plus_sign,,,null,,,,,,,,,,,,,,,,,,,,,,,,
null,,learn_phase(without_color)2,553660,,,,,,,,black_plus_sign,,,null,object_02a.png,object_15c.png,,,,,,,,,,,,,,,,,,,,,,
null,,black_cross(without_color)2,554121,,,,,,,,green,,,null,object_02a.png,object_15c.png,,,,,,,,,,,,,,,,,,,,,,
null,,rt_plussign_withcolor2,554623,,,,,,,,green,,,null,object_02a.png,object_15c.png,,,,,,,,,,,,,,,,,,,,,,
1535.699999988079,,rt_thecrossant_black2,556170,,,,,,,,black_plus_sign,,,50,,,1,,,,,,,1,,,,,,,,,,,,,,
null,,color_black2,556273,,,,,,,,black_plus_sign,,,null,,,,,,,,,,,,,,,,,,,,,,,,
null,,learn_phase(without_color)2,559777,,,,,,,,black_plus_sign,,,null,object_05c.png,object_08b.png,,,,,,,,,,,,,,,,,,,,,,
null,,black_cross(without_color)2,560762,,,,,,,,green,,,null,object_05c.png,object_08b.png,,,,,,,,,,,,,,,,,,,,,,
null,,rt_plussign_withcolor2,561273,,,,,,,,green,,,null,object_05c.png,object_08b.png,,,,,,,,,,,,,,,,,,,,,,
935.5,,rt_thecrossant_black2,562298,,,,,,,,black_plus_sign,,,50,,,1,,,,,,,1,,,,,,,,,,,,,,
null,,color_black2,562403,,,,,,,,black_plus_sign,,,null,,,,,,,,,,,,,,,,,,,,,,,,
null,,learn_phase(without_color)2,565907,,,,,,,,black_plus_sign,,,null,object_03a.png,object_06c.png,,,,,,,,,,,,,,,,,,,,,,
null,,black_cross(without_color)2,566610,,,,,,,,green,,,null,object_03a.png,object_06c.png,,,,,,,,,,,,,,,,,,,,,,
null,,rt_plussign_withcolor2,567112,,,,,,,,green,,,null,object_03a.png,object_06c.png,,,,,,,,,,,,,,,,,,,,,,
1413,,rt_thecrossant_black2,568418,,,,,,,,black_plus_sign,,,50,,,1,,,,,,,1,,,,,,,,,,,,,,
null,,color_black2,568521,,,,,,,,black_plus_sign,,,null,,,,,,,,,,,,,,,,,,,,,,,,
null,,learn_phase(without_color)2,572025,,,,,,,,black_plus_sign,,,null,object_13c.png,object_09c.png,,,,,,,,,,,,,,,,,,,,,,
null,,black_cross(without_color)2,572655,,,,,,,,blue,,,null,object_13c.png,object_09c.png,,,,,,,,,,,,,,,,,,,,,,
null,,rt_plussign_withcolor2,573157,,,,,,,,blue,,,null,object_13c.png,object_09c.png,,,,,,,,,,,,,,,,,,,,,,
1235,,rt_thecrossant_black2,574535,,,,,,,,black_plus_sign,,,49,,,1,,,,,,,1,,,,,,,,,,,,,,
null,,color_black2,574640,,,,,,,,black_plus_sign,,,null,,,,,,,,,,,,,,,,,,,,,,,,
null,,learn_phase(without_color)2,578149,,,,,,,,black_plus_sign,,,null,object_08c.png,object_01a.png,,,,,,,,,,,,,,,,,,,,,,
null,,black_cross(without_color)2,579180,,,,,,,,green,,,null,object_08c.png,object_01a.png,,,,,,,,,,,,,,,,,,,,,,
null,,rt_plussign_withcolor2,579682,,,,,,,,green,,,null,object_08c.png,object_01a.png,,,,,,,,,,,,,,,,,,,,,,
1183.800000011921,,rt_thecrossant_black2,580659,,,,,,,,black_plus_sign,,,50,,,1,,,,,,,1,,,,,,,,,,,,,,
null,,color_black2,580763,,,,,,,,black_plus_sign,,,null,,,,,,,,,,,,,,,,,,,,,,,,
null,,learn_phase(without_color)2,584269,,,,,,,,black_plus_sign,,,null,object_11c.png,object_02c.png,,,,,,,,,,,,,,,,,,,,,,
null,,black_cross(without_color)2,584900,,,,,,,,blue,,,null,object_11c.png,object_02c.png,,,,,,,,,,,,,,,,,,,,,,
null,,rt_plussign_withcolor2,585403,,,,,,,,blue,,,null,object_11c.png,object_02c.png,,,,,,,,,,,,,,,,,,,,,,
1607.2999999821186,,rt_thecrossant_black2,586783,,,,,,,,black_plus_sign,,,49,,,1,,,,,,,1,,,,,,,,,,,,,,
null,,color_black2,586887,,,,,,,,black_plus_sign,,,null,,,,,,,,,,,,,,,,,,,,,,,,
null,,learn_phase(without_color)2,590392,,,,,,,,black_plus_sign,,,null,object_03c.png,object_01b.png,,,,,,,,,,,,,,,,,,,,,,
null,,black_cross(without_color)2,591444,,,,,,,,green,,,null,object_03c.png,object_01b.png,,,,,,,,,,,,,,,,,,,,,,
null,,rt_plussign_withcolor2,591947,,,,,,,,green,,,null,object_03c.png,object_01b.png,,,,,,,,,,,,,,,,,,,,,,
1033.9000000059605,,rt_thecrossant_black2,592917,,,,,,,,black_plus_sign,,,50,,,1,,,,,,,1,,,,,,,,,,,,,,
null,,color_black2,593021,,,,,,,,black_plus_sign,,,null,,,,,,,,,,,,,,,,,,,,,,,,
null,,thebreak,593126,,,,,,,,<p></p>,,,null,,,,,,,,,,,,,,,,,,,,,,,,
17131.69999998808,,intro_0,610259,,,,,,,,instruct,,,32,,,,,,,,,,,,,,,,,,,,,,,,
3435.4000000059605,,directmemory_phase2,613699,,,,,,,,object_11a.png,,,50,,,1,,object_03c.png,object_04b.png,object_03a.png,object_04b.png,,1,,1,,,,,,,,,,,,
3505.5999999940395,,directmemory_phase2,617210,,,,,,,,object_09c.png,,,49,,,1,,object_13c.png,object_02b.png,object_07b.png,object_13c.png,,1,,1,,,,,,,,,,,,
3345.4000000059605,,directmemory_phase2,620559,,,,,,,,object_02c.png,,,49,,,1,,object_11c.png,object_09b.png,object_08c.png,object_11c.png,,1,,1,,,,,,,,,,,,
3048.9000000059605,,directmemory_phase2,623613,,,,,,,,object_01b.png,,,49,,,1,,object_03c.png,object_09b.png,object_05c.png,object_03c.png,,1,,1,,,,,,,,,,,,
2510.9000000059605,,directmemory_phase2,626129,,,,,,,,object_04c.png,,,50,,,1,,object_04b.png,object_02b.png,object_02a.png,object_02b.png,,1,,1,,,,,,,,,,,,
4144.0999999940395,,directmemory_phase2,630278,,,,,,,,object_13a.png,,,50,,,1,,object_13c.png,object_14c.png,object_07a.png,object_14c.png,,1,,1,,,,,,,,,,,,
2745.399999976158,,directmemory_phase2,633028,,,,,,,,object_08a.png,,,49,,,1,,object_09b.png,object_14c.png,object_13c.png,object_09b.png,,1,,1,,,,,,,,,,,,
3992,,directmemory_phase2,637025,,,,,,,,object_12a.png,,,49,,,1,,object_07a.png,object_03a.png,object_03c.png,object_07a.png,,1,,1,,,,,,,,,,,,
5616.300000011921,,directmemory_phase2,642646,,,,,,,,object_11b.png,,,50,,,1,,object_08c.png,object_07b.png,object_14c.png,object_07b.png,,1,,1,,,,,,,,,,,,
2919.399999976158,,directmemory_phase2,645569,,,,,,,,object_06c.png,,,51,,,1,,object_02b.png,object_08c.png,object_03a.png,object_03a.png,,1,,1,,,,,,,,,,,,
3801.4000000059605,,directmemory_phase2,649375,,,,,,,,object_15c.png,,,49,,,1,,object_02a.png,object_12b.png,object_03c.png,object_02a.png,,1,,1,,,,,,,,,,,,
2409.199999988079,,directmemory_phase2,651789,,,,,,,,object_10c.png,,,49,,,1,,object_12b.png,object_07b.png,object_09b.png,object_12b.png,,1,,1,,,,,,,,,,,,
5790.199999988079,,directmemory_phase2,657584,,,,,,,,object_01a.png,,,49,,,1,,object_08c.png,object_03a.png,object_03c.png,object_08c.png,,1,,1,,,,,,,,,,,,
3586,,directmemory_phase2,661175,,,,,,,,object_10a.png,,,49,,,1,,object_05b.png,object_03a.png,object_07b.png,object_05b.png,,1,,1,,,,,,,,,,,,
3679.800000011921,,directmemory_phase2,664859,,,,,,,,object_08b.png,,,51,,,1,,object_04b.png,object_07b.png,object_05c.png,object_05c.png,,1,,1,,,,,,,,,,,,
null,,thebreak,664963,,,,,,,,<p></p>,,,null,,,,,,,,,,,,,,,,,,,,,,,,
25130.09999999404,,intro_0,690095,,,,,,,,instruct,,,32,,,,,,,,,,,,,,,,,,,,,,,,
null,,learn_phase(without_color)3,693598,,,,,,,,black_plus_sign,,,null,object_12b.png,object_10c.png,,,,,,,,,,,,,,,,,,,,,,
null,,black_cross(without_color)3,694463,,,,,,,,blue,,,null,object_12b.png,object_10c.png,,,,,,,,,,,,,,,,,,,,,,
null,,rt_plussign_withcolor3,694965,,,,,,,,blue,,,null,object_12b.png,object_10c.png,,,,,,,,,,,,,,,,,,,,,,
1119.699999988079,,rt_thecrossant_black3,696120,,,,,,,,black_plus_sign,,,49,,,1,,,,,,,1,,,,,,,,,,,,,,
null,,color_black3,696224,,,,,,,,black_plus_sign,,,null,,,,,,,,,,,,,,,,,,,,,,,,
null,,learn_phase(without_color)3,699730,,,,,,,,black_plus_sign,,,null,object_08c.png,object_01a.png,,,,,,,,,,,,,,,,,,,,,,
null,,black_cross(without_color)3,700810,,,,,,,,blue,,,null,object_08c.png,object_01a.png,,,,,,,,,,,,,,,,,,,,,,
null,,rt_plussign_withcolor3,701312,,,,,,,,blue,,,null,object_08c.png,object_01a.png,,,,,,,,,,,,,,,,,,,,,,
1255.199999988079,,rt_thecrossant_black3,702239,,,,,,,,black_plus_sign,,,49,,,1,,,,,,,1,,,,,,,,,,,,,,
null,,color_black3,702343,,,,,,,,black_plus_sign,,,null,,,,,,,,,,,,,,,,,,,,,,,,
null,,learn_phase(without_color)3,705847,,,,,,,,black_plus_sign,,,null,object_03a.png,object_06c.png,,,,,,,,,,,,,,,,,,,,,,
null,,black_cross(without_color)3,706298,,,,,,,,blue,,,null,object_03a.png,object_06c.png,,,,,,,,,,,,,,,,,,,,,,
null,,rt_plussign_withcolor3,706801,,,,,,,,blue,,,null,object_03a.png,object_06c.png,,,,,,,,,,,,,,,,,,,,,,
1694.5,,rt_thecrossant_black3,708357,,,,,,,,black_plus_sign,,,49,,,1,,,,,,,1,,,,,,,,,,,,,,
null,,color_black3,708461,,,,,,,,black_plus_sign,,,null,,,,,,,,,,,,,,,,,,,,,,,,
null,,learn_phase(without_color)3,711965,,,,,,,,black_plus_sign,,,null,object_07b.png,object_11b.png,,,,,,,,,,,,,,,,,,,,,,
null,,black_cross(without_color)3,712722,,,,,,,,blue,,,null,object_07b.png,object_11b.png,,,,,,,,,,,,,,,,,,,,,,
444,,rt_plussign_withcolor3,713224,,,,,,,,blue,,,49,object_07b.png,object_11b.png,,,,,,,,,,,,,,,,,,,,,,
null,,rt_thecrossant_black3,714474,,,,,,,,black_plus_sign,,,null,,,1,,,,,,,1,,,,,,,,,,,,,,
null,,color_black3,714579,,,,,,,,black_plus_sign,,,null,,,,,,,,,,,,,,,,,,,,,,,,
null,,learn_phase(without_color)3,718087,,,,,,,,black_plus_sign,,,null,object_14c.png,object_13a.png,,,,,,,,,,,,,,,,,,,,,,
null,,black_cross(without_color)3,719000,,,,,,,,blue,,,null,object_14c.png,object_13a.png,,,,,,,,,,,,,,,,,,,,,,
null,,rt_plussign_withcolor3,719505,,,,,,,,blue,,,null,object_14c.png,object_13a.png,,,,,,,,,,,,,,,,,,,,,,
1315.4000000059605,,rt_thecrossant_black3,720603,,,,,,,,black_plus_sign,,,49,,,1,,,,,,,1,,,,,,,,,,,,,,
null,,color_black3,720706,,,,,,,,black_plus_sign,,,null,,,,,,,,,,,,,,,,,,,,,,,,
null,,learn_phase(without_color)3,724210,,,,,,,,black_plus_sign,,,null,object_02b.png,object_04c.png,,,,,,,,,,,,,,,,,,,,,,
null,,black_cross(without_color)3,724900,,,,,,,,green,,,null,object_02b.png,object_04c.png,,,,,,,,,,,,,,,,,,,,,,
null,,rt_plussign_withcolor3,725403,,,,,,,,green,,,null,object_02b.png,object_04c.png,,,,,,,,,,,,,,,,,,,,,,
1341.2000000178814,,rt_thecrossant_black3,726720,,,,,,,,black_plus_sign,,,50,,,1,,,,,,,1,,,,,,,,,,,,,,
null,,color_black3,726823,,,,,,,,black_plus_sign,,,null,,,,,,,,,,,,,,,,,,,,,,,,
null,,learn_phase(without_color)3,730329,,,,,,,,black_plus_sign,,,null,object_05c.png,object_08b.png,,,,,,,,,,,,,,,,,,,,,,
null,,black_cross(without_color)3,730812,,,,,,,,green,,,null,object_05c.png,object_08b.png,,,,,,,,,,,,,,,,,,,,,,
null,,rt_plussign_withcolor3,731314,,,,,,,,green,,,null,object_05c.png,object_08b.png,,,,,,,,,,,,,,,,,,,,,,
1141.199999988079,,rt_thecrossant_black3,732838,,,,,,,,black_plus_sign,,,50,,,1,,,,,,,1,,,,,,,,,,,,,,
null,,color_black3,732942,,,,,,,,black_plus_sign,,,null,,,,,,,,,,,,,,,,,,,,,,,,
null,,learn_phase(without_color)3,736446,,,,,,,,black_plus_sign,,,null,object_03c.png,object_01b.png,,,,,,,,,,,,,,,,,,,,,,
null,,black_cross(without_color)3,736955,,,,,,,,blue,,,null,object_03c.png,object_01b.png,,,,,,,,,,,,,,,,,,,,,,
null,,rt_plussign_withcolor3,737457,,,,,,,,blue,,,null,object_03c.png,object_01b.png,,,,,,,,,,,,,,,,,,,,,,
891.2999999821186,,rt_thecrossant_black3,738955,,,,,,,,black_plus_sign,,,49,,,1,,,,,,,1,,,,,,,,,,,,,,
null,,color_black3,739060,,,,,,,,black_plus_sign,,,null,,,,,,,,,,,,,,,,,,,,,,,,
null,,learn_phase(without_color)3,742575,,,,,,,,black_plus_sign,,,null,object_07a.png,object_12a.png,,,,,,,,,,,,,,,,,,,,,,
null,,black_cross(without_color)3,743524,,,,,,,,blue,,,null,object_07a.png,object_12a.png,,,,,,,,,,,,,,,,,,,,,,
null,,rt_plussign_withcolor3,744026,,,,,,,,blue,,,null,object_07a.png,object_12a.png,,,,,,,,,,,,,,,,,,,,,,
842.1999999880791,,rt_thecrossant_black3,745085,,,,,,,,black_plus_sign,,,49,,,1,,,,,,,1,,,,,,,,,,,,,,
null,,color_black3,745189,,,,,,,,black_plus_sign,,,null,,,,,,,,,,,,,,,,,,,,,,,,
null,,learn_phase(without_color)3,748692,,,,,,,,black_plus_sign,,,null,object_05b.png,object_10a.png,,,,,,,,,,,,,,,,,,,,,,
null,,black_cross(without_color)3,749742,,,,,,,,green,,,null,object_05b.png,object_10a.png,,,,,,,,,,,,,,,,,,,,,,
null,,rt_plussign_withcolor3,750244,,,,,,,,green,,,null,object_05b.png,object_10a.png,,,,,,,,,,,,,,,,,,,,,,
1509.199999988079,,rt_thecrossant_black3,751201,,,,,,,,black_plus_sign,,,50,,,1,,,,,,,1,,,,,,,,,,,,,,
null,,color_black3,751313,,,,,,,,black_plus_sign,,,null,,,,,,,,,,,,,,,,,,,,,,,,
null,,learn_phase(without_color)3,754817,,,,,,,,black_plus_sign,,,null,object_04b.png,object_11a.png,,,,,,,,,,,,,,,,,,,,,,
null,,black_cross(without_color)3,755858,,,,,,,,green,,,null,object_04b.png,object_11a.png,,,,,,,,,,,,,,,,,,,,,,
null,,rt_plussign_withcolor3,756360,,,,,,,,green,,,null,object_04b.png,object_11a.png,,,,,,,,,,,,,,,,,,,,,,
1520.0999999940395,,rt_thecrossant_black3,757334,,,,,,,,black_plus_sign,,,50,,,1,,,,,,,1,,,,,,,,,,,,,,
null,,color_black3,757438,,,,,,,,black_plus_sign,,,null,,,,,,,,,,,,,,,,,,,,,,,,
null,,learn_phase(without_color)3,760942,,,,,,,,black_plus_sign,,,null,object_13c.png,object_09c.png,,,,,,,,,,,,,,,,,,,,,,
null,,black_cross(without_color)3,761480,,,,,,,,blue,,,null,object_13c.png,object_09c.png,,,,,,,,,,,,,,,,,,,,,,
null,,rt_plussign_withcolor3,761984,,,,,,,,blue,,,null,object_13c.png,object_09c.png,,,,,,,,,,,,,,,,,,,,,,
1585.199999988079,,rt_thecrossant_black3,763456,,,,,,,,black_plus_sign,,,49,,,1,,,,,,,1,,,,,,,,,,,,,,
null,,color_black3,763562,,,,,,,,black_plus_sign,,,null,,,,,,,,,,,,,,,,,,,,,,,,
null,,learn_phase(without_color)3,767067,,,,,,,,black_plus_sign,,,null,object_11c.png,object_02c.png,,,,,,,,,,,,,,,,,,,,,,
null,,black_cross(without_color)3,767685,,,,,,,,blue,,,null,object_11c.png,object_02c.png,,,,,,,,,,,,,,,,,,,,,,
null,,rt_plussign_withcolor3,768190,,,,,,,,blue,,,null,object_11c.png,object_02c.png,,,,,,,,,,,,,,,,,,,,,,
1025,,rt_thecrossant_black3,769582,,,,,,,,black_plus_sign,,,49,,,1,,,,,,,1,,,,,,,,,,,,,,
null,,color_black3,769685,,,,,,,,black_plus_sign,,,null,,,,,,,,,,,,,,,,,,,,,,,,
null,,learn_phase(without_color)3,773190,,,,,,,,black_plus_sign,,,null,object_09b.png,object_08a.png,,,,,,,,,,,,,,,,,,,,,,
null,,black_cross(without_color)3,773960,,,,,,,,green,,,null,object_09b.png,object_08a.png,,,,,,,,,,,,,,,,,,,,,,
null,,rt_plussign_withcolor3,774462,,,,,,,,green,,,null,object_09b.png,object_08a.png,,,,,,,,,,,,,,,,,,,,,,
1045.5,,rt_thecrossant_black3,775702,,,,,,,,black_plus_sign,,,50,,,1,,,,,,,1,,,,,,,,,,,,,,
null,,color_black3,775806,,,,,,,,black_plus_sign,,,null,,,,,,,,,,,,,,,,,,,,,,,,
null,,learn_phase(without_color)3,779310,,,,,,,,black_plus_sign,,,null,object_02a.png,object_15c.png,,,,,,,,,,,,,,,,,,,,,,
null,,black_cross(without_color)3,780113,,,,,,,,green,,,null,object_02a.png,object_15c.png,,,,,,,,,,,,,,,,,,,,,,
null,,rt_plussign_withcolor3,780615,,,,,,,,green,,,null,object_02a.png,object_15c.png,,,,,,,,,,,,,,,,,,,,,,
1393.8999999761581,,rt_thecrossant_black3,781819,,,,,,,,black_plus_sign,,,50,,,1,,,,,,,1,,,,,,,,,,,,,,
null,,color_black3,781923,,,,,,,,black_plus_sign,,,null,,,,,,,,,,,,,,,,,,,,,,,,
null,,thebreak,782027,,,,,,,,<p></p>,,,null,,,,,,,,,,,,,,,,,,,,,,,,
37821.40000000596,,intro_0,819851,,,,,,,,instruct,,,32,,,,,,,,,,,,,,,,,,,,,,,,
2866.4000000059605,,directmemory_phase3,822721,,,,,,,,object_12a.png,,,49,,,1,,object_07a.png,object_09b.png,object_07b.png,object_07a.png,,1,,1,,,,,,,,,,,,
2257.5999999940395,,directmemory_phase3,824984,,,,,,,,object_10c.png,,,50,,,1,,object_11c.png,object_12b.png,object_02b.png,object_12b.png,,1,,1,,,,,,,,,,,,
4612.699999988079,,directmemory_phase3,829601,,,,,,,,object_06c.png,,,49,,,0,,object_04b.png,object_03a.png,object_09b.png,object_03a.png,,0.9696969696969697,,0,,,,,,,,,,,,
4225.100000023842,,directmemory_phase3,833831,,,,,,,,object_02c.png,,,49,,,1,,object_11c.png,object_04b.png,object_03c.png,object_11c.png,,0.9705882352941176,,1,,,,,,,,,,,,
5034.899999976158,,directmemory_phase3,838870,,,,,,,,object_01a.png,,,49,,,1,,object_08c.png,object_11c.png,object_12b.png,object_08c.png,,0.9714285714285714,,1,,,,,,,,,,,,
5558.200000017881,,directmemory_phase3,844432,,,,,,,,object_11a.png,,,49,,,0,,object_09b.png,object_02a.png,object_04b.png,object_04b.png,,0.9444444444444444,,0,,,,,,,,,,,,
3142,,directmemory_phase3,847578,,,,,,,,object_10a.png,,,50,,,1,,object_07b.png,object_05b.png,object_07a.png,object_05b.png,,0.9459459459459459,,1,,,,,,,,,,,,
3271.899999976158,,directmemory_phase3,850854,,,,,,,,object_04c.png,,,51,,,1,,object_04b.png,object_08c.png,object_02b.png,object_02b.png,,0.9473684210526315,,1,,,,,,,,,,,,
5588.9000000059605,,directmemory_phase3,856446,,,,,,,,object_13a.png,,,50,,,1,,object_13c.png,object_14c.png,object_04b.png,object_14c.png,,0.9487179487179487,,1,,,,,,,,,,,,
3546.399999976158,,directmemory_phase3,859997,,,,,,,,object_15c.png,,,49,,,1,,object_02a.png,object_11c.png,object_14c.png,object_02a.png,,0.95,,1,,,,,,,,,,,,
5890,,directmemory_phase3,865892,,,,,,,,object_09c.png,,,50,,,1,,object_12b.png,object_13c.png,object_03a.png,object_13c.png,,0.9512195121951219,,1,,,,,,,,,,,,
2643.0999999940395,,directmemory_phase3,868540,,,,,,,,object_11b.png,,,49,,,0,,object_14c.png,object_03a.png,object_07b.png,object_07b.png,,0.9285714285714286,,0,,,,,,,,,,,,
4693,,directmemory_phase3,873238,,,,,,,,object_08a.png,,,50,,,1,,object_07a.png,object_09b.png,object_08c.png,object_09b.png,,0.9302325581395349,,1,,,,,,,,,,,,
3395.300000011921,,directmemory_phase3,876638,,,,,,,,object_08b.png,,,49,,,1,,object_05c.png,object_04b.png,object_14c.png,object_05c.png,,0.9318181818181818,,1,,,,,,,,,,,,
2584.0999999940395,,directmemory_phase3,879227,,,,,,,,object_01b.png,,,49,,,1,,object_03c.png,object_07b.png,object_02a.png,object_03c.png,,0.9333333333333333,,1,,,,,,,,,,,,
null,,thebreak,879340,,,,,,,,<p></p>,,,null,,,,,,,,,,,,,,,,,,,,,,,,
22662.69999998808,,intro_0,902005,,,,,,,,instruct,,,32,,,,,,,,,,,,,,,,,,,,,,,,
null,,learn_phase(without_color)4,905508,,,,,,,,black_plus_sign,,,null,object_12b.png,object_10c.png,,,,,,,,,,,,,,,,,,,,,,
null,,black_cross(without_color)4,906403,,,,,,,,blue,,,null,object_12b.png,object_10c.png,,,,,,,,,,,,,,,,,,,,,,
317,,rt_plussign_withcolor4,906906,,,,,,,,blue,,,49,object_12b.png,object_10c.png,,,,,,,,,,,,,,,,,,,,,,
null,,rt_thecrossant_black4,908032,,,,,,,,black_plus_sign,,,null,,,1,,,,,,,1,,,,,,,,,,,,,,
null,,color_black4,908135,,,,,,,,black_plus_sign,,,null,,,,,,,,,,,,,,,,,,,,,,,,
null,,learn_phase(without_color)4,911640,,,,,,,,black_plus_sign,,,null,object_14c.png,object_13a.png,,,,,,,,,,,,,,,,,,,,,,
null,,black_cross(without_color)4,912522,,,,,,,,blue,,,null,object_14c.png,object_13a.png,,,,,,,,,,,,,,,,,,,,,,
357.90000000596046,,rt_plussign_withcolor4,913025,,,,,,,,blue,,,49,object_14c.png,object_13a.png,,,,,,,,,,,,,,,,,,,,,,
null,,rt_thecrossant_black4,914150,,,,,,,,black_plus_sign,,,null,,,1,,,,,,,1,,,,,,,,,,,,,,
null,,color_black4,914254,,,,,,,,black_plus_sign,,,null,,,,,,,,,,,,,,,,,,,,,,,,
null,,learn_phase(without_color)4,917759,,,,,,,,black_plus_sign,,,null,object_05b.png,object_10a.png,,,,,,,,,,,,,,,,,,,,,,
null,,black_cross(without_color)4,918550,,,,,,,,blue,,,null,object_05b.png,object_10a.png,,,,,,,,,,,,,,,,,,,,,,
null,,rt_plussign_withcolor4,919052,,,,,,,,blue,,,null,object_05b.png,object_10a.png,,,,,,,,,,,,,,,,,,,,,,
1230.199999988079,,rt_thecrossant_black4,920269,,,,,,,,black_plus_sign,,,49,,,1,,,,,,,1,,,,,,,,,,,,,,
null,,color_black4,920372,,,,,,,,black_plus_sign,,,null,,,,,,,,,,,,,,,,,,,,,,,,
null,,learn_phase(without_color)4,923877,,,,,,,,black_plus_sign,,,null,object_07b.png,object_11b.png,,,,,,,,,,,,,,,,,,,,,,
null,,black_cross(without_color)4,924657,,,,,,,,blue,,,null,object_07b.png,object_11b.png,,,,,,,,,,,,,,,,,,,,,,
474.19999998807907,,rt_plussign_withcolor4,925159,,,,,,,,blue,,,49,object_07b.png,object_11b.png,,,,,,,,,,,,,,,,,,,,,,
null,,rt_thecrossant_black4,926387,,,,,,,,black_plus_sign,,,null,,,1,,,,,,,1,,,,,,,,,,,,,,
null,,color_black4,926491,,,,,,,,black_plus_sign,,,null,,,,,,,,,,,,,,,,,,,,,,,,
null,,learn_phase(without_color)4,929995,,,,,,,,black_plus_sign,,,null,object_03a.png,object_06c.png,,,,,,,,,,,,,,,,,,,,,,
null,,black_cross(without_color)4,930903,,,,,,,,green,,,null,object_03a.png,object_06c.png,,,,,,,,,,,,,,,,,,,,,,
null,,rt_plussign_withcolor4,931405,,,,,,,,green,,,null,object_03a.png,object_06c.png,,,,,,,,,,,,,,,,,,,,,,
1001.2999999821186,,rt_thecrossant_black4,932506,,,,,,,,black_plus_sign,,,50,,,1,,,,,,,1,,,,,,,,,,,,,,
null,,color_black4,932608,,,,,,,,black_plus_sign,,,null,,,,,,,,,,,,,,,,,,,,,,,,
null,,learn_phase(without_color)4,936111,,,,,,,,black_plus_sign,,,null,object_08c.png,object_01a.png,,,,,,,,,,,,,,,,,,,,,,
null,,black_cross(without_color)4,937121,,,,,,,,green,,,null,object_08c.png,object_01a.png,,,,,,,,,,,,,,,,,,,,,,
null,,rt_plussign_withcolor4,937623,,,,,,,,green,,,null,object_08c.png,object_01a.png,,,,,,,,,,,,,,,,,,,,,,
1316.4000000059605,,rt_thecrossant_black4,938621,,,,,,,,black_plus_sign,,,50,,,1,,,,,,,1,,,,,,,,,,,,,,
null,,color_black4,938725,,,,,,,,black_plus_sign,,,null,,,,,,,,,,,,,,,,,,,,,,,,
null,,learn_phase(without_color)4,942230,,,,,,,,black_plus_sign,,,null,object_07a.png,object_12a.png,,,,,,,,,,,,,,,,,,,,,,
null,,black_cross(without_color)4,943206,,,,,,,,green,,,null,object_07a.png,object_12a.png,,,,,,,,,,,,,,,,,,,,,,
null,,rt_plussign_withcolor4,943708,,,,,,,,green,,,null,object_07a.png,object_12a.png,,,,,,,,,,,,,,,,,,,,,,
1332.5999999940395,,rt_thecrossant_black4,944740,,,,,,,,black_plus_sign,,,50,,,1,,,,,,,1,,,,,,,,,,,,,,
null,,color_black4,944844,,,,,,,,black_plus_sign,,,null,,,,,,,,,,,,,,,,,,,,,,,,
null,,learn_phase(without_color)4,948347,,,,,,,,black_plus_sign,,,null,object_03c.png,object_01b.png,,,,,,,,,,,,,,,,,,,,,,
null,,black_cross(without_color)4,948974,,,,,,,,blue,,,null,object_03c.png,object_01b.png,,,,,,,,,,,,,,,,,,,,,,
null,,rt_plussign_withcolor4,949477,,,,,,,,blue,,,null,object_03c.png,object_01b.png,,,,,,,,,,,,,,,,,,,,,,
null,,rt_thecrossant_black4,950868,,,,,,,,black_plus_sign,,,null,,,,,,,,,,1,,,,,,,,,,,,,,
null,,color_black4,950972,,,,,,,,black_plus_sign,,,null,,,,,,,,,,,,,,,,,,,,,,,,
null,,learn_phase(without_color)4,954476,,,,,,,,black_plus_sign,,,null,object_05c.png,object_08b.png,,,,,,,,,,,,,,,,,,,,,,
null,,black_cross(without_color)4,955522,,,,,,,,green,,,null,object_05c.png,object_08b.png,,,,,,,,,,,,,,,,,,,,,,
402.2000000178814,,rt_plussign_withcolor4,956028,,,,,,,,green,,,49,object_05c.png,object_08b.png,,,,,,,,,,,,,,,,,,,,,,
null,,rt_thecrossant_black4,956993,,,,,,,,black_plus_sign,,,50,,,0,,,,,,,0.875,,,,,,,,,,,,,,
null,,warning_page,961997,,,,,,,,warning,,,null,,,,,,,,,,,,,,,,,,,,,,,,
null,,color_black4,962100,,,,,,,,black_plus_sign,,,null,,,,,,,,,,,,,,,,,,,,,,,,
null,,learn_phase(without_color)4,965605,,,,,,,,black_plus_sign,,,null,object_04b.png,object_11a.png,,,,,,,,,,,,,,,,,,,,,,
null,,black_cross(without_color)4,966590,,,,,,,,blue,,,null,object_04b.png,object_11a.png,,,,,,,,,,,,,,,,,,,,,,
null,,rt_plussign_withcolor4,967093,,,,,,,,blue,,,null,object_04b.png,object_11a.png,,,,,,,,,,,,,,,,,,,,,,
1469,,rt_thecrossant_black4,968114,,,,,,,,black_plus_sign,,,49,,,1,,,,,,,0.8888888888888888,,,,,,,,,,,,,,
null,,color_black4,968219,,,,,,,,black_plus_sign,,,null,,,,,,,,,,,,,,,,,,,,,,,,
null,,learn_phase(without_color)4,971724,,,,,,,,black_plus_sign,,,null,object_13c.png,object_09c.png,,,,,,,,,,,,,,,,,,,,,,
null,,black_cross(without_color)4,972438,,,,,,,,blue,,,null,object_13c.png,object_09c.png,,,,,,,,,,,,,,,,,,,,,,
null,,rt_plussign_withcolor4,972944,,,,,,,,blue,,,null,object_13c.png,object_09c.png,,,,,,,,,,,,,,,,,,,,,,
1390.5,,rt_thecrossant_black4,974240,,,,,,,,black_plus_sign,,,49,,,1,,,,,,,0.9,,,,,,,,,,,,,,
null,,color_black4,974345,,,,,,,,black_plus_sign,,,null,,,,,,,,,,,,,,,,,,,,,,,,
null,,learn_phase(without_color)4,977849,,,,,,,,black_plus_sign,,,null,object_11c.png,object_02c.png,,,,,,,,,,,,,,,,,,,,,,
null,,black_cross(without_color)4,978942,,,,,,,,green,,,null,object_11c.png,object_02c.png,,,,,,,,,,,,,,,,,,,,,,
null,,rt_plussign_withcolor4,979444,,,,,,,,green,,,null,object_11c.png,object_02c.png,,,,,,,,,,,,,,,,,,,,,,
994.0999999940395,,rt_thecrossant_black4,980358,,,,,,,,black_plus_sign,,,50,,,1,,,,,,,0.9090909090909091,,,,,,,,,,,,,,
null,,color_black4,980462,,,,,,,,black_plus_sign,,,null,,,,,,,,,,,,,,,,,,,,,,,,
null,,learn_phase(without_color)4,983966,,,,,,,,black_plus_sign,,,null,object_02a.png,object_15c.png,,,,,,,,,,,,,,,,,,,,,,
null,,black_cross(without_color)4,984993,,,,,,,,blue,,,null,object_02a.png,object_15c.png,,,,,,,,,,,,,,,,,,,,,,
null,,rt_plussign_withcolor4,985496,,,,,,,,blue,,,null,object_02a.png,object_15c.png,,,,,,,,,,,,,,,,,,,,,,
1562.5,,rt_thecrossant_black4,986477,,,,,,,,black_plus_sign,,,49,,,1,,,,,,,0.9166666666666666,,,,,,,,,,,,,,
null,,color_black4,986580,,,,,,,,black_plus_sign,,,null,,,,,,,,,,,,,,,,,,,,,,,,
null,,learn_phase(without_color)4,990083,,,,,,,,black_plus_sign,,,null,object_02b.png,object_04c.png,,,,,,,,,,,,,,,,,,,,,,
null,,black_cross(without_color)4,990750,,,,,,,,green,,,null,object_02b.png,object_04c.png,,,,,,,,,,,,,,,,,,,,,,
null,,rt_plussign_withcolor4,991254,,,,,,,,green,,,null,object_02b.png,object_04c.png,,,,,,,,,,,,,,,,,,,,,,
1198.0999999940395,,rt_thecrossant_black4,992596,,,,,,,,black_plus_sign,,,50,,,1,,,,,,,0.9230769230769231,,,,,,,,,,,,,,
null,,color_black4,992700,,,,,,,,black_plus_sign,,,null,,,,,,,,,,,,,,,,,,,,,,,,
null,,learn_phase(without_color)4,996204,,,,,,,,black_plus_sign,,,null,object_09b.png,object_08a.png,,,,,,,,,,,,,,,,,,,,,,
null,,black_cross(without_color)4,997031,,,,,,,,blue,,,null,object_09b.png,object_08a.png,,,,,,,,,,,,,,,,,,,,,,
null,,rt_plussign_withcolor4,997533,,,,,,,,blue,,,null,object_09b.png,object_08a.png,,,,,,,,,,,,,,,,,,,,,,
788,,rt_thecrossant_black4,998712,,,,,,,,black_plus_sign,,,49,,,1,,,,,,,0.9285714285714286,,,,,,,,,,,,,,
null,,color_black4,998816,,,,,,,,black_plus_sign,,,null,,,,,,,,,,,,,,,,,,,,,,,,
null,,thebreak,998920,,,,,,,,<p></p>,,,null,,,,,,,,,,,,,,,,,,,,,,,,
13315.300000011921,,intro_0,1012238,,,,,,,,instruct,,,32,,,,,,,,,,,,,,,,,,,,,,,,
3872.0999999940395,,directmemory_phase4,1016113,,,,,,,,object_13a.png,,,51,,,1,,object_09b.png,object_11c.png,object_14c.png,object_14c.png,,0.9347826086956522,,1,,,,,,,,,,,,
2369.5,,directmemory_phase4,1018488,,,,,,,,object_02c.png,,,51,,,1,,object_03c.png,object_13c.png,object_11c.png,object_11c.png,,0.9361702127659575,,1,,,,,,,,,,,,
3415.300000011921,,directmemory_phase4,1021908,,,,,,,,object_04c.png,,,49,,,1,,object_02b.png,object_09b.png,object_11c.png,object_02b.png,,0.9375,,1,,,,,,,,,,,,
2927.7999999821186,,directmemory_phase4,1024841,,,,,,,,object_09c.png,,,50,,,1,,object_02a.png,object_13c.png,object_12b.png,object_13c.png,,0.9387755102040817,,1,,,,,,,,,,,,
3880.2000000178814,,directmemory_phase4,1028726,,,,,,,,object_08b.png,,,51,,,1,,object_09b.png,object_03a.png,object_05c.png,object_05c.png,,0.94,,1,,,,,,,,,,,,
4439.699999988079,,directmemory_phase4,1033172,,,,,,,,object_01b.png,,,51,,,1,,object_07a.png,object_03a.png,object_03c.png,object_03c.png,,0.9411764705882353,,1,,,,,,,,,,,,
4114.4000000059605,,directmemory_phase4,1037291,,,,,,,,object_11b.png,,,51,,,1,,object_07a.png,object_02b.png,object_07b.png,object_07b.png,,0.9423076923076923,,1,,,,,,,,,,,,
4795.0999999940395,,directmemory_phase4,1042092,,,,,,,,object_15c.png,,,50,,,1,,object_04b.png,object_02a.png,object_09b.png,object_02a.png,,0.9433962264150944,,1,,,,,,,,,,,,
2642.199999988079,,directmemory_phase4,1044739,,,,,,,,object_12a.png,,,51,,,1,,object_11c.png,object_12b.png,object_07a.png,object_07a.png,,0.9444444444444444,,1,,,,,,,,,,,,
2746.5,,directmemory_phase4,1047490,,,,,,,,object_08a.png,,,50,,,1,,object_05c.png,object_09b.png,object_07b.png,object_09b.png,,0.9454545454545454,,1,,,,,,,,,,,,
3220.4000000059605,,directmemory_phase4,1050716,,,,,,,,object_01a.png,,,51,,,1,,object_13c.png,object_07b.png,object_08c.png,object_08c.png,,0.9464285714285714,,1,,,,,,,,,,,,
3364.5,,directmemory_phase4,1054085,,,,,,,,object_10c.png,,,51,,,1,,object_05c.png,object_07b.png,object_12b.png,object_12b.png,,0.9473684210526315,,1,,,,,,,,,,,,
4047.2999999821186,,directmemory_phase4,1058136,,,,,,,,object_10a.png,,,49,,,1,,object_05b.png,object_02a.png,object_03c.png,object_05b.png,,0.9482758620689655,,1,,,,,,,,,,,,
7777.5,,directmemory_phase4,1065918,,,,,,,,object_11a.png,,,49,,,1,,object_04b.png,object_09b.png,object_14c.png,object_04b.png,,0.9491525423728814,,1,,,,,,,,,,,,
5943.0999999940395,,directmemory_phase4,1071866,,,,,,,,object_06c.png,,,50,,,1,,object_08c.png,object_03a.png,object_14c.png,object_03a.png,,0.95,,1,,,,,,,,,,,,
null,,thebreak,1071972,,,,,,,,<p></p>,,,null,,,,,,,,,,,,,,,,,,,,,,,,
13041.200000017881,,intro_0,1085015,,,,,,,,instruct,,,32,,,,,,,,,,,,,,,,,,,,,,,,
null,,learn_phase(without_color)5,1088519,,,,,,,,black_plus_sign,,,null,object_04c.png,object_01c.png,,,,,,,,,,,,,,,,,,,,,,
null,,black_cross(without_color)5,1089547,,,,,,,,blue,,,null,object_04c.png,object_01c.png,,,,,,,,,,,,,,,,,,,,,,
396.40000000596046,,rt_plussign_withcolor5,1090051,,,,,,,,blue,,,49,object_04c.png,object_01c.png,,,,,,,,,,,,,,,,,,,,,,
null,,rt_thecrossant_black5,1091030,,,,,,,,black_plus_sign,,,null,,,1,,,,,,,1,,,,,,,,,,,,,,
null,,color_black5,1091134,,,,,,,,black_plus_sign,,,null,,,,,,,,,,,,,,,,,,,,,,,,
null,,learn_phase(without_color)5,1094638,,,,,,,,black_plus_sign,,,null,object_13a.png,object_15a.png,,,,,,,,,,,,,,,,,,,,,,
null,,black_cross(without_color)5,1095694,,,,,,,,green,,,null,object_13a.png,object_15a.png,,,,,,,,,,,,,,,,,,,,,,
null,,rt_plussign_withcolor5,1096198,,,,,,,,green,,,null,object_13a.png,object_15a.png,,,,,,,,,,,,,,,,,,,,,,
1271.6000000238419,,rt_thecrossant_black5,1097162,,,,,,,,black_plus_sign,,,50,,,1,,,,,,,1,,,,,,,,,,,,,,
null,,color_black5,1097266,,,,,,,,black_plus_sign,,,null,,,,,,,,,,,,,,,,,,,,,,,,
null,,learn_phase(without_color)5,1100771,,,,,,,,black_plus_sign,,,null,object_10c.png,object_10b.png,,,,,,,,,,,,,,,,,,,,,,
null,,black_cross(without_color)5,1101396,,,,,,,,blue,,,null,object_10c.png,object_10b.png,,,,,,,,,,,,,,,,,,,,,,
null,,rt_plussign_withcolor5,1101898,,,,,,,,blue,,,null,object_10c.png,object_10b.png,,,,,,,,,,,,,,,,,,,,,,
1247.5999999940395,,rt_thecrossant_black5,1103282,,,,,,,,black_plus_sign,,,49,,,1,,,,,,,1,,,,,,,,,,,,,,
null,,color_black5,1103385,,,,,,,,black_plus_sign,,,null,,,,,,,,,,,,,,,,,,,,,,,,
null,,learn_phase(without_color)5,1106890,,,,,,,,black_plus_sign,,,null,object_08a.png,object_04a.png,,,,,,,,,,,,,,,,,,,,,,
null,,black_cross(without_color)5,1107988,,,,,,,,green,,,null,object_08a.png,object_04a.png,,,,,,,,,,,,,,,,,,,,,,
null,,rt_plussign_withcolor5,1108491,,,,,,,,green,,,null,object_08a.png,object_04a.png,,,,,,,,,,,,,,,,,,,,,,
995.7999999821186,,rt_thecrossant_black5,1109401,,,,,,,,black_plus_sign,,,50,,,1,,,,,,,1,,,,,,,,,,,,,,
null,,color_black5,1109505,,,,,,,,black_plus_sign,,,null,,,,,,,,,,,,,,,,,,,,,,,,
null,,learn_phase(without_color)5,1113024,,,,,,,,black_plus_sign,,,null,object_15c.png,object_09a.png,,,,,,,,,,,,,,,,,,,,,,
null,,black_cross(without_color)5,1113984,,,,,,,,blue,,,null,object_15c.png,object_09a.png,,,,,,,,,,,,,,,,,,,,,,
363.2000000178814,,rt_plussign_withcolor5,1114489,,,,,,,,blue,,,49,object_15c.png,object_09a.png,,,,,,,,,,,,,,,,,,,,,,
null,,rt_thecrossant_black5,1115541,,,,,,,,black_plus_sign,,,null,,,1,,,,,,,1,,,,,,,,,,,,,,
null,,color_black5,1115644,,,,,,,,black_plus_sign,,,null,,,,,,,,,,,,,,,,,,,,,,,,
null,,learn_phase(without_color)5,1119150,,,,,,,,black_plus_sign,,,null,object_01b.png,object_13b.png,,,,,,,,,,,,,,,,,,,,,,
null,,black_cross(without_color)5,1120125,,,,,,,,blue,,,null,object_01b.png,object_13b.png,,,,,,,,,,,,,,,,,,,,,,
null,,rt_plussign_withcolor5,1120630,,,,,,,,blue,,,null,object_01b.png,object_13b.png,,,,,,,,,,,,,,,,,,,,,,
1470,,rt_thecrossant_black5,1121663,,,,,,,,black_plus_sign,,,49,,,1,,,,,,,1,,,,,,,,,,,,,,
null,,color_black5,1121767,,,,,,,,black_plus_sign,,,null,,,,,,,,,,,,,,,,,,,,,,,,
null,,learn_phase(without_color)5,1125272,,,,,,,,black_plus_sign,,,null,object_12a.png,object_15b.png,,,,,,,,,,,,,,,,,,,,,,
null,,black_cross(without_color)5,1125925,,,,,,,,green,,,null,object_12a.png,object_15b.png,,,,,,,,,,,,,,,,,,,,,,
null,,rt_plussign_withcolor5,1126427,,,,,,,,green,,,null,object_12a.png,object_15b.png,,,,,,,,,,,,,,,,,,,,,,
1268.1000000238419,,rt_thecrossant_black5,1127793,,,,,,,,black_plus_sign,,,50,,,1,,,,,,,1,,,,,,,,,,,,,,
null,,color_black5,1127898,,,,,,,,black_plus_sign,,,null,,,,,,,,,,,,,,,,,,,,,,,,
null,,learn_phase(without_color)5,1131402,,,,,,,,black_plus_sign,,,null,object_01a.png,object_14a.png,,,,,,,,,,,,,,,,,,,,,,
null,,black_cross(without_color)5,1131831,,,,,,,,green,,,null,object_01a.png,object_14a.png,,,,,,,,,,,,,,,,,,,,,,
null,,rt_plussign_withcolor5,1132335,,,,,,,,green,,,null,object_01a.png,object_14a.png,,,,,,,,,,,,,,,,,,,,,,
1197.5,,rt_thecrossant_black5,1133918,,,,,,,,black_plus_sign,,,50,,,1,,,,,,,1,,,,,,,,,,,,,,
null,,color_black5,1134022,,,,,,,,black_plus_sign,,,null,,,,,,,,,,,,,,,,,,,,,,,,
null,,learn_phase(without_color)5,1137527,,,,,,,,black_plus_sign,,,null,object_09c.png,object_03b.png,,,,,,,,,,,,,,,,,,,,,,
null,,black_cross(without_color)5,1138548,,,,,,,,green,,,null,object_09c.png,object_03b.png,,,,,,,,,,,,,,,,,,,,,,
471,,rt_plussign_withcolor5,1139050,,,,,,,,green,,,49,object_09c.png,object_03b.png,,,,,,,,,,,,,,,,,,,,,,
null,,rt_thecrossant_black5,1140037,,,,,,,,black_plus_sign,,,50,,,0,,,,,,,0.8888888888888888,,,,,,,,,,,,,,
null,,color_black5,1140141,,,,,,,,black_plus_sign,,,null,,,,,,,,,,,,,,,,,,,,,,,,
null,,learn_phase(without_color)5,1143646,,,,,,,,black_plus_sign,,,null,object_10a.png,object_14b.png,,,,,,,,,,,,,,,,,,,,,,
null,,black_cross(without_color)5,1144180,,,,,,,,blue,,,null,object_10a.png,object_14b.png,,,,,,,,,,,,,,,,,,,,,,
null,,rt_plussign_withcolor5,1144682,,,,,,,,blue,,,null,object_10a.png,object_14b.png,,,,,,,,,,,,,,,,,,,,,,
1306.5999999940395,,rt_thecrossant_black5,1146158,,,,,,,,black_plus_sign,,,49,,,1,,,,,,,0.9,,,,,,,,,,,,,,
null,,color_black5,1146262,,,,,,,,black_plus_sign,,,null,,,,,,,,,,,,,,,,,,,,,,,,
null,,learn_phase(without_color)5,1149767,,,,,,,,black_plus_sign,,,null,object_08b.png,object_07c.png,,,,,,,,,,,,,,,,,,,,,,
null,,black_cross(without_color)5,1150807,,,,,,,,green,,,null,object_08b.png,object_07c.png,,,,,,,,,,,,,,,,,,,,,,
null,,rt_plussign_withcolor5,1151310,,,,,,,,green,,,null,object_08b.png,object_07c.png,,,,,,,,,,,,,,,,,,,,,,
665.0999999940395,,rt_thecrossant_black5,1152277,,,,,,,,black_plus_sign,,,50,,,1,,,,,,,0.9090909090909091,,,,,,,,,,,,,,
null,,color_black5,1152382,,,,,,,,black_plus_sign,,,null,,,,,,,,,,,,,,,,,,,,,,,,
null,,learn_phase(without_color)5,1155887,,,,,,,,black_plus_sign,,,null,object_11b.png,object_06b.png,,,,,,,,,,,,,,,,,,,,,,
null,,black_cross(without_color)5,1156452,,,,,,,,green,,,null,object_11b.png,object_06b.png,,,,,,,,,,,,,,,,,,,,,,
null,,rt_plussign_withcolor5,1156955,,,,,,,,green,,,null,object_11b.png,object_06b.png,,,,,,,,,,,,,,,,,,,,,,
1463.9000000059605,,rt_thecrossant_black5,1158397,,,,,,,,black_plus_sign,,,50,,,1,,,,,,,0.9166666666666666,,,,,,,,,,,,,,
null,,color_black5,1158501,,,,,,,,black_plus_sign,,,null,,,,,,,,,,,,,,,,,,,,,,,,
null,,learn_phase(without_color)5,1162006,,,,,,,,black_plus_sign,,,null,object_11a.png,object_06a.png,,,,,,,,,,,,,,,,,,,,,,
null,,black_cross(without_color)5,1162980,,,,,,,,green,,,null,object_11a.png,object_06a.png,,,,,,,,,,,,,,,,,,,,,,
null,,rt_plussign_withcolor5,1163484,,,,,,,,green,,,null,object_11a.png,object_06a.png,,,,,,,,,,,,,,,,,,,,,,
863.0999999940395,,rt_thecrossant_black5,1164519,,,,,,,,black_plus_sign,,,50,,,1,,,,,,,0.9230769230769231,,,,,,,,,,,,,,
null,,color_black5,1164622,,,,,,,,black_plus_sign,,,null,,,,,,,,,,,,,,,,,,,,,,,,
null,,learn_phase(without_color)5,1168127,,,,,,,,black_plus_sign,,,null,object_02c.png,object_12c.png,,,,,,,,,,,,,,,,,,,,,,
null,,black_cross(without_color)5,1168552,,,,,,,,blue,,,null,object_02c.png,object_12c.png,,,,,,,,,,,,,,,,,,,,,,
null,,rt_plussign_withcolor5,1169054,,,,,,,,blue,,,null,object_02c.png,object_12c.png,,,,,,,,,,,,,,,,,,,,,,
1435.6000000238419,,rt_thecrossant_black5,1170637,,,,,,,,black_plus_sign,,,49,,,1,,,,,,,0.9285714285714286,,,,,,,,,,,,,,
null,,color_black5,1170740,,,,,,,,black_plus_sign,,,null,,,,,,,,,,,,,,,,,,,,,,,,
null,,learn_phase(without_color)5,1174246,,,,,,,,black_plus_sign,,,null,object_06c.png,object_05a.png,,,,,,,,,,,,,,,,,,,,,,
null,,black_cross(without_color)5,1174811,,,,,,,,green,,,null,object_06c.png,object_05a.png,,,,,,,,,,,,,,,,,,,,,,
null,,rt_plussign_withcolor5,1175315,,,,,,,,green,,,null,object_06c.png,object_05a.png,,,,,,,,,,,,,,,,,,,,,,
856.3000000119209,,rt_thecrossant_black5,1176760,,,,,,,,black_plus_sign,,,50,,,1,,,,,,,0.9333333333333333,,,,,,,,,,,,,,
null,,color_black5,1176863,,,,,,,,black_plus_sign,,,null,,,,,,,,,,,,,,,,,,,,,,,,
null,,thebreak,1176969,,,,,,,,<p></p>,,,null,,,,,,,,,,,,,,,,,,,,,,,,
29023.30000001192,,intro_0,1205995,,,,,,,,instruct,,,32,,,,,,,,,,,,,,,,,,,,,,,,
2521.9000000059605,,directmemory_phase5,1208519,,,,,,,,object_06a.png,,,50,,,1,,object_04c.png,object_11a.png,object_08b.png,object_11a.png,,0.9508196721311475,,1,,,,,,,,,,,,
3953.4000000059605,,directmemory_phase5,1212477,,,,,,,,object_01c.png,,,51,,,1,,object_11b.png,object_01b.png,object_04c.png,object_04c.png,,0.9516129032258065,,1,,,,,,,,,,,,
2986.100000023842,,directmemory_phase5,1215469,,,,,,,,object_15b.png,,,49,,,1,,object_12a.png,object_11a.png,object_15c.png,object_12a.png,,0.9523809523809523,,1,,,,,,,,,,,,
3393.5,,directmemory_phase5,1218867,,,,,,,,object_12c.png,,,49,,,1,,object_02c.png,object_12a.png,object_15c.png,object_02c.png,,0.953125,,1,,,,,,,,,,,,
3161.699999988079,,directmemory_phase5,1222035,,,,,,,,object_15a.png,,,49,,,1,,object_13a.png,object_06c.png,object_11a.png,object_13a.png,,0.9538461538461539,,1,,,,,,,,,,,,
3666.300000011921,,directmemory_phase5,1225706,,,,,,,,object_14a.png,,,50,,,1,,object_09c.png,object_01a.png,object_02c.png,object_01a.png,,0.9545454545454546,,1,,,,,,,,,,,,
8387.199999988079,,directmemory_phase5,1234098,,,,,,,,object_14b.png,,,50,,,1,,object_11b.png,object_10a.png,object_06c.png,object_10a.png,,0.9552238805970149,,1,,,,,,,,,,,,
2774.5,,directmemory_phase5,1236879,,,,,,,,object_06b.png,,,51,,,1,,object_12a.png,object_01a.png,object_11b.png,object_11b.png,,0.9558823529411765,,1,,,,,,,,,,,,
9867.700000017881,,directmemory_phase5,1246752,,,,,,,,object_09a.png,,,49,,,0,,object_06c.png,object_02c.png,object_15c.png,object_15c.png,,0.9420289855072463,,0,,,,,,,,,,,,
3069.800000011921,,directmemory_phase5,1249826,,,,,,,,object_13b.png,,,49,,,1,,object_01b.png,object_08b.png,object_15c.png,object_01b.png,,0.9428571428571428,,1,,,,,,,,,,,,
7625.5999999940395,,directmemory_phase5,1257457,,,,,,,,object_04a.png,,,50,,,1,,object_01b.png,object_08a.png,object_06c.png,object_08a.png,,0.9436619718309859,,1,,,,,,,,,,,,
8569.40000000596,,directmemory_phase5,1266032,,,,,,,,object_10b.png,,,50,,,0,,object_10c.png,object_08a.png,object_09c.png,object_10c.png,,0.9305555555555556,,0,,,,,,,,,,,,
3282.600000023842,,directmemory_phase5,1269321,,,,,,,,object_05a.png,,,50,,,1,,object_04c.png,object_06c.png,object_09c.png,object_06c.png,,0.9315068493150684,,1,,,,,,,,,,,,
2745,,directmemory_phase5,1272071,,,,,,,,object_07c.png,,,49,,,1,,object_08b.png,object_10c.png,object_13a.png,object_08b.png,,0.9324324324324325,,1,,,,,,,,,,,,
8094.5999999940395,,directmemory_phase5,1280170,,,,,,,,object_03b.png,,,51,,,1,,object_10c.png,object_08a.png,object_09c.png,object_09c.png,,0.9333333333333333,,1,,,,,,,,,,,,
null,,thebreak,1280275,,,,,,,,<p></p>,,,null,,,,,,,,,,,,,,,,,,,,,,,,
69089.80000001192,,intro_0,1349367,,,,,,,,instruct,,,32,,,,,,,,,,,,,,,,,,,,,,,,
null,,learn_phase(without_color)6,1352874,,,,,,,,black_plus_sign,,,null,object_10c.png,object_10b.png,,,,,,,,,,,,,,,,,,,,,,
null,,black_cross(without_color)6,1353939,,,,,,,,blue,,,null,object_10c.png,object_10b.png,,,,,,,,,,,,,,,,,,,,,,
null,,rt_plussign_withcolor6,1354442,,,,,,,,blue,,,null,object_10c.png,object_10b.png,,,,,,,,,,,,,,,,,,,,,,
1467.5,,rt_thecrossant_black6,1355385,,,,,,,,black_plus_sign,,,49,,,1,,,,,,,1,,,,,,,,,,,,,,
null,,color_black6,1355489,,,,,,,,black_plus_sign,,,null,,,,,,,,,,,,,,,,,,,,,,,,
null,,learn_phase(without_color)6,1358994,,,,,,,,black_plus_sign,,,null,object_12a.png,object_15b.png,,,,,,,,,,,,,,,,,,,,,,
null,,black_cross(without_color)6,1359621,,,,,,,,blue,,,null,object_12a.png,object_15b.png,,,,,,,,,,,,,,,,,,,,,,
null,,rt_plussign_withcolor6,1360123,,,,,,,,blue,,,null,object_12a.png,object_15b.png,,,,,,,,,,,,,,,,,,,,,,
2271.5999999940395,,rt_thecrossant_black6,1361505,,,,,,,,black_plus_sign,,,49,,,1,,,,,,,1,,,,,,,,,,,,,,
null,,color_black6,1361621,,,,,,,,black_plus_sign,,,null,,,,,,,,,,,,,,,,,,,,,,,,
null,,learn_phase(without_color)6,1365125,,,,,,,,black_plus_sign,,,null,object_10a.png,object_14b.png,,,,,,,,,,,,,,,,,,,,,,
null,,black_cross(without_color)6,1365570,,,,,,,,blue,,,null,object_10a.png,object_14b.png,,,,,,,,,,,,,,,,,,,,,,
null,,rt_plussign_withcolor6,1366072,,,,,,,,blue,,,null,object_10a.png,object_14b.png,,,,,,,,,,,,,,,,,,,,,,
1181.4000000059605,,rt_thecrossant_black6,1367637,,,,,,,,black_plus_sign,,,49,,,1,,,,,,,1,,,,,,,,,,,,,,
null,,color_black6,1367741,,,,,,,,black_plus_sign,,,null,,,,,,,,,,,,,,,,,,,,,,,,
null,,learn_phase(without_color)6,1371245,,,,,,,,black_plus_sign,,,null,object_15c.png,object_09a.png,,,,,,,,,,,,,,,,,,,,,,
null,,black_cross(without_color)6,1371892,,,,,,,,green,,,null,object_15c.png,object_09a.png,,,,,,,,,,,,,,,,,,,,,,
406,,rt_plussign_withcolor6,1372394,,,,,,,,green,,,49,object_15c.png,object_09a.png,,,,,,,,,,,,,,,,,,,,,,
null,,rt_thecrossant_black6,1373756,,,,,,,,black_plus_sign,,,null,,,0,,,,,,,0.75,,,,,,,,,,,,,,
null,,color_black6,1373860,,,,,,,,black_plus_sign,,,null,,,,,,,,,,,,,,,,,,,,,,,,
null,,learn_phase(without_color)6,1377365,,,,,,,,black_plus_sign,,,null,object_13a.png,object_15a.png,,,,,,,,,,,,,,,,,,,,,,
null,,black_cross(without_color)6,1378100,,,,,,,,blue,,,null,object_13a.png,object_15a.png,,,,,,,,,,,,,,,,,,,,,,
407,,rt_plussign_withcolor6,1378602,,,,,,,,blue,,,49,object_13a.png,object_15a.png,,,,,,,,,,,,,,,,,,,,,,
null,,rt_thecrossant_black6,1379874,,,,,,,,black_plus_sign,,,null,,,1,,,,,,,0.8,,,,,,,,,,,,,,
null,,color_black6,1379985,,,,,,,,black_plus_sign,,,null,,,,,,,,,,,,,,,,,,,,,,,,
null,,learn_phase(without_color)6,1383490,,,,,,,,black_plus_sign,,,null,object_01a.png,object_14a.png,,,,,,,,,,,,,,,,,,,,,,
null,,black_cross(without_color)6,1384278,,,,,,,,green,,,null,object_01a.png,object_14a.png,,,,,,,,,,,,,,,,,,,,,,
null,,rt_plussign_withcolor6,1384781,,,,,,,,green,,,null,object_01a.png,object_14a.png,,,,,,,,,,,,,,,,,,,,,,
1071.699999988079,,rt_thecrossant_black6,1386000,,,,,,,,black_plus_sign,,,50,,,1,,,,,,,0.8333333333333334,,,,,,,,,,,,,,
null,,color_black6,1386105,,,,,,,,black_plus_sign,,,null,,,,,,,,,,,,,,,,,,,,,,,,
null,,learn_phase(without_color)6,1389610,,,,,,,,black_plus_sign,,,null,object_09c.png,object_03b.png,,,,,,,,,,,,,,,,,,,,,,
null,,black_cross(without_color)6,1390670,,,,,,,,green,,,null,object_09c.png,object_03b.png,,,,,,,,,,,,,,,,,,,,,,
410.09999999403954,,rt_plussign_withcolor6,1391173,,,,,,,,green,,,49,object_09c.png,object_03b.png,,,,,,,,,,,,,,,,,,,,,,
null,,rt_thecrossant_black6,1392121,,,,,,,,black_plus_sign,,,null,,,0,,,,,,,0.7142857142857143,,,,,,,,,,,,,,
null,,color_black6,1392226,,,,,,,,black_plus_sign,,,null,,,,,,,,,,,,,,,,,,,,,,,,
null,,learn_phase(without_color)6,1395731,,,,,,,,black_plus_sign,,,null,object_08b.png,object_07c.png,,,,,,,,,,,,,,,,,,,,,,
null,,black_cross(without_color)6,1396334,,,,,,,,green,,,null,object_08b.png,object_07c.png,,,,,,,,,,,,,,,,,,,,,,
null,,rt_plussign_withcolor6,1396850,,,,,,,,green,,,null,object_08b.png,object_07c.png,,,,,,,,,,,,,,,,,,,,,,
1603,,rt_thecrossant_black6,1398257,,,,,,,,black_plus_sign,,,50,,,1,,,,,,,0.75,,,,,,,,,,,,,,
null,,color_black6,1398360,,,,,,,,black_plus_sign,,,null,,,,,,,,,,,,,,,,,,,,,,,,
null,,learn_phase(without_color)6,1401865,,,,,,,,black_plus_sign,,,null,object_06c.png,object_05a.png,,,,,,,,,,,,,,,,,,,,,,
null,,black_cross(without_color)6,1402547,,,,,,,,blue,,,null,object_06c.png,object_05a.png,,,,,,,,,,,,,,,,,,,,,,
null,,rt_plussign_withcolor6,1403050,,,,,,,,blue,,,null,object_06c.png,object_05a.png,,,,,,,,,,,,,,,,,,,,,,
993.4000000059605,,rt_thecrossant_black6,1404375,,,,,,,,black_plus_sign,,,49,,,1,,,,,,,0.7777777777777778,,,,,,,,,,,,,,
null,,color_black6,1404480,,,,,,,,black_plus_sign,,,null,,,,,,,,,,,,,,,,,,,,,,,,
null,,learn_phase(without_color)6,1407985,,,,,,,,black_plus_sign,,,null,object_04c.png,object_01c.png,,,,,,,,,,,,,,,,,,,,,,
null,,black_cross(without_color)6,1408551,,,,,,,,blue,,,null,object_04c.png,object_01c.png,,,,,,,,,,,,,,,,,,,,,,
null,,rt_plussign_withcolor6,1409054,,,,,,,,blue,,,null,object_04c.png,object_01c.png,,,,,,,,,,,,,,,,,,,,,,
1767.5,,rt_thecrossant_black6,1410511,,,,,,,,black_plus_sign,,,49,,,1,,,,,,,0.8,,,,,,,,,,,,,,
null,,color_black6,1410614,,,,,,,,black_plus_sign,,,null,,,,,,,,,,,,,,,,,,,,,,,,
null,,learn_phase(without_color)6,1414120,,,,,,,,black_plus_sign,,,null,object_02c.png,object_12c.png,,,,,,,,,,,,,,,,,,,,,,
null,,black_cross(without_color)6,1414732,,,,,,,,green,,,null,object_02c.png,object_12c.png,,,,,,,,,,,,,,,,,,,,,,
null,,rt_plussign_withcolor6,1415235,,,,,,,,green,,,null,object_02c.png,object_12c.png,,,,,,,,,,,,,,,,,,,,,,
785,,rt_thecrossant_black6,1416632,,,,,,,,black_plus_sign,,,49,,,0,,,,,,,0.7272727272727273,,,,,,,,,,,,,,
null,,color_black6,1416737,,,,,,,,black_plus_sign,,,null,,,,,,,,,,,,,,,,,,,,,,,,
null,,learn_phase(without_color)6,1420241,,,,,,,,black_plus_sign,,,null,object_11a.png,object_06a.png,,,,,,,,,,,,,,,,,,,,,,
null,,black_cross(without_color)6,1421344,,,,,,,,blue,,,null,object_11a.png,object_06a.png,,,,,,,,,,,,,,,,,,,,,,
null,,rt_plussign_withcolor6,1421846,,,,,,,,blue,,,null,object_11a.png,object_06a.png,,,,,,,,,,,,,,,,,,,,,,
1028.7999999821186,,rt_thecrossant_black6,1422751,,,,,,,,black_plus_sign,,,49,,,1,,,,,,,0.75,,,,,,,,,,,,,,
null,,color_black6,1422855,,,,,,,,black_plus_sign,,,null,,,,,,,,,,,,,,,,,,,,,,,,
null,,learn_phase(without_color)6,1426363,,,,,,,,black_plus_sign,,,null,object_08a.png,object_04a.png,,,,,,,,,,,,,,,,,,,,,,
null,,black_cross(without_color)6,1427260,,,,,,,,green,,,null,object_08a.png,object_04a.png,,,,,,,,,,,,,,,,,,,,,,
null,,rt_plussign_withcolor6,1427763,,,,,,,,green,,,null,object_08a.png,object_04a.png,,,,,,,,,,,,,,,,,,,,,,
null,,rt_thecrossant_black6,1428874,,,,,,,,black_plus_sign,,,null,,,,,,,,,,0.75,,,,,,,,,,,,,,
null,,color_black6,1428979,,,,,,,,black_plus_sign,,,null,,,,,,,,,,,,,,,,,,,,,,,,
null,,learn_phase(without_color)6,1432487,,,,,,,,black_plus_sign,,,null,object_01b.png,object_13b.png,,,,,,,,,,,,,,,,,,,,,,
null,,black_cross(without_color)6,1433531,,,,,,,,blue,,,null,object_01b.png,object_13b.png,,,,,,,,,,,,,,,,,,,,,,
295.19999998807907,,rt_plussign_withcolor6,1434054,,,,,,,,blue,,,49,object_01b.png,object_13b.png,,,,,,,,,,,,,,,,,,,,,,
null,,rt_thecrossant_black6,1435018,,,,,,,,black_plus_sign,,,null,,,1,,,,,,,0.7692307692307693,,,,,,,,,,,,,,
null,,color_black6,1435122,,,,,,,,black_plus_sign,,,null,,,,,,,,,,,,,,,,,,,,,,,,
null,,learn_phase(without_color)6,1438627,,,,,,,,black_plus_sign,,,null,object_11b.png,object_06b.png,,,,,,,,,,,,,,,,,,,,,,
null,,black_cross(without_color)6,1439467,,,,,,,,green,,,null,object_11b.png,object_06b.png,,,,,,,,,,,,,,,,,,,,,,
null,,rt_plussign_withcolor6,1439970,,,,,,,,green,,,null,object_11b.png,object_06b.png,,,,,,,,,,,,,,,,,,,,,,
1246.300000011921,,rt_thecrossant_black6,1441137,,,,,,,,black_plus_sign,,,50,,,1,,,,,,,0.7857142857142857,,,,,,,,,,,,,,
null,,color_black6,1441249,,,,,,,,black_plus_sign,,,null,,,,,,,,,,,,,,,,,,,,,,,,
null,,thebreak,1441355,,,,,,,,<p></p>,,,null,,,,,,,,,,,,,,,,,,,,,,,,
67644.30000001192,,intro_0,1509002,,,,,,,,instruct,,,32,,,,,,,,,,,,,,,,,,,,,,,,
5219.300000011921,,directmemory_phase6,1514225,,,,,,,,object_06b.png,,,51,,,1,,object_06c.png,object_08a.png,object_11b.png,object_11b.png,,0.9342105263157895,,1,,,,,,,,,,,,
8930.600000023842,,directmemory_phase6,1523159,,,,,,,,object_14a.png,,,50,,,0,,object_01a.png,object_11a.png,object_13a.png,object_01a.png,,0.922077922077922,,0,,,,,,,,,,,,
3281.5999999940395,,directmemory_phase6,1526446,,,,,,,,object_06a.png,,,51,,,1,,object_01b.png,object_10c.png,object_11a.png,object_11a.png,,0.9230769230769231,,1,,,,,,,,,,,,
5394.9000000059605,,directmemory_phase6,1531846,,,,,,,,object_01c.png,,,50,,,1,,object_12a.png,object_04c.png,object_06c.png,object_04c.png,,0.9240506329113924,,1,,,,,,,,,,,,
5383.4000000059605,,directmemory_phase6,1537234,,,,,,,,object_04a.png,,,49,,,1,,object_08a.png,object_10c.png,object_11a.png,object_08a.png,,0.925,,1,,,,,,,,,,,,
3214.9000000059605,,directmemory_phase6,1540453,,,,,,,,object_15b.png,,,49,,,1,,object_12a.png,object_11a.png,object_08b.png,object_12a.png,,0.9259259259259259,,1,,,,,,,,,,,,
10041.299999982119,,directmemory_phase6,1550500,,,,,,,,object_09a.png,,,50,,,1,,object_11b.png,object_15c.png,object_10c.png,object_15c.png,,0.926829268292683,,1,,,,,,,,,,,,
2492.2999999821186,,directmemory_phase6,1552997,,,,,,,,object_13b.png,,,49,,,0,,object_08a.png,object_04c.png,object_01b.png,object_01b.png,,0.9156626506024096,,0,,,,,,,,,,,,
4948.199999988079,,directmemory_phase6,1557951,,,,,,,,object_12c.png,,,51,,,1,,object_01b.png,object_06c.png,object_02c.png,object_02c.png,,0.9166666666666666,,1,,,,,,,,,,,,
5352.9000000059605,,directmemory_phase6,1563309,,,,,,,,object_14b.png,,,49,,,1,,object_10a.png,object_15c.png,object_08b.png,object_10a.png,,0.9176470588235294,,1,,,,,,,,,,,,
2560.4000000059605,,directmemory_phase6,1565875,,,,,,,,object_03b.png,,,51,,,1,,object_08b.png,object_01b.png,object_09c.png,object_09c.png,,0.9186046511627907,,1,,,,,,,,,,,,
4003.4000000059605,,directmemory_phase6,1569885,,,,,,,,object_05a.png,,,50,,,1,,object_08b.png,object_06c.png,object_04c.png,object_06c.png,,0.9195402298850575,,1,,,,,,,,,,,,
2562.5999999940395,,directmemory_phase6,1572452,,,,,,,,object_07c.png,,,51,,,1,,object_01a.png,object_12a.png,object_08b.png,object_08b.png,,0.9204545454545454,,1,,,,,,,,,,,,
7750.799999982119,,directmemory_phase6,1580209,,,,,,,,object_10b.png,,,49,,,1,,object_10c.png,object_12a.png,object_15c.png,object_10c.png,,0.9213483146067416,,1,,,,,,,,,,,,
2955.800000011921,,directmemory_phase6,1583170,,,,,,,,object_15a.png,,,50,,,1,,object_01b.png,object_13a.png,object_06c.png,object_13a.png,,0.9222222222222223,,1,,,,,,,,,,,,
null,,thebreak,1583275,,,,,,,,<p></p>,,,null,,,,,,,,,,,,,,,,,,,,,,,,
13561.59999999404,,intro_0,1596840,,,,,,,,instruct,,,32,,,,,,,,,,,,,,,,,,,,,,,,
null,,learn_phase(without_color)7,1600343,,,,,,,,black_plus_sign,,,null,object_01b.png,object_13b.png,,,,,,,,,,,,,,,,,,,,,,
null,,black_cross(without_color)7,1601222,,,,,,,,blue,,,null,object_01b.png,object_13b.png,,,,,,,,,,,,,,,,,,,,,,
314.90000000596046,,rt_plussign_withcolor7,1601724,,,,,,,,blue,,,49,object_01b.png,object_13b.png,,,,,,,,,,,,,,,,,,,,,,
null,,rt_thecrossant_black7,1602855,,,,,,,,black_plus_sign,,,null,,,1,,,,,,,1,,,,,,,,,,,,,,
null,,color_black7,1602958,,,,,,,,black_plus_sign,,,null,,,,,,,,,,,,,,,,,,,,,,,,
null,,learn_phase(without_color)7,1606464,,,,,,,,black_plus_sign,,,null,object_04c.png,object_01c.png,,,,,,,,,,,,,,,,,,,,,,
null,,black_cross(without_color)7,1607214,,,,,,,,blue,,,null,object_04c.png,object_01c.png,,,,,,,,,,,,,,,,,,,,,,
null,,rt_plussign_withcolor7,1607717,,,,,,,,blue,,,null,object_04c.png,object_01c.png,,,,,,,,,,,,,,,,,,,,,,
1326.199999988079,,rt_thecrossant_black7,1608979,,,,,,,,black_plus_sign,,,49,,,1,,,,,,,1,,,,,,,,,,,,,,
null,,color_black7,1609083,,,,,,,,black_plus_sign,,,null,,,,,,,,,,,,,,,,,,,,,,,,
null,,learn_phase(without_color)7,1612588,,,,,,,,black_plus_sign,,,null,object_01a.png,object_14a.png,,,,,,,,,,,,,,,,,,,,,,
null,,black_cross(without_color)7,1613533,,,,,,,,green,,,null,object_01a.png,object_14a.png,,,,,,,,,,,,,,,,,,,,,,
null,,rt_plussign_withcolor7,1614037,,,,,,,,green,,,null,object_01a.png,object_14a.png,,,,,,,,,,,,,,,,,,,,,,
1189.300000011921,,rt_thecrossant_black7,1615098,,,,,,,,black_plus_sign,,,50,,,1,,,,,,,1,,,,,,,,,,,,,,
null,,color_black7,1615202,,,,,,,,black_plus_sign,,,null,,,,,,,,,,,,,,,,,,,,,,,,
null,,learn_phase(without_color)7,1618707,,,,,,,,black_plus_sign,,,null,object_12a.png,object_15b.png,,,,,,,,,,,,,,,,,,,,,,
null,,black_cross(without_color)7,1619744,,,,,,,,blue,,,null,object_12a.png,object_15b.png,,,,,,,,,,,,,,,,,,,,,,
null,,rt_plussign_withcolor7,1620247,,,,,,,,blue,,,null,object_12a.png,object_15b.png,,,,,,,,,,,,,,,,,,,,,,
1902.9000000059605,,rt_thecrossant_black7,1621220,,,,,,,,black_plus_sign,,,49,,,1,,,,,,,1,,,,,,,,,,,,,,
null,,color_black7,1621324,,,,,,,,black_plus_sign,,,null,,,,,,,,,,,,,,,,,,,,,,,,
null,,learn_phase(without_color)7,1624830,,,,,,,,black_plus_sign,,,null,object_15c.png,object_09a.png,,,,,,,,,,,,,,,,,,,,,,
null,,black_cross(without_color)7,1625341,,,,,,,,blue,,,null,object_15c.png,object_09a.png,,,,,,,,,,,,,,,,,,,,,,
null,,rt_plussign_withcolor7,1625845,,,,,,,,blue,,,null,object_15c.png,object_09a.png,,,,,,,,,,,,,,,,,,,,,,
1440.2000000178814,,rt_thecrossant_black7,1627340,,,,,,,,black_plus_sign,,,49,,,1,,,,,,,1,,,,,,,,,,,,,,
null,,color_black7,1627444,,,,,,,,black_plus_sign,,,null,,,,,,,,,,,,,,,,,,,,,,,,
null,,learn_phase(without_color)7,1630948,,,,,,,,black_plus_sign,,,null,object_11b.png,object_06b.png,,,,,,,,,,,,,,,,,,,,,,
null,,black_cross(without_color)7,1631416,,,,,,,,blue,,,null,object_11b.png,object_06b.png,,,,,,,,,,,,,,,,,,,,,,
null,,rt_plussign_withcolor7,1631920,,,,,,,,blue,,,null,object_11b.png,object_06b.png,,,,,,,,,,,,,,,,,,,,,,
959.7999999821186,,rt_thecrossant_black7,1633460,,,,,,,,black_plus_sign,,,49,,,1,,,,,,,1,,,,,,,,,,,,,,
null,,color_black7,1633564,,,,,,,,black_plus_sign,,,null,,,,,,,,,,,,,,,,,,,,,,,,
null,,learn_phase(without_color)7,1637068,,,,,,,,black_plus_sign,,,null,object_13a.png,object_15a.png,,,,,,,,,,,,,,,,,,,,,,
null,,black_cross(without_color)7,1637920,,,,,,,,blue,,,null,object_13a.png,object_15a.png,,,,,,,,,,,,,,,,,,,,,,
441.09999999403954,,rt_plussign_withcolor7,1638423,,,,,,,,blue,,,49,object_13a.png,object_15a.png,,,,,,,,,,,,,,,,,,,,,,
null,,rt_thecrossant_black7,1639579,,,,,,,,black_plus_sign,,,null,,,1,,,,,,,1,,,,,,,,,,,,,,
null,,color_black7,1639682,,,,,,,,black_plus_sign,,,null,,,,,,,,,,,,,,,,,,,,,,,,
null,,learn_phase(without_color)7,1643186,,,,,,,,black_plus_sign,,,null,object_02c.png,object_12c.png,,,,,,,,,,,,,,,,,,,,,,
null,,black_cross(without_color)7,1644289,,,,,,,,blue,,,null,object_02c.png,object_12c.png,,,,,,,,,,,,,,,,,,,,,,
null,,rt_plussign_withcolor7,1644793,,,,,,,,blue,,,null,object_02c.png,object_12c.png,,,,,,,,,,,,,,,,,,,,,,
1183.800000011921,,rt_thecrossant_black7,1645697,,,,,,,,black_plus_sign,,,49,,,1,,,,,,,1,,,,,,,,,,,,,,
null,,color_black7,1645806,,,,,,,,black_plus_sign,,,null,,,,,,,,,,,,,,,,,,,,,,,,
null,,learn_phase(without_color)7,1649313,,,,,,,,black_plus_sign,,,null,object_10a.png,object_14b.png,,,,,,,,,,,,,,,,,,,,,,
null,,black_cross(without_color)7,1650110,,,,,,,,green,,,null,object_10a.png,object_14b.png,,,,,,,,,,,,,,,,,,,,,,
null,,rt_plussign_withcolor7,1650614,,,,,,,,green,,,null,object_10a.png,object_14b.png,,,,,,,,,,,,,,,,,,,,,,
1581.300000011921,,rt_thecrossant_black7,1651826,,,,,,,,black_plus_sign,,,50,,,1,,,,,,,1,,,,,,,,,,,,,,
null,,color_black7,1651931,,,,,,,,black_plus_sign,,,null,,,,,,,,,,,,,,,,,,,,,,,,
null,,learn_phase(without_color)7,1655436,,,,,,,,black_plus_sign,,,null,object_10c.png,object_10b.png,,,,,,,,,,,,,,,,,,,,,,
null,,black_cross(without_color)7,1656258,,,,,,,,blue,,,null,object_10c.png,object_10b.png,,,,,,,,,,,,,,,,,,,,,,
null,,rt_plussign_withcolor7,1656762,,,,,,,,blue,,,null,object_10c.png,object_10b.png,,,,,,,,,,,,,,,,,,,,,,
1102.6000000238419,,rt_thecrossant_black7,1657947,,,,,,,,black_plus_sign,,,49,,,1,,,,,,,1,,,,,,,,,,,,,,
null,,color_black7,1658051,,,,,,,,black_plus_sign,,,null,,,,,,,,,,,,,,,,,,,,,,,,
null,,learn_phase(without_color)7,1661565,,,,,,,,black_plus_sign,,,null,object_08a.png,object_04a.png,,,,,,,,,,,,,,,,,,,,,,
null,,black_cross(without_color)7,1662370,,,,,,,,green,,,null,object_08a.png,object_04a.png,,,,,,,,,,,,,,,,,,,,,,
null,,rt_plussign_withcolor7,1662872,,,,,,,,green,,,null,object_08a.png,object_04a.png,,,,,,,,,,,,,,,,,,,,,,
1096.699999988079,,rt_thecrossant_black7,1664076,,,,,,,,black_plus_sign,,,50,,,1,,,,,,,1,,,,,,,,,,,,,,
null,,color_black7,1664181,,,,,,,,black_plus_sign,,,null,,,,,,,,,,,,,,,,,,,,,,,,
null,,learn_phase(without_color)7,1667686,,,,,,,,black_plus_sign,,,null,object_06c.png,object_05a.png,,,,,,,,,,,,,,,,,,,,,,
null,,black_cross(without_color)7,1668353,,,,,,,,blue,,,null,object_06c.png,object_05a.png,,,,,,,,,,,,,,,,,,,,,,
null,,rt_plussign_withcolor7,1668856,,,,,,,,blue,,,null,object_06c.png,object_05a.png,,,,,,,,,,,,,,,,,,,,,,
1456.7999999821186,,rt_thecrossant_black7,1670197,,,,,,,,black_plus_sign,,,49,,,1,,,,,,,1,,,,,,,,,,,,,,
null,,color_black7,1670301,,,,,,,,black_plus_sign,,,null,,,,,,,,,,,,,,,,,,,,,,,,
null,,learn_phase(without_color)7,1673806,,,,,,,,black_plus_sign,,,null,object_11a.png,object_06a.png,,,,,,,,,,,,,,,,,,,,,,
null,,black_cross(without_color)7,1674689,,,,,,,,blue,,,null,object_11a.png,object_06a.png,,,,,,,,,,,,,,,,,,,,,,
null,,rt_plussign_withcolor7,1675192,,,,,,,,blue,,,null,object_11a.png,object_06a.png,,,,,,,,,,,,,,,,,,,,,,
818.5999999940395,,rt_thecrossant_black7,1676321,,,,,,,,black_plus_sign,,,49,,,1,,,,,,,1,,,,,,,,,,,,,,
null,,color_black7,1676424,,,,,,,,black_plus_sign,,,null,,,,,,,,,,,,,,,,,,,,,,,,
null,,learn_phase(without_color)7,1679930,,,,,,,,black_plus_sign,,,null,object_08b.png,object_07c.png,,,,,,,,,,,,,,,,,,,,,,
null,,black_cross(without_color)7,1680670,,,,,,,,blue,,,null,object_08b.png,object_07c.png,,,,,,,,,,,,,,,,,,,,,,
null,,rt_plussign_withcolor7,1681172,,,,,,,,blue,,,null,object_08b.png,object_07c.png,,,,,,,,,,,,,,,,,,,,,,
1313.3999999761581,,rt_thecrossant_black7,1682441,,,,,,,,black_plus_sign,,,49,,,1,,,,,,,1,,,,,,,,,,,,,,
null,,color_black7,1682544,,,,,,,,black_plus_sign,,,null,,,,,,,,,,,,,,,,,,,,,,,,
null,,learn_phase(without_color)7,1686050,,,,,,,,black_plus_sign,,,null,object_09c.png,object_03b.png,,,,,,,,,,,,,,,,,,,,,,
null,,black_cross(without_color)7,1686650,,,,,,,,blue,,,null,object_09c.png,object_03b.png,,,,,,,,,,,,,,,,,,,,,,
null,,rt_plussign_withcolor7,1687153,,,,,,,,blue,,,null,object_09c.png,object_03b.png,,,,,,,,,,,,,,,,,,,,,,
944.5,,rt_thecrossant_black7,1688562,,,,,,,,black_plus_sign,,,49,,,1,,,,,,,1,,,,,,,,,,,,,,
null,,color_black7,1688666,,,,,,,,black_plus_sign,,,null,,,,,,,,,,,,,,,,,,,,,,,,
null,,thebreak,1688771,,,,,,,,<p></p>,,,null,,,,,,,,,,,,,,,,,,,,,,,,
10051.800000011921,,intro_0,1698826,,,,,,,,instruct,,,32,,,,,,,,,,,,,,,,,,,,,,,,
5039.100000023842,,directmemory_phase7,1703869,,,,,,,,object_05a.png,,,49,,,1,,object_06c.png,object_13a.png,object_10c.png,object_06c.png,,0.9230769230769231,,1,,,,,,,,,,,,
2064.199999988079,,directmemory_phase7,1705938,,,,,,,,object_03b.png,,,51,,,1,,object_01b.png,object_10c.png,object_09c.png,object_09c.png,,0.9239130434782609,,1,,,,,,,,,,,,
2736.199999988079,,directmemory_phase7,1708680,,,,,,,,object_12c.png,,,49,,,1,,object_02c.png,object_08b.png,object_09c.png,object_02c.png,,0.9247311827956989,,1,,,,,,,,,,,,
8154.5,,directmemory_phase7,1716840,,,,,,,,object_04a.png,,,51,,,1,,object_06c.png,object_10c.png,object_08a.png,object_08a.png,,0.925531914893617,,1,,,,,,,,,,,,
2977.5999999940395,,directmemory_phase7,1719823,,,,,,,,object_15b.png,,,49,,,1,,object_12a.png,object_09c.png,object_15c.png,object_12a.png,,0.9263157894736842,,1,,,,,,,,,,,,
2378.5,,directmemory_phase7,1722207,,,,,,,,object_07c.png,,,49,,,1,,object_08b.png,object_04c.png,object_11a.png,object_08b.png,,0.9270833333333334,,1,,,,,,,,,,,,
4278.700000017881,,directmemory_phase7,1726491,,,,,,,,object_14b.png,,,49,,,0,,object_15c.png,object_08b.png,object_10a.png,object_10a.png,,0.9175257731958762,,0,,,,,,,,,,,,
6641.4000000059605,,directmemory_phase7,1733138,,,,,,,,object_06a.png,,,49,,,1,,object_11a.png,object_15c.png,object_08a.png,object_11a.png,,0.9183673469387755,,1,,,,,,,,,,,,
3514.699999988079,,directmemory_phase7,1736659,,,,,,,,object_10b.png,,,51,,,1,,object_02c.png,object_11a.png,object_10c.png,object_10c.png,,0.9191919191919192,,1,,,,,,,,,,,,
10071.300000011921,,directmemory_phase7,1746736,,,,,,,,object_09a.png,,,51,,,1,,object_09c.png,object_10c.png,object_15c.png,object_15c.png,,0.92,,1,,,,,,,,,,,,
7714.4000000059605,,directmemory_phase7,1754456,,,,,,,,object_01c.png,,,51,,,1,,object_01b.png,object_06c.png,object_04c.png,object_04c.png,,0.9207920792079208,,1,,,,,,,,,,,,
4370,,directmemory_phase7,1758831,,,,,,,,object_06b.png,,,51,,,1,,object_06c.png,object_01a.png,object_11b.png,object_11b.png,,0.9215686274509803,,1,,,,,,,,,,,,
9562,,directmemory_phase7,1768399,,,,,,,,object_14a.png,,,50,,,0,,object_08a.png,object_11b.png,object_01a.png,object_01a.png,,0.912621359223301,,0,,,,,,,,,,,,
4923.9000000059605,,directmemory_phase7,1773328,,,,,,,,object_15a.png,,,50,,,1,,object_09c.png,object_13a.png,object_15c.png,object_13a.png,,0.9134615384615384,,1,,,,,,,,,,,,
1840.2000000178814,,directmemory_phase7,1775175,,,,,,,,object_13b.png,,,50,,,1,,object_11b.png,object_01b.png,object_10c.png,object_01b.png,,0.9142857142857143,,1,,,,,,,,,,,,
null,,thebreak,1775281,,,,,,,,<p></p>,,,null,,,,,,,,,,,,,,,,,,,,,,,,
30243.79999998212,,intro_0,1805527,,,,,,,,instruct,,,32,,,,,,,,,,,,,,,,,,,,,,,,
null,,learn_phase(without_color)8,1809031,,,,,,,,black_plus_sign,,,null,object_13a.png,object_15a.png,,,,,,,,,,,,,,,,,,,,,,
null,,black_cross(without_color)8,1810093,,,,,,,,green,,,null,object_13a.png,object_15a.png,,,,,,,,,,,,,,,,,,,,,,
334.59999999403954,,rt_plussign_withcolor8,1810596,,,,,,,,green,,,49,object_13a.png,object_15a.png,,,,,,,,,,,,,,,,,,,,,,
null,,rt_thecrossant_black8,1811543,,,,,,,,black_plus_sign,,,null,,,0,,,,,,,0,,,,,,,,,,,,,,
null,,color_black8,1811648,,,,,,,,black_plus_sign,,,null,,,,,,,,,,,,,,,,,,,,,,,,
null,,learn_phase(without_color)8,1815153,,,,,,,,black_plus_sign,,,null,object_12a.png,object_15b.png,,,,,,,,,,,,,,,,,,,,,,
null,,black_cross(without_color)8,1815832,,,,,,,,blue,,,null,object_12a.png,object_15b.png,,,,,,,,,,,,,,,,,,,,,,
null,,rt_plussign_withcolor8,1816335,,,,,,,,blue,,,null,object_12a.png,object_15b.png,,,,,,,,,,,,,,,,,,,,,,
1318.5,,rt_thecrossant_black8,1817664,,,,,,,,black_plus_sign,,,49,,,1,,,,,,,0.5,,,,,,,,,,,,,,
null,,color_black8,1817769,,,,,,,,black_plus_sign,,,null,,,,,,,,,,,,,,,,,,,,,,,,
null,,learn_phase(without_color)8,1821274,,,,,,,,black_plus_sign,,,null,object_04c.png,object_01c.png,,,,,,,,,,,,,,,,,,,,,,
null,,black_cross(without_color)8,1821696,,,,,,,,blue,,,null,object_04c.png,object_01c.png,,,,,,,,,,,,,,,,,,,,,,
null,,rt_plussign_withcolor8,1822199,,,,,,,,blue,,,null,object_04c.png,object_01c.png,,,,,,,,,,,,,,,,,,,,,,
1382.5,,rt_thecrossant_black8,1823786,,,,,,,,black_plus_sign,,,49,,,1,,,,,,,0.6666666666666666,,,,,,,,,,,,,,
null,,color_black8,1823890,,,,,,,,black_plus_sign,,,null,,,,,,,,,,,,,,,,,,,,,,,,
null,,learn_phase(without_color)8,1827395,,,,,,,,black_plus_sign,,,null,object_01b.png,object_13b.png,,,,,,,,,,,,,,,,,,,,,,
null,,black_cross(without_color)8,1828255,,,,,,,,green,,,null,object_01b.png,object_13b.png,,,,,,,,,,,,,,,,,,,,,,
482.19999998807907,,rt_plussign_withcolor8,1828757,,,,,,,,green,,,49,object_01b.png,object_13b.png,,,,,,,,,,,,,,,,,,,,,,
null,,rt_thecrossant_black8,1829906,,,,,,,,black_plus_sign,,,50,,,0,,,,,,,0.5,,,,,,,,,,,,,,
null,,color_black8,1830011,,,,,,,,black_plus_sign,,,null,,,,,,,,,,,,,,,,,,,,,,,,
null,,learn_phase(without_color)8,1833516,,,,,,,,black_plus_sign,,,null,object_08b.png,object_07c.png,,,,,,,,,,,,,,,,,,,,,,
null,,black_cross(without_color)8,1834396,,,,,,,,green,,,null,object_08b.png,object_07c.png,,,,,,,,,,,,,,,,,,,,,,
null,,rt_plussign_withcolor8,1834899,,,,,,,,green,,,null,object_08b.png,object_07c.png,,,,,,,,,,,,,,,,,,,,,,
1237.0999999940395,,rt_thecrossant_black8,1836027,,,,,,,,black_plus_sign,,,49,,,0,,,,,,,0.4,,,,,,,,,,,,,,
null,,warning_page,1841032,,,,,,,,warning,,,null,,,,,,,,,,,,,,,,,,,,,,,,
null,,color_black8,1841135,,,,,,,,black_plus_sign,,,null,,,,,,,,,,,,,,,,,,,,,,,,
null,,learn_phase(without_color)8,1844641,,,,,,,,black_plus_sign,,,null,object_10a.png,object_14b.png,,,,,,,,,,,,,,,,,,,,,,
null,,black_cross(without_color)8,1845490,,,,,,,,blue,,,null,object_10a.png,object_14b.png,,,,,,,,,,,,,,,,,,,,,,
null,,rt_plussign_withcolor8,1845993,,,,,,,,blue,,,null,object_10a.png,object_14b.png,,,,,,,,,,,,,,,,,,,,,,
1113.4000000059605,,rt_thecrossant_black8,1847152,,,,,,,,black_plus_sign,,,49,,,1,,,,,,,0.5,,,,,,,,,,,,,,
null,,color_black8,1847256,,,,,,,,black_plus_sign,,,null,,,,,,,,,,,,,,,,,,,,,,,,
null,,learn_phase(without_color)8,1850761,,,,,,,,black_plus_sign,,,null,object_01a.png,object_14a.png,,,,,,,,,,,,,,,,,,,,,,
null,,black_cross(without_color)8,1851266,,,,,,,,green,,,null,object_01a.png,object_14a.png,,,,,,,,,,,,,,,,,,,,,,
null,,rt_plussign_withcolor8,1851771,,,,,,,,green,,,null,object_01a.png,object_14a.png,,,,,,,,,,,,,,,,,,,,,,
1249.0999999940395,,rt_thecrossant_black8,1853277,,,,,,,,black_plus_sign,,,50,,,1,,,,,,,0.5714285714285714,,,,,,,,,,,,,,
null,,color_black8,1853381,,,,,,,,black_plus_sign,,,null,,,,,,,,,,,,,,,,,,,,,,,,
null,,learn_phase(without_color)8,1856886,,,,,,,,black_plus_sign,,,null,object_10c.png,object_10b.png,,,,,,,,,,,,,,,,,,,,,,
null,,black_cross(without_color)8,1857554,,,,,,,,blue,,,null,object_10c.png,object_10b.png,,,,,,,,,,,,,,,,,,,,,,
null,,rt_plussign_withcolor8,1858061,,,,,,,,blue,,,null,object_10c.png,object_10b.png,,,,,,,,,,,,,,,,,,,,,,
1649.9000000059605,,rt_thecrossant_black8,1859405,,,,,,,,black_plus_sign,,,49,,,1,,,,,,,0.625,,,,,,,,,,,,,,
null,,color_black8,1859510,,,,,,,,black_plus_sign,,,null,,,,,,,,,,,,,,,,,,,,,,,,
null,,learn_phase(without_color)8,1863019,,,,,,,,black_plus_sign,,,null,object_08a.png,object_04a.png,,,,,,,,,,,,,,,,,,,,,,
null,,black_cross(without_color)8,1863648,,,,,,,,blue,,,null,object_08a.png,object_04a.png,,,,,,,,,,,,,,,,,,,,,,
null,,rt_plussign_withcolor8,1864151,,,,,,,,blue,,,null,object_08a.png,object_04a.png,,,,,,,,,,,,,,,,,,,,,,
973,,rt_thecrossant_black8,1865530,,,,,,,,black_plus_sign,,,49,,,1,,,,,,,0.6666666666666666,,,,,,,,,,,,,,
null,,color_black8,1865634,,,,,,,,black_plus_sign,,,null,,,,,,,,,,,,,,,,,,,,,,,,
null,,learn_phase(without_color)8,1869141,,,,,,,,black_plus_sign,,,null,object_06c.png,object_05a.png,,,,,,,,,,,,,,,,,,,,,,
null,,black_cross(without_color)8,1869836,,,,,,,,blue,,,null,object_06c.png,object_05a.png,,,,,,,,,,,,,,,,,,,,,,
null,,rt_plussign_withcolor8,1870340,,,,,,,,blue,,,null,object_06c.png,object_05a.png,,,,,,,,,,,,,,,,,,,,,,
918.9000000059605,,rt_thecrossant_black8,1871652,,,,,,,,black_plus_sign,,,49,,,1,,,,,,,0.7,,,,,,,,,,,,,,
null,,color_black8,1871756,,,,,,,,black_plus_sign,,,null,,,,,,,,,,,,,,,,,,,,,,,,
null,,learn_phase(without_color)8,1875261,,,,,,,,black_plus_sign,,,null,object_09c.png,object_03b.png,,,,,,,,,,,,,,,,,,,,,,
null,,black_cross(without_color)8,1875700,,,,,,,,green,,,null,object_09c.png,object_03b.png,,,,,,,,,,,,,,,,,,,,,,
null,,rt_plussign_withcolor8,1876203,,,,,,,,green,,,null,object_09c.png,object_03b.png,,,,,,,,,,,,,,,,,,,,,,
1100,,rt_thecrossant_black8,1877775,,,,,,,,black_plus_sign,,,50,,,1,,,,,,,0.7272727272727273,,,,,,,,,,,,,,
null,,color_black8,1877880,,,,,,,,black_plus_sign,,,null,,,,,,,,,,,,,,,,,,,,,,,,
null,,learn_phase(without_color)8,1881386,,,,,,,,black_plus_sign,,,null,object_02c.png,object_12c.png,,,,,,,,,,,,,,,,,,,,,,
null,,black_cross(without_color)8,1882135,,,,,,,,blue,,,null,object_02c.png,object_12c.png,,,,,,,,,,,,,,,,,,,,,,
null,,rt_plussign_withcolor8,1882637,,,,,,,,blue,,,null,object_02c.png,object_12c.png,,,,,,,,,,,,,,,,,,,,,,
925.2000000178814,,rt_thecrossant_black8,1883897,,,,,,,,black_plus_sign,,,49,,,1,,,,,,,0.75,,,,,,,,,,,,,,
null,,color_black8,1884002,,,,,,,,black_plus_sign,,,null,,,,,,,,,,,,,,,,,,,,,,,,
null,,learn_phase(without_color)8,1887507,,,,,,,,black_plus_sign,,,null,object_11a.png,object_06a.png,,,,,,,,,,,,,,,,,,,,,,
null,,black_cross(without_color)8,1888090,,,,,,,,green,,,null,object_11a.png,object_06a.png,,,,,,,,,,,,,,,,,,,,,,
null,,rt_plussign_withcolor8,1888593,,,,,,,,green,,,null,object_11a.png,object_06a.png,,,,,,,,,,,,,,,,,,,,,,
1167.6000000238419,,rt_thecrossant_black8,1890017,,,,,,,,black_plus_sign,,,50,,,1,,,,,,,0.7692307692307693,,,,,,,,,,,,,,
null,,color_black8,1890121,,,,,,,,black_plus_sign,,,null,,,,,,,,,,,,,,,,,,,,,,,,
null,,learn_phase(without_color)8,1893626,,,,,,,,black_plus_sign,,,null,object_11b.png,object_06b.png,,,,,,,,,,,,,,,,,,,,,,
null,,black_cross(without_color)8,1894575,,,,,,,,blue,,,null,object_11b.png,object_06b.png,,,,,,,,,,,,,,,,,,,,,,
null,,rt_plussign_withcolor8,1895078,,,,,,,,blue,,,null,object_11b.png,object_06b.png,,,,,,,,,,,,,,,,,,,,,,
983.2000000178814,,rt_thecrossant_black8,1896136,,,,,,,,black_plus_sign,,,49,,,1,,,,,,,0.7857142857142857,,,,,,,,,,,,,,
null,,color_black8,1896241,,,,,,,,black_plus_sign,,,null,,,,,,,,,,,,,,,,,,,,,,,,
null,,learn_phase(without_color)8,1899745,,,,,,,,black_plus_sign,,,null,object_15c.png,object_09a.png,,,,,,,,,,,,,,,,,,,,,,
null,,black_cross(without_color)8,1900212,,,,,,,,blue,,,null,object_15c.png,object_09a.png,,,,,,,,,,,,,,,,,,,,,,
null,,rt_plussign_withcolor8,1900714,,,,,,,,blue,,,null,object_15c.png,object_09a.png,,,,,,,,,,,,,,,,,,,,,,
1383.800000011921,,rt_thecrossant_black8,1902256,,,,,,,,black_plus_sign,,,49,,,1,,,,,,,0.8,,,,,,,,,,,,,,
null,,color_black8,1902360,,,,,,,,black_plus_sign,,,null,,,,,,,,,,,,,,,,,,,,,,,,
null,,thebreak,1902465,,,,,,,,<p></p>,,,null,,,,,,,,,,,,,,,,,,,,,,,,
8877.90000000596,,intro_0,1911347,,,,,,,,instruct,,,32,,,,,,,,,,,,,,,,,,,,,,,,
2838.2999999821186,,directmemory_phase8,1914189,,,,,,,,object_09a.png,,,50,,,1,,object_01b.png,object_15c.png,object_11a.png,object_15c.png,,0.9150943396226415,,1,,,,,,,,,,,,
3708,,directmemory_phase8,1917904,,,,,,,,object_10b.png,,,50,,,1,,object_15c.png,object_10c.png,object_08a.png,object_10c.png,,0.9158878504672897,,1,,,,,,,,,,,,
0.7999999821186066,,directmemory_phase8,1917909,,,,,,,,object_13b.png,,,51,,,0,,object_01b.png,object_15c.png,object_09c.png,object_01b.png,,0.9074074074074074,,0,,,,,,,,,,,,
2598,,directmemory_phase8,1920512,,,,,,,,object_06b.png,,,50,,,0,,object_10c.png,object_15c.png,object_11b.png,object_11b.png,,0.8990825688073395,,0,,,,,,,,,,,,
2.9000000059604645,,directmemory_phase8,1920520,,,,,,,,object_06a.png,,,51,,,0,,object_04c.png,object_11a.png,object_02c.png,object_11a.png,,0.8909090909090909,,0,1,,,,,,,,,,,
null,,slowdown_page,1930526,,,,,,,,too_quick,,,null,,,,,,,,,,,,,,,,,,,,,,,,
8303.800000011921,,directmemory_phase8,1938832,,,,,,,,object_14b.png,,,51,,,0,,object_10a.png,object_08a.png,object_01b.png,object_10a.png,,0.8828828828828829,,0,,,,,,,,,,,,
4641.299999982119,,directmemory_phase8,1943480,,,,,,,,object_05a.png,,,51,,,1,,object_02c.png,object_04c.png,object_06c.png,object_06c.png,,0.8839285714285714,,1,,,,,,,,,,,,
7019.799999982119,,directmemory_phase8,1950506,,,,,,,,object_01c.png,,,51,,,1,,object_13a.png,object_08b.png,object_04c.png,object_04c.png,,0.8849557522123894,,1,,,,,,,,,,,,
3393.4000000059605,,directmemory_phase8,1953905,,,,,,,,object_04a.png,,,49,,,1,,object_08a.png,object_11a.png,object_01b.png,object_08a.png,,0.8859649122807017,,1,,,,,,,,,,,,
3129.199999988079,,directmemory_phase8,1957040,,,,,,,,object_15a.png,,,51,,,1,,object_09c.png,object_06c.png,object_13a.png,object_13a.png,,0.8869565217391304,,1,,,,,,,,,,,,
3568.9000000059605,,directmemory_phase8,1960615,,,,,,,,object_12c.png,,,50,,,1,,object_15c.png,object_02c.png,object_01a.png,object_02c.png,,0.8879310344827587,,1,,,,,,,,,,,,
3139.0999999940395,,directmemory_phase8,1963760,,,,,,,,object_03b.png,,,51,,,1,,object_08b.png,object_11a.png,object_09c.png,object_09c.png,,0.8888888888888888,,1,,,,,,,,,,,,
3820.0999999940395,,directmemory_phase8,1967585,,,,,,,,object_07c.png,,,49,,,1,,object_08b.png,object_02c.png,object_04c.png,object_08b.png,,0.8898305084745762,,1,,,,,,,,,,,,
8442.899999976158,,directmemory_phase8,1976032,,,,,,,,object_15b.png,,,51,,,1,,object_04c.png,object_08b.png,object_12a.png,object_12a.png,,0.8907563025210085,,1,,,,,,,,,,,,
3779.5,,directmemory_phase8,1979818,,,,,,,,object_14a.png,,,51,,,1,,object_02c.png,object_13a.png,object_01a.png,object_01a.png,,0.8916666666666667,,1,,,,,,,,,,,,
null,,thebreak,1979924,,,,,,,,<p></p>,,,null,,,,,,,,,,,,,,,,,,,,,,,,
5066.200000017881,,intro_0,1984993,,,,,,,,instruct,,,32,,,,,,,,,,,,,,,,,,,,,,,,
35705.60000002384,,intro_1,2020701,,,,,,,,instruct,,,32,,,,,,,,,,,,,,,,,,,,,,,,
7434.0999999940395,,intro_2,2028138,,,,,,,,instruct,,,32,,,,,,,,,,,,,,,,,,,,,,,,
,,intro_3,2110364,,,,,,,,instruct,,,,,,,,,,,,,,,,,,,,,,,,,,,
2405.699999988079,,intro_4,2112773,,,,,,,,instruct,,,32,,,,,,,,,,,,,,,,,,,,,,,,
5496.4000000059605,,inference_phase,2118273,,,,,,,,object_14a.png,,,49,object_08c.png,object_07a.png,1,,,,,object_08c.png,,1,,,,object_03a.png,,,,,,,,,,
