rt,responses,trial_type,time_elapsed,identifier_a,identifier_b,identifier_c,tasktype,browser_type,local_time,UTC_time,stimulus,button_pressed,response,key_press,failed_practice,stimulus_left,stimulus_right,accuracy,practice_cumulative_accuracy,stimulus_down_left,stimulus_down_mid,stimulus_down_right,stimulus_correct,prac_weighted_accuracy,cumulative_accuracy,weighted_accuracy,stimulus_middle,problems,smooth,distraction,strategies,easier,similar,comments,detectfocus,breakfocus,completion_code
21922.5,{worker_id:653f2424042d03012eb92ef5},id_enter,21927,object_12c.png; object_03c.png; object_02b.png; object_08c.png; object_11a.png; object_05b.png; object_09b.png; object_07c.png; object_06c.png; object_13c.png; object_01b.png; object_09a.png; object_05c.png; object_11c.png; object_03a.png,object_15c.png; object_10b.png; object_15b.png; object_04a.png; object_03b.png; object_10c.png; object_12b.png; object_04c.png; object_14a.png; object_01c.png; object_02c.png; object_11b.png; object_13a.png; object_01a.png; object_14c.png,object_04b.png; object_08b.png; object_07b.png; object_14b.png; object_02a.png; object_06a.png; object_15a.png; object_08a.png; object_12a.png; object_07a.png; object_09c.png; object_13b.png; object_05a.png; object_06b.png; object_10a.png,blocked,Mozilla/5.0 (Windows NT 10.0; Win64; x64) AppleWebKit/537.36 (KHTML, like Gecko) Chrome/136.0.0.0 Safari/537.36,5/11/2025, 5:12:42 PM,2025-05-11 22:12:42.956,,,,,,,,,,,,,,,,,,,,,,,,,,,
67776.39999997616,,make_fullscreen,89726,,,,,,,,fullscreen,0,,,,,,,,,,,,,,,,,,,,,,,,,
3441.5,,instruct_1,93173,,,,,,,,instruct,0,Next,,,,,,,,,,,,,,,,,,,,,,,,
7004.099999964237,,instruct_2,100181,,,,,,,,instruct,1,Next,,,,,,,,,,,,,,,,,,,,,,,,
5959.300000011921,,instruct_3,106142,,,,,,,,instruct,1,Next,,,,,,,,,,,,,,,,,,,,,,,,
173975.19999998808,,instruct_4,280118,,,,,,,,instruct,1,Next,,,,,,,,,,,,,,,,,,,,,,,,
8301.100000023842,,instruct_5,288422,,,,,,,,instruct,1,Next,,,,,,,,,,,,,,,,,,,,,,,,
3127.399999976158,,instruct_6,291550,,,,,,,,instruct,1,Next,,,,,,,,,,,,,,,,,,,,,,,,
213767.19999998808,,instruct_7,505318,,,,,,,,instruct,1,Next,,,,,,,,,,,,,,,,,,,,,,,,
null,,prac_atten_color_black,506186,,,,,,,,black_plus_sign,,,null,,,,,,,,,,,,,,,,,,,,,,,
null,,prac_atten_color,506724,,,,,,,,<p style='position:absolute;top: 50%;right: 50%;transform: translate(50%, -50%);font-size: 125px;color: blue;'>+</p>,,,null,,,,,,,,,,,,,,,,,,,,,,,
null,,prac_atten_color_black,508726,,,,,,,,black_plus_sign,,,null,,,,,,,,,,,,,,,,,,,,,,,
10262.599999964237,,attentioncheck_help,518992,,,,,,,,instruct,,,32,,,,,,,,,,,,,,,,,,,,,,,
null,,prac_atten_color_black,519859,,,,,,,,black_plus_sign,,,null,,,,,,,,,,,,,,,,,,,,,,,
null,,prac_atten_color,520895,,,,,,,,<p style='position:absolute;top: 50%;right: 50%;transform: translate(50%, -50%);font-size: 125px;color: green;'>+</p>,,,null,,,,,,,,,,,,,,,,,,,,,,,
null,,prac_atten_color_black,522897,,,,,,,,black_plus_sign,,,null,,,,,,,,,,,,,,,,,,,,,,,
5499.700000047684,,attentioncheck_help,528399,,,,,,,,instruct,,,32,,,,,,,,,,,,,,,,,,,,,,,
null,,prac_atten_color_black,528768,,,,,,,,black_plus_sign,,,null,,,,,,,,,,,,,,,,,,,,,,,
null,,prac_atten_color,529460,,,,,,,,<p style='position:absolute;top: 50%;right: 50%;transform: translate(50%, -50%);font-size: 125px;color: green;'>+</p>,,,null,,,,,,,,,,,,,,,,,,,,,,,
null,,prac_atten_color_black,531463,,,,,,,,black_plus_sign,,,null,,,,,,,,,,,,,,,,,,,,,,,
7005.5,,attentioncheck_help,538471,,,,,,,,instruct,,,32,,,,,,,,,,,,,,,,,,,,,,,
null,,prac_atten_color_black,539183,,,,,,,,black_plus_sign,,,null,,,,,,,,,,,,,,,,,,,,,,,
null,,prac_atten_color,539917,,,,,,,,<p style='position:absolute;top: 50%;right: 50%;transform: translate(50%, -50%);font-size: 125px;color: blue;'>+</p>,,,null,,,,,,,,,,,,,,,,,,,,,,,
null,,prac_atten_color_black,541919,,,,,,,,black_plus_sign,,,null,,,,,,,,,,,,,,,,,,,,,,,
3909.699999988079,,attentioncheck_help,545831,,,,,,,,instruct,,,32,,,,,,,,,,,,,,,,,,,,,,,
null,,prac_atten_color_black,546502,,,,,,,,black_plus_sign,,,null,,,,,,,,,,,,,,,,,,,,,,,
null,,prac_atten_color,547096,,,,,,,,<p style='position:absolute;top: 50%;right: 50%;transform: translate(50%, -50%);font-size: 125px;color: green;'>+</p>,,,null,,,,,,,,,,,,,,,,,,,,,,,
null,,prac_atten_color_black,549098,,,,,,,,black_plus_sign,,,null,,,,,,,,,,,,,,,,,,,,,,,
13537.800000011921,,attentioncheck_help,562638,,,,,,,,instruct,,,32,,,,,,,,,,,,,,,,,,,,,,,
null,,prac_atten_color_black,563447,,,,,,,,black_plus_sign,,,null,,,,,,,,,,,,,,,,,,,,,,,
469.9000000357628,,prac_atten_color,564293,,,,,,,,<p style='position:absolute;top: 50%;right: 50%;transform: translate(50%, -50%);font-size: 125px;color: green;'>+</p>,,,50,,,,,,,,,,,,,,,,,,,,,,,
null,,prac_atten_color_black,566294,,,,,,,,black_plus_sign,,,null,,,,,,,,,,,,,,,,,,,,,,,
null,,prac_atten_color_black,566855,,,,,,,,black_plus_sign,,,null,,,,,,,,,,,,,,,,,,,,,,,
741.6000000238419,,prac_atten_color,567750,,,,,,,,<p style='position:absolute;top: 50%;right: 50%;transform: translate(50%, -50%);font-size: 125px;color: blue;'>+</p>,,,49,,,,,,,,,,,,,,,,,,,,,,,
null,,prac_atten_color_black,569751,,,,,,,,black_plus_sign,,,null,,,,,,,,,,,,,,,,,,,,,,,
null,,prac_atten_color_black,570262,,,,,,,,black_plus_sign,,,null,,,,,,,,,,,,,,,,,,,,,,,
null,,prac_atten_color,570840,,,,,,,,<p style='position:absolute;top: 50%;right: 50%;transform: translate(50%, -50%);font-size: 125px;color: green;'>+</p>,,,null,,,,,,,,,,,,,,,,,,,,,,,
54.19999998807907,,prac_atten_color_black,572841,,,,,,,,black_plus_sign,,,50,,,,,,,,,,,,,,,,,,,,,,,
null,,prac_atten_color_black,573682,,,,,,,,black_plus_sign,,,null,,,,,,,,,,,,,,,,,,,,,,,
555,,prac_atten_color,574624,,,,,,,,<p style='position:absolute;top: 50%;right: 50%;transform: translate(50%, -50%);font-size: 125px;color: blue;'>+</p>,,,49,,,,,,,,,,,,,,,,,,,,,,,
null,,prac_atten_color_black,576626,,,,,,,,black_plus_sign,,,null,,,,,,,,,,,,,,,,,,,,,,,
null,,prac_atten_color_black,577087,,,,,,,,black_plus_sign,,,null,,,,,,,,,,,,,,,,,,,,,,,
null,,prac_atten_color,577728,,,,,,,,<p style='position:absolute;top: 50%;right: 50%;transform: translate(50%, -50%);font-size: 125px;color: blue;'>+</p>,,,null,,,,,,,,,,,,,,,,,,,,,,,
29.099999964237213,,prac_atten_color_black,579730,,,,,,,,black_plus_sign,,,49,,,,,,,,,,,,,,,,,,,,,,,
22513.69999998808,,attentioncheck_feedback,602246,,,,,,,,cross_check_feedback,0,,,1,,,,,,,,,,,,,,,,,,,,,,
null,,prac_atten_color_black,602802,,,,,,,,black_plus_sign,,,null,,,,,,,,,,,,,,,,,,,,,,,
554,,prac_atten_color,603650,,,,,,,,<p style='position:absolute;top: 50%;right: 50%;transform: translate(50%, -50%);font-size: 125px;color: blue;'>+</p>,,,49,,,,,,,,,,,,,,,,,,,,,,,
null,,prac_atten_color_black,605652,,,,,,,,black_plus_sign,,,null,,,,,,,,,,,,,,,,,,,,,,,
null,,prac_atten_color_black,606208,,,,,,,,black_plus_sign,,,null,,,,,,,,,,,,,,,,,,,,,,,
null,,prac_atten_color,606631,,,,,,,,<p style='position:absolute;top: 50%;right: 50%;transform: translate(50%, -50%);font-size: 125px;color: green;'>+</p>,,,null,,,,,,,,,,,,,,,,,,,,,,,
247,,prac_atten_color_black,608633,,,,,,,,black_plus_sign,,,50,,,,,,,,,,,,,,,,,,,,,,,
null,,prac_atten_color_black,609616,,,,,,,,black_plus_sign,,,null,,,,,,,,,,,,,,,,,,,,,,,
null,,prac_atten_color,610136,,,,,,,,<p style='position:absolute;top: 50%;right: 50%;transform: translate(50%, -50%);font-size: 125px;color: green;'>+</p>,,,null,,,,,,,,,,,,,,,,,,,,,,,
12.300000011920929,,prac_atten_color_black,612138,,,,,,,,black_plus_sign,,,50,,,,,,,,,,,,,,,,,,,,,,,
null,,prac_atten_color_black,613024,,,,,,,,black_plus_sign,,,null,,,,,,,,,,,,,,,,,,,,,,,
461.60000002384186,,prac_atten_color,613503,,,,,,,,<p style='position:absolute;top: 50%;right: 50%;transform: translate(50%, -50%);font-size: 125px;color: blue;'>+</p>,,,49,,,,,,,,,,,,,,,,,,,,,,,
null,,prac_atten_color_black,615506,,,,,,,,black_plus_sign,,,null,,,,,,,,,,,,,,,,,,,,,,,
null,,prac_atten_color_black,616431,,,,,,,,black_plus_sign,,,null,,,,,,,,,,,,,,,,,,,,,,,
389.5,,prac_atten_color,617438,,,,,,,,<p style='position:absolute;top: 50%;right: 50%;transform: translate(50%, -50%);font-size: 125px;color: green;'>+</p>,,,50,,,,,,,,,,,,,,,,,,,,,,,
null,,prac_atten_color_black,619440,,,,,,,,black_plus_sign,,,null,,,,,,,,,,,,,,,,,,,,,,,
null,,prac_atten_color_black,619851,,,,,,,,black_plus_sign,,,null,,,,,,,,,,,,,,,,,,,,,,,
538.1999999880791,,prac_atten_color,620445,,,,,,,,<p style='position:absolute;top: 50%;right: 50%;transform: translate(50%, -50%);font-size: 125px;color: green;'>+</p>,,,50,,,,,,,,,,,,,,,,,,,,,,,
null,,prac_atten_color_black,622447,,,,,,,,black_plus_sign,,,null,,,,,,,,,,,,,,,,,,,,,,,
null,,prac_atten_color_black,623258,,,,,,,,black_plus_sign,,,null,,,,,,,,,,,,,,,,,,,,,,,
547.8000000119209,,prac_atten_color,624164,,,,,,,,<p style='position:absolute;top: 50%;right: 50%;transform: translate(50%, -50%);font-size: 125px;color: blue;'>+</p>,,,49,,,,,,,,,,,,,,,,,,,,,,,
null,,prac_atten_color_black,626166,,,,,,,,black_plus_sign,,,null,,,,,,,,,,,,,,,,,,,,,,,
null,,prac_atten_color_black,626665,,,,,,,,black_plus_sign,,,null,,,,,,,,,,,,,,,,,,,,,,,
628.3000000119209,,prac_atten_color,627513,,,,,,,,<p style='position:absolute;top: 50%;right: 50%;transform: translate(50%, -50%);font-size: 125px;color: green;'>+</p>,,,50,,,,,,,,,,,,,,,,,,,,,,,
null,,prac_atten_color_black,629515,,,,,,,,black_plus_sign,,,null,,,,,,,,,,,,,,,,,,,,,,,
null,,prac_atten_color_black,630072,,,,,,,,black_plus_sign,,,null,,,,,,,,,,,,,,,,,,,,,,,
501.4000000357628,,prac_atten_color,630704,,,,,,,,<p style='position:absolute;top: 50%;right: 50%;transform: translate(50%, -50%);font-size: 125px;color: blue;'>+</p>,,,49,,,,,,,,,,,,,,,,,,,,,,,
null,,prac_atten_color_black,632706,,,,,,,,black_plus_sign,,,null,,,,,,,,,,,,,,,,,,,,,,,
null,,prac_atten_color_black,633479,,,,,,,,black_plus_sign,,,null,,,,,,,,,,,,,,,,,,,,,,,
621.5,,prac_atten_color,634497,,,,,,,,<p style='position:absolute;top: 50%;right: 50%;transform: translate(50%, -50%);font-size: 125px;color: blue;'>+</p>,,,49,,,,,,,,,,,,,,,,,,,,,,,
null,,prac_atten_color_black,636499,,,,,,,,black_plus_sign,,,null,,,,,,,,,,,,,,,,,,,,,,,
84394.89999997616,,attentioncheck_feedback,720895,,,,,,,,cross_check_feedback,0,,,,,,,,,,,,,,,,,,,,,,,,,
12159.400000035763,,last_instruct,733054,,,,,,,,instruct,,,32,,,,,,,,,,,,,,,,,,,,,,,
null,,prac_learn_phase(without_color),736556,,,,,,,,black_plus_sign,,,null,,object_09b.png,object_12b.png,,,,,,,,,,,,,,,,,,,,
null,,prac_black_cross(without_color),737007,,,,,,,,green,,,null,,object_09b.png,object_12b.png,,,,,,,,,,,,,,,,,,,,
null,,prac_rt_plussign_withcolor,737508,,,,,,,,green,,,null,,object_09b.png,object_12b.png,,,,,,,,,,,,,,,,,,,,
973.1000000238419,,prac_rt_thecrossant_black,739063,,,,,,,,black_plus_sign,,,49,,,,0,0,,,,,,,,,,,,,,,,,,
null,,prac_color_black,739166,,,,,,,,black_plus_sign,,,null,,,,,,,,,,,,,,,,,,,,,,,
null,,prac_learn_phase(without_color),742672,,,,,,,,black_plus_sign,,,null,,object_13c.png,object_01c.png,,,,,,,,,,,,,,,,,,,,
null,,black_cross(without_color)1,743163,,,,,,,,green,,,null,,object_09b.png,object_12b.png,,,,,,,,,,,,,,,,,,,,
null,,prac_rt_plussign_withcolor,743665,,,,,,,,green,,,null,,object_13c.png,object_01c.png,,,,,,,,,,,,,,,,,,,,
1214.5,,prac_rt_thecrossant_black,744861,,,,,,,,black_plus_sign,,,50,,,,1,0.5,,,,,,,,,,,,,,,,,,
null,,prac_color_black,744963,,,,,,,,black_plus_sign,,,null,,,,,,,,,,,,,,,,,,,,,,,
null,,prac_learn_phase(without_color),748474,,,,,,,,black_plus_sign,,,null,,object_02b.png,object_15b.png,,,,,,,,,,,,,,,,,,,,
null,,black_cross(without_color)1,748966,,,,,,,,green,,,null,,object_09b.png,object_12b.png,,,,,,,,,,,,,,,,,,,,
480.39999997615814,,prac_rt_plussign_withcolor,749479,,,,,,,,green,,,50,,object_02b.png,object_15b.png,,,,,,,,,,,,,,,,,,,,
null,,prac_rt_thecrossant_black,750912,,,,,,,,black_plus_sign,,,null,,,,1,0.6666666666666666,,,,,,,,,,,,,,,,,,
null,,prac_color_black,751015,,,,,,,,black_plus_sign,,,null,,,,,,,,,,,,,,,,,,,,,,,
null,,prac_learn_phase(without_color),754518,,,,,,,,black_plus_sign,,,null,,object_03a.png,object_14c.png,,,,,,,,,,,,,,,,,,,,
null,,black_cross(without_color)1,755010,,,,,,,,green,,,null,,object_09b.png,object_12b.png,,,,,,,,,,,,,,,,,,,,
484.39999997615814,,prac_rt_plussign_withcolor,755511,,,,,,,,blue,,,49,,object_03a.png,object_14c.png,,,,,,,,,,,,,,,,,,,,
null,,prac_rt_thecrossant_black,756839,,,,,,,,black_plus_sign,,,null,,,,1,0.75,,,,,,,,,,,,,,,,,,
null,,prac_color_black,756941,,,,,,,,black_plus_sign,,,null,,,,,,,,,,,,,,,,,,,,,,,
92151.29999995232,,instruct_dir_01,849095,,,,,,,,instruct,0,Next,,,,,,,,,,,,,,,,,,,,,,,,
49670.80000001192,,instruct_dir_2,898766,,,,,,,,instruct,1,Next,,,,,,,,,,,,,,,,,,,,,,,,
4734.800000011921,,instruct_dir_3,903502,,,,,,,,instruct,1,Next,,,,,,,,,,,,,,,,,,,,,,,,
9631.199999988079,,instruct_dir_4,913135,,,,,,,,instruct,1,Start,,,,,,,,,,,,,,,,,,,,,,,,
null,,thebreak,913236,,,,,,,,<p></p>,,,null,,,,,,,,,,,,,,,,,,,,,,,
2745.199999988079,,intro_0,915984,,,,,,,,instruct,,,32,,,,,,,,,,,,,,,,,,,,,,,
3725.900000035763,,prac_directmemory_phase,919711,,,,,,,,practice/object_03b.png,,,51,,,,0,,practice/object_01a.png,practice/object_03a.png,practice/object_02a.png,practice/object_03a.png,0,0,,,,,,,,,,,,
3356.400000035763,,prac_directmemory_phase,923072,,,,,,,,practice/object_04b.png,,,51,,,,0,,practice/object_03a.png,practice/object_04a.png,practice/object_02a.png,practice/object_04a.png,0,0,,,,,,,,,,,,
3051.399999976158,,prac_directmemory_phase,926126,,,,,,,,practice/object_02b.png,,,50,,,,1,,practice/object_03a.png,practice/object_02a.png,practice/object_04a.png,practice/object_02a.png,1,0.3333333333333333,,,,,,,,,,,,
4198.899999976158,,prac_directmemory_phase,930326,,,,,,,,practice/object_01b.png,,,49,,,,0,,practice/object_03a.png,practice/object_01a.png,practice/object_04a.png,practice/object_01a.png,0,0.25,,,,,,,,,,,,
111271.19999998808,,practice_feedback_force_restart,1041599,,,,,,,,practice_feedback,0,,,1,,,,,,,,,,,,,,,,,,,,,,
20576.69999998808,,last_instruct,1062176,,,,,,,,instruct,,,32,,,,,,,,,,,,,,,,,,,,,,,
null,,prac_learn_phase(without_color),1065678,,,,,,,,black_plus_sign,,,null,,object_09b.png,object_12b.png,,,,,,,,,,,,,,,,,,,,
null,,prac_black_cross(without_color),1066744,,,,,,,,green,,,null,,object_09b.png,object_12b.png,,,,,,,,,,,,,,,,,,,,
389.9000000357628,,prac_rt_plussign_withcolor,1067247,,,,,,,,green,,,50,,object_09b.png,object_12b.png,,,,,,,,,,,,,,,,,,,,
null,,prac_rt_thecrossant_black,1068186,,,,,,,,black_plus_sign,,,null,,,,1,0.8,,,,,,,,,,,,,,,,,,
null,,prac_color_black,1068288,,,,,,,,black_plus_sign,,,null,,,,,,,,,,,,,,,,,,,,,,,
null,,prac_learn_phase(without_color),1071792,,,,,,,,black_plus_sign,,,null,,object_13c.png,object_01c.png,,,,,,,,,,,,,,,,,,,,
null,,black_cross(without_color)1,1072283,,,,,,,,green,,,null,,object_09b.png,object_12b.png,,,,,,,,,,,,,,,,,,,,
null,,prac_rt_plussign_withcolor,1072785,,,,,,,,green,,,null,,object_13c.png,object_01c.png,,,,,,,,,,,,,,,,,,,,
1433.199999988079,,prac_rt_thecrossant_black,1074142,,,,,,,,black_plus_sign,,,50,,,,1,0.8333333333333334,,,,,,,,,,,,,,,,,,
null,,prac_color_black,1074244,,,,,,,,black_plus_sign,,,null,,,,,,,,,,,,,,,,,,,,,,,
null,,prac_learn_phase(without_color),1077747,,,,,,,,black_plus_sign,,,null,,object_02b.png,object_15b.png,,,,,,,,,,,,,,,,,,,,
null,,black_cross(without_color)1,1078238,,,,,,,,green,,,null,,object_09b.png,object_12b.png,,,,,,,,,,,,,,,,,,,,
null,,prac_rt_plussign_withcolor,1078740,,,,,,,,green,,,null,,object_02b.png,object_15b.png,,,,,,,,,,,,,,,,,,,,
null,,prac_rt_thecrossant_black,1079703,,,,,,,,black_plus_sign,,,null,,,,,0.8333333333333334,,,,,,,,,,,,,,,,,,
null,,prac_color_black,1079804,,,,,,,,black_plus_sign,,,null,,,,,,,,,,,,,,,,,,,,,,,
null,,prac_learn_phase(without_color),1083306,,,,,,,,black_plus_sign,,,null,,object_03a.png,object_14c.png,,,,,,,,,,,,,,,,,,,,
null,,black_cross(without_color)1,1083798,,,,,,,,green,,,null,,object_09b.png,object_12b.png,,,,,,,,,,,,,,,,,,,,
497.19999998807907,,prac_rt_plussign_withcolor,1084301,,,,,,,,blue,,,50,,object_03a.png,object_14c.png,,,,,,,,,,,,,,,,,,,,
null,,prac_rt_thecrossant_black,1085507,,,,,,,,black_plus_sign,,,null,,,,0,0.7142857142857143,,,,,,,,,,,,,,,,,,
null,,warning_page,1090510,,,,,,,,warning,,,null,,,,,,,,,,,,,,,,,,,,,,,
null,,prac_color_black,1090612,,,,,,,,black_plus_sign,,,null,,,,,,,,,,,,,,,,,,,,,,,
5017.100000023842,,instruct_dir_01,1095631,,,,,,,,instruct,0,Next,,,,,,,,,,,,,,,,,,,,,,,,
5895.200000047684,,instruct_dir_2,1101527,,,,,,,,instruct,1,Next,,,,,,,,,,,,,,,,,,,,,,,,
2406.900000035763,,instruct_dir_3,1103935,,,,,,,,instruct,1,Next,,,,,,,,,,,,,,,,,,,,,,,,
94311.09999996424,,instruct_dir_4,1198247,,,,,,,,instruct,1,Start,,,,,,,,,,,,,,,,,,,,,,,,
null,,thebreak,1198348,,,,,,,,<p></p>,,,null,,,,,,,,,,,,,,,,,,,,,,,
3146.5,,intro_0,1201496,,,,,,,,instruct,,,32,,,,,,,,,,,,,,,,,,,,,,,
3710.2000000476837,,prac_directmemory_phase,1205208,,,,,,,,practice/object_03b.png,,,50,,,,1,,practice/object_01a.png,practice/object_03a.png,practice/object_02a.png,practice/object_03a.png,1,1,,,,,,,,,,,,
5253.300000011921,,prac_directmemory_phase,1210464,,,,,,,,practice/object_04b.png,,,49,,,,0,,practice/object_03a.png,practice/object_04a.png,practice/object_02a.png,practice/object_04a.png,0,0.5,,,,,,,,,,,,
3411.800000011921,,prac_directmemory_phase,1213879,,,,,,,,practice/object_02b.png,,,50,,,,1,,practice/object_03a.png,practice/object_02a.png,practice/object_04a.png,practice/object_02a.png,1,0.6666666666666666,,,,,,,,,,,,
4032.099999964237,,prac_directmemory_phase,1217912,,,,,,,,practice/object_01b.png,,,50,,,,1,,practice/object_03a.png,practice/object_01a.png,practice/object_04a.png,practice/object_01a.png,1,0.75,,,,,,,,,,,,
7493.200000047684,,practice_feedback,1225407,,,,,,,,practice_feedback,1,,,,,,,,,,,,,,,,,,,,,,,,,
18391.19999998808,,proceed_actualTask,1243799,,,,,,,,proceed_actualTask,1,Continue,,,,,,,,,,,,,,,,,,,,,,,,
9736,,last_inst,1253536,,,,,,,,last_inst,,,32,,,,,,,,,,,,,,,,,,,,,,,
null,,learn_phase(without_color)1,1257038,,,,,,,,black_plus_sign,,,null,,object_09b.png,object_12b.png,,,,,,,,,,,,,,,,,,,,
null,,black_cross(without_color)1,1257530,,,,,,,,green,,,null,,object_09b.png,object_12b.png,,,,,,,,,,,,,,,,,,,,
485.69999998807907,,rt_plussign_withcolor1,1258031,,,,,,,,green,,,50,,object_09b.png,object_12b.png,,,,,,,,,,,,,,,,,,,,
null,,rt_thecrossant_black1,1259544,,,,,,,,black_plus_sign,,,null,,,,1,,,,,,,1,,,,,,,,,,,,
null,,color_black1,1259660,,,,,,,,black_plus_sign,,,null,,,,,,,,,,,,,,,,,,,,,,,
null,,learn_phase(without_color)1,1263162,,,,,,,,black_plus_sign,,,null,,object_13c.png,object_01c.png,,,,,,,,,,,,,,,,,,,,
null,,black_cross(without_color)1,1263707,,,,,,,,green,,,null,,object_13c.png,object_01c.png,,,,,,,,,,,,,,,,,,,,
396,,rt_plussign_withcolor1,1264210,,,,,,,,green,,,50,,object_13c.png,object_01c.png,,,,,,,,,,,,,,,,,,,,
null,,rt_thecrossant_black1,1265671,,,,,,,,black_plus_sign,,,null,,,,1,,,,,,,1,,,,,,,,,,,,
null,,color_black1,1265774,,,,,,,,black_plus_sign,,,null,,,,,,,,,,,,,,,,,,,,,,,
null,,learn_phase(without_color)1,1269276,,,,,,,,black_plus_sign,,,null,,object_02b.png,object_15b.png,,,,,,,,,,,,,,,,,,,,
null,,black_cross(without_color)1,1270026,,,,,,,,blue,,,null,,object_02b.png,object_15b.png,,,,,,,,,,,,,,,,,,,,
null,,rt_plussign_withcolor1,1270528,,,,,,,,blue,,,null,,object_02b.png,object_15b.png,,,,,,,,,,,,,,,,,,,,
824.3999999761581,,rt_thecrossant_black1,1271783,,,,,,,,black_plus_sign,,,49,,,,1,,,,,,,1,,,,,,,,,,,,
null,,color_black1,1271885,,,,,,,,black_plus_sign,,,null,,,,,,,,,,,,,,,,,,,,,,,
null,,learn_phase(without_color)1,1275390,,,,,,,,black_plus_sign,,,null,,object_03a.png,object_14c.png,,,,,,,,,,,,,,,,,,,,
null,,black_cross(without_color)1,1275848,,,,,,,,green,,,null,,object_03a.png,object_14c.png,,,,,,,,,,,,,,,,,,,,
null,,rt_plussign_withcolor1,1276350,,,,,,,,green,,,null,,object_03a.png,object_14c.png,,,,,,,,,,,,,,,,,,,,
919.8999999761581,,rt_thecrossant_black1,1277897,,,,,,,,black_plus_sign,,,50,,,,1,,,,,,,1,,,,,,,,,,,,
null,,color_black1,1278000,,,,,,,,black_plus_sign,,,null,,,,,,,,,,,,,,,,,,,,,,,
null,,learn_phase(without_color)1,1281503,,,,,,,,black_plus_sign,,,null,,object_11a.png,object_03b.png,,,,,,,,,,,,,,,,,,,,
null,,black_cross(without_color)1,1282387,,,,,,,,green,,,null,,object_11a.png,object_03b.png,,,,,,,,,,,,,,,,,,,,
427,,rt_plussign_withcolor1,1282889,,,,,,,,green,,,50,,object_11a.png,object_03b.png,,,,,,,,,,,,,,,,,,,,
null,,rt_thecrossant_black1,1284010,,,,,,,,black_plus_sign,,,null,,,,1,,,,,,,1,,,,,,,,,,,,
null,,color_black1,1284113,,,,,,,,black_plus_sign,,,null,,,,,,,,,,,,,,,,,,,,,,,
null,,learn_phase(without_color)1,1287624,,,,,,,,black_plus_sign,,,null,,object_12c.png,object_15c.png,,,,,,,,,,,,,,,,,,,,
null,,black_cross(without_color)1,1288609,,,,,,,,green,,,null,,object_12c.png,object_15c.png,,,,,,,,,,,,,,,,,,,,
null,,rt_plussign_withcolor1,1289111,,,,,,,,green,,,null,,object_12c.png,object_15c.png,,,,,,,,,,,,,,,,,,,,
989.0999999642372,,rt_thecrossant_black1,1290132,,,,,,,,black_plus_sign,,,50,,,,1,,,,,,,1,,,,,,,,,,,,
null,,color_black1,1290235,,,,,,,,black_plus_sign,,,null,,,,,,,,,,,,,,,,,,,,,,,
null,,learn_phase(without_color)1,1293739,,,,,,,,black_plus_sign,,,null,,object_11c.png,object_01a.png,,,,,,,,,,,,,,,,,,,,
null,,black_cross(without_color)1,1294670,,,,,,,,blue,,,null,,object_11c.png,object_01a.png,,,,,,,,,,,,,,,,,,,,
null,,rt_plussign_withcolor1,1295172,,,,,,,,blue,,,null,,object_11c.png,object_01a.png,,,,,,,,,,,,,,,,,,,,
1115.8999999761581,,rt_thecrossant_black1,1296246,,,,,,,,black_plus_sign,,,49,,,,1,,,,,,,1,,,,,,,,,,,,
null,,color_black1,1296348,,,,,,,,black_plus_sign,,,null,,,,,,,,,,,,,,,,,,,,,,,
null,,learn_phase(without_color)1,1299852,,,,,,,,black_plus_sign,,,null,,object_06c.png,object_14a.png,,,,,,,,,,,,,,,,,,,,
null,,black_cross(without_color)1,1300591,,,,,,,,blue,,,null,,object_06c.png,object_14a.png,,,,,,,,,,,,,,,,,,,,
null,,rt_plussign_withcolor1,1301093,,,,,,,,blue,,,null,,object_06c.png,object_14a.png,,,,,,,,,,,,,,,,,,,,
1094.199999988079,,rt_thecrossant_black1,1302358,,,,,,,,black_plus_sign,,,49,,,,1,,,,,,,1,,,,,,,,,,,,
null,,color_black1,1302461,,,,,,,,black_plus_sign,,,null,,,,,,,,,,,,,,,,,,,,,,,
null,,learn_phase(without_color)1,1305964,,,,,,,,black_plus_sign,,,null,,object_07c.png,object_04c.png,,,,,,,,,,,,,,,,,,,,
null,,black_cross(without_color)1,1306596,,,,,,,,blue,,,null,,object_07c.png,object_04c.png,,,,,,,,,,,,,,,,,,,,
null,,rt_plussign_withcolor1,1307098,,,,,,,,blue,,,null,,object_07c.png,object_04c.png,,,,,,,,,,,,,,,,,,,,
985.1000000238419,,rt_thecrossant_black1,1308472,,,,,,,,black_plus_sign,,,50,,,,0,,,,,,,0.8888888888888888,,,,,,,,,,,,
null,,color_black1,1308576,,,,,,,,black_plus_sign,,,null,,,,,,,,,,,,,,,,,,,,,,,
null,,learn_phase(without_color)1,1312080,,,,,,,,black_plus_sign,,,null,,object_01b.png,object_02c.png,,,,,,,,,,,,,,,,,,,,
null,,black_cross(without_color)1,1313024,,,,,,,,green,,,null,,object_01b.png,object_02c.png,,,,,,,,,,,,,,,,,,,,
406.80000001192093,,rt_plussign_withcolor1,1313526,,,,,,,,green,,,50,,object_01b.png,object_02c.png,,,,,,,,,,,,,,,,,,,,
null,,rt_thecrossant_black1,1314587,,,,,,,,black_plus_sign,,,null,,,,1,,,,,,,0.9,,,,,,,,,,,,
null,,color_black1,1314690,,,,,,,,black_plus_sign,,,null,,,,,,,,,,,,,,,,,,,,,,,
null,,learn_phase(without_color)1,1318193,,,,,,,,black_plus_sign,,,null,,object_08c.png,object_04a.png,,,,,,,,,,,,,,,,,,,,
null,,black_cross(without_color)1,1319260,,,,,,,,green,,,null,,object_08c.png,object_04a.png,,,,,,,,,,,,,,,,,,,,
null,,rt_plussign_withcolor1,1319761,,,,,,,,green,,,null,,object_08c.png,object_04a.png,,,,,,,,,,,,,,,,,,,,
1222.8999999761581,,rt_thecrossant_black1,1320698,,,,,,,,black_plus_sign,,,50,,,,1,,,,,,,0.9090909090909091,,,,,,,,,,,,
null,,color_black1,1320800,,,,,,,,black_plus_sign,,,null,,,,,,,,,,,,,,,,,,,,,,,
null,,learn_phase(without_color)1,1324302,,,,,,,,black_plus_sign,,,null,,object_05b.png,object_10c.png,,,,,,,,,,,,,,,,,,,,
null,,black_cross(without_color)1,1325221,,,,,,,,green,,,null,,object_05b.png,object_10c.png,,,,,,,,,,,,,,,,,,,,
417.60000002384186,,rt_plussign_withcolor1,1325723,,,,,,,,green,,,50,,object_05b.png,object_10c.png,,,,,,,,,,,,,,,,,,,,
null,,rt_thecrossant_black1,1326809,,,,,,,,black_plus_sign,,,null,,,,1,,,,,,,0.9166666666666666,,,,,,,,,,,,
null,,color_black1,1326912,,,,,,,,black_plus_sign,,,null,,,,,,,,,,,,,,,,,,,,,,,
null,,learn_phase(without_color)1,1330414,,,,,,,,black_plus_sign,,,null,,object_03c.png,object_10b.png,,,,,,,,,,,,,,,,,,,,
null,,black_cross(without_color)1,1330825,,,,,,,,green,,,null,,object_03c.png,object_10b.png,,,,,,,,,,,,,,,,,,,,
null,,rt_plussign_withcolor1,1331327,,,,,,,,green,,,null,,object_03c.png,object_10b.png,,,,,,,,,,,,,,,,,,,,
1272.5999999642372,,rt_thecrossant_black1,1332920,,,,,,,,black_plus_sign,,,50,,,,1,,,,,,,0.9230769230769231,,,,,,,,,,,,
null,,color_black1,1333023,,,,,,,,black_plus_sign,,,null,,,,,,,,,,,,,,,,,,,,,,,
null,,learn_phase(without_color)1,1336538,,,,,,,,black_plus_sign,,,null,,object_05c.png,object_13a.png,,,,,,,,,,,,,,,,,,,,
null,,black_cross(without_color)1,1337497,,,,,,,,blue,,,null,,object_05c.png,object_13a.png,,,,,,,,,,,,,,,,,,,,
null,,rt_plussign_withcolor1,1337999,,,,,,,,blue,,,null,,object_05c.png,object_13a.png,,,,,,,,,,,,,,,,,,,,
611.3000000119209,,rt_thecrossant_black1,1339045,,,,,,,,black_plus_sign,,,49,,,,1,,,,,,,0.9285714285714286,,,,,,,,,,,,
null,,color_black1,1339148,,,,,,,,black_plus_sign,,,null,,,,,,,,,,,,,,,,,,,,,,,
null,,learn_phase(without_color)1,1342650,,,,,,,,black_plus_sign,,,null,,object_09a.png,object_11b.png,,,,,,,,,,,,,,,,,,,,
null,,black_cross(without_color)1,1343356,,,,,,,,blue,,,null,,object_09a.png,object_11b.png,,,,,,,,,,,,,,,,,,,,
null,,rt_plussign_withcolor1,1343858,,,,,,,,blue,,,null,,object_09a.png,object_11b.png,,,,,,,,,,,,,,,,,,,,
1061.300000011921,,rt_thecrossant_black1,1345157,,,,,,,,black_plus_sign,,,49,,,,1,,,,,,,0.9333333333333333,,,,,,,,,,,,
null,,color_black1,1345259,,,,,,,,black_plus_sign,,,null,,,,,,,,,,,,,,,,,,,,,,,
null,,thebreak,1345365,,,,,,,,<p></p>,,,null,,,,,,,,,,,,,,,,,,,,,,,
2281.399999976158,,intro_0,1347648,,,,,,,,instruct,,,32,,,,,,,,,,,,,,,,,,,,,,,
3750.599999964237,,directmemory_phase1,1351400,,,,,,,,object_15b.png,,,50,,,,0,,object_11c.png,object_01b.png,object_02b.png,object_02b.png,,0,0,,,,,,,,,,,
3892.199999988079,,directmemory_phase1,1355297,,,,,,,,object_01a.png,,,50,,,,1,,object_02b.png,object_11c.png,object_13c.png,object_11c.png,,0.5,1,,,,,,,,,,,
3524.599999964237,,directmemory_phase1,1358824,,,,,,,,object_14a.png,,,49,,,,0,,object_02b.png,object_06c.png,object_12c.png,object_06c.png,,0.3333333333333333,0,,,,,,,,,,,
180.0999999642372,,directmemory_phase1,1359007,,,,,,,,object_12b.png,,,49,,,,0,,object_06c.png,object_03c.png,object_09b.png,object_09b.png,,0.25,0,,,,,,,,,,,
3023.5,,directmemory_phase1,1362032,,,,,,,,object_15c.png,,,51,,,,1,,object_11c.png,object_13c.png,object_12c.png,object_12c.png,,0.4,1,,,,,,,,,,,
4580.899999976158,,directmemory_phase1,1366616,,,,,,,,object_14c.png,,,51,,,,0,,object_13c.png,object_03a.png,object_09b.png,object_03a.png,,0.3333333333333333,0,,,,,,,,,,,
4245.800000011921,,directmemory_phase1,1370864,,,,,,,,object_10b.png,,,50,,,,1,,object_01b.png,object_03c.png,object_11c.png,object_03c.png,,0.42857142857142855,1,,,,,,,,,,,
2332.800000011921,,directmemory_phase1,1373200,,,,,,,,object_02c.png,,,49,,,,1,,object_01b.png,object_08c.png,object_05b.png,object_01b.png,,0.5,1,,,,,,,,,,,
3299.899999976158,,directmemory_phase1,1376503,,,,,,,,object_04c.png,,,50,,,,0,,object_07c.png,object_06c.png,object_05c.png,object_07c.png,,0.4444444444444444,0,,,,,,,,,,,
3023.100000023842,,directmemory_phase1,1379527,,,,,,,,object_13a.png,,,49,,,,1,,object_05c.png,object_06c.png,object_03c.png,object_05c.png,,0.5,1,,,,,,,,,,,
4383.299999952316,,directmemory_phase1,1383912,,,,,,,,object_01c.png,,,50,,,,1,,object_01b.png,object_13c.png,object_05b.png,object_13c.png,,0.5454545454545454,1,,,,,,,,,,,
3197.100000023842,,directmemory_phase1,1387112,,,,,,,,object_11b.png,,,50,,,,0,,object_13c.png,object_03c.png,object_09a.png,object_09a.png,,0.5,0,,,,,,,,,,,
3365.2999999523163,,directmemory_phase1,1390481,,,,,,,,object_03b.png,,,50,,,,0,,object_11a.png,object_03c.png,object_08c.png,object_11a.png,,0.46153846153846156,0,,,,,,,,,,,
3836.699999988079,,directmemory_phase1,1394320,,,,,,,,object_10c.png,,,50,,,,1,,object_08c.png,object_05b.png,object_09a.png,object_05b.png,,0.5,1,,,,,,,,,,,
3404.900000035763,,directmemory_phase1,1397728,,,,,,,,object_04a.png,,,49,,,,0,,object_07c.png,object_08c.png,object_09a.png,object_08c.png,,0.4666666666666667,0,,,,,,,,,,,
null,,thebreak,1397831,,,,,,,,<p></p>,,,null,,,,,,,,,,,,,,,,,,,,,,,
2086.400000035763,,intro_0,1399919,,,,,,,,instruct,,,32,,,,,,,,,,,,,,,,,,,,,,,
null,,learn_phase(without_color)2,1403427,,,,,,,,black_plus_sign,,,null,,object_07c.png,object_04c.png,,,,,,,,,,,,,,,,,,,,
null,,black_cross(without_color)2,1404498,,,,,,,,green,,,null,,object_07c.png,object_04c.png,,,,,,,,,,,,,,,,,,,,
null,,rt_plussign_withcolor2,1405000,,,,,,,,green,,,null,,object_07c.png,object_04c.png,,,,,,,,,,,,,,,,,,,,
1214.5,,rt_thecrossant_black2,1405933,,,,,,,,black_plus_sign,,,50,,,,1,,,,,,,1,,,,,,,,,,,,
null,,color_black2,1406036,,,,,,,,black_plus_sign,,,null,,,,,,,,,,,,,,,,,,,,,,,
null,,learn_phase(without_color)2,1409539,,,,,,,,black_plus_sign,,,null,,object_08c.png,object_04a.png,,,,,,,,,,,,,,,,,,,,
null,,black_cross(without_color)2,1410584,,,,,,,,green,,,null,,object_08c.png,object_04a.png,,,,,,,,,,,,,,,,,,,,
null,,rt_plussign_withcolor2,1411085,,,,,,,,green,,,null,,object_08c.png,object_04a.png,,,,,,,,,,,,,,,,,,,,
1281.199999988079,,rt_thecrossant_black2,1412046,,,,,,,,black_plus_sign,,,50,,,,1,,,,,,,1,,,,,,,,,,,,
null,,color_black2,1412148,,,,,,,,black_plus_sign,,,null,,,,,,,,,,,,,,,,,,,,,,,
null,,learn_phase(without_color)2,1415652,,,,,,,,black_plus_sign,,,null,,object_13c.png,object_01c.png,,,,,,,,,,,,,,,,,,,,
null,,black_cross(without_color)2,1416588,,,,,,,,blue,,,null,,object_13c.png,object_01c.png,,,,,,,,,,,,,,,,,,,,
null,,rt_plussign_withcolor2,1417091,,,,,,,,blue,,,null,,object_13c.png,object_01c.png,,,,,,,,,,,,,,,,,,,,
1266.0999999642372,,rt_thecrossant_black2,1418159,,,,,,,,black_plus_sign,,,49,,,,1,,,,,,,1,,,,,,,,,,,,
null,,color_black2,1418262,,,,,,,,black_plus_sign,,,null,,,,,,,,,,,,,,,,,,,,,,,
null,,learn_phase(without_color)2,1421765,,,,,,,,black_plus_sign,,,null,,object_05b.png,object_10c.png,,,,,,,,,,,,,,,,,,,,
null,,black_cross(without_color)2,1422557,,,,,,,,blue,,,null,,object_05b.png,object_10c.png,,,,,,,,,,,,,,,,,,,,
null,,rt_plussign_withcolor2,1423060,,,,,,,,blue,,,null,,object_05b.png,object_10c.png,,,,,,,,,,,,,,,,,,,,
1092.3999999761581,,rt_thecrossant_black2,1424273,,,,,,,,black_plus_sign,,,49,,,,1,,,,,,,1,,,,,,,,,,,,
null,,color_black2,1424376,,,,,,,,black_plus_sign,,,null,,,,,,,,,,,,,,,,,,,,,,,
null,,learn_phase(without_color)2,1427880,,,,,,,,black_plus_sign,,,null,,object_01b.png,object_02c.png,,,,,,,,,,,,,,,,,,,,
null,,black_cross(without_color)2,1428630,,,,,,,,blue,,,null,,object_01b.png,object_02c.png,,,,,,,,,,,,,,,,,,,,
null,,rt_plussign_withcolor2,1429131,,,,,,,,blue,,,null,,object_01b.png,object_02c.png,,,,,,,,,,,,,,,,,,,,
980.9000000357628,,rt_thecrossant_black2,1430387,,,,,,,,black_plus_sign,,,49,,,,1,,,,,,,1,,,,,,,,,,,,
null,,color_black2,1430490,,,,,,,,black_plus_sign,,,null,,,,,,,,,,,,,,,,,,,,,,,
null,,learn_phase(without_color)2,1433993,,,,,,,,black_plus_sign,,,null,,object_11c.png,object_01a.png,,,,,,,,,,,,,,,,,,,,
null,,black_cross(without_color)2,1434882,,,,,,,,green,,,null,,object_11c.png,object_01a.png,,,,,,,,,,,,,,,,,,,,
444.30000001192093,,rt_plussign_withcolor2,1435383,,,,,,,,green,,,50,,object_11c.png,object_01a.png,,,,,,,,,,,,,,,,,,,,
null,,rt_thecrossant_black2,1436498,,,,,,,,black_plus_sign,,,null,,,,1,,,,,,,1,,,,,,,,,,,,
null,,color_black2,1436600,,,,,,,,black_plus_sign,,,null,,,,,,,,,,,,,,,,,,,,,,,
null,,learn_phase(without_color)2,1440103,,,,,,,,black_plus_sign,,,null,,object_05c.png,object_13a.png,,,,,,,,,,,,,,,,,,,,
null,,black_cross(without_color)2,1440754,,,,,,,,blue,,,null,,object_05c.png,object_13a.png,,,,,,,,,,,,,,,,,,,,
null,,rt_plussign_withcolor2,1441256,,,,,,,,blue,,,null,,object_05c.png,object_13a.png,,,,,,,,,,,,,,,,,,,,
1080.5,,rt_thecrossant_black2,1442608,,,,,,,,black_plus_sign,,,49,,,,1,,,,,,,1,,,,,,,,,,,,
null,,color_black2,1442710,,,,,,,,black_plus_sign,,,null,,,,,,,,,,,,,,,,,,,,,,,
null,,learn_phase(without_color)2,1446214,,,,,,,,black_plus_sign,,,null,,object_03c.png,object_10b.png,,,,,,,,,,,,,,,,,,,,
null,,black_cross(without_color)2,1446999,,,,,,,,green,,,null,,object_03c.png,object_10b.png,,,,,,,,,,,,,,,,,,,,
456.2999999523163,,rt_plussign_withcolor2,1447501,,,,,,,,green,,,50,,object_03c.png,object_10b.png,,,,,,,,,,,,,,,,,,,,
null,,rt_thecrossant_black2,1448721,,,,,,,,black_plus_sign,,,null,,,,1,,,,,,,1,,,,,,,,,,,,
null,,color_black2,1448824,,,,,,,,black_plus_sign,,,null,,,,,,,,,,,,,,,,,,,,,,,
null,,learn_phase(without_color)2,1452327,,,,,,,,black_plus_sign,,,null,,object_09a.png,object_11b.png,,,,,,,,,,,,,,,,,,,,
null,,black_cross(without_color)2,1453393,,,,,,,,green,,,null,,object_09a.png,object_11b.png,,,,,,,,,,,,,,,,,,,,
null,,rt_plussign_withcolor2,1453895,,,,,,,,green,,,null,,object_09a.png,object_11b.png,,,,,,,,,,,,,,,,,,,,
912.5,,rt_thecrossant_black2,1454835,,,,,,,,black_plus_sign,,,50,,,,1,,,,,,,1,,,,,,,,,,,,
null,,color_black2,1454948,,,,,,,,black_plus_sign,,,null,,,,,,,,,,,,,,,,,,,,,,,
null,,learn_phase(without_color)2,1458451,,,,,,,,black_plus_sign,,,null,,object_12c.png,object_15c.png,,,,,,,,,,,,,,,,,,,,
null,,black_cross(without_color)2,1459205,,,,,,,,blue,,,null,,object_12c.png,object_15c.png,,,,,,,,,,,,,,,,,,,,
null,,rt_plussign_withcolor2,1459707,,,,,,,,blue,,,null,,object_12c.png,object_15c.png,,,,,,,,,,,,,,,,,,,,
1254,,rt_thecrossant_black2,1460958,,,,,,,,black_plus_sign,,,49,,,,1,,,,,,,1,,,,,,,,,,,,
null,,color_black2,1461061,,,,,,,,black_plus_sign,,,null,,,,,,,,,,,,,,,,,,,,,,,
null,,learn_phase(without_color)2,1464564,,,,,,,,black_plus_sign,,,null,,object_02b.png,object_15b.png,,,,,,,,,,,,,,,,,,,,
null,,black_cross(without_color)2,1465382,,,,,,,,blue,,,null,,object_02b.png,object_15b.png,,,,,,,,,,,,,,,,,,,,
null,,rt_plussign_withcolor2,1465884,,,,,,,,blue,,,null,,object_02b.png,object_15b.png,,,,,,,,,,,,,,,,,,,,
870.8000000119209,,rt_thecrossant_black2,1467081,,,,,,,,black_plus_sign,,,49,,,,1,,,,,,,1,,,,,,,,,,,,
null,,color_black2,1467184,,,,,,,,black_plus_sign,,,null,,,,,,,,,,,,,,,,,,,,,,,
null,,learn_phase(without_color)2,1470690,,,,,,,,black_plus_sign,,,null,,object_11a.png,object_03b.png,,,,,,,,,,,,,,,,,,,,
null,,black_cross(without_color)2,1471172,,,,,,,,blue,,,null,,object_11a.png,object_03b.png,,,,,,,,,,,,,,,,,,,,
null,,rt_plussign_withcolor2,1471674,,,,,,,,blue,,,null,,object_11a.png,object_03b.png,,,,,,,,,,,,,,,,,,,,
1006.1999999880791,,rt_thecrossant_black2,1473198,,,,,,,,black_plus_sign,,,49,,,,1,,,,,,,1,,,,,,,,,,,,
null,,color_black2,1473300,,,,,,,,black_plus_sign,,,null,,,,,,,,,,,,,,,,,,,,,,,
null,,learn_phase(without_color)2,1476803,,,,,,,,black_plus_sign,,,null,,object_03a.png,object_14c.png,,,,,,,,,,,,,,,,,,,,
null,,black_cross(without_color)2,1477386,,,,,,,,blue,,,null,,object_03a.png,object_14c.png,,,,,,,,,,,,,,,,,,,,
null,,rt_plussign_withcolor2,1477888,,,,,,,,blue,,,null,,object_03a.png,object_14c.png,,,,,,,,,,,,,,,,,,,,
683.3000000119209,,rt_thecrossant_black2,1479310,,,,,,,,black_plus_sign,,,49,,,,1,,,,,,,1,,,,,,,,,,,,
null,,color_black2,1479413,,,,,,,,black_plus_sign,,,null,,,,,,,,,,,,,,,,,,,,,,,
null,,learn_phase(without_color)2,1482916,,,,,,,,black_plus_sign,,,null,,object_06c.png,object_14a.png,,,,,,,,,,,,,,,,,,,,
null,,black_cross(without_color)2,1483607,,,,,,,,green,,,null,,object_06c.png,object_14a.png,,,,,,,,,,,,,,,,,,,,
472.0999999642372,,rt_plussign_withcolor2,1484109,,,,,,,,green,,,50,,object_06c.png,object_14a.png,,,,,,,,,,,,,,,,,,,,
null,,rt_thecrossant_black2,1485423,,,,,,,,black_plus_sign,,,null,,,,1,,,,,,,1,,,,,,,,,,,,
null,,color_black2,1485526,,,,,,,,black_plus_sign,,,null,,,,,,,,,,,,,,,,,,,,,,,
null,,learn_phase(without_color)2,1489030,,,,,,,,black_plus_sign,,,null,,object_09b.png,object_12b.png,,,,,,,,,,,,,,,,,,,,
null,,black_cross(without_color)2,1489462,,,,,,,,blue,,,null,,object_09b.png,object_12b.png,,,,,,,,,,,,,,,,,,,,
null,,rt_plussign_withcolor2,1489963,,,,,,,,blue,,,null,,object_09b.png,object_12b.png,,,,,,,,,,,,,,,,,,,,
977.1999999880791,,rt_thecrossant_black2,1491536,,,,,,,,black_plus_sign,,,49,,,,1,,,,,,,1,,,,,,,,,,,,
null,,color_black2,1491640,,,,,,,,black_plus_sign,,,null,,,,,,,,,,,,,,,,,,,,,,,
null,,thebreak,1491744,,,,,,,,<p></p>,,,null,,,,,,,,,,,,,,,,,,,,,,,
40967.10000002384,,intro_0,1532713,,,,,,,,instruct,,,32,,,,,,,,,,,,,,,,,,,,,,,
5549.099999964237,,directmemory_phase2,1538264,,,,,,,,object_01a.png,,,50,,,,0,,object_11a.png,object_02b.png,object_11c.png,object_11c.png,,0.4375,0,,,,,,,,,,,
4324.799999952316,,directmemory_phase2,1542592,,,,,,,,object_10c.png,,,51,,,,1,,object_06c.png,object_12c.png,object_05b.png,object_05b.png,,0.47058823529411764,1,,,,,,,,,,,
4197.5,,directmemory_phase2,1546793,,,,,,,,object_15c.png,,,50,,,,0,,object_12c.png,object_05c.png,object_07c.png,object_12c.png,,0.4444444444444444,0,,,,,,,,,,,
3028.5,,directmemory_phase2,1549824,,,,,,,,object_14c.png,,,51,,,,1,,object_12c.png,object_02b.png,object_03a.png,object_03a.png,,0.47368421052631576,1,,,,,,,,,,,
3491.899999976158,,directmemory_phase2,1553319,,,,,,,,object_04a.png,,,50,,,,0,,object_13c.png,object_05b.png,object_08c.png,object_08c.png,,0.45,0,,,,,,,,,,,
3496,,directmemory_phase2,1556817,,,,,,,,object_11b.png,,,50,,,,0,,object_06c.png,object_13c.png,object_09a.png,object_09a.png,,0.42857142857142855,0,,,,,,,,,,,
3268.600000023842,,directmemory_phase2,1560089,,,,,,,,object_01c.png,,,49,,,,1,,object_13c.png,object_12c.png,object_06c.png,object_13c.png,,0.45454545454545453,1,,,,,,,,,,,
3148.7000000476837,,directmemory_phase2,1563241,,,,,,,,object_14a.png,,,51,,,,0,,object_06c.png,object_05b.png,object_09b.png,object_06c.png,,0.43478260869565216,0,,,,,,,,,,,
2996.599999964237,,directmemory_phase2,1566240,,,,,,,,object_03b.png,,,49,,,,1,,object_11a.png,object_08c.png,object_07c.png,object_11a.png,,0.4583333333333333,1,,,,,,,,,,,
3781.599999964237,,directmemory_phase2,1570025,,,,,,,,object_12b.png,,,50,,,,0,,object_09b.png,object_07c.png,object_03c.png,object_09b.png,,0.44,0,,,,,,,,,,,
3876.5,,directmemory_phase2,1573905,,,,,,,,object_15b.png,,,51,,,,0,,object_05b.png,object_02b.png,object_06c.png,object_02b.png,,0.4230769230769231,0,,,,,,,,,,,
3324.800000011921,,directmemory_phase2,1577233,,,,,,,,object_04c.png,,,49,,,,1,,object_07c.png,object_02b.png,object_13c.png,object_07c.png,,0.4444444444444444,1,,,,,,,,,,,
3429.199999988079,,directmemory_phase2,1580665,,,,,,,,object_13a.png,,,50,,,,0,,object_05c.png,object_12c.png,object_01b.png,object_05c.png,,0.42857142857142855,0,,,,,,,,,,,
3788.699999988079,,directmemory_phase2,1584457,,,,,,,,object_02c.png,,,51,,,,1,,object_13c.png,object_09b.png,object_01b.png,object_01b.png,,0.4482758620689655,1,,,,,,,,,,,
3875.5,,directmemory_phase2,1588335,,,,,,,,object_10b.png,,,49,,,,1,,object_03c.png,object_11c.png,object_06c.png,object_03c.png,,0.4666666666666667,1,,,,,,,,,,,
null,,thebreak,1588437,,,,,,,,<p></p>,,,null,,,,,,,,,,,,,,,,,,,,,,,
2457.900000035763,,intro_0,1590896,,,,,,,,instruct,,,32,,,,,,,,,,,,,,,,,,,,,,,
null,,learn_phase(without_color)3,1594397,,,,,,,,black_plus_sign,,,null,,object_13c.png,object_01c.png,,,,,,,,,,,,,,,,,,,,
null,,black_cross(without_color)3,1594953,,,,,,,,blue,,,null,,object_13c.png,object_01c.png,,,,,,,,,,,,,,,,,,,,
null,,rt_plussign_withcolor3,1595455,,,,,,,,blue,,,null,,object_13c.png,object_01c.png,,,,,,,,,,,,,,,,,,,,
null,,rt_thecrossant_black3,1596903,,,,,,,,black_plus_sign,,,null,,,,,,,,,,,NaN,,,,,,,,,,,,
null,,color_black3,1597005,,,,,,,,black_plus_sign,,,null,,,,,,,,,,,,,,,,,,,,,,,
null,,learn_phase(without_color)3,1600509,,,,,,,,black_plus_sign,,,null,,object_08c.png,object_04a.png,,,,,,,,,,,,,,,,,,,,
null,,black_cross(without_color)3,1601366,,,,,,,,blue,,,null,,object_08c.png,object_04a.png,,,,,,,,,,,,,,,,,,,,
null,,rt_plussign_withcolor3,1601869,,,,,,,,blue,,,null,,object_08c.png,object_04a.png,,,,,,,,,,,,,,,,,,,,
766.3999999761581,,rt_thecrossant_black3,1603017,,,,,,,,black_plus_sign,,,49,,,,1,,,,,,,1,,,,,,,,,,,,
null,,color_black3,1603119,,,,,,,,black_plus_sign,,,null,,,,,,,,,,,,,,,,,,,,,,,
null,,learn_phase(without_color)3,1606623,,,,,,,,black_plus_sign,,,null,,object_09a.png,object_11b.png,,,,,,,,,,,,,,,,,,,,
null,,black_cross(without_color)3,1607025,,,,,,,,blue,,,null,,object_09a.png,object_11b.png,,,,,,,,,,,,,,,,,,,,
null,,rt_plussign_withcolor3,1607527,,,,,,,,blue,,,null,,object_09a.png,object_11b.png,,,,,,,,,,,,,,,,,,,,
994.5,,rt_thecrossant_black3,1609130,,,,,,,,black_plus_sign,,,49,,,,1,,,,,,,1,,,,,,,,,,,,
null,,color_black3,1609233,,,,,,,,black_plus_sign,,,null,,,,,,,,,,,,,,,,,,,,,,,
null,,learn_phase(without_color)3,1612737,,,,,,,,black_plus_sign,,,null,,object_09b.png,object_12b.png,,,,,,,,,,,,,,,,,,,,
null,,black_cross(without_color)3,1613610,,,,,,,,green,,,null,,object_09b.png,object_12b.png,,,,,,,,,,,,,,,,,,,,
461.4000000357628,,rt_plussign_withcolor3,1614112,,,,,,,,green,,,50,,object_09b.png,object_12b.png,,,,,,,,,,,,,,,,,,,,
null,,rt_thecrossant_black3,1615244,,,,,,,,black_plus_sign,,,null,,,,1,,,,,,,1,,,,,,,,,,,,
null,,color_black3,1615346,,,,,,,,black_plus_sign,,,null,,,,,,,,,,,,,,,,,,,,,,,
null,,learn_phase(without_color)3,1618848,,,,,,,,black_plus_sign,,,null,,object_02b.png,object_15b.png,,,,,,,,,,,,,,,,,,,,
null,,black_cross(without_color)3,1619681,,,,,,,,blue,,,null,,object_02b.png,object_15b.png,,,,,,,,,,,,,,,,,,,,
453.89999997615814,,rt_plussign_withcolor3,1620183,,,,,,,,blue,,,49,,object_02b.png,object_15b.png,,,,,,,,,,,,,,,,,,,,
null,,rt_thecrossant_black3,1621355,,,,,,,,black_plus_sign,,,null,,,,1,,,,,,,1,,,,,,,,,,,,
null,,color_black3,1621458,,,,,,,,black_plus_sign,,,null,,,,,,,,,,,,,,,,,,,,,,,
null,,learn_phase(without_color)3,1624961,,,,,,,,black_plus_sign,,,null,,object_01b.png,object_02c.png,,,,,,,,,,,,,,,,,,,,
null,,black_cross(without_color)3,1625823,,,,,,,,blue,,,null,,object_01b.png,object_02c.png,,,,,,,,,,,,,,,,,,,,
null,,rt_plussign_withcolor3,1626325,,,,,,,,blue,,,null,,object_01b.png,object_02c.png,,,,,,,,,,,,,,,,,,,,
1003.3000000119209,,rt_thecrossant_black3,1627469,,,,,,,,black_plus_sign,,,49,,,,1,,,,,,,1,,,,,,,,,,,,
null,,color_black3,1627572,,,,,,,,black_plus_sign,,,null,,,,,,,,,,,,,,,,,,,,,,,
null,,learn_phase(without_color)3,1631076,,,,,,,,black_plus_sign,,,null,,object_07c.png,object_04c.png,,,,,,,,,,,,,,,,,,,,
null,,black_cross(without_color)3,1632085,,,,,,,,blue,,,null,,object_07c.png,object_04c.png,,,,,,,,,,,,,,,,,,,,
null,,rt_plussign_withcolor3,1632586,,,,,,,,blue,,,null,,object_07c.png,object_04c.png,,,,,,,,,,,,,,,,,,,,
971,,rt_thecrossant_black3,1633584,,,,,,,,black_plus_sign,,,49,,,,1,,,,,,,1,,,,,,,,,,,,
null,,color_black3,1633687,,,,,,,,black_plus_sign,,,null,,,,,,,,,,,,,,,,,,,,,,,
null,,learn_phase(without_color)3,1637190,,,,,,,,black_plus_sign,,,null,,object_03a.png,object_14c.png,,,,,,,,,,,,,,,,,,,,
null,,black_cross(without_color)3,1637992,,,,,,,,green,,,null,,object_03a.png,object_14c.png,,,,,,,,,,,,,,,,,,,,
423.5,,rt_plussign_withcolor3,1638495,,,,,,,,green,,,50,,object_03a.png,object_14c.png,,,,,,,,,,,,,,,,,,,,
null,,rt_thecrossant_black3,1639699,,,,,,,,black_plus_sign,,,null,,,,1,,,,,,,1,,,,,,,,,,,,
null,,color_black3,1639801,,,,,,,,black_plus_sign,,,null,,,,,,,,,,,,,,,,,,,,,,,
null,,learn_phase(without_color)3,1643305,,,,,,,,black_plus_sign,,,null,,object_11c.png,object_01a.png,,,,,,,,,,,,,,,,,,,,
null,,black_cross(without_color)3,1644099,,,,,,,,green,,,null,,object_11c.png,object_01a.png,,,,,,,,,,,,,,,,,,,,
452.19999998807907,,rt_plussign_withcolor3,1644601,,,,,,,,green,,,50,,object_11c.png,object_01a.png,,,,,,,,,,,,,,,,,,,,
null,,rt_thecrossant_black3,1645813,,,,,,,,black_plus_sign,,,null,,,,1,,,,,,,1,,,,,,,,,,,,
null,,color_black3,1645916,,,,,,,,black_plus_sign,,,null,,,,,,,,,,,,,,,,,,,,,,,
null,,learn_phase(without_color)3,1649420,,,,,,,,black_plus_sign,,,null,,object_05b.png,object_10c.png,,,,,,,,,,,,,,,,,,,,
null,,black_cross(without_color)3,1650255,,,,,,,,green,,,null,,object_05b.png,object_10c.png,,,,,,,,,,,,,,,,,,,,
null,,rt_plussign_withcolor3,1650757,,,,,,,,green,,,null,,object_05b.png,object_10c.png,,,,,,,,,,,,,,,,,,,,
925,,rt_thecrossant_black3,1651925,,,,,,,,black_plus_sign,,,50,,,,1,,,,,,,1,,,,,,,,,,,,
null,,color_black3,1652027,,,,,,,,black_plus_sign,,,null,,,,,,,,,,,,,,,,,,,,,,,
null,,learn_phase(without_color)3,1655532,,,,,,,,black_plus_sign,,,null,,object_05c.png,object_13a.png,,,,,,,,,,,,,,,,,,,,
null,,black_cross(without_color)3,1656263,,,,,,,,green,,,null,,object_05c.png,object_13a.png,,,,,,,,,,,,,,,,,,,,
null,,rt_plussign_withcolor3,1656766,,,,,,,,green,,,null,,object_05c.png,object_13a.png,,,,,,,,,,,,,,,,,,,,
1029.699999988079,,rt_thecrossant_black3,1658040,,,,,,,,black_plus_sign,,,50,,,,1,,,,,,,1,,,,,,,,,,,,
null,,color_black3,1658143,,,,,,,,black_plus_sign,,,null,,,,,,,,,,,,,,,,,,,,,,,
null,,learn_phase(without_color)3,1661658,,,,,,,,black_plus_sign,,,null,,object_06c.png,object_14a.png,,,,,,,,,,,,,,,,,,,,
null,,black_cross(without_color)3,1662192,,,,,,,,green,,,null,,object_06c.png,object_14a.png,,,,,,,,,,,,,,,,,,,,
null,,rt_plussign_withcolor3,1662694,,,,,,,,green,,,null,,object_06c.png,object_14a.png,,,,,,,,,,,,,,,,,,,,
869.5999999642372,,rt_thecrossant_black3,1664165,,,,,,,,black_plus_sign,,,50,,,,1,,,,,,,1,,,,,,,,,,,,
null,,color_black3,1664276,,,,,,,,black_plus_sign,,,null,,,,,,,,,,,,,,,,,,,,,,,
null,,learn_phase(without_color)3,1667780,,,,,,,,black_plus_sign,,,null,,object_03c.png,object_10b.png,,,,,,,,,,,,,,,,,,,,
null,,black_cross(without_color)3,1668695,,,,,,,,blue,,,null,,object_03c.png,object_10b.png,,,,,,,,,,,,,,,,,,,,
456,,rt_plussign_withcolor3,1669197,,,,,,,,blue,,,49,,object_03c.png,object_10b.png,,,,,,,,,,,,,,,,,,,,
null,,rt_thecrossant_black3,1670288,,,,,,,,black_plus_sign,,,null,,,,1,,,,,,,1,,,,,,,,,,,,
null,,color_black3,1670391,,,,,,,,black_plus_sign,,,null,,,,,,,,,,,,,,,,,,,,,,,
null,,learn_phase(without_color)3,1673895,,,,,,,,black_plus_sign,,,null,,object_12c.png,object_15c.png,,,,,,,,,,,,,,,,,,,,
null,,black_cross(without_color)3,1674971,,,,,,,,green,,,null,,object_12c.png,object_15c.png,,,,,,,,,,,,,,,,,,,,
444.4000000357628,,rt_plussign_withcolor3,1675485,,,,,,,,green,,,50,,object_12c.png,object_15c.png,,,,,,,,,,,,,,,,,,,,
null,,rt_thecrossant_black3,1676429,,,,,,,,black_plus_sign,,,null,,,,1,,,,,,,1,,,,,,,,,,,,
null,,color_black3,1676533,,,,,,,,black_plus_sign,,,null,,,,,,,,,,,,,,,,,,,,,,,
null,,learn_phase(without_color)3,1680035,,,,,,,,black_plus_sign,,,null,,object_11a.png,object_03b.png,,,,,,,,,,,,,,,,,,,,
null,,black_cross(without_color)3,1680579,,,,,,,,blue,,,null,,object_11a.png,object_03b.png,,,,,,,,,,,,,,,,,,,,
null,,rt_plussign_withcolor3,1681082,,,,,,,,blue,,,null,,object_11a.png,object_03b.png,,,,,,,,,,,,,,,,,,,,
1283.4000000357628,,rt_thecrossant_black3,1682549,,,,,,,,black_plus_sign,,,49,,,,1,,,,,,,1,,,,,,,,,,,,
null,,color_black3,1682650,,,,,,,,black_plus_sign,,,null,,,,,,,,,,,,,,,,,,,,,,,
null,,thebreak,1682753,,,,,,,,<p></p>,,,null,,,,,,,,,,,,,,,,,,,,,,,
3103.099999964237,,intro_0,1685857,,,,,,,,instruct,,,32,,,,,,,,,,,,,,,,,,,,,,,
3493.900000035763,,directmemory_phase3,1689353,,,,,,,,object_10c.png,,,49,,,,1,,object_05b.png,object_13c.png,object_06c.png,object_05b.png,,0.4838709677419355,1,,,,,,,,,,,
3348.5,,directmemory_phase3,1692705,,,,,,,,object_03b.png,,,49,,,,1,,object_11a.png,object_07c.png,object_05b.png,object_11a.png,,0.5,1,,,,,,,,,,,
5028.700000047684,,directmemory_phase3,1697737,,,,,,,,object_14c.png,,,50,,,,0,,object_08c.png,object_11c.png,object_03a.png,object_03a.png,,0.48484848484848486,0,,,,,,,,,,,
2747.800000011921,,directmemory_phase3,1700489,,,,,,,,object_15c.png,,,50,,,,1,,object_13c.png,object_12c.png,object_11c.png,object_12c.png,,0.5,1,,,,,,,,,,,
2741,,directmemory_phase3,1703233,,,,,,,,object_10b.png,,,50,,,,1,,object_01b.png,object_03c.png,object_11a.png,object_03c.png,,0.5142857142857142,1,,,,,,,,,,,
3284.899999976158,,directmemory_phase3,1706521,,,,,,,,object_15b.png,,,51,,,,1,,object_12c.png,object_03c.png,object_02b.png,object_02b.png,,0.5277777777777778,1,,,,,,,,,,,
3924.800000011921,,directmemory_phase3,1710449,,,,,,,,object_11b.png,,,50,,,,1,,object_05b.png,object_09a.png,object_12c.png,object_09a.png,,0.5405405405405406,1,,,,,,,,,,,
2900.400000035763,,directmemory_phase3,1713353,,,,,,,,object_04a.png,,,51,,,,0,,object_08c.png,object_05b.png,object_07c.png,object_08c.png,,0.5263157894736842,0,,,,,,,,,,,
2356.399999976158,,directmemory_phase3,1715713,,,,,,,,object_12b.png,,,51,,,,0,,object_05c.png,object_09b.png,object_01b.png,object_09b.png,,0.5128205128205128,0,,,,,,,,,,,
2293.7999999523163,,directmemory_phase3,1718009,,,,,,,,object_01c.png,,,50,,,,0,,object_05c.png,object_11a.png,object_13c.png,object_13c.png,,0.5,0,,,,,,,,,,,
2084.800000011921,,directmemory_phase3,1720097,,,,,,,,object_02c.png,,,51,,,,1,,object_05c.png,object_12c.png,object_01b.png,object_01b.png,,0.5121951219512195,1,,,,,,,,,,,
1692.8999999761581,,directmemory_phase3,1721793,,,,,,,,object_14a.png,,,50,,,,0,,object_03c.png,object_11c.png,object_06c.png,object_06c.png,,0.5,0,,,,,,,,,,,
1955.699999988079,,directmemory_phase3,1723753,,,,,,,,object_13a.png,,,51,,,,1,,object_01b.png,object_13c.png,object_05c.png,object_05c.png,,0.5116279069767442,1,,,,,,,,,,,
3132.600000023842,,directmemory_phase3,1726889,,,,,,,,object_01a.png,,,49,,,,1,,object_11c.png,object_05b.png,object_13c.png,object_11c.png,,0.5227272727272727,1,,,,,,,,,,,
4484.699999988079,,directmemory_phase3,1731377,,,,,,,,object_04c.png,,,51,,,,1,,object_13c.png,object_09b.png,object_07c.png,object_07c.png,,0.5333333333333333,1,,,,,,,,,,,
null,,thebreak,1731480,,,,,,,,<p></p>,,,null,,,,,,,,,,,,,,,,,,,,,,,
2758.899999976158,,intro_0,1734241,,,,,,,,instruct,,,32,,,,,,,,,,,,,,,,,,,,,,,
null,,learn_phase(without_color)4,1737745,,,,,,,,black_plus_sign,,,null,,object_13c.png,object_01c.png,,,,,,,,,,,,,,,,,,,,
null,,black_cross(without_color)4,1738522,,,,,,,,blue,,,null,,object_13c.png,object_01c.png,,,,,,,,,,,,,,,,,,,,
null,,rt_plussign_withcolor4,1739024,,,,,,,,blue,,,null,,object_13c.png,object_01c.png,,,,,,,,,,,,,,,,,,,,
1114.7999999523163,,rt_thecrossant_black4,1740251,,,,,,,,black_plus_sign,,,49,,,,1,,,,,,,1,,,,,,,,,,,,
null,,color_black4,1740354,,,,,,,,black_plus_sign,,,null,,,,,,,,,,,,,,,,,,,,,,,
null,,learn_phase(without_color)4,1743858,,,,,,,,black_plus_sign,,,null,,object_05b.png,object_10c.png,,,,,,,,,,,,,,,,,,,,
null,,black_cross(without_color)4,1744337,,,,,,,,green,,,null,,object_05b.png,object_10c.png,,,,,,,,,,,,,,,,,,,,
null,,rt_plussign_withcolor4,1744840,,,,,,,,green,,,null,,object_05b.png,object_10c.png,,,,,,,,,,,,,,,,,,,,
881.8999999761581,,rt_thecrossant_black4,1746366,,,,,,,,black_plus_sign,,,50,,,,1,,,,,,,1,,,,,,,,,,,,
null,,color_black4,1746468,,,,,,,,black_plus_sign,,,null,,,,,,,,,,,,,,,,,,,,,,,
null,,learn_phase(without_color)4,1749973,,,,,,,,black_plus_sign,,,null,,object_05c.png,object_13a.png,,,,,,,,,,,,,,,,,,,,
null,,black_cross(without_color)4,1750549,,,,,,,,green,,,null,,object_05c.png,object_13a.png,,,,,,,,,,,,,,,,,,,,
null,,rt_plussign_withcolor4,1751051,,,,,,,,green,,,null,,object_05c.png,object_13a.png,,,,,,,,,,,,,,,,,,,,
676.9000000357628,,rt_thecrossant_black4,1752480,,,,,,,,black_plus_sign,,,50,,,,1,,,,,,,1,,,,,,,,,,,,
null,,color_black4,1752582,,,,,,,,black_plus_sign,,,null,,,,,,,,,,,,,,,,,,,,,,,
null,,learn_phase(without_color)4,1756085,,,,,,,,black_plus_sign,,,null,,object_08c.png,object_04a.png,,,,,,,,,,,,,,,,,,,,
null,,black_cross(without_color)4,1756647,,,,,,,,blue,,,null,,object_08c.png,object_04a.png,,,,,,,,,,,,,,,,,,,,
null,,rt_plussign_withcolor4,1757150,,,,,,,,blue,,,null,,object_08c.png,object_04a.png,,,,,,,,,,,,,,,,,,,,
732.6000000238419,,rt_thecrossant_black4,1758593,,,,,,,,black_plus_sign,,,49,,,,1,,,,,,,1,,,,,,,,,,,,
null,,color_black4,1758696,,,,,,,,black_plus_sign,,,null,,,,,,,,,,,,,,,,,,,,,,,
null,,learn_phase(without_color)4,1762199,,,,,,,,black_plus_sign,,,null,,object_11c.png,object_01a.png,,,,,,,,,,,,,,,,,,,,
null,,black_cross(without_color)4,1763152,,,,,,,,blue,,,null,,object_11c.png,object_01a.png,,,,,,,,,,,,,,,,,,,,
null,,rt_plussign_withcolor4,1763653,,,,,,,,blue,,,null,,object_11c.png,object_01a.png,,,,,,,,,,,,,,,,,,,,
724.4000000357628,,rt_thecrossant_black4,1764706,,,,,,,,black_plus_sign,,,49,,,,1,,,,,,,1,,,,,,,,,,,,
null,,color_black4,1764810,,,,,,,,black_plus_sign,,,null,,,,,,,,,,,,,,,,,,,,,,,
null,,learn_phase(without_color)4,1768314,,,,,,,,black_plus_sign,,,null,,object_03a.png,object_14c.png,,,,,,,,,,,,,,,,,,,,
null,,black_cross(without_color)4,1768895,,,,,,,,green,,,null,,object_03a.png,object_14c.png,,,,,,,,,,,,,,,,,,,,
440.39999997615814,,rt_plussign_withcolor4,1769396,,,,,,,,green,,,50,,object_03a.png,object_14c.png,,,,,,,,,,,,,,,,,,,,
null,,rt_thecrossant_black4,1770830,,,,,,,,black_plus_sign,,,null,,,,1,,,,,,,1,,,,,,,,,,,,
null,,color_black4,1770932,,,,,,,,black_plus_sign,,,null,,,,,,,,,,,,,,,,,,,,,,,
null,,learn_phase(without_color)4,1774435,,,,,,,,black_plus_sign,,,null,,object_07c.png,object_04c.png,,,,,,,,,,,,,,,,,,,,
null,,black_cross(without_color)4,1775516,,,,,,,,green,,,null,,object_07c.png,object_04c.png,,,,,,,,,,,,,,,,,,,,
null,,rt_plussign_withcolor4,1776018,,,,,,,,green,,,null,,object_07c.png,object_04c.png,,,,,,,,,,,,,,,,,,,,
739.7999999523163,,rt_thecrossant_black4,1776942,,,,,,,,black_plus_sign,,,50,,,,1,,,,,,,1,,,,,,,,,,,,
null,,color_black4,1777045,,,,,,,,black_plus_sign,,,null,,,,,,,,,,,,,,,,,,,,,,,
null,,learn_phase(without_color)4,1780549,,,,,,,,black_plus_sign,,,null,,object_02b.png,object_15b.png,,,,,,,,,,,,,,,,,,,,
null,,black_cross(without_color)4,1781372,,,,,,,,green,,,null,,object_02b.png,object_15b.png,,,,,,,,,,,,,,,,,,,,
null,,rt_plussign_withcolor4,1781875,,,,,,,,green,,,null,,object_02b.png,object_15b.png,,,,,,,,,,,,,,,,,,,,
1191.6000000238419,,rt_thecrossant_black4,1783057,,,,,,,,black_plus_sign,,,50,,,,1,,,,,,,1,,,,,,,,,,,,
null,,color_black4,1783170,,,,,,,,black_plus_sign,,,null,,,,,,,,,,,,,,,,,,,,,,,
null,,learn_phase(without_color)4,1786674,,,,,,,,black_plus_sign,,,null,,object_03c.png,object_10b.png,,,,,,,,,,,,,,,,,,,,
null,,black_cross(without_color)4,1787118,,,,,,,,green,,,null,,object_03c.png,object_10b.png,,,,,,,,,,,,,,,,,,,,
null,,rt_plussign_withcolor4,1787620,,,,,,,,green,,,null,,object_03c.png,object_10b.png,,,,,,,,,,,,,,,,,,,,
946.8999999761581,,rt_thecrossant_black4,1789193,,,,,,,,black_plus_sign,,,50,,,,1,,,,,,,1,,,,,,,,,,,,
null,,color_black4,1789296,,,,,,,,black_plus_sign,,,null,,,,,,,,,,,,,,,,,,,,,,,
null,,learn_phase(without_color)4,1792801,,,,,,,,black_plus_sign,,,null,,object_09a.png,object_11b.png,,,,,,,,,,,,,,,,,,,,
null,,black_cross(without_color)4,1793341,,,,,,,,blue,,,null,,object_09a.png,object_11b.png,,,,,,,,,,,,,,,,,,,,
498.69999998807907,,rt_plussign_withcolor4,1793843,,,,,,,,blue,,,49,,object_09a.png,object_11b.png,,,,,,,,,,,,,,,,,,,,
null,,rt_thecrossant_black4,1795308,,,,,,,,black_plus_sign,,,null,,,,1,,,,,,,1,,,,,,,,,,,,
null,,color_black4,1795411,,,,,,,,black_plus_sign,,,null,,,,,,,,,,,,,,,,,,,,,,,
null,,learn_phase(without_color)4,1798916,,,,,,,,black_plus_sign,,,null,,object_11a.png,object_03b.png,,,,,,,,,,,,,,,,,,,,
null,,black_cross(without_color)4,1800014,,,,,,,,green,,,null,,object_11a.png,object_03b.png,,,,,,,,,,,,,,,,,,,,
473.80000001192093,,rt_plussign_withcolor4,1800516,,,,,,,,green,,,50,,object_11a.png,object_03b.png,,,,,,,,,,,,,,,,,,,,
null,,rt_thecrossant_black4,1801423,,,,,,,,black_plus_sign,,,null,,,,1,,,,,,,1,,,,,,,,,,,,
null,,color_black4,1801527,,,,,,,,black_plus_sign,,,null,,,,,,,,,,,,,,,,,,,,,,,
null,,learn_phase(without_color)4,1805029,,,,,,,,black_plus_sign,,,null,,object_09b.png,object_12b.png,,,,,,,,,,,,,,,,,,,,
null,,black_cross(without_color)4,1805655,,,,,,,,blue,,,null,,object_09b.png,object_12b.png,,,,,,,,,,,,,,,,,,,,
null,,rt_plussign_withcolor4,1806157,,,,,,,,blue,,,null,,object_09b.png,object_12b.png,,,,,,,,,,,,,,,,,,,,
1262.3999999761581,,rt_thecrossant_black4,1807537,,,,,,,,black_plus_sign,,,49,,,,1,,,,,,,1,,,,,,,,,,,,
null,,color_black4,1807639,,,,,,,,black_plus_sign,,,null,,,,,,,,,,,,,,,,,,,,,,,
null,,learn_phase(without_color)4,1811143,,,,,,,,black_plus_sign,,,null,,object_01b.png,object_02c.png,,,,,,,,,,,,,,,,,,,,
null,,black_cross(without_color)4,1811847,,,,,,,,green,,,null,,object_01b.png,object_02c.png,,,,,,,,,,,,,,,,,,,,
null,,rt_plussign_withcolor4,1812349,,,,,,,,green,,,null,,object_01b.png,object_02c.png,,,,,,,,,,,,,,,,,,,,
852.6999999880791,,rt_thecrossant_black4,1813662,,,,,,,,black_plus_sign,,,50,,,,1,,,,,,,1,,,,,,,,,,,,
null,,color_black4,1813766,,,,,,,,black_plus_sign,,,null,,,,,,,,,,,,,,,,,,,,,,,
null,,learn_phase(without_color)4,1817269,,,,,,,,black_plus_sign,,,null,,object_06c.png,object_14a.png,,,,,,,,,,,,,,,,,,,,
null,,black_cross(without_color)4,1818268,,,,,,,,green,,,null,,object_06c.png,object_14a.png,,,,,,,,,,,,,,,,,,,,
null,,rt_plussign_withcolor4,1818771,,,,,,,,green,,,null,,object_06c.png,object_14a.png,,,,,,,,,,,,,,,,,,,,
925.6000000238419,,rt_thecrossant_black4,1819784,,,,,,,,black_plus_sign,,,50,,,,1,,,,,,,1,,,,,,,,,,,,
null,,color_black4,1819894,,,,,,,,black_plus_sign,,,null,,,,,,,,,,,,,,,,,,,,,,,
null,,learn_phase(without_color)4,1823398,,,,,,,,black_plus_sign,,,null,,object_12c.png,object_15c.png,,,,,,,,,,,,,,,,,,,,
null,,black_cross(without_color)4,1823877,,,,,,,,green,,,null,,object_12c.png,object_15c.png,,,,,,,,,,,,,,,,,,,,
null,,rt_plussign_withcolor4,1824379,,,,,,,,green,,,null,,object_12c.png,object_15c.png,,,,,,,,,,,,,,,,,,,,
1203.6000000238419,,rt_thecrossant_black4,1825906,,,,,,,,black_plus_sign,,,50,,,,1,,,,,,,1,,,,,,,,,,,,
null,,color_black4,1826009,,,,,,,,black_plus_sign,,,null,,,,,,,,,,,,,,,,,,,,,,,
null,,thebreak,1826112,,,,,,,,<p></p>,,,null,,,,,,,,,,,,,,,,,,,,,,,
31886.80000001192,,intro_0,1858000,,,,,,,,instruct,,,32,,,,,,,,,,,,,,,,,,,,,,,
3911,,directmemory_phase4,1861913,,,,,,,,object_10c.png,,,50,,,,1,,object_13c.png,object_05b.png,object_06c.png,object_05b.png,,0.5434782608695652,1,,,,,,,,,,,
1836.6000000238419,,directmemory_phase4,1863753,,,,,,,,object_10b.png,,,49,,,,1,,object_03c.png,object_09a.png,object_05b.png,object_03c.png,,0.5531914893617021,1,,,,,,,,,,,
1756,,directmemory_phase4,1865513,,,,,,,,object_04c.png,,,51,,,,1,,object_08c.png,object_02b.png,object_07c.png,object_07c.png,,0.5625,1,,,,,,,,,,,
3181.2000000476837,,directmemory_phase4,1868698,,,,,,,,object_04a.png,,,49,,,,1,,object_08c.png,object_12c.png,object_07c.png,object_08c.png,,0.5714285714285714,1,,,,,,,,,,,
1716,,directmemory_phase4,1870417,,,,,,,,object_15c.png,,,50,,,,1,,object_09b.png,object_12c.png,object_13c.png,object_12c.png,,0.58,1,,,,,,,,,,,
2308.600000023842,,directmemory_phase4,1872729,,,,,,,,object_12b.png,,,49,,,,1,,object_09b.png,object_13c.png,object_08c.png,object_09b.png,,0.5882352941176471,1,,,,,,,,,,,
2700.599999964237,,directmemory_phase4,1875433,,,,,,,,object_13a.png,,,49,,,,1,,object_05c.png,object_09b.png,object_11c.png,object_05c.png,,0.5961538461538461,1,,,,,,,,,,,
2428.7000000476837,,directmemory_phase4,1877865,,,,,,,,object_11b.png,,,50,,,,1,,object_05c.png,object_09a.png,object_12c.png,object_09a.png,,0.6037735849056604,1,,,,,,,,,,,
1396.7999999523163,,directmemory_phase4,1879266,,,,,,,,object_02c.png,,,49,,,,1,,object_01b.png,object_07c.png,object_03c.png,object_01b.png,,0.6111111111111112,1,,,,,,,,,,,
1499.800000011921,,directmemory_phase4,1880769,,,,,,,,object_01a.png,,,49,,,,1,,object_11c.png,object_12c.png,object_05c.png,object_11c.png,,0.6181818181818182,1,,,,,,,,,,,
2532.600000023842,,directmemory_phase4,1883305,,,,,,,,object_03b.png,,,49,,,,1,,object_11a.png,object_05b.png,object_01b.png,object_11a.png,,0.625,1,,,,,,,,,,,
3228.800000011921,,directmemory_phase4,1886537,,,,,,,,object_14a.png,,,50,,,,0,,object_06c.png,object_11c.png,object_03c.png,object_06c.png,,0.6140350877192983,0,,,,,,,,,,,
2788.900000035763,,directmemory_phase4,1889330,,,,,,,,object_14c.png,,,51,,,,0,,object_02b.png,object_03a.png,object_12c.png,object_03a.png,,0.603448275862069,0,,,,,,,,,,,
2419.900000035763,,directmemory_phase4,1891753,,,,,,,,object_15b.png,,,49,,,,1,,object_02b.png,object_08c.png,object_05b.png,object_02b.png,,0.6101694915254238,1,,,,,,,,,,,
2771.099999964237,,directmemory_phase4,1894528,,,,,,,,object_01c.png,,,50,,,,0,,object_13c.png,object_06c.png,object_05b.png,object_13c.png,,0.6,0,,,,,,,,,,,
null,,thebreak,1894629,,,,,,,,<p></p>,,,null,,,,,,,,,,,,,,,,,,,,,,,
2146.399999976158,,intro_0,1896777,,,,,,,,instruct,,,32,,,,,,,,,,,,,,,,,,,,,,,
null,,learn_phase(without_color)5,1900291,,,,,,,,black_plus_sign,,,null,,object_01c.png,object_07a.png,,,,,,,,,,,,,,,,,,,,
null,,black_cross(without_color)5,1900960,,,,,,,,blue,,,null,,object_01c.png,object_07a.png,,,,,,,,,,,,,,,,,,,,
null,,rt_plussign_withcolor5,1901462,,,,,,,,blue,,,null,,object_01c.png,object_07a.png,,,,,,,,,,,,,,,,,,,,
1902.699999988079,,rt_thecrossant_black5,1902800,,,,,,,,black_plus_sign,,,49,,,,1,,,,,,,1,,,,,,,,,,,,
null,,color_black5,1902903,,,,,,,,black_plus_sign,,,null,,,,,,,,,,,,,,,,,,,,,,,
null,,learn_phase(without_color)5,1906414,,,,,,,,black_plus_sign,,,null,,object_02c.png,object_09c.png,,,,,,,,,,,,,,,,,,,,
null,,black_cross(without_color)5,1907381,,,,,,,,green,,,null,,object_02c.png,object_09c.png,,,,,,,,,,,,,,,,,,,,
466.7999999523163,,rt_plussign_withcolor5,1907883,,,,,,,,green,,,50,,object_02c.png,object_09c.png,,,,,,,,,,,,,,,,,,,,
null,,rt_thecrossant_black5,1908922,,,,,,,,black_plus_sign,,,null,,,,1,,,,,,,1,,,,,,,,,,,,
null,,color_black5,1909025,,,,,,,,black_plus_sign,,,null,,,,,,,,,,,,,,,,,,,,,,,
null,,learn_phase(without_color)5,1912528,,,,,,,,black_plus_sign,,,null,,object_01a.png,object_06b.png,,,,,,,,,,,,,,,,,,,,
null,,black_cross(without_color)5,1913317,,,,,,,,green,,,null,,object_01a.png,object_06b.png,,,,,,,,,,,,,,,,,,,,
458.5,,rt_plussign_withcolor5,1913820,,,,,,,,green,,,50,,object_01a.png,object_06b.png,,,,,,,,,,,,,,,,,,,,
null,,rt_thecrossant_black5,1915037,,,,,,,,black_plus_sign,,,null,,,,1,,,,,,,1,,,,,,,,,,,,
null,,color_black5,1915141,,,,,,,,black_plus_sign,,,null,,,,,,,,,,,,,,,,,,,,,,,
null,,learn_phase(without_color)5,1918650,,,,,,,,black_plus_sign,,,null,,object_12b.png,object_15a.png,,,,,,,,,,,,,,,,,,,,
null,,black_cross(without_color)5,1919400,,,,,,,,green,,,null,,object_12b.png,object_15a.png,,,,,,,,,,,,,,,,,,,,
null,,rt_plussign_withcolor5,1919901,,,,,,,,green,,,null,,object_12b.png,object_15a.png,,,,,,,,,,,,,,,,,,,,
943.6999999880791,,rt_thecrossant_black5,1921156,,,,,,,,black_plus_sign,,,50,,,,1,,,,,,,1,,,,,,,,,,,,
null,,color_black5,1921257,,,,,,,,black_plus_sign,,,null,,,,,,,,,,,,,,,,,,,,,,,
null,,learn_phase(without_color)5,1924760,,,,,,,,black_plus_sign,,,null,,object_10b.png,object_08b.png,,,,,,,,,,,,,,,,,,,,
null,,black_cross(without_color)5,1925643,,,,,,,,blue,,,null,,object_10b.png,object_08b.png,,,,,,,,,,,,,,,,,,,,
493.69999998807907,,rt_plussign_withcolor5,1926145,,,,,,,,blue,,,49,,object_10b.png,object_08b.png,,,,,,,,,,,,,,,,,,,,
null,,rt_thecrossant_black5,1927270,,,,,,,,black_plus_sign,,,null,,,,1,,,,,,,1,,,,,,,,,,,,
null,,color_black5,1927373,,,,,,,,black_plus_sign,,,null,,,,,,,,,,,,,,,,,,,,,,,
null,,learn_phase(without_color)5,1930876,,,,,,,,black_plus_sign,,,null,,object_14a.png,object_12a.png,,,,,,,,,,,,,,,,,,,,
null,,black_cross(without_color)5,1931634,,,,,,,,green,,,null,,object_14a.png,object_12a.png,,,,,,,,,,,,,,,,,,,,
501.30000001192093,,rt_plussign_withcolor5,1932138,,,,,,,,green,,,50,,object_14a.png,object_12a.png,,,,,,,,,,,,,,,,,,,,
null,,rt_thecrossant_black5,1933390,,,,,,,,black_plus_sign,,,null,,,,1,,,,,,,1,,,,,,,,,,,,
null,,color_black5,1933493,,,,,,,,black_plus_sign,,,null,,,,,,,,,,,,,,,,,,,,,,,
null,,learn_phase(without_color)5,1936997,,,,,,,,black_plus_sign,,,null,,object_10c.png,object_06a.png,,,,,,,,,,,,,,,,,,,,
null,,black_cross(without_color)5,1937501,,,,,,,,blue,,,null,,object_10c.png,object_06a.png,,,,,,,,,,,,,,,,,,,,
443.30000001192093,,rt_plussign_withcolor5,1938004,,,,,,,,blue,,,50,,object_10c.png,object_06a.png,,,,,,,,,,,,,,,,,,,,
null,,rt_thecrossant_black5,1939506,,,,,,,,black_plus_sign,,,null,,,,0,,,,,,,0.8571428571428571,,,,,,,,,,,,
null,,color_black5,1939609,,,,,,,,black_plus_sign,,,null,,,,,,,,,,,,,,,,,,,,,,,
null,,learn_phase(without_color)5,1943113,,,,,,,,black_plus_sign,,,null,,object_04c.png,object_08a.png,,,,,,,,,,,,,,,,,,,,
null,,black_cross(without_color)5,1943950,,,,,,,,blue,,,null,,object_04c.png,object_08a.png,,,,,,,,,,,,,,,,,,,,
null,,rt_plussign_withcolor5,1944453,,,,,,,,blue,,,null,,object_04c.png,object_08a.png,,,,,,,,,,,,,,,,,,,,
699.4000000357628,,rt_thecrossant_black5,1945622,,,,,,,,black_plus_sign,,,49,,,,1,,,,,,,0.875,,,,,,,,,,,,
null,,color_black5,1945725,,,,,,,,black_plus_sign,,,null,,,,,,,,,,,,,,,,,,,,,,,
null,,learn_phase(without_color)5,1949244,,,,,,,,black_plus_sign,,,null,,object_04a.png,object_14b.png,,,,,,,,,,,,,,,,,,,,
null,,black_cross(without_color)5,1950041,,,,,,,,green,,,null,,object_04a.png,object_14b.png,,,,,,,,,,,,,,,,,,,,
null,,rt_plussign_withcolor5,1950542,,,,,,,,green,,,null,,object_04a.png,object_14b.png,,,,,,,,,,,,,,,,,,,,
999.1000000238419,,rt_thecrossant_black5,1951759,,,,,,,,black_plus_sign,,,50,,,,1,,,,,,,0.8888888888888888,,,,,,,,,,,,
null,,color_black5,1951862,,,,,,,,black_plus_sign,,,null,,,,,,,,,,,,,,,,,,,,,,,
null,,learn_phase(without_color)5,1955366,,,,,,,,black_plus_sign,,,null,,object_13a.png,object_05a.png,,,,,,,,,,,,,,,,,,,,
null,,black_cross(without_color)5,1955912,,,,,,,,blue,,,null,,object_13a.png,object_05a.png,,,,,,,,,,,,,,,,,,,,
null,,rt_plussign_withcolor5,1956414,,,,,,,,blue,,,null,,object_13a.png,object_05a.png,,,,,,,,,,,,,,,,,,,,
1302.1000000238419,,rt_thecrossant_black5,1957874,,,,,,,,black_plus_sign,,,49,,,,1,,,,,,,0.9,,,,,,,,,,,,
null,,color_black5,1957976,,,,,,,,black_plus_sign,,,null,,,,,,,,,,,,,,,,,,,,,,,
null,,learn_phase(without_color)5,1961492,,,,,,,,black_plus_sign,,,null,,object_15c.png,object_04b.png,,,,,,,,,,,,,,,,,,,,
null,,black_cross(without_color)5,1961985,,,,,,,,green,,,null,,object_15c.png,object_04b.png,,,,,,,,,,,,,,,,,,,,
null,,rt_plussign_withcolor5,1962488,,,,,,,,green,,,null,,object_15c.png,object_04b.png,,,,,,,,,,,,,,,,,,,,
771,,rt_thecrossant_black5,1964013,,,,,,,,black_plus_sign,,,50,,,,1,,,,,,,0.9090909090909091,,,,,,,,,,,,
null,,color_black5,1964115,,,,,,,,black_plus_sign,,,null,,,,,,,,,,,,,,,,,,,,,,,
null,,learn_phase(without_color)5,1967633,,,,,,,,black_plus_sign,,,null,,object_14c.png,object_10a.png,,,,,,,,,,,,,,,,,,,,
null,,black_cross(without_color)5,1968640,,,,,,,,green,,,null,,object_14c.png,object_10a.png,,,,,,,,,,,,,,,,,,,,
null,,rt_plussign_withcolor5,1969142,,,,,,,,green,,,null,,object_14c.png,object_10a.png,,,,,,,,,,,,,,,,,,,,
606.7000000476837,,rt_thecrossant_black5,1970141,,,,,,,,black_plus_sign,,,50,,,,1,,,,,,,0.9166666666666666,,,,,,,,,,,,
null,,color_black5,1970244,,,,,,,,black_plus_sign,,,null,,,,,,,,,,,,,,,,,,,,,,,
null,,learn_phase(without_color)5,1973748,,,,,,,,black_plus_sign,,,null,,object_15b.png,object_07b.png,,,,,,,,,,,,,,,,,,,,
null,,black_cross(without_color)5,1974307,,,,,,,,blue,,,null,,object_15b.png,object_07b.png,,,,,,,,,,,,,,,,,,,,
null,,rt_plussign_withcolor5,1974810,,,,,,,,blue,,,null,,object_15b.png,object_07b.png,,,,,,,,,,,,,,,,,,,,
1189.8999999761581,,rt_thecrossant_black5,1976256,,,,,,,,black_plus_sign,,,49,,,,1,,,,,,,0.9230769230769231,,,,,,,,,,,,
null,,color_black5,1976365,,,,,,,,black_plus_sign,,,null,,,,,,,,,,,,,,,,,,,,,,,
null,,learn_phase(without_color)5,1979869,,,,,,,,black_plus_sign,,,null,,object_11b.png,object_13b.png,,,,,,,,,,,,,,,,,,,,
null,,black_cross(without_color)5,1980592,,,,,,,,green,,,null,,object_11b.png,object_13b.png,,,,,,,,,,,,,,,,,,,,
415.5,,rt_plussign_withcolor5,1981095,,,,,,,,green,,,50,,object_11b.png,object_13b.png,,,,,,,,,,,,,,,,,,,,
null,,rt_thecrossant_black5,1982378,,,,,,,,black_plus_sign,,,null,,,,1,,,,,,,0.9285714285714286,,,,,,,,,,,,
null,,color_black5,1982480,,,,,,,,black_plus_sign,,,null,,,,,,,,,,,,,,,,,,,,,,,
null,,learn_phase(without_color)5,1985993,,,,,,,,black_plus_sign,,,null,,object_03b.png,object_02a.png,,,,,,,,,,,,,,,,,,,,
null,,black_cross(without_color)5,1986600,,,,,,,,blue,,,null,,object_03b.png,object_02a.png,,,,,,,,,,,,,,,,,,,,
null,,rt_plussign_withcolor5,1987101,,,,,,,,blue,,,null,,object_03b.png,object_02a.png,,,,,,,,,,,,,,,,,,,,
966.7999999523163,,rt_thecrossant_black5,1988514,,,,,,,,black_plus_sign,,,49,,,,1,,,,,,,0.9333333333333333,,,,,,,,,,,,
null,,color_black5,1988616,,,,,,,,black_plus_sign,,,null,,,,,,,,,,,,,,,,,,,,,,,
null,,thebreak,1988728,,,,,,,,<p></p>,,,null,,,,,,,,,,,,,,,,,,,,,,,
20399.900000035763,,intro_0,2009130,,,,,,,,instruct,,,32,,,,,,,,,,,,,,,,,,,,,,,
2917.199999988079,,directmemory_phase5,2012049,,,,,,,,object_09c.png,,,50,,,,0,,object_02c.png,object_15c.png,object_01a.png,object_02c.png,,0.5901639344262295,0,,,,,,,,,,,
2979.899999976158,,directmemory_phase5,2015032,,,,,,,,object_14b.png,,,50,,,,0,,object_12b.png,object_15c.png,object_04a.png,object_04a.png,,0.5806451612903226,0,,,,,,,,,,,
2798,,directmemory_phase5,2017833,,,,,,,,object_05a.png,,,50,,,,0,,object_10c.png,object_10b.png,object_13a.png,object_13a.png,,0.5714285714285714,0,,,,,,,,,,,
2173.100000023842,,directmemory_phase5,2020010,,,,,,,,object_06b.png,,,51,,,,1,,object_12b.png,object_11b.png,object_01a.png,object_01a.png,,0.578125,1,,,,,,,,,,,
2733.100000023842,,directmemory_phase5,2022745,,,,,,,,object_04b.png,,,51,,,,1,,object_10b.png,object_13a.png,object_15c.png,object_15c.png,,0.5846153846153846,1,,,,,,,,,,,
1819.2000000476837,,directmemory_phase5,2024568,,,,,,,,object_12a.png,,,49,,,,1,,object_14a.png,object_01a.png,object_15b.png,object_14a.png,,0.5909090909090909,1,,,,,,,,,,,
3095.399999976158,,directmemory_phase5,2027666,,,,,,,,object_07a.png,,,50,,,,0,,object_04a.png,object_01a.png,object_01c.png,object_01c.png,,0.582089552238806,0,,,,,,,,,,,
2388.800000011921,,directmemory_phase5,2030058,,,,,,,,object_08b.png,,,51,,,,0,,object_10c.png,object_10b.png,object_13a.png,object_10b.png,,0.5735294117647058,0,,,,,,,,,,,
3028,,directmemory_phase5,2033090,,,,,,,,object_15a.png,,,50,,,,1,,object_10b.png,object_12b.png,object_14a.png,object_12b.png,,0.5797101449275363,1,,,,,,,,,,,
2892.400000035763,,directmemory_phase5,2035985,,,,,,,,object_08a.png,,,50,,,,1,,object_01c.png,object_04c.png,object_04a.png,object_04c.png,,0.5857142857142857,1,,,,,,,,,,,
2338.899999976158,,directmemory_phase5,2038328,,,,,,,,object_13b.png,,,50,,,,0,,object_03b.png,object_10c.png,object_11b.png,object_11b.png,,0.5774647887323944,0,,,,,,,,,,,
2966.900000035763,,directmemory_phase5,2041296,,,,,,,,object_06a.png,,,50,,,,0,,object_03b.png,object_04c.png,object_10c.png,object_10c.png,,0.5694444444444444,0,,,,,,,,,,,
1902,,directmemory_phase5,2043200,,,,,,,,object_07b.png,,,50,,,,1,,object_10b.png,object_15b.png,object_03b.png,object_15b.png,,0.5753424657534246,1,,,,,,,,,,,
2494.300000011921,,directmemory_phase5,2045696,,,,,,,,object_10a.png,,,50,,,,1,,object_10b.png,object_14c.png,object_13a.png,object_14c.png,,0.581081081081081,1,,,,,,,,,,,
3127.599999964237,,directmemory_phase5,2048825,,,,,,,,object_02a.png,,,50,,,,0,,object_13a.png,object_04a.png,object_03b.png,object_03b.png,,0.5733333333333334,0,,,,,,,,,,,
null,,thebreak,2048929,,,,,,,,<p></p>,,,null,,,,,,,,,,,,,,,,,,,,,,,
66671.60000002384,,intro_0,2115602,,,,,,,,instruct,,,32,,,,,,,,,,,,,,,,,,,,,,,
null,,learn_phase(without_color)6,2119105,,,,,,,,black_plus_sign,,,null,,object_12b.png,object_15a.png,,,,,,,,,,,,,,,,,,,,
null,,black_cross(without_color)6,2120136,,,,,,,,green,,,null,,object_12b.png,object_15a.png,,,,,,,,,,,,,,,,,,,,
null,,rt_plussign_withcolor6,2120639,,,,,,,,green,,,null,,object_12b.png,object_15a.png,,,,,,,,,,,,,,,,,,,,
1232.5,,rt_thecrossant_black6,2121614,,,,,,,,black_plus_sign,,,50,,,,1,,,,,,,1,,,,,,,,,,,,
null,,color_black6,2121716,,,,,,,,black_plus_sign,,,null,,,,,,,,,,,,,,,,,,,,,,,
null,,learn_phase(without_color)6,2125221,,,,,,,,black_plus_sign,,,null,,object_15b.png,object_07b.png,,,,,,,,,,,,,,,,,,,,
null,,black_cross(without_color)6,2125873,,,,,,,,green,,,null,,object_15b.png,object_07b.png,,,,,,,,,,,,,,,,,,,,
463.19999998807907,,rt_plussign_withcolor6,2126375,,,,,,,,green,,,50,,object_15b.png,object_07b.png,,,,,,,,,,,,,,,,,,,,
null,,rt_thecrossant_black6,2127728,,,,,,,,black_plus_sign,,,null,,,,1,,,,,,,1,,,,,,,,,,,,
null,,color_black6,2127830,,,,,,,,black_plus_sign,,,null,,,,,,,,,,,,,,,,,,,,,,,
null,,learn_phase(without_color)6,2131333,,,,,,,,black_plus_sign,,,null,,object_02c.png,object_09c.png,,,,,,,,,,,,,,,,,,,,
null,,black_cross(without_color)6,2132143,,,,,,,,blue,,,null,,object_02c.png,object_09c.png,,,,,,,,,,,,,,,,,,,,
null,,rt_plussign_withcolor6,2132644,,,,,,,,blue,,,null,,object_02c.png,object_09c.png,,,,,,,,,,,,,,,,,,,,
760.3999999761581,,rt_thecrossant_black6,2133838,,,,,,,,black_plus_sign,,,49,,,,1,,,,,,,1,,,,,,,,,,,,
null,,color_black6,2133941,,,,,,,,black_plus_sign,,,null,,,,,,,,,,,,,,,,,,,,,,,
null,,learn_phase(without_color)6,2137445,,,,,,,,black_plus_sign,,,null,,object_01c.png,object_07a.png,,,,,,,,,,,,,,,,,,,,
null,,black_cross(without_color)6,2137932,,,,,,,,green,,,null,,object_01c.png,object_07a.png,,,,,,,,,,,,,,,,,,,,
null,,rt_plussign_withcolor6,2138434,,,,,,,,green,,,null,,object_01c.png,object_07a.png,,,,,,,,,,,,,,,,,,,,
946.2000000476837,,rt_thecrossant_black6,2139952,,,,,,,,black_plus_sign,,,50,,,,1,,,,,,,1,,,,,,,,,,,,
null,,color_black6,2140055,,,,,,,,black_plus_sign,,,null,,,,,,,,,,,,,,,,,,,,,,,
null,,learn_phase(without_color)6,2143559,,,,,,,,black_plus_sign,,,null,,object_13a.png,object_05a.png,,,,,,,,,,,,,,,,,,,,
null,,black_cross(without_color)6,2144092,,,,,,,,green,,,null,,object_13a.png,object_05a.png,,,,,,,,,,,,,,,,,,,,
null,,rt_plussign_withcolor6,2144594,,,,,,,,green,,,null,,object_13a.png,object_05a.png,,,,,,,,,,,,,,,,,,,,
630.9000000357628,,rt_thecrossant_black6,2146068,,,,,,,,black_plus_sign,,,50,,,,1,,,,,,,1,,,,,,,,,,,,
null,,color_black6,2146171,,,,,,,,black_plus_sign,,,null,,,,,,,,,,,,,,,,,,,,,,,
null,,learn_phase(without_color)6,2149675,,,,,,,,black_plus_sign,,,null,,object_01a.png,object_06b.png,,,,,,,,,,,,,,,,,,,,
null,,black_cross(without_color)6,2150502,,,,,,,,blue,,,null,,object_01a.png,object_06b.png,,,,,,,,,,,,,,,,,,,,
null,,rt_plussign_withcolor6,2151005,,,,,,,,blue,,,null,,object_01a.png,object_06b.png,,,,,,,,,,,,,,,,,,,,
665,,rt_thecrossant_black6,2152183,,,,,,,,black_plus_sign,,,49,,,,1,,,,,,,1,,,,,,,,,,,,
null,,color_black6,2152286,,,,,,,,black_plus_sign,,,null,,,,,,,,,,,,,,,,,,,,,,,
null,,learn_phase(without_color)6,2155790,,,,,,,,black_plus_sign,,,null,,object_14c.png,object_10a.png,,,,,,,,,,,,,,,,,,,,
null,,black_cross(without_color)6,2156838,,,,,,,,green,,,null,,object_14c.png,object_10a.png,,,,,,,,,,,,,,,,,,,,
null,,rt_plussign_withcolor6,2157341,,,,,,,,green,,,null,,object_14c.png,object_10a.png,,,,,,,,,,,,,,,,,,,,
1006.3999999761581,,rt_thecrossant_black6,2158298,,,,,,,,black_plus_sign,,,50,,,,1,,,,,,,1,,,,,,,,,,,,
null,,color_black6,2158401,,,,,,,,black_plus_sign,,,null,,,,,,,,,,,,,,,,,,,,,,,
null,,learn_phase(without_color)6,2161905,,,,,,,,black_plus_sign,,,null,,object_10c.png,object_06a.png,,,,,,,,,,,,,,,,,,,,
null,,black_cross(without_color)6,2162571,,,,,,,,blue,,,null,,object_10c.png,object_06a.png,,,,,,,,,,,,,,,,,,,,
null,,rt_plussign_withcolor6,2163073,,,,,,,,blue,,,null,,object_10c.png,object_06a.png,,,,,,,,,,,,,,,,,,,,
1176.800000011921,,rt_thecrossant_black6,2164412,,,,,,,,black_plus_sign,,,49,,,,1,,,,,,,1,,,,,,,,,,,,
null,,color_black6,2164515,,,,,,,,black_plus_sign,,,null,,,,,,,,,,,,,,,,,,,,,,,
null,,learn_phase(without_color)6,2168018,,,,,,,,black_plus_sign,,,null,,object_04c.png,object_08a.png,,,,,,,,,,,,,,,,,,,,
null,,black_cross(without_color)6,2168522,,,,,,,,blue,,,null,,object_04c.png,object_08a.png,,,,,,,,,,,,,,,,,,,,
null,,rt_plussign_withcolor6,2169024,,,,,,,,blue,,,null,,object_04c.png,object_08a.png,,,,,,,,,,,,,,,,,,,,
858.5,,rt_thecrossant_black6,2170527,,,,,,,,black_plus_sign,,,49,,,,1,,,,,,,1,,,,,,,,,,,,
null,,color_black6,2170630,,,,,,,,black_plus_sign,,,null,,,,,,,,,,,,,,,,,,,,,,,
null,,learn_phase(without_color)6,2174135,,,,,,,,black_plus_sign,,,null,,object_10b.png,object_08b.png,,,,,,,,,,,,,,,,,,,,
null,,black_cross(without_color)6,2174974,,,,,,,,green,,,null,,object_10b.png,object_08b.png,,,,,,,,,,,,,,,,,,,,
482.69999998807907,,rt_plussign_withcolor6,2175476,,,,,,,,green,,,50,,object_10b.png,object_08b.png,,,,,,,,,,,,,,,,,,,,
null,,rt_thecrossant_black6,2176644,,,,,,,,black_plus_sign,,,null,,,,1,,,,,,,1,,,,,,,,,,,,
null,,color_black6,2176747,,,,,,,,black_plus_sign,,,null,,,,,,,,,,,,,,,,,,,,,,,
null,,learn_phase(without_color)6,2180251,,,,,,,,black_plus_sign,,,null,,object_15c.png,object_04b.png,,,,,,,,,,,,,,,,,,,,
null,,black_cross(without_color)6,2180776,,,,,,,,green,,,null,,object_15c.png,object_04b.png,,,,,,,,,,,,,,,,,,,,
null,,rt_plussign_withcolor6,2181278,,,,,,,,green,,,null,,object_15c.png,object_04b.png,,,,,,,,,,,,,,,,,,,,
1009,,rt_thecrossant_black6,2182761,,,,,,,,black_plus_sign,,,50,,,,1,,,,,,,1,,,,,,,,,,,,
null,,color_black6,2182864,,,,,,,,black_plus_sign,,,null,,,,,,,,,,,,,,,,,,,,,,,
null,,learn_phase(without_color)6,2186368,,,,,,,,black_plus_sign,,,null,,object_11b.png,object_13b.png,,,,,,,,,,,,,,,,,,,,
null,,black_cross(without_color)6,2187319,,,,,,,,blue,,,null,,object_11b.png,object_13b.png,,,,,,,,,,,,,,,,,,,,
null,,rt_plussign_withcolor6,2187821,,,,,,,,blue,,,null,,object_11b.png,object_13b.png,,,,,,,,,,,,,,,,,,,,
623.1999999880791,,rt_thecrossant_black6,2188875,,,,,,,,black_plus_sign,,,49,,,,1,,,,,,,1,,,,,,,,,,,,
null,,color_black6,2188977,,,,,,,,black_plus_sign,,,null,,,,,,,,,,,,,,,,,,,,,,,
null,,learn_phase(without_color)6,2192480,,,,,,,,black_plus_sign,,,null,,object_04a.png,object_14b.png,,,,,,,,,,,,,,,,,,,,
null,,black_cross(without_color)6,2193157,,,,,,,,green,,,null,,object_04a.png,object_14b.png,,,,,,,,,,,,,,,,,,,,
474.5,,rt_plussign_withcolor6,2193659,,,,,,,,green,,,50,,object_04a.png,object_14b.png,,,,,,,,,,,,,,,,,,,,
null,,rt_thecrossant_black6,2194986,,,,,,,,black_plus_sign,,,null,,,,1,,,,,,,1,,,,,,,,,,,,
null,,color_black6,2195088,,,,,,,,black_plus_sign,,,null,,,,,,,,,,,,,,,,,,,,,,,
null,,learn_phase(without_color)6,2198591,,,,,,,,black_plus_sign,,,null,,object_14a.png,object_12a.png,,,,,,,,,,,,,,,,,,,,
null,,black_cross(without_color)6,2199608,,,,,,,,blue,,,null,,object_14a.png,object_12a.png,,,,,,,,,,,,,,,,,,,,
null,,rt_plussign_withcolor6,2200111,,,,,,,,blue,,,null,,object_14a.png,object_12a.png,,,,,,,,,,,,,,,,,,,,
872.3000000119209,,rt_thecrossant_black6,2201099,,,,,,,,black_plus_sign,,,49,,,,1,,,,,,,1,,,,,,,,,,,,
null,,color_black6,2201202,,,,,,,,black_plus_sign,,,null,,,,,,,,,,,,,,,,,,,,,,,
null,,learn_phase(without_color)6,2204705,,,,,,,,black_plus_sign,,,null,,object_03b.png,object_02a.png,,,,,,,,,,,,,,,,,,,,
null,,black_cross(without_color)6,2205642,,,,,,,,blue,,,null,,object_03b.png,object_02a.png,,,,,,,,,,,,,,,,,,,,
null,,rt_plussign_withcolor6,2206145,,,,,,,,blue,,,null,,object_03b.png,object_02a.png,,,,,,,,,,,,,,,,,,,,
1160.800000011921,,rt_thecrossant_black6,2207214,,,,,,,,black_plus_sign,,,49,,,,1,,,,,,,1,,,,,,,,,,,,
null,,color_black6,2207317,,,,,,,,black_plus_sign,,,null,,,,,,,,,,,,,,,,,,,,,,,
null,,thebreak,2207421,,,,,,,,<p></p>,,,null,,,,,,,,,,,,,,,,,,,,,,,
60842.69999998808,,intro_0,2268266,,,,,,,,instruct,,,32,,,,,,,,,,,,,,,,,,,,,,,
2285.399999976158,,directmemory_phase6,2270554,,,,,,,,object_09c.png,,,51,,,,1,,object_03b.png,object_14a.png,object_02c.png,object_02c.png,,0.5789473684210527,1,,,,,,,,,,,
6804.100000023842,,directmemory_phase6,2277362,,,,,,,,object_14b.png,,,50,,,,1,,object_01c.png,object_04a.png,object_01a.png,object_04a.png,,0.5844155844155844,1,,,,,,,,,,,
1923.6000000238419,,directmemory_phase6,2279289,,,,,,,,object_02a.png,,,50,,,,1,,object_15b.png,object_03b.png,object_04a.png,object_03b.png,,0.5897435897435898,1,,,,,,,,,,,
2166.100000023842,,directmemory_phase6,2281457,,,,,,,,object_08a.png,,,49,,,,1,,object_04c.png,object_13a.png,object_14a.png,object_04c.png,,0.5949367088607594,1,,,,,,,,,,,
3119.5,,directmemory_phase6,2284578,,,,,,,,object_10a.png,,,50,,,,1,,object_01c.png,object_14c.png,object_02c.png,object_14c.png,,0.6,1,,,,,,,,,,,
2843.800000011921,,directmemory_phase6,2287426,,,,,,,,object_15a.png,,,50,,,,1,,object_10c.png,object_12b.png,object_04c.png,object_12b.png,,0.6049382716049383,1,,,,,,,,,,,
3028.899999976158,,directmemory_phase6,2290458,,,,,,,,object_07b.png,,,50,,,,1,,object_14a.png,object_15b.png,object_03b.png,object_15b.png,,0.6097560975609756,1,,,,,,,,,,,
2947.699999988079,,directmemory_phase6,2293410,,,,,,,,object_13b.png,,,51,,,,1,,object_12b.png,object_04c.png,object_11b.png,object_11b.png,,0.6144578313253012,1,,,,,,,,,,,
2668.300000011921,,directmemory_phase6,2296082,,,,,,,,object_05a.png,,,49,,,,0,,object_10b.png,object_13a.png,object_01a.png,object_13a.png,,0.6071428571428571,0,,,,,,,,,,,
1435.6000000238419,,directmemory_phase6,2297521,,,,,,,,object_12a.png,,,49,,,,1,,object_14a.png,object_04c.png,object_04a.png,object_14a.png,,0.611764705882353,1,,,,,,,,,,,
3263.899999976158,,directmemory_phase6,2300786,,,,,,,,object_04b.png,,,49,,,,1,,object_15c.png,object_14a.png,object_10b.png,object_15c.png,,0.6162790697674418,1,,,,,,,,,,,
1987.7000000476837,,directmemory_phase6,2302778,,,,,,,,object_06b.png,,,49,,,,1,,object_01a.png,object_15b.png,object_13a.png,object_01a.png,,0.6206896551724138,1,,,,,,,,,,,
2092.199999988079,,directmemory_phase6,2304874,,,,,,,,object_06a.png,,,49,,,,0,,object_14a.png,object_03b.png,object_10c.png,object_10c.png,,0.6136363636363636,0,,,,,,,,,,,
2172.399999976158,,directmemory_phase6,2307050,,,,,,,,object_08b.png,,,50,,,,1,,object_03b.png,object_10b.png,object_11b.png,object_10b.png,,0.6179775280898876,1,,,,,,,,,,,
2371.800000011921,,directmemory_phase6,2309426,,,,,,,,object_07a.png,,,51,,,,1,,object_10c.png,object_01a.png,object_01c.png,object_01c.png,,0.6222222222222222,1,,,,,,,,,,,
null,,thebreak,2309529,,,,,,,,<p></p>,,,null,,,,,,,,,,,,,,,,,,,,,,,
151895.39999997616,,intro_0,2461427,,,,,,,,instruct,,,32,,,,,,,,,,,,,,,,,,,,,,,
null,,learn_phase(without_color)7,2464929,,,,,,,,black_plus_sign,,,null,,object_03b.png,object_02a.png,,,,,,,,,,,,,,,,,,,,
null,,black_cross(without_color)7,2466032,,,,,,,,blue,,,null,,object_03b.png,object_02a.png,,,,,,,,,,,,,,,,,,,,
null,,rt_plussign_withcolor7,2466535,,,,,,,,blue,,,null,,object_03b.png,object_02a.png,,,,,,,,,,,,,,,,,,,,
1344.9000000357628,,rt_thecrossant_black7,2467438,,,,,,,,black_plus_sign,,,49,,,,1,,,,,,,1,,,,,,,,,,,,
null,,color_black7,2467542,,,,,,,,black_plus_sign,,,null,,,,,,,,,,,,,,,,,,,,,,,
null,,learn_phase(without_color)7,2471046,,,,,,,,black_plus_sign,,,null,,object_13a.png,object_05a.png,,,,,,,,,,,,,,,,,,,,
null,,black_cross(without_color)7,2472092,,,,,,,,blue,,,null,,object_13a.png,object_05a.png,,,,,,,,,,,,,,,,,,,,
null,,rt_plussign_withcolor7,2472594,,,,,,,,blue,,,null,,object_13a.png,object_05a.png,,,,,,,,,,,,,,,,,,,,
1294.0999999642372,,rt_thecrossant_black7,2473555,,,,,,,,black_plus_sign,,,49,,,,1,,,,,,,1,,,,,,,,,,,,
null,,color_black7,2473658,,,,,,,,black_plus_sign,,,null,,,,,,,,,,,,,,,,,,,,,,,
null,,learn_phase(without_color)7,2477162,,,,,,,,black_plus_sign,,,null,,object_04c.png,object_08a.png,,,,,,,,,,,,,,,,,,,,
null,,black_cross(without_color)7,2477698,,,,,,,,blue,,,null,,object_04c.png,object_08a.png,,,,,,,,,,,,,,,,,,,,
null,,rt_plussign_withcolor7,2478201,,,,,,,,blue,,,null,,object_04c.png,object_08a.png,,,,,,,,,,,,,,,,,,,,
1205.5,,rt_thecrossant_black7,2479671,,,,,,,,black_plus_sign,,,49,,,,1,,,,,,,1,,,,,,,,,,,,
null,,color_black7,2479774,,,,,,,,black_plus_sign,,,null,,,,,,,,,,,,,,,,,,,,,,,
null,,learn_phase(without_color)7,2483279,,,,,,,,black_plus_sign,,,null,,object_15b.png,object_07b.png,,,,,,,,,,,,,,,,,,,,
null,,black_cross(without_color)7,2484047,,,,,,,,blue,,,null,,object_15b.png,object_07b.png,,,,,,,,,,,,,,,,,,,,
null,,rt_plussign_withcolor7,2484549,,,,,,,,blue,,,null,,object_15b.png,object_07b.png,,,,,,,,,,,,,,,,,,,,
666.6999999880791,,rt_thecrossant_black7,2485788,,,,,,,,black_plus_sign,,,49,,,,1,,,,,,,1,,,,,,,,,,,,
null,,color_black7,2485891,,,,,,,,black_plus_sign,,,null,,,,,,,,,,,,,,,,,,,,,,,
null,,learn_phase(without_color)7,2489395,,,,,,,,black_plus_sign,,,null,,object_12b.png,object_15a.png,,,,,,,,,,,,,,,,,,,,
null,,black_cross(without_color)7,2490475,,,,,,,,blue,,,null,,object_12b.png,object_15a.png,,,,,,,,,,,,,,,,,,,,
null,,rt_plussign_withcolor7,2490977,,,,,,,,blue,,,null,,object_12b.png,object_15a.png,,,,,,,,,,,,,,,,,,,,
1191.8999999761581,,rt_thecrossant_black7,2491904,,,,,,,,black_plus_sign,,,49,,,,1,,,,,,,1,,,,,,,,,,,,
null,,color_black7,2492007,,,,,,,,black_plus_sign,,,null,,,,,,,,,,,,,,,,,,,,,,,
null,,learn_phase(without_color)7,2495511,,,,,,,,black_plus_sign,,,null,,object_04a.png,object_14b.png,,,,,,,,,,,,,,,,,,,,
null,,black_cross(without_color)7,2496362,,,,,,,,green,,,null,,object_04a.png,object_14b.png,,,,,,,,,,,,,,,,,,,,
463.0999999642372,,rt_plussign_withcolor7,2496864,,,,,,,,green,,,50,,object_04a.png,object_14b.png,,,,,,,,,,,,,,,,,,,,
null,,rt_thecrossant_black7,2498020,,,,,,,,black_plus_sign,,,null,,,,1,,,,,,,1,,,,,,,,,,,,
null,,color_black7,2498123,,,,,,,,black_plus_sign,,,null,,,,,,,,,,,,,,,,,,,,,,,
null,,learn_phase(without_color)7,2501628,,,,,,,,black_plus_sign,,,null,,object_11b.png,object_13b.png,,,,,,,,,,,,,,,,,,,,
null,,black_cross(without_color)7,2502272,,,,,,,,green,,,null,,object_11b.png,object_13b.png,,,,,,,,,,,,,,,,,,,,
null,,rt_plussign_withcolor7,2502774,,,,,,,,green,,,null,,object_11b.png,object_13b.png,,,,,,,,,,,,,,,,,,,,
1069.1000000238419,,rt_thecrossant_black7,2504136,,,,,,,,black_plus_sign,,,50,,,,1,,,,,,,1,,,,,,,,,,,,
null,,color_black7,2504240,,,,,,,,black_plus_sign,,,null,,,,,,,,,,,,,,,,,,,,,,,
null,,learn_phase(without_color)7,2507744,,,,,,,,black_plus_sign,,,null,,object_10c.png,object_06a.png,,,,,,,,,,,,,,,,,,,,
null,,black_cross(without_color)7,2508621,,,,,,,,blue,,,null,,object_10c.png,object_06a.png,,,,,,,,,,,,,,,,,,,,
null,,rt_plussign_withcolor7,2509123,,,,,,,,blue,,,null,,object_10c.png,object_06a.png,,,,,,,,,,,,,,,,,,,,
938.1000000238419,,rt_thecrossant_black7,2510252,,,,,,,,black_plus_sign,,,49,,,,1,,,,,,,1,,,,,,,,,,,,
null,,color_black7,2510355,,,,,,,,black_plus_sign,,,null,,,,,,,,,,,,,,,,,,,,,,,
null,,learn_phase(without_color)7,2513861,,,,,,,,black_plus_sign,,,null,,object_01c.png,object_07a.png,,,,,,,,,,,,,,,,,,,,
null,,black_cross(without_color)7,2514579,,,,,,,,blue,,,null,,object_01c.png,object_07a.png,,,,,,,,,,,,,,,,,,,,
null,,rt_plussign_withcolor7,2515081,,,,,,,,blue,,,null,,object_01c.png,object_07a.png,,,,,,,,,,,,,,,,,,,,
1068.8999999761581,,rt_thecrossant_black7,2516369,,,,,,,,black_plus_sign,,,49,,,,1,,,,,,,1,,,,,,,,,,,,
null,,color_black7,2516472,,,,,,,,black_plus_sign,,,null,,,,,,,,,,,,,,,,,,,,,,,
null,,learn_phase(without_color)7,2519976,,,,,,,,black_plus_sign,,,null,,object_02c.png,object_09c.png,,,,,,,,,,,,,,,,,,,,
null,,black_cross(without_color)7,2521072,,,,,,,,green,,,null,,object_02c.png,object_09c.png,,,,,,,,,,,,,,,,,,,,
null,,rt_plussign_withcolor7,2521573,,,,,,,,green,,,null,,object_02c.png,object_09c.png,,,,,,,,,,,,,,,,,,,,
825.3999999761581,,rt_thecrossant_black7,2522482,,,,,,,,black_plus_sign,,,50,,,,1,,,,,,,1,,,,,,,,,,,,
null,,color_black7,2522585,,,,,,,,black_plus_sign,,,null,,,,,,,,,,,,,,,,,,,,,,,
null,,learn_phase(without_color)7,2526087,,,,,,,,black_plus_sign,,,null,,object_01a.png,object_06b.png,,,,,,,,,,,,,,,,,,,,
null,,black_cross(without_color)7,2527152,,,,,,,,green,,,null,,object_01a.png,object_06b.png,,,,,,,,,,,,,,,,,,,,
488.30000001192093,,rt_plussign_withcolor7,2527654,,,,,,,,green,,,50,,object_01a.png,object_06b.png,,,,,,,,,,,,,,,,,,,,
null,,rt_thecrossant_black7,2528592,,,,,,,,black_plus_sign,,,null,,,,1,,,,,,,1,,,,,,,,,,,,
null,,color_black7,2528695,,,,,,,,black_plus_sign,,,null,,,,,,,,,,,,,,,,,,,,,,,
null,,learn_phase(without_color)7,2532199,,,,,,,,black_plus_sign,,,null,,object_10b.png,object_08b.png,,,,,,,,,,,,,,,,,,,,
null,,black_cross(without_color)7,2533119,,,,,,,,green,,,null,,object_10b.png,object_08b.png,,,,,,,,,,,,,,,,,,,,
497.80000001192093,,rt_plussign_withcolor7,2533622,,,,,,,,green,,,50,,object_10b.png,object_08b.png,,,,,,,,,,,,,,,,,,,,
null,,rt_thecrossant_black7,2534708,,,,,,,,black_plus_sign,,,null,,,,1,,,,,,,1,,,,,,,,,,,,
null,,color_black7,2534812,,,,,,,,black_plus_sign,,,null,,,,,,,,,,,,,,,,,,,,,,,
null,,learn_phase(without_color)7,2538315,,,,,,,,black_plus_sign,,,null,,object_14a.png,object_12a.png,,,,,,,,,,,,,,,,,,,,
null,,black_cross(without_color)7,2539076,,,,,,,,green,,,null,,object_14a.png,object_12a.png,,,,,,,,,,,,,,,,,,,,
null,,rt_plussign_withcolor7,2539579,,,,,,,,green,,,null,,object_14a.png,object_12a.png,,,,,,,,,,,,,,,,,,,,
1046.1000000238419,,rt_thecrossant_black7,2540824,,,,,,,,black_plus_sign,,,50,,,,1,,,,,,,1,,,,,,,,,,,,
null,,color_black7,2540927,,,,,,,,black_plus_sign,,,null,,,,,,,,,,,,,,,,,,,,,,,
null,,learn_phase(without_color)7,2544431,,,,,,,,black_plus_sign,,,null,,object_14c.png,object_10a.png,,,,,,,,,,,,,,,,,,,,
null,,black_cross(without_color)7,2545141,,,,,,,,blue,,,null,,object_14c.png,object_10a.png,,,,,,,,,,,,,,,,,,,,
null,,rt_plussign_withcolor7,2545644,,,,,,,,blue,,,null,,object_14c.png,object_10a.png,,,,,,,,,,,,,,,,,,,,
950.5999999642372,,rt_thecrossant_black7,2546941,,,,,,,,black_plus_sign,,,49,,,,1,,,,,,,1,,,,,,,,,,,,
null,,color_black7,2547044,,,,,,,,black_plus_sign,,,null,,,,,,,,,,,,,,,,,,,,,,,
null,,learn_phase(without_color)7,2550547,,,,,,,,black_plus_sign,,,null,,object_15c.png,object_04b.png,,,,,,,,,,,,,,,,,,,,
null,,black_cross(without_color)7,2551129,,,,,,,,green,,,null,,object_15c.png,object_04b.png,,,,,,,,,,,,,,,,,,,,
null,,rt_plussign_withcolor7,2551632,,,,,,,,green,,,null,,object_15c.png,object_04b.png,,,,,,,,,,,,,,,,,,,,
871.3000000119209,,rt_thecrossant_black7,2553056,,,,,,,,black_plus_sign,,,50,,,,1,,,,,,,1,,,,,,,,,,,,
null,,color_black7,2553159,,,,,,,,black_plus_sign,,,null,,,,,,,,,,,,,,,,,,,,,,,
null,,thebreak,2553263,,,,,,,,<p></p>,,,null,,,,,,,,,,,,,,,,,,,,,,,
73257,,intro_0,2626523,,,,,,,,instruct,,,32,,,,,,,,,,,,,,,,,,,,,,,
3652.300000011921,,directmemory_phase7,2630178,,,,,,,,object_07a.png,,,51,,,,1,,object_12b.png,object_11b.png,object_01c.png,object_01c.png,,0.6263736263736264,1,,,,,,,,,,,
1891.8999999761581,,directmemory_phase7,2632074,,,,,,,,object_02a.png,,,50,,,,1,,object_15b.png,object_03b.png,object_02c.png,object_03b.png,,0.6304347826086957,1,,,,,,,,,,,
1420.1000000238419,,directmemory_phase7,2633499,,,,,,,,object_12a.png,,,49,,,,1,,object_14a.png,object_15b.png,object_01a.png,object_14a.png,,0.6344086021505376,1,,,,,,,,,,,
2010.9000000357628,,directmemory_phase7,2635513,,,,,,,,object_10a.png,,,51,,,,1,,object_10b.png,object_13a.png,object_14c.png,object_14c.png,,0.6382978723404256,1,,,,,,,,,,,
2046.199999988079,,directmemory_phase7,2637561,,,,,,,,object_07b.png,,,51,,,,1,,object_01c.png,object_15c.png,object_15b.png,object_15b.png,,0.6421052631578947,1,,,,,,,,,,,
2014.1000000238419,,directmemory_phase7,2639577,,,,,,,,object_13b.png,,,50,,,,1,,object_02c.png,object_11b.png,object_01c.png,object_11b.png,,0.6458333333333334,1,,,,,,,,,,,
2598.900000035763,,directmemory_phase7,2642178,,,,,,,,object_08b.png,,,50,,,,1,,object_15b.png,object_10b.png,object_12b.png,object_10b.png,,0.6494845360824743,1,,,,,,,,,,,
3494,,directmemory_phase7,2645674,,,,,,,,object_09c.png,,,50,,,,1,,object_04c.png,object_02c.png,object_13a.png,object_02c.png,,0.6530612244897959,1,,,,,,,,,,,
2876.7000000476837,,directmemory_phase7,2648555,,,,,,,,object_15a.png,,,51,,,,0,,object_12b.png,object_10b.png,object_01c.png,object_12b.png,,0.6464646464646465,0,,,,,,,,,,,
1747.5,,directmemory_phase7,2650306,,,,,,,,object_05a.png,,,50,,,,1,,object_15c.png,object_13a.png,object_02c.png,object_13a.png,,0.65,1,,,,,,,,,,,
1300.1000000238419,,directmemory_phase7,2651610,,,,,,,,object_14b.png,,,49,,,,1,,object_04a.png,object_15c.png,object_01a.png,object_04a.png,,0.6534653465346535,1,,,,,,,,,,,
1908.1000000238419,,directmemory_phase7,2653522,,,,,,,,object_04b.png,,,50,,,,1,,object_14a.png,object_15c.png,object_04a.png,object_15c.png,,0.6568627450980392,1,,,,,,,,,,,
1348.0999999642372,,directmemory_phase7,2654874,,,,,,,,object_08a.png,,,49,,,,1,,object_04c.png,object_03b.png,object_15b.png,object_04c.png,,0.6601941747572816,1,,,,,,,,,,,
1475.7000000476837,,directmemory_phase7,2656355,,,,,,,,object_06b.png,,,51,,,,1,,object_11b.png,object_04c.png,object_01a.png,object_01a.png,,0.6634615384615384,1,,,,,,,,,,,
2708.399999976158,,directmemory_phase7,2659067,,,,,,,,object_06a.png,,,50,,,,1,,object_04c.png,object_10c.png,object_12b.png,object_10c.png,,0.6666666666666666,1,,,,,,,,,,,
null,,thebreak,2659171,,,,,,,,<p></p>,,,null,,,,,,,,,,,,,,,,,,,,,,,
58694,,intro_0,2717867,,,,,,,,instruct,,,32,,,,,,,,,,,,,,,,,,,,,,,
null,,learn_phase(without_color)8,2721370,,,,,,,,black_plus_sign,,,null,,object_11b.png,object_13b.png,,,,,,,,,,,,,,,,,,,,
null,,black_cross(without_color)8,2721892,,,,,,,,green,,,null,,object_11b.png,object_13b.png,,,,,,,,,,,,,,,,,,,,
460.30000001192093,,rt_plussign_withcolor8,2722395,,,,,,,,green,,,50,,object_11b.png,object_13b.png,,,,,,,,,,,,,,,,,,,,
null,,rt_thecrossant_black8,2723879,,,,,,,,black_plus_sign,,,null,,,,1,,,,,,,1,,,,,,,,,,,,
null,,color_black8,2723982,,,,,,,,black_plus_sign,,,null,,,,,,,,,,,,,,,,,,,,,,,
null,,learn_phase(without_color)8,2727486,,,,,,,,black_plus_sign,,,null,,object_14a.png,object_12a.png,,,,,,,,,,,,,,,,,,,,
null,,black_cross(without_color)8,2728393,,,,,,,,green,,,null,,object_14a.png,object_12a.png,,,,,,,,,,,,,,,,,,,,
null,,rt_plussign_withcolor8,2728895,,,,,,,,green,,,null,,object_14a.png,object_12a.png,,,,,,,,,,,,,,,,,,,,
667.8000000119209,,rt_thecrossant_black8,2729992,,,,,,,,black_plus_sign,,,50,,,,1,,,,,,,1,,,,,,,,,,,,
null,,color_black8,2730095,,,,,,,,black_plus_sign,,,null,,,,,,,,,,,,,,,,,,,,,,,
null,,learn_phase(without_color)8,2733598,,,,,,,,black_plus_sign,,,null,,object_12b.png,object_15a.png,,,,,,,,,,,,,,,,,,,,
null,,black_cross(without_color)8,2734171,,,,,,,,green,,,null,,object_12b.png,object_15a.png,,,,,,,,,,,,,,,,,,,,
null,,rt_plussign_withcolor8,2734674,,,,,,,,green,,,null,,object_12b.png,object_15a.png,,,,,,,,,,,,,,,,,,,,
1043.300000011921,,rt_thecrossant_black8,2736108,,,,,,,,black_plus_sign,,,50,,,,1,,,,,,,1,,,,,,,,,,,,
null,,color_black8,2736211,,,,,,,,black_plus_sign,,,null,,,,,,,,,,,,,,,,,,,,,,,
null,,learn_phase(without_color)8,2739716,,,,,,,,black_plus_sign,,,null,,object_03b.png,object_02a.png,,,,,,,,,,,,,,,,,,,,
null,,black_cross(without_color)8,2740644,,,,,,,,blue,,,null,,object_03b.png,object_02a.png,,,,,,,,,,,,,,,,,,,,
null,,rt_plussign_withcolor8,2741160,,,,,,,,blue,,,null,,object_03b.png,object_02a.png,,,,,,,,,,,,,,,,,,,,
781.1000000238419,,rt_thecrossant_black8,2742238,,,,,,,,black_plus_sign,,,49,,,,1,,,,,,,1,,,,,,,,,,,,
null,,color_black8,2742341,,,,,,,,black_plus_sign,,,null,,,,,,,,,,,,,,,,,,,,,,,
null,,learn_phase(without_color)8,2745845,,,,,,,,black_plus_sign,,,null,,object_15c.png,object_04b.png,,,,,,,,,,,,,,,,,,,,
null,,black_cross(without_color)8,2746887,,,,,,,,blue,,,null,,object_15c.png,object_04b.png,,,,,,,,,,,,,,,,,,,,
null,,rt_plussign_withcolor8,2747390,,,,,,,,blue,,,null,,object_15c.png,object_04b.png,,,,,,,,,,,,,,,,,,,,
1042,,rt_thecrossant_black8,2748360,,,,,,,,black_plus_sign,,,49,,,,1,,,,,,,1,,,,,,,,,,,,
null,,color_black8,2748463,,,,,,,,black_plus_sign,,,null,,,,,,,,,,,,,,,,,,,,,,,
null,,learn_phase(without_color)8,2751968,,,,,,,,black_plus_sign,,,null,,object_10b.png,object_08b.png,,,,,,,,,,,,,,,,,,,,
null,,black_cross(without_color)8,2752655,,,,,,,,blue,,,null,,object_10b.png,object_08b.png,,,,,,,,,,,,,,,,,,,,
null,,rt_plussign_withcolor8,2753157,,,,,,,,blue,,,null,,object_10b.png,object_08b.png,,,,,,,,,,,,,,,,,,,,
1358,,rt_thecrossant_black8,2754478,,,,,,,,black_plus_sign,,,49,,,,1,,,,,,,1,,,,,,,,,,,,
null,,color_black8,2754581,,,,,,,,black_plus_sign,,,null,,,,,,,,,,,,,,,,,,,,,,,
null,,learn_phase(without_color)8,2758085,,,,,,,,black_plus_sign,,,null,,object_04c.png,object_08a.png,,,,,,,,,,,,,,,,,,,,
null,,black_cross(without_color)8,2759024,,,,,,,,blue,,,null,,object_04c.png,object_08a.png,,,,,,,,,,,,,,,,,,,,
null,,rt_plussign_withcolor8,2759526,,,,,,,,blue,,,null,,object_04c.png,object_08a.png,,,,,,,,,,,,,,,,,,,,
826,,rt_thecrossant_black8,2760593,,,,,,,,black_plus_sign,,,49,,,,1,,,,,,,1,,,,,,,,,,,,
null,,color_black8,2760696,,,,,,,,black_plus_sign,,,null,,,,,,,,,,,,,,,,,,,,,,,
null,,learn_phase(without_color)8,2764201,,,,,,,,black_plus_sign,,,null,,object_02c.png,object_09c.png,,,,,,,,,,,,,,,,,,,,
null,,black_cross(without_color)8,2765043,,,,,,,,green,,,null,,object_02c.png,object_09c.png,,,,,,,,,,,,,,,,,,,,
null,,rt_plussign_withcolor8,2765545,,,,,,,,green,,,null,,object_02c.png,object_09c.png,,,,,,,,,,,,,,,,,,,,
1171.7999999523163,,rt_thecrossant_black8,2766709,,,,,,,,black_plus_sign,,,50,,,,1,,,,,,,1,,,,,,,,,,,,
null,,color_black8,2766813,,,,,,,,black_plus_sign,,,null,,,,,,,,,,,,,,,,,,,,,,,
null,,learn_phase(without_color)8,2770318,,,,,,,,black_plus_sign,,,null,,object_04a.png,object_14b.png,,,,,,,,,,,,,,,,,,,,
null,,black_cross(without_color)8,2771229,,,,,,,,blue,,,null,,object_04a.png,object_14b.png,,,,,,,,,,,,,,,,,,,,
null,,rt_plussign_withcolor8,2771731,,,,,,,,blue,,,null,,object_04a.png,object_14b.png,,,,,,,,,,,,,,,,,,,,
968.1000000238419,,rt_thecrossant_black8,2772826,,,,,,,,black_plus_sign,,,49,,,,1,,,,,,,1,,,,,,,,,,,,
null,,color_black8,2772931,,,,,,,,black_plus_sign,,,null,,,,,,,,,,,,,,,,,,,,,,,
null,,learn_phase(without_color)8,2776435,,,,,,,,black_plus_sign,,,null,,object_10c.png,object_06a.png,,,,,,,,,,,,,,,,,,,,
null,,black_cross(without_color)8,2777166,,,,,,,,blue,,,null,,object_10c.png,object_06a.png,,,,,,,,,,,,,,,,,,,,
null,,rt_plussign_withcolor8,2777669,,,,,,,,blue,,,null,,object_10c.png,object_06a.png,,,,,,,,,,,,,,,,,,,,
1466.800000011921,,rt_thecrossant_black8,2778944,,,,,,,,black_plus_sign,,,49,,,,1,,,,,,,1,,,,,,,,,,,,
null,,color_black8,2779047,,,,,,,,black_plus_sign,,,null,,,,,,,,,,,,,,,,,,,,,,,
null,,learn_phase(without_color)8,2782551,,,,,,,,black_plus_sign,,,null,,object_15b.png,object_07b.png,,,,,,,,,,,,,,,,,,,,
null,,black_cross(without_color)8,2783229,,,,,,,,blue,,,null,,object_15b.png,object_07b.png,,,,,,,,,,,,,,,,,,,,
null,,rt_plussign_withcolor8,2783731,,,,,,,,blue,,,null,,object_15b.png,object_07b.png,,,,,,,,,,,,,,,,,,,,
912.5999999642372,,rt_thecrossant_black8,2785061,,,,,,,,black_plus_sign,,,49,,,,1,,,,,,,1,,,,,,,,,,,,
null,,color_black8,2785163,,,,,,,,black_plus_sign,,,null,,,,,,,,,,,,,,,,,,,,,,,
null,,learn_phase(without_color)8,2788667,,,,,,,,black_plus_sign,,,null,,object_13a.png,object_05a.png,,,,,,,,,,,,,,,,,,,,
null,,black_cross(without_color)8,2789734,,,,,,,,green,,,null,,object_13a.png,object_05a.png,,,,,,,,,,,,,,,,,,,,
410.80000001192093,,rt_plussign_withcolor8,2790236,,,,,,,,green,,,50,,object_13a.png,object_05a.png,,,,,,,,,,,,,,,,,,,,
null,,rt_thecrossant_black8,2791186,,,,,,,,black_plus_sign,,,null,,,,1,,,,,,,1,,,,,,,,,,,,
null,,color_black8,2791289,,,,,,,,black_plus_sign,,,null,,,,,,,,,,,,,,,,,,,,,,,
null,,learn_phase(without_color)8,2794792,,,,,,,,black_plus_sign,,,null,,object_14c.png,object_10a.png,,,,,,,,,,,,,,,,,,,,
null,,black_cross(without_color)8,2795857,,,,,,,,blue,,,null,,object_14c.png,object_10a.png,,,,,,,,,,,,,,,,,,,,
416.10000002384186,,rt_plussign_withcolor8,2796360,,,,,,,,blue,,,49,,object_14c.png,object_10a.png,,,,,,,,,,,,,,,,,,,,
null,,rt_thecrossant_black8,2797302,,,,,,,,black_plus_sign,,,null,,,,1,,,,,,,1,,,,,,,,,,,,
null,,color_black8,2797405,,,,,,,,black_plus_sign,,,null,,,,,,,,,,,,,,,,,,,,,,,
null,,learn_phase(without_color)8,2800910,,,,,,,,black_plus_sign,,,null,,object_01c.png,object_07a.png,,,,,,,,,,,,,,,,,,,,
null,,black_cross(without_color)8,2801760,,,,,,,,green,,,null,,object_01c.png,object_07a.png,,,,,,,,,,,,,,,,,,,,
null,,rt_plussign_withcolor8,2802263,,,,,,,,green,,,null,,object_01c.png,object_07a.png,,,,,,,,,,,,,,,,,,,,
1330.9000000357628,,rt_thecrossant_black8,2803419,,,,,,,,black_plus_sign,,,50,,,,1,,,,,,,1,,,,,,,,,,,,
null,,color_black8,2803524,,,,,,,,black_plus_sign,,,null,,,,,,,,,,,,,,,,,,,,,,,
