rt,responses,trial_type,time_elapsed,identifier_a,identifier_b,identifier_c,tasktype,browser_type,local_time,UTC_time,stimulus,button_pressed,response,key_press,stimulus_left,stimulus_right,accuracy,practice_cumulative_accuracy,stimulus_down_left,stimulus_down_mid,stimulus_down_right,stimulus_correct,prac_weighted_accuracy,cumulative_accuracy,failed_practice,weighted_accuracy,stimulus_middle,problems,smooth,distraction,strategies,easier,similar,comments,detectfocus,breakfocus,completion_code
9912,{worker_id:60833ce5197d68cff9df1b83},id_enter,9915,object_02a.png; object_01a.png; object_07a.png; object_05b.png; object_08c.png; object_08b.png; object_02c.png; object_04c.png; object_03a.png; object_10c.png; object_11b.png; object_11c.png; object_15a.png; object_12a.png; object_13c.png,object_06c.png; object_04b.png; object_06b.png; object_08a.png; object_03c.png; object_01b.png; object_09b.png; object_03b.png; object_04a.png; object_10a.png; object_11a.png; object_14b.png; object_13a.png; object_12b.png; object_13b.png,object_05c.png; object_01c.png; object_07b.png; object_07c.png; object_06a.png; object_02b.png; object_05a.png; object_09c.png; object_09a.png; object_10b.png; object_14c.png; object_15c.png; object_15b.png; object_12c.png; object_14a.png,blocked,Mozilla/5.0 (Windows NT 10.0; Win64; x64; rv:138.0) Gecko/20100101 Firefox/138.0,5/11/2025, 6:01:36 PM,2025-05-11 22:01:36.018,,,,,,,,,,,,,,,,,,,,,,,,,,,
15092,,make_fullscreen,25021,,,,,,,,fullscreen,0,,,,,,,,,,,,,,,,,,,,,,,,,
12332,,instruct_1,37355,,,,,,,,instruct,0,Next,,,,,,,,,,,,,,,,,,,,,,,,
9421,,instruct_2,46777,,,,,,,,instruct,1,Next,,,,,,,,,,,,,,,,,,,,,,,,
16557,,instruct_3,63337,,,,,,,,instruct,1,Next,,,,,,,,,,,,,,,,,,,,,,,,
17975,,instruct_4,81315,,,,,,,,instruct,1,Next,,,,,,,,,,,,,,,,,,,,,,,,
9695,,instruct_5,91011,,,,,,,,instruct,1,Next,,,,,,,,,,,,,,,,,,,,,,,,
3308,,instruct_6,94320,,,,,,,,instruct,1,Next,,,,,,,,,,,,,,,,,,,,,,,,
25567,,instruct_7,119888,,,,,,,,instruct,1,Next,,,,,,,,,,,,,,,,,,,,,,,,
null,,prac_atten_color_black,120442,,,,,,,,black_plus_sign,,,null,,,,,,,,,,,,,,,,,,,,,,,
595,,prac_atten_color,121311,,,,,,,,<p style='position:absolute;top: 50%;right: 50%;transform: translate(50%, -50%);font-size: 125px;color: blue;'>+</p>,,,49,,,,,,,,,,,,,,,,,,,,,,,
null,,prac_atten_color_black,123324,,,,,,,,black_plus_sign,,,null,,,,,,,,,,,,,,,,,,,,,,,
null,,prac_atten_color_black,123878,,,,,,,,black_plus_sign,,,null,,,,,,,,,,,,,,,,,,,,,,,
811,,prac_atten_color,124803,,,,,,,,<p style='position:absolute;top: 50%;right: 50%;transform: translate(50%, -50%);font-size: 125px;color: green;'>+</p>,,,50,,,,,,,,,,,,,,,,,,,,,,,
null,,prac_atten_color_black,126945,,,,,,,,black_plus_sign,,,null,,,,,,,,,,,,,,,,,,,,,,,
null,,prac_atten_color_black,127451,,,,,,,,black_plus_sign,,,null,,,,,,,,,,,,,,,,,,,,,,,
null,,prac_atten_color,127863,,,,,,,,<p style='position:absolute;top: 50%;right: 50%;transform: translate(50%, -50%);font-size: 125px;color: green;'>+</p>,,,null,,,,,,,,,,,,,,,,,,,,,,,
182,,prac_atten_color_black,129876,,,,,,,,black_plus_sign,,,50,,,,,,,,,,,,,,,,,,,,,,,
null,,prac_atten_color_black,130876,,,,,,,,black_plus_sign,,,null,,,,,,,,,,,,,,,,,,,,,,,
447,,prac_atten_color,131576,,,,,,,,<p style='position:absolute;top: 50%;right: 50%;transform: translate(50%, -50%);font-size: 125px;color: blue;'>+</p>,,,49,,,,,,,,,,,,,,,,,,,,,,,
null,,prac_atten_color_black,133590,,,,,,,,black_plus_sign,,,null,,,,,,,,,,,,,,,,,,,,,,,
null,,prac_atten_color_black,134305,,,,,,,,black_plus_sign,,,null,,,,,,,,,,,,,,,,,,,,,,,
452,,prac_atten_color,135096,,,,,,,,<p style='position:absolute;top: 50%;right: 50%;transform: translate(50%, -50%);font-size: 125px;color: green;'>+</p>,,,50,,,,,,,,,,,,,,,,,,,,,,,
null,,prac_atten_color_black,137099,,,,,,,,black_plus_sign,,,null,,,,,,,,,,,,,,,,,,,,,,,
null,,prac_atten_color_black,137732,,,,,,,,black_plus_sign,,,null,,,,,,,,,,,,,,,,,,,,,,,
450,,prac_atten_color,138701,,,,,,,,<p style='position:absolute;top: 50%;right: 50%;transform: translate(50%, -50%);font-size: 125px;color: green;'>+</p>,,,50,,,,,,,,,,,,,,,,,,,,,,,
null,,prac_atten_color_black,140716,,,,,,,,black_plus_sign,,,null,,,,,,,,,,,,,,,,,,,,,,,
null,,prac_atten_color_black,141174,,,,,,,,black_plus_sign,,,null,,,,,,,,,,,,,,,,,,,,,,,
402,,prac_atten_color,141681,,,,,,,,<p style='position:absolute;top: 50%;right: 50%;transform: translate(50%, -50%);font-size: 125px;color: blue;'>+</p>,,,49,,,,,,,,,,,,,,,,,,,,,,,
null,,prac_atten_color_black,143688,,,,,,,,black_plus_sign,,,null,,,,,,,,,,,,,,,,,,,,,,,
null,,prac_atten_color_black,144595,,,,,,,,black_plus_sign,,,null,,,,,,,,,,,,,,,,,,,,,,,
519,,prac_atten_color,145457,,,,,,,,<p style='position:absolute;top: 50%;right: 50%;transform: translate(50%, -50%);font-size: 125px;color: green;'>+</p>,,,50,,,,,,,,,,,,,,,,,,,,,,,
null,,prac_atten_color_black,147461,,,,,,,,black_plus_sign,,,null,,,,,,,,,,,,,,,,,,,,,,,
null,,prac_atten_color_black,148018,,,,,,,,black_plus_sign,,,null,,,,,,,,,,,,,,,,,,,,,,,
580,,prac_atten_color,149050,,,,,,,,<p style='position:absolute;top: 50%;right: 50%;transform: translate(50%, -50%);font-size: 125px;color: blue;'>+</p>,,,49,,,,,,,,,,,,,,,,,,,,,,,
null,,prac_atten_color_black,151060,,,,,,,,black_plus_sign,,,null,,,,,,,,,,,,,,,,,,,,,,,
null,,prac_atten_color_black,151443,,,,,,,,black_plus_sign,,,null,,,,,,,,,,,,,,,,,,,,,,,
556,,prac_atten_color,152067,,,,,,,,<p style='position:absolute;top: 50%;right: 50%;transform: translate(50%, -50%);font-size: 125px;color: blue;'>+</p>,,,49,,,,,,,,,,,,,,,,,,,,,,,
null,,prac_atten_color_black,154079,,,,,,,,black_plus_sign,,,null,,,,,,,,,,,,,,,,,,,,,,,
16679,,attentioncheck_feedback,170759,,,,,,,,cross_check_feedback,0,,,,,,,,,,,,,,,,,,,,,,,,,
12726,,last_instruct,183488,,,,,,,,instruct,,,32,,,,,,,,,,,,,,,,,,,,,,,
null,,prac_learn_phase(without_color),187167,,,,,,,,black_plus_sign,,,null,object_08b.png,object_01b.png,,,,,,,,,,,,,,,,,,,,,
null,,prac_black_cross(without_color),187754,,,,,,,,green,,,null,object_08b.png,object_01b.png,,,,,,,,,,,,,,,,,,,,,
372,,prac_rt_plussign_withcolor,188261,,,,,,,,green,,,49,object_08b.png,object_01b.png,,,,,,,,,,,,,,,,,,,,,
null,,prac_rt_thecrossant_black,189687,,,,,,,,black_plus_sign,,,50,,,0,0,,,,,,,,,,,,,,,,,,,
null,,prac_color_black,189797,,,,,,,,black_plus_sign,,,null,,,,,,,,,,,,,,,,,,,,,,,
null,,prac_learn_phase(without_color),193310,,,,,,,,black_plus_sign,,,null,object_04c.png,object_03b.png,,,,,,,,,,,,,,,,,,,,,
null,,black_cross(without_color)1,194343,,,,,,,,blue,,,null,object_08b.png,object_01b.png,,,,,,,,,,,,,,,,,,,,,
null,,prac_rt_plussign_withcolor,194850,,,,,,,,green,,,null,object_04c.png,object_03b.png,,,,,,,,,,,,,,,,,,,,,
926,,prac_rt_thecrossant_black,196107,,,,,,,,black_plus_sign,,,50,,,1,0.5,,,,,,,,,,,,,,,,,,,
null,,prac_color_black,196218,,,,,,,,black_plus_sign,,,null,,,,,,,,,,,,,,,,,,,,,,,
null,,prac_learn_phase(without_color),199726,,,,,,,,black_plus_sign,,,null,object_02c.png,object_09b.png,,,,,,,,,,,,,,,,,,,,,
null,,black_cross(without_color)1,200745,,,,,,,,blue,,,null,object_08b.png,object_01b.png,,,,,,,,,,,,,,,,,,,,,
null,,prac_rt_plussign_withcolor,201249,,,,,,,,blue,,,null,object_02c.png,object_09b.png,,,,,,,,,,,,,,,,,,,,,
969,,prac_rt_thecrossant_black,202204,,,,,,,,black_plus_sign,,,49,,,1,0.6666666666666666,,,,,,,,,,,,,,,,,,,
null,,prac_color_black,202317,,,,,,,,black_plus_sign,,,null,,,,,,,,,,,,,,,,,,,,,,,
null,,prac_learn_phase(without_color),205823,,,,,,,,black_plus_sign,,,null,object_12a.png,object_12b.png,,,,,,,,,,,,,,,,,,,,,
null,,black_cross(without_color)1,206854,,,,,,,,blue,,,null,object_08b.png,object_01b.png,,,,,,,,,,,,,,,,,,,,,
null,,prac_rt_plussign_withcolor,207367,,,,,,,,blue,,,null,object_12a.png,object_12b.png,,,,,,,,,,,,,,,,,,,,,
1469,,prac_rt_thecrossant_black,208894,,,,,,,,black_plus_sign,,,49,,,1,0.75,,,,,,,,,,,,,,,,,,,
null,,prac_color_black,209004,,,,,,,,black_plus_sign,,,null,,,,,,,,,,,,,,,,,,,,,,,
9346,,instruct_dir_01,218354,,,,,,,,instruct,0,Next,,,,,,,,,,,,,,,,,,,,,,,,
8663,,instruct_dir_2,227018,,,,,,,,instruct,1,Next,,,,,,,,,,,,,,,,,,,,,,,,
4220,,instruct_dir_3,231240,,,,,,,,instruct,1,Next,,,,,,,,,,,,,,,,,,,,,,,,
6463,,instruct_dir_4,237704,,,,,,,,instruct,1,Start,,,,,,,,,,,,,,,,,,,,,,,,
null,,thebreak,237819,,,,,,,,<p></p>,,,null,,,,,,,,,,,,,,,,,,,,,,,
2300,,intro_0,240119,,,,,,,,instruct,,,32,,,,,,,,,,,,,,,,,,,,,,,
2502,,prac_directmemory_phase,242622,,,,,,,,practice/object_04b.png,,,49,,,1,,practice/object_04a.png,practice/object_03a.png,practice/object_02a.png,practice/object_04a.png,1,1,,,,,,,,,,,,,
3445,,prac_directmemory_phase,246070,,,,,,,,practice/object_03b.png,,,51,,,0,,practice/object_03a.png,practice/object_01a.png,practice/object_02a.png,practice/object_03a.png,0,0.5,,,,,,,,,,,,,
3473,,prac_directmemory_phase,249546,,,,,,,,practice/object_01b.png,,,51,,,1,,practice/object_04a.png,practice/object_02a.png,practice/object_01a.png,practice/object_01a.png,1,0.6666666666666666,,,,,,,,,,,,,
4078,,prac_directmemory_phase,253626,,,,,,,,practice/object_02b.png,,,51,,,0,,practice/object_01a.png,practice/object_02a.png,practice/object_03a.png,practice/object_02a.png,0,0.5,,,,,,,,,,,,,
6313,,practice_feedback_force_restart,259942,,,,,,,,practice_feedback,0,,,,,,,,,,,,,1,,,,,,,,,,,,
2369,,last_instruct,262313,,,,,,,,instruct,,,32,,,,,,,,,,,,,,,,,,,,,,,
null,,prac_learn_phase(without_color),265819,,,,,,,,black_plus_sign,,,null,object_08b.png,object_01b.png,,,,,,,,,,,,,,,,,,,,,
null,,prac_black_cross(without_color),266455,,,,,,,,green,,,null,object_08b.png,object_01b.png,,,,,,,,,,,,,,,,,,,,,
null,,prac_rt_plussign_withcolor,266962,,,,,,,,green,,,null,object_08b.png,object_01b.png,,,,,,,,,,,,,,,,,,,,,
null,,prac_rt_thecrossant_black,268356,,,,,,,,black_plus_sign,,,null,,,,0.75,,,,,,,,,,,,,,,,,,,
null,,prac_color_black,268466,,,,,,,,black_plus_sign,,,null,,,,,,,,,,,,,,,,,,,,,,,
null,,prac_learn_phase(without_color),271970,,,,,,,,black_plus_sign,,,null,object_04c.png,object_03b.png,,,,,,,,,,,,,,,,,,,,,
null,,black_cross(without_color)1,273013,,,,,,,,blue,,,null,object_08b.png,object_01b.png,,,,,,,,,,,,,,,,,,,,,
null,,prac_rt_plussign_withcolor,273523,,,,,,,,green,,,null,object_04c.png,object_03b.png,,,,,,,,,,,,,,,,,,,,,
null,,prac_rt_thecrossant_black,274797,,,,,,,,black_plus_sign,,,null,,,,0.75,,,,,,,,,,,,,,,,,,,
null,,warning_page,280138,,,,,,,,warning,,,null,,,,,,,,,,,,,,,,,,,,,,,
null,,prac_color_black,280250,,,,,,,,black_plus_sign,,,null,,,,,,,,,,,,,,,,,,,,,,,
null,,prac_learn_phase(without_color),283755,,,,,,,,black_plus_sign,,,null,object_02c.png,object_09b.png,,,,,,,,,,,,,,,,,,,,,
null,,black_cross(without_color)1,284788,,,,,,,,blue,,,null,object_08b.png,object_01b.png,,,,,,,,,,,,,,,,,,,,,
null,,prac_rt_plussign_withcolor,285299,,,,,,,,blue,,,null,object_02c.png,object_09b.png,,,,,,,,,,,,,,,,,,,,,
972,,prac_rt_thecrossant_black,286833,,,,,,,,black_plus_sign,,,49,,,1,0.8,,,,,,,,,,,,,,,,,,,
null,,prac_color_black,286943,,,,,,,,black_plus_sign,,,null,,,,,,,,,,,,,,,,,,,,,,,
null,,prac_learn_phase(without_color),290447,,,,,,,,black_plus_sign,,,null,object_12a.png,object_12b.png,,,,,,,,,,,,,,,,,,,,,
null,,black_cross(without_color)1,291558,,,,,,,,blue,,,null,object_08b.png,object_01b.png,,,,,,,,,,,,,,,,,,,,,
null,,prac_rt_plussign_withcolor,292068,,,,,,,,blue,,,null,object_12a.png,object_12b.png,,,,,,,,,,,,,,,,,,,,,
844,,prac_rt_thecrossant_black,293421,,,,,,,,black_plus_sign,,,49,,,1,0.8333333333333334,,,,,,,,,,,,,,,,,,,
null,,prac_color_black,293532,,,,,,,,black_plus_sign,,,null,,,,,,,,,,,,,,,,,,,,,,,
4253,,instruct_dir_01,297788,,,,,,,,instruct,0,Next,,,,,,,,,,,,,,,,,,,,,,,,
2511,,instruct_dir_2,300300,,,,,,,,instruct,1,Next,,,,,,,,,,,,,,,,,,,,,,,,
2706,,instruct_dir_3,303007,,,,,,,,instruct,1,Next,,,,,,,,,,,,,,,,,,,,,,,,
2691,,instruct_dir_4,305699,,,,,,,,instruct,1,Start,,,,,,,,,,,,,,,,,,,,,,,,
null,,thebreak,305803,,,,,,,,<p></p>,,,null,,,,,,,,,,,,,,,,,,,,,,,
1513,,intro_0,307317,,,,,,,,instruct,,,32,,,,,,,,,,,,,,,,,,,,,,,
2003,,prac_directmemory_phase,309320,,,,,,,,practice/object_04b.png,,,49,,,1,,practice/object_04a.png,practice/object_03a.png,practice/object_02a.png,practice/object_04a.png,1,1,,,,,,,,,,,,,
3662,,prac_directmemory_phase,312985,,,,,,,,practice/object_03b.png,,,49,,,1,,practice/object_03a.png,practice/object_01a.png,practice/object_02a.png,practice/object_03a.png,1,1,,,,,,,,,,,,,
3039,,prac_directmemory_phase,316026,,,,,,,,practice/object_01b.png,,,51,,,1,,practice/object_04a.png,practice/object_02a.png,practice/object_01a.png,practice/object_01a.png,1,1,,,,,,,,,,,,,
2421,,prac_directmemory_phase,318449,,,,,,,,practice/object_02b.png,,,50,,,1,,practice/object_01a.png,practice/object_02a.png,practice/object_03a.png,practice/object_02a.png,1,1,,,,,,,,,,,,,
5315,,practice_feedback,323767,,,,,,,,practice_feedback,1,,,,,,,,,,,,,,,,,,,,,,,,,
8543,,proceed_actualTask,332310,,,,,,,,proceed_actualTask,1,Continue,,,,,,,,,,,,,,,,,,,,,,,,
5263,,last_inst,337574,,,,,,,,last_inst,,,32,,,,,,,,,,,,,,,,,,,,,,,
null,,learn_phase(without_color)1,341085,,,,,,,,black_plus_sign,,,null,object_08b.png,object_01b.png,,,,,,,,,,,,,,,,,,,,,
null,,black_cross(without_color)1,342115,,,,,,,,blue,,,null,object_08b.png,object_01b.png,,,,,,,,,,,,,,,,,,,,,
null,,rt_plussign_withcolor1,342626,,,,,,,,blue,,,null,object_08b.png,object_01b.png,,,,,,,,,,,,,,,,,,,,,
1122,,rt_thecrossant_black1,343623,,,,,,,,black_plus_sign,,,50,,,0,,,,,,,0,,,,,,,,,,,,,
null,,color_black1,343735,,,,,,,,black_plus_sign,,,null,,,,,,,,,,,,,,,,,,,,,,,
null,,learn_phase(without_color)1,347239,,,,,,,,black_plus_sign,,,null,object_04c.png,object_03b.png,,,,,,,,,,,,,,,,,,,,,
null,,black_cross(without_color)1,348054,,,,,,,,green,,,null,object_04c.png,object_03b.png,,,,,,,,,,,,,,,,,,,,,
null,,rt_plussign_withcolor1,348562,,,,,,,,green,,,null,object_04c.png,object_03b.png,,,,,,,,,,,,,,,,,,,,,
1455,,rt_thecrossant_black1,349771,,,,,,,,black_plus_sign,,,50,,,1,,,,,,,0.5,,,,,,,,,,,,,
null,,color_black1,349882,,,,,,,,black_plus_sign,,,null,,,,,,,,,,,,,,,,,,,,,,,
null,,learn_phase(without_color)1,353753,,,,,,,,black_plus_sign,,,null,object_02c.png,object_09b.png,,,,,,,,,,,,,,,,,,,,,
null,,black_cross(without_color)1,354843,,,,,,,,blue,,,null,object_02c.png,object_09b.png,,,,,,,,,,,,,,,,,,,,,
null,,rt_plussign_withcolor1,355350,,,,,,,,blue,,,null,object_02c.png,object_09b.png,,,,,,,,,,,,,,,,,,,,,
1048,,rt_thecrossant_black1,356277,,,,,,,,black_plus_sign,,,49,,,1,,,,,,,0.6666666666666666,,,,,,,,,,,,,
null,,color_black1,356388,,,,,,,,black_plus_sign,,,null,,,,,,,,,,,,,,,,,,,,,,,
null,,learn_phase(without_color)1,359902,,,,,,,,black_plus_sign,,,null,object_12a.png,object_12b.png,,,,,,,,,,,,,,,,,,,,,
null,,black_cross(without_color)1,360315,,,,,,,,green,,,null,object_12a.png,object_12b.png,,,,,,,,,,,,,,,,,,,,,
null,,rt_plussign_withcolor1,360827,,,,,,,,green,,,null,object_12a.png,object_12b.png,,,,,,,,,,,,,,,,,,,,,
1845,,rt_thecrossant_black1,362422,,,,,,,,black_plus_sign,,,50,,,1,,,,,,,0.75,,,,,,,,,,,,,
null,,color_black1,362533,,,,,,,,black_plus_sign,,,null,,,,,,,,,,,,,,,,,,,,,,,
null,,learn_phase(without_color)1,366040,,,,,,,,black_plus_sign,,,null,object_01a.png,object_04b.png,,,,,,,,,,,,,,,,,,,,,
null,,black_cross(without_color)1,366948,,,,,,,,green,,,null,object_01a.png,object_04b.png,,,,,,,,,,,,,,,,,,,,,
null,,rt_plussign_withcolor1,367458,,,,,,,,green,,,null,object_01a.png,object_04b.png,,,,,,,,,,,,,,,,,,,,,
688,,rt_thecrossant_black1,368572,,,,,,,,black_plus_sign,,,50,,,1,,,,,,,0.8,,,,,,,,,,,,,
null,,color_black1,368683,,,,,,,,black_plus_sign,,,null,,,,,,,,,,,,,,,,,,,,,,,
null,,learn_phase(without_color)1,372187,,,,,,,,black_plus_sign,,,null,object_13c.png,object_13b.png,,,,,,,,,,,,,,,,,,,,,
null,,black_cross(without_color)1,372897,,,,,,,,green,,,null,object_13c.png,object_13b.png,,,,,,,,,,,,,,,,,,,,,
null,,rt_plussign_withcolor1,373403,,,,,,,,green,,,null,object_13c.png,object_13b.png,,,,,,,,,,,,,,,,,,,,,
1369,,rt_thecrossant_black1,374706,,,,,,,,black_plus_sign,,,50,,,1,,,,,,,0.8333333333333334,,,,,,,,,,,,,
null,,color_black1,374816,,,,,,,,black_plus_sign,,,null,,,,,,,,,,,,,,,,,,,,,,,
null,,learn_phase(without_color)1,378319,,,,,,,,black_plus_sign,,,null,object_05b.png,object_08a.png,,,,,,,,,,,,,,,,,,,,,
null,,black_cross(without_color)1,379021,,,,,,,,green,,,null,object_05b.png,object_08a.png,,,,,,,,,,,,,,,,,,,,,
null,,rt_plussign_withcolor1,379528,,,,,,,,green,,,null,object_05b.png,object_08a.png,,,,,,,,,,,,,,,,,,,,,
1046,,rt_thecrossant_black1,380846,,,,,,,,black_plus_sign,,,50,,,1,,,,,,,0.8571428571428571,,,,,,,,,,,,,
null,,color_black1,380957,,,,,,,,black_plus_sign,,,null,,,,,,,,,,,,,,,,,,,,,,,
null,,learn_phase(without_color)1,384465,,,,,,,,black_plus_sign,,,null,object_15a.png,object_13a.png,,,,,,,,,,,,,,,,,,,,,
null,,black_cross(without_color)1,385531,,,,,,,,green,,,null,object_15a.png,object_13a.png,,,,,,,,,,,,,,,,,,,,,
null,,rt_plussign_withcolor1,386035,,,,,,,,green,,,null,object_15a.png,object_13a.png,,,,,,,,,,,,,,,,,,,,,
1081,,rt_thecrossant_black1,386986,,,,,,,,black_plus_sign,,,50,,,1,,,,,,,0.875,,,,,,,,,,,,,
null,,color_black1,387097,,,,,,,,black_plus_sign,,,null,,,,,,,,,,,,,,,,,,,,,,,
null,,learn_phase(without_color)1,390612,,,,,,,,black_plus_sign,,,null,object_07a.png,object_06b.png,,,,,,,,,,,,,,,,,,,,,
null,,black_cross(without_color)1,391343,,,,,,,,blue,,,null,object_07a.png,object_06b.png,,,,,,,,,,,,,,,,,,,,,
null,,rt_plussign_withcolor1,391859,,,,,,,,blue,,,null,object_07a.png,object_06b.png,,,,,,,,,,,,,,,,,,,,,
1251,,rt_thecrossant_black1,393148,,,,,,,,black_plus_sign,,,49,,,1,,,,,,,0.8888888888888888,,,,,,,,,,,,,
null,,color_black1,393261,,,,,,,,black_plus_sign,,,null,,,,,,,,,,,,,,,,,,,,,,,
null,,learn_phase(without_color)1,396779,,,,,,,,black_plus_sign,,,null,object_11b.png,object_11a.png,,,,,,,,,,,,,,,,,,,,,
null,,black_cross(without_color)1,397937,,,,,,,,green,,,null,object_11b.png,object_11a.png,,,,,,,,,,,,,,,,,,,,,
508,,rt_plussign_withcolor1,398446,,,,,,,,green,,,50,object_11b.png,object_11a.png,,,,,,,,,,,,,,,,,,,,,
null,,rt_thecrossant_black1,399401,,,,,,,,black_plus_sign,,,null,,,1,,,,,,,0.9,,,,,,,,,,,,,
null,,color_black1,399512,,,,,,,,black_plus_sign,,,null,,,,,,,,,,,,,,,,,,,,,,,
null,,learn_phase(without_color)1,403024,,,,,,,,black_plus_sign,,,null,object_10c.png,object_10a.png,,,,,,,,,,,,,,,,,,,,,
null,,black_cross(without_color)1,403717,,,,,,,,blue,,,null,object_10c.png,object_10a.png,,,,,,,,,,,,,,,,,,,,,
null,,rt_plussign_withcolor1,404227,,,,,,,,blue,,,null,object_10c.png,object_10a.png,,,,,,,,,,,,,,,,,,,,,
1448,,rt_thecrossant_black1,405556,,,,,,,,black_plus_sign,,,49,,,1,,,,,,,0.9090909090909091,,,,,,,,,,,,,
null,,color_black1,405669,,,,,,,,black_plus_sign,,,null,,,,,,,,,,,,,,,,,,,,,,,
null,,learn_phase(without_color)1,409179,,,,,,,,black_plus_sign,,,null,object_03a.png,object_04a.png,,,,,,,,,,,,,,,,,,,,,
null,,black_cross(without_color)1,409617,,,,,,,,green,,,null,object_03a.png,object_04a.png,,,,,,,,,,,,,,,,,,,,,
null,,rt_plussign_withcolor1,410123,,,,,,,,green,,,null,object_03a.png,object_04a.png,,,,,,,,,,,,,,,,,,,,,
1364,,rt_thecrossant_black1,411708,,,,,,,,black_plus_sign,,,50,,,1,,,,,,,0.9166666666666666,,,,,,,,,,,,,
null,,color_black1,411821,,,,,,,,black_plus_sign,,,null,,,,,,,,,,,,,,,,,,,,,,,
null,,learn_phase(without_color)1,415337,,,,,,,,black_plus_sign,,,null,object_11c.png,object_14b.png,,,,,,,,,,,,,,,,,,,,,
null,,black_cross(without_color)1,415751,,,,,,,,green,,,null,object_11c.png,object_14b.png,,,,,,,,,,,,,,,,,,,,,
null,,rt_plussign_withcolor1,416261,,,,,,,,green,,,null,object_11c.png,object_14b.png,,,,,,,,,,,,,,,,,,,,,
840,,rt_thecrossant_black1,417865,,,,,,,,black_plus_sign,,,50,,,1,,,,,,,0.9230769230769231,,,,,,,,,,,,,
null,,color_black1,417980,,,,,,,,black_plus_sign,,,null,,,,,,,,,,,,,,,,,,,,,,,
null,,learn_phase(without_color)1,421488,,,,,,,,black_plus_sign,,,null,object_08c.png,object_03c.png,,,,,,,,,,,,,,,,,,,,,
null,,black_cross(without_color)1,422270,,,,,,,,blue,,,null,object_08c.png,object_03c.png,,,,,,,,,,,,,,,,,,,,,
407,,rt_plussign_withcolor1,422780,,,,,,,,blue,,,49,object_08c.png,object_03c.png,,,,,,,,,,,,,,,,,,,,,
null,,rt_thecrossant_black1,424019,,,,,,,,black_plus_sign,,,null,,,1,,,,,,,0.9285714285714286,,,,,,,,,,,,,
null,,color_black1,424134,,,,,,,,black_plus_sign,,,null,,,,,,,,,,,,,,,,,,,,,,,
null,,learn_phase(without_color)1,427641,,,,,,,,black_plus_sign,,,null,object_02a.png,object_06c.png,,,,,,,,,,,,,,,,,,,,,
null,,black_cross(without_color)1,428351,,,,,,,,blue,,,null,object_02a.png,object_06c.png,,,,,,,,,,,,,,,,,,,,,
null,,rt_plussign_withcolor1,428860,,,,,,,,blue,,,null,object_02a.png,object_06c.png,,,,,,,,,,,,,,,,,,,,,
1296,,rt_thecrossant_black1,430172,,,,,,,,black_plus_sign,,,49,,,1,,,,,,,0.9333333333333333,,,,,,,,,,,,,
null,,color_black1,430283,,,,,,,,black_plus_sign,,,null,,,,,,,,,,,,,,,,,,,,,,,
null,,thebreak,430396,,,,,,,,<p></p>,,,null,,,,,,,,,,,,,,,,,,,,,,,
1556,,intro_0,431954,,,,,,,,instruct,,,32,,,,,,,,,,,,,,,,,,,,,,,
4243,,directmemory_phase1,436198,,,,,,,,object_08a.png,,,50,,,0,,object_12a.png,object_11b.png,object_05b.png,object_05b.png,,0,,0,,,,,,,,,,,
4228,,directmemory_phase1,440429,,,,,,,,object_13a.png,,,51,,,0,,object_15a.png,object_01a.png,object_05b.png,object_15a.png,,0,,0,,,,,,,,,,,
4090,,directmemory_phase1,444523,,,,,,,,object_04b.png,,,50,,,0,,object_07a.png,object_02c.png,object_01a.png,object_01a.png,,0,,0,,,,,,,,,,,
2896,,directmemory_phase1,447424,,,,,,,,object_03c.png,,,49,,,0,,object_03a.png,object_08c.png,object_07a.png,object_08c.png,,0,,0,,,,,,,,,,,
2017,,directmemory_phase1,449444,,,,,,,,object_03b.png,,,49,,,1,,object_04c.png,object_12a.png,object_03a.png,object_04c.png,,0.2,,1,,,,,,,,,,,
3607,,directmemory_phase1,453054,,,,,,,,object_09b.png,,,51,,,0,,object_02c.png,object_07a.png,object_08b.png,object_02c.png,,0.16666666666666666,,0,,,,,,,,,,,
4268,,directmemory_phase1,457325,,,,,,,,object_12b.png,,,50,,,1,,object_07a.png,object_12a.png,object_02c.png,object_12a.png,,0.2857142857142857,,1,,,,,,,,,,,
2473,,directmemory_phase1,459802,,,,,,,,object_04a.png,,,49,,,1,,object_03a.png,object_10c.png,object_01a.png,object_03a.png,,0.375,,1,,,,,,,,,,,
3186,,directmemory_phase1,462991,,,,,,,,object_14b.png,,,51,,,1,,object_03a.png,object_04c.png,object_11c.png,object_11c.png,,0.4444444444444444,,1,,,,,,,,,,,
4264,,directmemory_phase1,467259,,,,,,,,object_13b.png,,,51,,,1,,object_04c.png,object_10c.png,object_13c.png,object_13c.png,,0.5,,1,,,,,,,,,,,
3989,,directmemory_phase1,471252,,,,,,,,object_01b.png,,,49,,,0,,object_07a.png,object_11b.png,object_08b.png,object_08b.png,,0.45454545454545453,,0,,,,,,,,,,,
4173,,directmemory_phase1,475428,,,,,,,,object_10a.png,,,51,,,0,,object_05b.png,object_10c.png,object_08c.png,object_10c.png,,0.4166666666666667,,0,,,,,,,,,,,
2657,,directmemory_phase1,478087,,,,,,,,object_06c.png,,,50,,,1,,object_01a.png,object_02a.png,object_15a.png,object_02a.png,,0.46153846153846156,,1,,,,,,,,,,,
3949,,directmemory_phase1,482038,,,,,,,,object_11a.png,,,50,,,1,,object_12a.png,object_11b.png,object_03a.png,object_11b.png,,0.5,,1,,,,,,,,,,,
3321,,directmemory_phase1,485363,,,,,,,,object_06b.png,,,49,,,0,,object_15a.png,object_10c.png,object_07a.png,object_07a.png,,0.4666666666666667,,0,,,,,,,,,,,
null,,thebreak,485476,,,,,,,,<p></p>,,,null,,,,,,,,,,,,,,,,,,,,,,,
4189,,intro_0,489667,,,,,,,,instruct,,,32,,,,,,,,,,,,,,,,,,,,,,,
null,,learn_phase(without_color)2,493180,,,,,,,,black_plus_sign,,,null,object_03a.png,object_04a.png,,,,,,,,,,,,,,,,,,,,,
null,,black_cross(without_color)2,494102,,,,,,,,blue,,,null,object_03a.png,object_04a.png,,,,,,,,,,,,,,,,,,,,,
null,,rt_plussign_withcolor2,494609,,,,,,,,blue,,,null,object_03a.png,object_04a.png,,,,,,,,,,,,,,,,,,,,,
null,,rt_thecrossant_black2,495736,,,,,,,,black_plus_sign,,,null,,,,,,,,,,NaN,,,,,,,,,,,,,
null,,color_black2,495847,,,,,,,,black_plus_sign,,,null,,,,,,,,,,,,,,,,,,,,,,,
null,,learn_phase(without_color)2,499361,,,,,,,,black_plus_sign,,,null,object_02a.png,object_06c.png,,,,,,,,,,,,,,,,,,,,,
null,,black_cross(without_color)2,500392,,,,,,,,green,,,null,object_02a.png,object_06c.png,,,,,,,,,,,,,,,,,,,,,
null,,rt_plussign_withcolor2,500905,,,,,,,,green,,,null,object_02a.png,object_06c.png,,,,,,,,,,,,,,,,,,,,,
1132,,rt_thecrossant_black2,501981,,,,,,,,black_plus_sign,,,50,,,1,,,,,,,1,,,,,,,,,,,,,
null,,color_black2,502092,,,,,,,,black_plus_sign,,,null,,,,,,,,,,,,,,,,,,,,,,,
null,,learn_phase(without_color)2,505608,,,,,,,,black_plus_sign,,,null,object_04c.png,object_03b.png,,,,,,,,,,,,,,,,,,,,,
null,,black_cross(without_color)2,506405,,,,,,,,blue,,,null,object_04c.png,object_03b.png,,,,,,,,,,,,,,,,,,,,,
null,,rt_plussign_withcolor2,506912,,,,,,,,blue,,,null,object_04c.png,object_03b.png,,,,,,,,,,,,,,,,,,,,,
1296,,rt_thecrossant_black2,508131,,,,,,,,black_plus_sign,,,49,,,1,,,,,,,1,,,,,,,,,,,,,
null,,color_black2,508243,,,,,,,,black_plus_sign,,,null,,,,,,,,,,,,,,,,,,,,,,,
null,,learn_phase(without_color)2,511750,,,,,,,,black_plus_sign,,,null,object_12a.png,object_12b.png,,,,,,,,,,,,,,,,,,,,,
null,,black_cross(without_color)2,512289,,,,,,,,green,,,null,object_12a.png,object_12b.png,,,,,,,,,,,,,,,,,,,,,
null,,rt_plussign_withcolor2,512796,,,,,,,,green,,,null,object_12a.png,object_12b.png,,,,,,,,,,,,,,,,,,,,,
915,,rt_thecrossant_black2,514284,,,,,,,,black_plus_sign,,,50,,,1,,,,,,,1,,,,,,,,,,,,,
null,,color_black2,514394,,,,,,,,black_plus_sign,,,null,,,,,,,,,,,,,,,,,,,,,,,
null,,learn_phase(without_color)2,518305,,,,,,,,black_plus_sign,,,null,object_10c.png,object_10a.png,,,,,,,,,,,,,,,,,,,,,
null,,black_cross(without_color)2,518938,,,,,,,,green,,,null,object_10c.png,object_10a.png,,,,,,,,,,,,,,,,,,,,,
null,,rt_plussign_withcolor2,519444,,,,,,,,green,,,null,object_10c.png,object_10a.png,,,,,,,,,,,,,,,,,,,,,
793,,rt_thecrossant_black2,520829,,,,,,,,black_plus_sign,,,50,,,1,,,,,,,1,,,,,,,,,,,,,
null,,color_black2,520940,,,,,,,,black_plus_sign,,,null,,,,,,,,,,,,,,,,,,,,,,,
null,,learn_phase(without_color)2,524448,,,,,,,,black_plus_sign,,,null,object_08b.png,object_01b.png,,,,,,,,,,,,,,,,,,,,,
null,,black_cross(without_color)2,525336,,,,,,,,green,,,null,object_08b.png,object_01b.png,,,,,,,,,,,,,,,,,,,,,
null,,rt_plussign_withcolor2,525843,,,,,,,,green,,,null,object_08b.png,object_01b.png,,,,,,,,,,,,,,,,,,,,,
870,,rt_thecrossant_black2,527000,,,,,,,,black_plus_sign,,,50,,,1,,,,,,,1,,,,,,,,,,,,,
null,,color_black2,527112,,,,,,,,black_plus_sign,,,null,,,,,,,,,,,,,,,,,,,,,,,
null,,learn_phase(without_color)2,530885,,,,,,,,black_plus_sign,,,null,object_11b.png,object_11a.png,,,,,,,,,,,,,,,,,,,,,
null,,black_cross(without_color)2,531615,,,,,,,,green,,,null,object_11b.png,object_11a.png,,,,,,,,,,,,,,,,,,,,,
null,,rt_plussign_withcolor2,532127,,,,,,,,green,,,null,object_11b.png,object_11a.png,,,,,,,,,,,,,,,,,,,,,
1075,,rt_thecrossant_black2,533415,,,,,,,,black_plus_sign,,,50,,,1,,,,,,,1,,,,,,,,,,,,,
null,,color_black2,533526,,,,,,,,black_plus_sign,,,null,,,,,,,,,,,,,,,,,,,,,,,
null,,learn_phase(without_color)2,537044,,,,,,,,black_plus_sign,,,null,object_07a.png,object_06b.png,,,,,,,,,,,,,,,,,,,,,
null,,black_cross(without_color)2,537520,,,,,,,,green,,,null,object_07a.png,object_06b.png,,,,,,,,,,,,,,,,,,,,,
null,,rt_plussign_withcolor2,538028,,,,,,,,green,,,null,object_07a.png,object_06b.png,,,,,,,,,,,,,,,,,,,,,
939,,rt_thecrossant_black2,539568,,,,,,,,black_plus_sign,,,50,,,1,,,,,,,1,,,,,,,,,,,,,
null,,color_black2,539680,,,,,,,,black_plus_sign,,,null,,,,,,,,,,,,,,,,,,,,,,,
null,,learn_phase(without_color)2,543188,,,,,,,,black_plus_sign,,,null,object_15a.png,object_13a.png,,,,,,,,,,,,,,,,,,,,,
null,,black_cross(without_color)2,543729,,,,,,,,blue,,,null,object_15a.png,object_13a.png,,,,,,,,,,,,,,,,,,,,,
null,,rt_plussign_withcolor2,544239,,,,,,,,blue,,,null,object_15a.png,object_13a.png,,,,,,,,,,,,,,,,,,,,,
906,,rt_thecrossant_black2,545727,,,,,,,,black_plus_sign,,,49,,,1,,,,,,,1,,,,,,,,,,,,,
null,,color_black2,545838,,,,,,,,black_plus_sign,,,null,,,,,,,,,,,,,,,,,,,,,,,
null,,learn_phase(without_color)2,549482,,,,,,,,black_plus_sign,,,null,object_08c.png,object_03c.png,,,,,,,,,,,,,,,,,,,,,
null,,black_cross(without_color)2,550166,,,,,,,,blue,,,null,object_08c.png,object_03c.png,,,,,,,,,,,,,,,,,,,,,
null,,rt_plussign_withcolor2,550676,,,,,,,,blue,,,null,object_08c.png,object_03c.png,,,,,,,,,,,,,,,,,,,,,
1065,,rt_thecrossant_black2,552009,,,,,,,,black_plus_sign,,,49,,,1,,,,,,,1,,,,,,,,,,,,,
null,,color_black2,552119,,,,,,,,black_plus_sign,,,null,,,,,,,,,,,,,,,,,,,,,,,
null,,learn_phase(without_color)2,555837,,,,,,,,black_plus_sign,,,null,object_02c.png,object_09b.png,,,,,,,,,,,,,,,,,,,,,
null,,black_cross(without_color)2,556364,,,,,,,,green,,,null,object_02c.png,object_09b.png,,,,,,,,,,,,,,,,,,,,,
null,,rt_plussign_withcolor2,556873,,,,,,,,green,,,null,object_02c.png,object_09b.png,,,,,,,,,,,,,,,,,,,,,
916,,rt_thecrossant_black2,558355,,,,,,,,black_plus_sign,,,50,,,1,,,,,,,1,,,,,,,,,,,,,
null,,color_black2,558464,,,,,,,,black_plus_sign,,,null,,,,,,,,,,,,,,,,,,,,,,,
null,,learn_phase(without_color)2,561971,,,,,,,,black_plus_sign,,,null,object_13c.png,object_13b.png,,,,,,,,,,,,,,,,,,,,,
null,,black_cross(without_color)2,562561,,,,,,,,blue,,,null,object_13c.png,object_13b.png,,,,,,,,,,,,,,,,,,,,,
null,,rt_plussign_withcolor2,563076,,,,,,,,blue,,,null,object_13c.png,object_13b.png,,,,,,,,,,,,,,,,,,,,,
853,,rt_thecrossant_black2,564565,,,,,,,,black_plus_sign,,,49,,,1,,,,,,,1,,,,,,,,,,,,,
null,,color_black2,564677,,,,,,,,black_plus_sign,,,null,,,,,,,,,,,,,,,,,,,,,,,
null,,learn_phase(without_color)2,568306,,,,,,,,black_plus_sign,,,null,object_11c.png,object_14b.png,,,,,,,,,,,,,,,,,,,,,
null,,black_cross(without_color)2,568878,,,,,,,,green,,,null,object_11c.png,object_14b.png,,,,,,,,,,,,,,,,,,,,,
null,,rt_plussign_withcolor2,569387,,,,,,,,green,,,null,object_11c.png,object_14b.png,,,,,,,,,,,,,,,,,,,,,
702,,rt_thecrossant_black2,570838,,,,,,,,black_plus_sign,,,50,,,1,,,,,,,1,,,,,,,,,,,,,
null,,color_black2,570950,,,,,,,,black_plus_sign,,,null,,,,,,,,,,,,,,,,,,,,,,,
null,,learn_phase(without_color)2,574458,,,,,,,,black_plus_sign,,,null,object_05b.png,object_08a.png,,,,,,,,,,,,,,,,,,,,,
null,,black_cross(without_color)2,575235,,,,,,,,green,,,null,object_05b.png,object_08a.png,,,,,,,,,,,,,,,,,,,,,
null,,rt_plussign_withcolor2,575743,,,,,,,,green,,,null,object_05b.png,object_08a.png,,,,,,,,,,,,,,,,,,,,,
777,,rt_thecrossant_black2,576985,,,,,,,,black_plus_sign,,,50,,,1,,,,,,,1,,,,,,,,,,,,,
null,,color_black2,577096,,,,,,,,black_plus_sign,,,null,,,,,,,,,,,,,,,,,,,,,,,
null,,learn_phase(without_color)2,580613,,,,,,,,black_plus_sign,,,null,object_01a.png,object_04b.png,,,,,,,,,,,,,,,,,,,,,
null,,black_cross(without_color)2,581345,,,,,,,,blue,,,null,object_01a.png,object_04b.png,,,,,,,,,,,,,,,,,,,,,
null,,rt_plussign_withcolor2,581854,,,,,,,,blue,,,null,object_01a.png,object_04b.png,,,,,,,,,,,,,,,,,,,,,
1360,,rt_thecrossant_black2,583139,,,,,,,,black_plus_sign,,,49,,,1,,,,,,,1,,,,,,,,,,,,,
null,,color_black2,583250,,,,,,,,black_plus_sign,,,null,,,,,,,,,,,,,,,,,,,,,,,
null,,thebreak,583360,,,,,,,,<p></p>,,,null,,,,,,,,,,,,,,,,,,,,,,,
1690,,intro_0,585053,,,,,,,,instruct,,,32,,,,,,,,,,,,,,,,,,,,,,,
3704,,directmemory_phase2,588758,,,,,,,,object_09b.png,,,51,,,1,,object_04c.png,object_10c.png,object_02c.png,object_02c.png,,0.5,,1,,,,,,,,,,,
2009,,directmemory_phase2,590770,,,,,,,,object_04a.png,,,49,,,1,,object_03a.png,object_08c.png,object_15a.png,object_03a.png,,0.5294117647058824,,1,,,,,,,,,,,
2043,,directmemory_phase2,592815,,,,,,,,object_06c.png,,,49,,,1,,object_02a.png,object_03a.png,object_05b.png,object_02a.png,,0.5555555555555556,,1,,,,,,,,,,,
3756,,directmemory_phase2,596574,,,,,,,,object_12b.png,,,50,,,1,,object_03a.png,object_12a.png,object_07a.png,object_12a.png,,0.5789473684210527,,1,,,,,,,,,,,
2510,,directmemory_phase2,599088,,,,,,,,object_03c.png,,,51,,,1,,object_01a.png,object_10c.png,object_08c.png,object_08c.png,,0.6,,1,,,,,,,,,,,
3183,,directmemory_phase2,602274,,,,,,,,object_11a.png,,,49,,,1,,object_11b.png,object_05b.png,object_08b.png,object_11b.png,,0.6190476190476191,,1,,,,,,,,,,,
3532,,directmemory_phase2,605808,,,,,,,,object_10a.png,,,50,,,1,,object_01a.png,object_10c.png,object_08b.png,object_10c.png,,0.6363636363636364,,1,,,,,,,,,,,
3490,,directmemory_phase2,609301,,,,,,,,object_04b.png,,,51,,,1,,object_10c.png,object_04c.png,object_01a.png,object_01a.png,,0.6521739130434783,,1,,,,,,,,,,,
3929,,directmemory_phase2,613233,,,,,,,,object_13b.png,,,49,,,0,,object_08c.png,object_13c.png,object_12a.png,object_13c.png,,0.625,,0,,,,,,,,,,,
1804,,directmemory_phase2,615039,,,,,,,,object_03b.png,,,50,,,1,,object_08c.png,object_04c.png,object_03a.png,object_04c.png,,0.64,,1,,,,,,,,,,,
1984,,directmemory_phase2,617027,,,,,,,,object_01b.png,,,50,,,1,,object_02c.png,object_08b.png,object_07a.png,object_08b.png,,0.6538461538461539,,1,,,,,,,,,,,
3756,,directmemory_phase2,620786,,,,,,,,object_13a.png,,,50,,,1,,object_11c.png,object_15a.png,object_04c.png,object_15a.png,,0.6666666666666666,,1,,,,,,,,,,,
2231,,directmemory_phase2,623021,,,,,,,,object_06b.png,,,49,,,1,,object_07a.png,object_04c.png,object_08c.png,object_07a.png,,0.6785714285714286,,1,,,,,,,,,,,
4343,,directmemory_phase2,627366,,,,,,,,object_08a.png,,,50,,,1,,object_15a.png,object_05b.png,object_08b.png,object_05b.png,,0.6896551724137931,,1,,,,,,,,,,,
1984,,directmemory_phase2,629354,,,,,,,,object_14b.png,,,50,,,1,,object_04c.png,object_11c.png,object_02a.png,object_11c.png,,0.7,,1,,,,,,,,,,,
null,,thebreak,629461,,,,,,,,<p></p>,,,null,,,,,,,,,,,,,,,,,,,,,,,
2468,,intro_0,631931,,,,,,,,instruct,,,32,,,,,,,,,,,,,,,,,,,,,,,
null,,learn_phase(without_color)3,635503,,,,,,,,black_plus_sign,,,null,object_11b.png,object_11a.png,,,,,,,,,,,,,,,,,,,,,
null,,black_cross(without_color)3,636075,,,,,,,,green,,,null,object_11b.png,object_11a.png,,,,,,,,,,,,,,,,,,,,,
475,,rt_plussign_withcolor3,636582,,,,,,,,green,,,50,object_11b.png,object_11a.png,,,,,,,,,,,,,,,,,,,,,
null,,rt_thecrossant_black3,638040,,,,,,,,black_plus_sign,,,null,,,1,,,,,,,1,,,,,,,,,,,,,
null,,color_black3,638150,,,,,,,,black_plus_sign,,,null,,,,,,,,,,,,,,,,,,,,,,,
null,,learn_phase(without_color)3,641666,,,,,,,,black_plus_sign,,,null,object_02c.png,object_09b.png,,,,,,,,,,,,,,,,,,,,,
null,,black_cross(without_color)3,642452,,,,,,,,green,,,null,object_02c.png,object_09b.png,,,,,,,,,,,,,,,,,,,,,
null,,rt_plussign_withcolor3,642956,,,,,,,,green,,,null,object_02c.png,object_09b.png,,,,,,,,,,,,,,,,,,,,,
900,,rt_thecrossant_black3,644191,,,,,,,,black_plus_sign,,,50,,,1,,,,,,,1,,,,,,,,,,,,,
null,,color_black3,644303,,,,,,,,black_plus_sign,,,null,,,,,,,,,,,,,,,,,,,,,,,
null,,learn_phase(without_color)3,647815,,,,,,,,black_plus_sign,,,null,object_13c.png,object_13b.png,,,,,,,,,,,,,,,,,,,,,
null,,black_cross(without_color)3,648244,,,,,,,,blue,,,null,object_13c.png,object_13b.png,,,,,,,,,,,,,,,,,,,,,
null,,rt_plussign_withcolor3,648756,,,,,,,,blue,,,null,object_13c.png,object_13b.png,,,,,,,,,,,,,,,,,,,,,
1480,,rt_thecrossant_black3,650351,,,,,,,,black_plus_sign,,,49,,,1,,,,,,,1,,,,,,,,,,,,,
null,,color_black3,650462,,,,,,,,black_plus_sign,,,null,,,,,,,,,,,,,,,,,,,,,,,
null,,learn_phase(without_color)3,653973,,,,,,,,black_plus_sign,,,null,object_07a.png,object_06b.png,,,,,,,,,,,,,,,,,,,,,
null,,black_cross(without_color)3,655062,,,,,,,,blue,,,null,object_07a.png,object_06b.png,,,,,,,,,,,,,,,,,,,,,
null,,rt_plussign_withcolor3,655571,,,,,,,,blue,,,null,object_07a.png,object_06b.png,,,,,,,,,,,,,,,,,,,,,
658,,rt_thecrossant_black3,656497,,,,,,,,black_plus_sign,,,49,,,1,,,,,,,1,,,,,,,,,,,,,
null,,color_black3,656606,,,,,,,,black_plus_sign,,,null,,,,,,,,,,,,,,,,,,,,,,,
null,,learn_phase(without_color)3,660121,,,,,,,,black_plus_sign,,,null,object_02a.png,object_06c.png,,,,,,,,,,,,,,,,,,,,,
null,,black_cross(without_color)3,660976,,,,,,,,green,,,null,object_02a.png,object_06c.png,,,,,,,,,,,,,,,,,,,,,
null,,rt_plussign_withcolor3,661485,,,,,,,,green,,,null,object_02a.png,object_06c.png,,,,,,,,,,,,,,,,,,,,,
1338,,rt_thecrossant_black3,662657,,,,,,,,black_plus_sign,,,50,,,1,,,,,,,1,,,,,,,,,,,,,
null,,color_black3,662767,,,,,,,,black_plus_sign,,,null,,,,,,,,,,,,,,,,,,,,,,,
null,,learn_phase(without_color)3,666281,,,,,,,,black_plus_sign,,,null,object_08b.png,object_01b.png,,,,,,,,,,,,,,,,,,,,,
null,,black_cross(without_color)3,666787,,,,,,,,green,,,null,object_08b.png,object_01b.png,,,,,,,,,,,,,,,,,,,,,
null,,rt_plussign_withcolor3,667291,,,,,,,,green,,,null,object_08b.png,object_01b.png,,,,,,,,,,,,,,,,,,,,,
1269,,rt_thecrossant_black3,668795,,,,,,,,black_plus_sign,,,50,,,1,,,,,,,1,,,,,,,,,,,,,
null,,color_black3,668906,,,,,,,,black_plus_sign,,,null,,,,,,,,,,,,,,,,,,,,,,,
null,,learn_phase(without_color)3,672422,,,,,,,,black_plus_sign,,,null,object_10c.png,object_10a.png,,,,,,,,,,,,,,,,,,,,,
null,,black_cross(without_color)3,673267,,,,,,,,blue,,,null,object_10c.png,object_10a.png,,,,,,,,,,,,,,,,,,,,,
null,,rt_plussign_withcolor3,673773,,,,,,,,blue,,,null,object_10c.png,object_10a.png,,,,,,,,,,,,,,,,,,,,,
654,,rt_thecrossant_black3,674949,,,,,,,,black_plus_sign,,,49,,,1,,,,,,,1,,,,,,,,,,,,,
null,,color_black3,675061,,,,,,,,black_plus_sign,,,null,,,,,,,,,,,,,,,,,,,,,,,
null,,learn_phase(without_color)3,678574,,,,,,,,black_plus_sign,,,null,object_01a.png,object_04b.png,,,,,,,,,,,,,,,,,,,,,
null,,black_cross(without_color)3,679368,,,,,,,,green,,,null,object_01a.png,object_04b.png,,,,,,,,,,,,,,,,,,,,,
null,,rt_plussign_withcolor3,679877,,,,,,,,green,,,null,object_01a.png,object_04b.png,,,,,,,,,,,,,,,,,,,,,
1167,,rt_thecrossant_black3,681099,,,,,,,,black_plus_sign,,,50,,,1,,,,,,,1,,,,,,,,,,,,,
null,,color_black3,681211,,,,,,,,black_plus_sign,,,null,,,,,,,,,,,,,,,,,,,,,,,
null,,learn_phase(without_color)3,684714,,,,,,,,black_plus_sign,,,null,object_04c.png,object_03b.png,,,,,,,,,,,,,,,,,,,,,
null,,black_cross(without_color)3,685381,,,,,,,,blue,,,null,object_04c.png,object_03b.png,,,,,,,,,,,,,,,,,,,,,
null,,rt_plussign_withcolor3,685891,,,,,,,,blue,,,null,object_04c.png,object_03b.png,,,,,,,,,,,,,,,,,,,,,
1029,,rt_thecrossant_black3,687251,,,,,,,,black_plus_sign,,,49,,,1,,,,,,,1,,,,,,,,,,,,,
null,,color_black3,687361,,,,,,,,black_plus_sign,,,null,,,,,,,,,,,,,,,,,,,,,,,
null,,learn_phase(without_color)3,690871,,,,,,,,black_plus_sign,,,null,object_08c.png,object_03c.png,,,,,,,,,,,,,,,,,,,,,
null,,black_cross(without_color)3,691379,,,,,,,,green,,,null,object_08c.png,object_03c.png,,,,,,,,,,,,,,,,,,,,,
null,,rt_plussign_withcolor3,691886,,,,,,,,green,,,null,object_08c.png,object_03c.png,,,,,,,,,,,,,,,,,,,,,
974,,rt_thecrossant_black3,693414,,,,,,,,black_plus_sign,,,50,,,1,,,,,,,1,,,,,,,,,,,,,
null,,color_black3,693526,,,,,,,,black_plus_sign,,,null,,,,,,,,,,,,,,,,,,,,,,,
null,,learn_phase(without_color)3,697035,,,,,,,,black_plus_sign,,,null,object_11c.png,object_14b.png,,,,,,,,,,,,,,,,,,,,,
null,,black_cross(without_color)3,697873,,,,,,,,green,,,null,object_11c.png,object_14b.png,,,,,,,,,,,,,,,,,,,,,
null,,rt_plussign_withcolor3,698377,,,,,,,,green,,,null,object_11c.png,object_14b.png,,,,,,,,,,,,,,,,,,,,,
885,,rt_thecrossant_black3,699565,,,,,,,,black_plus_sign,,,50,,,1,,,,,,,1,,,,,,,,,,,,,
null,,color_black3,699676,,,,,,,,black_plus_sign,,,null,,,,,,,,,,,,,,,,,,,,,,,
null,,learn_phase(without_color)3,703194,,,,,,,,black_plus_sign,,,null,object_15a.png,object_13a.png,,,,,,,,,,,,,,,,,,,,,
null,,black_cross(without_color)3,704115,,,,,,,,blue,,,null,object_15a.png,object_13a.png,,,,,,,,,,,,,,,,,,,,,
null,,rt_plussign_withcolor3,704619,,,,,,,,blue,,,null,object_15a.png,object_13a.png,,,,,,,,,,,,,,,,,,,,,
1066,,rt_thecrossant_black3,705725,,,,,,,,black_plus_sign,,,49,,,1,,,,,,,1,,,,,,,,,,,,,
null,,color_black3,705837,,,,,,,,black_plus_sign,,,null,,,,,,,,,,,,,,,,,,,,,,,
null,,learn_phase(without_color)3,709354,,,,,,,,black_plus_sign,,,null,object_05b.png,object_08a.png,,,,,,,,,,,,,,,,,,,,,
null,,black_cross(without_color)3,710454,,,,,,,,green,,,null,object_05b.png,object_08a.png,,,,,,,,,,,,,,,,,,,,,
null,,rt_plussign_withcolor3,710965,,,,,,,,green,,,null,object_05b.png,object_08a.png,,,,,,,,,,,,,,,,,,,,,
1195,,rt_thecrossant_black3,711887,,,,,,,,black_plus_sign,,,50,,,1,,,,,,,1,,,,,,,,,,,,,
null,,color_black3,711998,,,,,,,,black_plus_sign,,,null,,,,,,,,,,,,,,,,,,,,,,,
null,,learn_phase(without_color)3,715509,,,,,,,,black_plus_sign,,,null,object_03a.png,object_04a.png,,,,,,,,,,,,,,,,,,,,,
null,,black_cross(without_color)3,716033,,,,,,,,green,,,null,object_03a.png,object_04a.png,,,,,,,,,,,,,,,,,,,,,
null,,rt_plussign_withcolor3,716542,,,,,,,,green,,,null,object_03a.png,object_04a.png,,,,,,,,,,,,,,,,,,,,,
1392,,rt_thecrossant_black3,718029,,,,,,,,black_plus_sign,,,50,,,1,,,,,,,1,,,,,,,,,,,,,
null,,color_black3,718140,,,,,,,,black_plus_sign,,,null,,,,,,,,,,,,,,,,,,,,,,,
null,,learn_phase(without_color)3,721658,,,,,,,,black_plus_sign,,,null,object_12a.png,object_12b.png,,,,,,,,,,,,,,,,,,,,,
null,,black_cross(without_color)3,722506,,,,,,,,blue,,,null,object_12a.png,object_12b.png,,,,,,,,,,,,,,,,,,,,,
null,,rt_plussign_withcolor3,723017,,,,,,,,blue,,,null,object_12a.png,object_12b.png,,,,,,,,,,,,,,,,,,,,,
798,,rt_thecrossant_black3,724186,,,,,,,,black_plus_sign,,,49,,,1,,,,,,,1,,,,,,,,,,,,,
null,,color_black3,724297,,,,,,,,black_plus_sign,,,null,,,,,,,,,,,,,,,,,,,,,,,
null,,thebreak,724410,,,,,,,,<p></p>,,,null,,,,,,,,,,,,,,,,,,,,,,,
1535,,intro_0,725945,,,,,,,,instruct,,,32,,,,,,,,,,,,,,,,,,,,,,,
1863,,directmemory_phase3,727809,,,,,,,,object_04b.png,,,50,,,1,,object_07a.png,object_01a.png,object_04c.png,object_01a.png,,0.7096774193548387,,1,,,,,,,,,,,
1982,,directmemory_phase3,729795,,,,,,,,object_04a.png,,,50,,,1,,object_01a.png,object_03a.png,object_02c.png,object_03a.png,,0.71875,,1,,,,,,,,,,,
3196,,directmemory_phase3,732994,,,,,,,,object_11a.png,,,49,,,1,,object_11b.png,object_04c.png,object_08c.png,object_11b.png,,0.7272727272727273,,1,,,,,,,,,,,
1743,,directmemory_phase3,734740,,,,,,,,object_01b.png,,,50,,,1,,object_01a.png,object_08b.png,object_04c.png,object_08b.png,,0.7352941176470589,,1,,,,,,,,,,,
2378,,directmemory_phase3,737121,,,,,,,,object_12b.png,,,49,,,1,,object_12a.png,object_01a.png,object_08b.png,object_12a.png,,0.7428571428571429,,1,,,,,,,,,,,
2170,,directmemory_phase3,739294,,,,,,,,object_08a.png,,,49,,,1,,object_05b.png,object_01a.png,object_10c.png,object_05b.png,,0.75,,1,,,,,,,,,,,
1840,,directmemory_phase3,741136,,,,,,,,object_14b.png,,,51,,,1,,object_11b.png,object_08b.png,object_11c.png,object_11c.png,,0.7567567567567568,,1,,,,,,,,,,,
1655,,directmemory_phase3,742793,,,,,,,,object_10a.png,,,50,,,1,,object_11c.png,object_10c.png,object_08b.png,object_10c.png,,0.7631578947368421,,1,,,,,,,,,,,
3132,,directmemory_phase3,745927,,,,,,,,object_03c.png,,,49,,,1,,object_08c.png,object_04c.png,object_03a.png,object_08c.png,,0.7692307692307693,,1,,,,,,,,,,,
1863,,directmemory_phase3,747795,,,,,,,,object_03b.png,,,50,,,1,,object_10c.png,object_04c.png,object_11b.png,object_04c.png,,0.775,,1,,,,,,,,,,,
2393,,directmemory_phase3,750190,,,,,,,,object_13b.png,,,51,,,1,,object_11c.png,object_12a.png,object_13c.png,object_13c.png,,0.7804878048780488,,1,,,,,,,,,,,
1536,,directmemory_phase3,751728,,,,,,,,object_06c.png,,,49,,,1,,object_02a.png,object_11c.png,object_11b.png,object_02a.png,,0.7857142857142857,,1,,,,,,,,,,,
2584,,directmemory_phase3,754314,,,,,,,,object_09b.png,,,49,,,1,,object_02c.png,object_01a.png,object_08c.png,object_02c.png,,0.7906976744186046,,1,,,,,,,,,,,
1693,,directmemory_phase3,756011,,,,,,,,object_06b.png,,,49,,,1,,object_07a.png,object_12a.png,object_11b.png,object_07a.png,,0.7954545454545454,,1,,,,,,,,,,,
2199,,directmemory_phase3,758213,,,,,,,,object_13a.png,,,51,,,1,,object_08b.png,object_03a.png,object_15a.png,object_15a.png,,0.8,,1,,,,,,,,,,,
null,,thebreak,758320,,,,,,,,<p></p>,,,null,,,,,,,,,,,,,,,,,,,,,,,
2560,,intro_0,760881,,,,,,,,instruct,,,32,,,,,,,,,,,,,,,,,,,,,,,
null,,learn_phase(without_color)4,764391,,,,,,,,black_plus_sign,,,null,object_11c.png,object_14b.png,,,,,,,,,,,,,,,,,,,,,
null,,black_cross(without_color)4,765323,,,,,,,,blue,,,null,object_11c.png,object_14b.png,,,,,,,,,,,,,,,,,,,,,
null,,rt_plussign_withcolor4,765831,,,,,,,,blue,,,null,object_11c.png,object_14b.png,,,,,,,,,,,,,,,,,,,,,
1094,,rt_thecrossant_black4,766914,,,,,,,,black_plus_sign,,,49,,,1,,,,,,,1,,,,,,,,,,,,,
null,,color_black4,767025,,,,,,,,black_plus_sign,,,null,,,,,,,,,,,,,,,,,,,,,,,
null,,learn_phase(without_color)4,770531,,,,,,,,black_plus_sign,,,null,object_10c.png,object_10a.png,,,,,,,,,,,,,,,,,,,,,
null,,black_cross(without_color)4,771551,,,,,,,,blue,,,null,object_10c.png,object_10a.png,,,,,,,,,,,,,,,,,,,,,
null,,rt_plussign_withcolor4,772058,,,,,,,,blue,,,null,object_10c.png,object_10a.png,,,,,,,,,,,,,,,,,,,,,
1088,,rt_thecrossant_black4,773059,,,,,,,,black_plus_sign,,,49,,,1,,,,,,,1,,,,,,,,,,,,,
null,,color_black4,773169,,,,,,,,black_plus_sign,,,null,,,,,,,,,,,,,,,,,,,,,,,
null,,learn_phase(without_color)4,776680,,,,,,,,black_plus_sign,,,null,object_03a.png,object_04a.png,,,,,,,,,,,,,,,,,,,,,
null,,black_cross(without_color)4,777567,,,,,,,,green,,,null,object_03a.png,object_04a.png,,,,,,,,,,,,,,,,,,,,,
null,,rt_plussign_withcolor4,778075,,,,,,,,green,,,null,object_03a.png,object_04a.png,,,,,,,,,,,,,,,,,,,,,
1261,,rt_thecrossant_black4,779201,,,,,,,,black_plus_sign,,,50,,,1,,,,,,,1,,,,,,,,,,,,,
null,,color_black4,779312,,,,,,,,black_plus_sign,,,null,,,,,,,,,,,,,,,,,,,,,,,
null,,learn_phase(without_color)4,782829,,,,,,,,black_plus_sign,,,null,object_07a.png,object_06b.png,,,,,,,,,,,,,,,,,,,,,
null,,black_cross(without_color)4,783475,,,,,,,,blue,,,null,object_07a.png,object_06b.png,,,,,,,,,,,,,,,,,,,,,
480,,rt_plussign_withcolor4,783983,,,,,,,,blue,,,49,object_07a.png,object_06b.png,,,,,,,,,,,,,,,,,,,,,
null,,rt_thecrossant_black4,785344,,,,,,,,black_plus_sign,,,null,,,1,,,,,,,1,,,,,,,,,,,,,
null,,color_black4,785455,,,,,,,,black_plus_sign,,,null,,,,,,,,,,,,,,,,,,,,,,,
null,,learn_phase(without_color)4,788972,,,,,,,,black_plus_sign,,,null,object_02a.png,object_06c.png,,,,,,,,,,,,,,,,,,,,,
null,,black_cross(without_color)4,789657,,,,,,,,green,,,null,object_02a.png,object_06c.png,,,,,,,,,,,,,,,,,,,,,
null,,rt_plussign_withcolor4,790166,,,,,,,,green,,,null,object_02a.png,object_06c.png,,,,,,,,,,,,,,,,,,,,,
1073,,rt_thecrossant_black4,791499,,,,,,,,black_plus_sign,,,49,,,0,,,,,,,0.8,,,,,,,,,,,,,
null,,color_black4,791609,,,,,,,,black_plus_sign,,,null,,,,,,,,,,,,,,,,,,,,,,,
null,,learn_phase(without_color)4,795120,,,,,,,,black_plus_sign,,,null,object_05b.png,object_08a.png,,,,,,,,,,,,,,,,,,,,,
null,,black_cross(without_color)4,795898,,,,,,,,blue,,,null,object_05b.png,object_08a.png,,,,,,,,,,,,,,,,,,,,,
null,,rt_plussign_withcolor4,796405,,,,,,,,blue,,,null,object_05b.png,object_08a.png,,,,,,,,,,,,,,,,,,,,,
853,,rt_thecrossant_black4,797655,,,,,,,,black_plus_sign,,,49,,,1,,,,,,,0.8333333333333334,,,,,,,,,,,,,
null,,color_black4,797767,,,,,,,,black_plus_sign,,,null,,,,,,,,,,,,,,,,,,,,,,,
null,,learn_phase(without_color)4,801273,,,,,,,,black_plus_sign,,,null,object_08c.png,object_03c.png,,,,,,,,,,,,,,,,,,,,,
null,,black_cross(without_color)4,802357,,,,,,,,green,,,null,object_08c.png,object_03c.png,,,,,,,,,,,,,,,,,,,,,
null,,rt_plussign_withcolor4,802863,,,,,,,,green,,,null,object_08c.png,object_03c.png,,,,,,,,,,,,,,,,,,,,,
1304,,rt_thecrossant_black4,803802,,,,,,,,black_plus_sign,,,50,,,1,,,,,,,0.8571428571428571,,,,,,,,,,,,,
null,,color_black4,803917,,,,,,,,black_plus_sign,,,null,,,,,,,,,,,,,,,,,,,,,,,
null,,learn_phase(without_color)4,807427,,,,,,,,black_plus_sign,,,null,object_15a.png,object_13a.png,,,,,,,,,,,,,,,,,,,,,
null,,black_cross(without_color)4,807936,,,,,,,,blue,,,null,object_15a.png,object_13a.png,,,,,,,,,,,,,,,,,,,,,
null,,rt_plussign_withcolor4,808443,,,,,,,,blue,,,null,object_15a.png,object_13a.png,,,,,,,,,,,,,,,,,,,,,
1264,,rt_thecrossant_black4,809954,,,,,,,,black_plus_sign,,,49,,,1,,,,,,,0.875,,,,,,,,,,,,,
null,,color_black4,810066,,,,,,,,black_plus_sign,,,null,,,,,,,,,,,,,,,,,,,,,,,
null,,learn_phase(without_color)4,813579,,,,,,,,black_plus_sign,,,null,object_01a.png,object_04b.png,,,,,,,,,,,,,,,,,,,,,
null,,black_cross(without_color)4,814042,,,,,,,,green,,,null,object_01a.png,object_04b.png,,,,,,,,,,,,,,,,,,,,,
null,,rt_plussign_withcolor4,814552,,,,,,,,green,,,null,object_01a.png,object_04b.png,,,,,,,,,,,,,,,,,,,,,
935,,rt_thecrossant_black4,816119,,,,,,,,black_plus_sign,,,50,,,1,,,,,,,0.8888888888888888,,,,,,,,,,,,,
null,,color_black4,816232,,,,,,,,black_plus_sign,,,null,,,,,,,,,,,,,,,,,,,,,,,
null,,learn_phase(without_color)4,819736,,,,,,,,black_plus_sign,,,null,object_13c.png,object_13b.png,,,,,,,,,,,,,,,,,,,,,
null,,black_cross(without_color)4,820165,,,,,,,,blue,,,null,object_13c.png,object_13b.png,,,,,,,,,,,,,,,,,,,,,
null,,rt_plussign_withcolor4,820672,,,,,,,,blue,,,null,object_13c.png,object_13b.png,,,,,,,,,,,,,,,,,,,,,
770,,rt_thecrossant_black4,822262,,,,,,,,black_plus_sign,,,49,,,1,,,,,,,0.9,,,,,,,,,,,,,
null,,color_black4,822375,,,,,,,,black_plus_sign,,,null,,,,,,,,,,,,,,,,,,,,,,,
null,,learn_phase(without_color)4,825888,,,,,,,,black_plus_sign,,,null,object_11b.png,object_11a.png,,,,,,,,,,,,,,,,,,,,,
null,,black_cross(without_color)4,826604,,,,,,,,green,,,null,object_11b.png,object_11a.png,,,,,,,,,,,,,,,,,,,,,
null,,rt_plussign_withcolor4,827112,,,,,,,,green,,,null,object_11b.png,object_11a.png,,,,,,,,,,,,,,,,,,,,,
813,,rt_thecrossant_black4,828420,,,,,,,,black_plus_sign,,,50,,,1,,,,,,,0.9090909090909091,,,,,,,,,,,,,
null,,color_black4,828530,,,,,,,,black_plus_sign,,,null,,,,,,,,,,,,,,,,,,,,,,,
null,,learn_phase(without_color)4,832046,,,,,,,,black_plus_sign,,,null,object_08b.png,object_01b.png,,,,,,,,,,,,,,,,,,,,,
null,,black_cross(without_color)4,833141,,,,,,,,green,,,null,object_08b.png,object_01b.png,,,,,,,,,,,,,,,,,,,,,
null,,rt_plussign_withcolor4,833651,,,,,,,,green,,,null,object_08b.png,object_01b.png,,,,,,,,,,,,,,,,,,,,,
1092,,rt_thecrossant_black4,834571,,,,,,,,black_plus_sign,,,50,,,1,,,,,,,0.9166666666666666,,,,,,,,,,,,,
null,,color_black4,834681,,,,,,,,black_plus_sign,,,null,,,,,,,,,,,,,,,,,,,,,,,
null,,learn_phase(without_color)4,838195,,,,,,,,black_plus_sign,,,null,object_04c.png,object_03b.png,,,,,,,,,,,,,,,,,,,,,
null,,black_cross(without_color)4,839271,,,,,,,,green,,,null,object_04c.png,object_03b.png,,,,,,,,,,,,,,,,,,,,,
null,,rt_plussign_withcolor4,839781,,,,,,,,green,,,null,object_04c.png,object_03b.png,,,,,,,,,,,,,,,,,,,,,
1225,,rt_thecrossant_black4,840719,,,,,,,,black_plus_sign,,,50,,,1,,,,,,,0.9230769230769231,,,,,,,,,,,,,
null,,color_black4,840831,,,,,,,,black_plus_sign,,,null,,,,,,,,,,,,,,,,,,,,,,,
null,,learn_phase(without_color)4,844334,,,,,,,,black_plus_sign,,,null,object_02c.png,object_09b.png,,,,,,,,,,,,,,,,,,,,,
null,,black_cross(without_color)4,845097,,,,,,,,blue,,,null,object_02c.png,object_09b.png,,,,,,,,,,,,,,,,,,,,,
null,,rt_plussign_withcolor4,845605,,,,,,,,blue,,,null,object_02c.png,object_09b.png,,,,,,,,,,,,,,,,,,,,,
1470,,rt_thecrossant_black4,846875,,,,,,,,black_plus_sign,,,49,,,1,,,,,,,0.9285714285714286,,,,,,,,,,,,,
null,,color_black4,846986,,,,,,,,black_plus_sign,,,null,,,,,,,,,,,,,,,,,,,,,,,
null,,learn_phase(without_color)4,850497,,,,,,,,black_plus_sign,,,null,object_12a.png,object_12b.png,,,,,,,,,,,,,,,,,,,,,
null,,black_cross(without_color)4,851453,,,,,,,,blue,,,null,object_12a.png,object_12b.png,,,,,,,,,,,,,,,,,,,,,
null,,rt_plussign_withcolor4,851961,,,,,,,,blue,,,null,object_12a.png,object_12b.png,,,,,,,,,,,,,,,,,,,,,
1053,,rt_thecrossant_black4,853027,,,,,,,,black_plus_sign,,,49,,,1,,,,,,,0.9333333333333333,,,,,,,,,,,,,
null,,color_black4,853137,,,,,,,,black_plus_sign,,,null,,,,,,,,,,,,,,,,,,,,,,,
null,,thebreak,853248,,,,,,,,<p></p>,,,null,,,,,,,,,,,,,,,,,,,,,,,
11189,,intro_0,864439,,,,,,,,instruct,,,32,,,,,,,,,,,,,,,,,,,,,,,
1856,,directmemory_phase4,866295,,,,,,,,object_03b.png,,,50,,,1,,object_10c.png,object_04c.png,object_01a.png,object_04c.png,,0.8043478260869565,,1,,,,,,,,,,,
3940,,directmemory_phase4,870239,,,,,,,,object_03c.png,,,50,,,1,,object_02a.png,object_08c.png,object_03a.png,object_08c.png,,0.8085106382978723,,1,,,,,,,,,,,
2155,,directmemory_phase4,872396,,,,,,,,object_08a.png,,,51,,,1,,object_02a.png,object_10c.png,object_05b.png,object_05b.png,,0.8125,,1,,,,,,,,,,,
2058,,directmemory_phase4,874457,,,,,,,,object_09b.png,,,51,,,1,,object_02a.png,object_04c.png,object_02c.png,object_02c.png,,0.8163265306122449,,1,,,,,,,,,,,
2800,,directmemory_phase4,877262,,,,,,,,object_06c.png,,,51,,,1,,object_01a.png,object_03a.png,object_02a.png,object_02a.png,,0.82,,1,,,,,,,,,,,
1671,,directmemory_phase4,878938,,,,,,,,object_10a.png,,,50,,,1,,object_02a.png,object_10c.png,object_02c.png,object_10c.png,,0.8235294117647058,,1,,,,,,,,,,,
3214,,directmemory_phase4,882155,,,,,,,,object_11a.png,,,49,,,0,,object_03a.png,object_11b.png,object_01a.png,object_11b.png,,0.8076923076923077,,0,,,,,,,,,,,
2034,,directmemory_phase4,884192,,,,,,,,object_04b.png,,,49,,,1,,object_01a.png,object_03a.png,object_07a.png,object_01a.png,,0.8113207547169812,,1,,,,,,,,,,,
1459,,directmemory_phase4,885654,,,,,,,,object_14b.png,,,50,,,1,,object_12a.png,object_11c.png,object_02c.png,object_11c.png,,0.8148148148148148,,1,,,,,,,,,,,
1354,,directmemory_phase4,887011,,,,,,,,object_13a.png,,,49,,,1,,object_15a.png,object_12a.png,object_11b.png,object_15a.png,,0.8181818181818182,,1,,,,,,,,,,,
2893,,directmemory_phase4,889907,,,,,,,,object_13b.png,,,49,,,1,,object_13c.png,object_07a.png,object_15a.png,object_13c.png,,0.8214285714285714,,1,,,,,,,,,,,
3232,,directmemory_phase4,893142,,,,,,,,object_04a.png,,,49,,,1,,object_03a.png,object_05b.png,object_08c.png,object_03a.png,,0.8245614035087719,,1,,,,,,,,,,,
2239,,directmemory_phase4,895384,,,,,,,,object_06b.png,,,49,,,1,,object_07a.png,object_03a.png,object_05b.png,object_07a.png,,0.8275862068965517,,1,,,,,,,,,,,
2056,,directmemory_phase4,897443,,,,,,,,object_01b.png,,,51,,,1,,object_11c.png,object_10c.png,object_08b.png,object_08b.png,,0.8305084745762712,,1,,,,,,,,,,,
1578,,directmemory_phase4,899022,,,,,,,,object_12b.png,,,50,,,1,,object_05b.png,object_12a.png,object_11c.png,object_12a.png,,0.8333333333333334,,1,,,,,,,,,,,
null,,thebreak,899137,,,,,,,,<p></p>,,,null,,,,,,,,,,,,,,,,,,,,,,,
2635,,intro_0,901773,,,,,,,,instruct,,,32,,,,,,,,,,,,,,,,,,,,,,,
null,,learn_phase(without_color)5,905280,,,,,,,,black_plus_sign,,,null,object_09b.png,object_05a.png,,,,,,,,,,,,,,,,,,,,,
null,,black_cross(without_color)5,905825,,,,,,,,blue,,,null,object_09b.png,object_05a.png,,,,,,,,,,,,,,,,,,,,,
464,,rt_plussign_withcolor5,906332,,,,,,,,blue,,,49,object_09b.png,object_05a.png,,,,,,,,,,,,,,,,,,,,,
null,,rt_thecrossant_black5,907795,,,,,,,,black_plus_sign,,,null,,,1,,,,,,,1,,,,,,,,,,,,,
null,,color_black5,907907,,,,,,,,black_plus_sign,,,null,,,,,,,,,,,,,,,,,,,,,,,
null,,learn_phase(without_color)5,911411,,,,,,,,black_plus_sign,,,null,object_03c.png,object_06a.png,,,,,,,,,,,,,,,,,,,,,
null,,black_cross(without_color)5,912387,,,,,,,,blue,,,null,object_03c.png,object_06a.png,,,,,,,,,,,,,,,,,,,,,
null,,rt_plussign_withcolor5,912891,,,,,,,,blue,,,null,object_03c.png,object_06a.png,,,,,,,,,,,,,,,,,,,,,
1039,,rt_thecrossant_black5,913934,,,,,,,,black_plus_sign,,,49,,,1,,,,,,,1,,,,,,,,,,,,,
null,,color_black5,914045,,,,,,,,black_plus_sign,,,null,,,,,,,,,,,,,,,,,,,,,,,
null,,learn_phase(without_color)5,917554,,,,,,,,black_plus_sign,,,null,object_11a.png,object_14c.png,,,,,,,,,,,,,,,,,,,,,
null,,black_cross(without_color)5,918487,,,,,,,,blue,,,null,object_11a.png,object_14c.png,,,,,,,,,,,,,,,,,,,,,
476,,rt_plussign_withcolor5,919000,,,,,,,,blue,,,49,object_11a.png,object_14c.png,,,,,,,,,,,,,,,,,,,,,
null,,rt_thecrossant_black5,920122,,,,,,,,black_plus_sign,,,null,,,1,,,,,,,1,,,,,,,,,,,,,
null,,color_black5,920235,,,,,,,,black_plus_sign,,,null,,,,,,,,,,,,,,,,,,,,,,,
null,,learn_phase(without_color)5,923746,,,,,,,,black_plus_sign,,,null,object_10a.png,object_10b.png,,,,,,,,,,,,,,,,,,,,,
null,,black_cross(without_color)5,924286,,,,,,,,green,,,null,object_10a.png,object_10b.png,,,,,,,,,,,,,,,,,,,,,
null,,rt_plussign_withcolor5,924793,,,,,,,,green,,,null,object_10a.png,object_10b.png,,,,,,,,,,,,,,,,,,,,,
1478,,rt_thecrossant_black5,926259,,,,,,,,black_plus_sign,,,50,,,1,,,,,,,1,,,,,,,,,,,,,
null,,color_black5,926371,,,,,,,,black_plus_sign,,,null,,,,,,,,,,,,,,,,,,,,,,,
null,,learn_phase(without_color)5,929876,,,,,,,,black_plus_sign,,,null,object_14b.png,object_15c.png,,,,,,,,,,,,,,,,,,,,,
null,,black_cross(without_color)5,930725,,,,,,,,green,,,null,object_14b.png,object_15c.png,,,,,,,,,,,,,,,,,,,,,
null,,rt_plussign_withcolor5,931234,,,,,,,,green,,,null,object_14b.png,object_15c.png,,,,,,,,,,,,,,,,,,,,,
889,,rt_thecrossant_black5,932412,,,,,,,,black_plus_sign,,,50,,,1,,,,,,,1,,,,,,,,,,,,,
null,,color_black5,932523,,,,,,,,black_plus_sign,,,null,,,,,,,,,,,,,,,,,,,,,,,
null,,learn_phase(without_color)5,936041,,,,,,,,black_plus_sign,,,null,object_04b.png,object_01c.png,,,,,,,,,,,,,,,,,,,,,
null,,black_cross(without_color)5,936835,,,,,,,,blue,,,null,object_04b.png,object_01c.png,,,,,,,,,,,,,,,,,,,,,
null,,rt_plussign_withcolor5,937344,,,,,,,,blue,,,null,object_04b.png,object_01c.png,,,,,,,,,,,,,,,,,,,,,
1089,,rt_thecrossant_black5,938580,,,,,,,,black_plus_sign,,,49,,,1,,,,,,,1,,,,,,,,,,,,,
null,,color_black5,938692,,,,,,,,black_plus_sign,,,null,,,,,,,,,,,,,,,,,,,,,,,
null,,learn_phase(without_color)5,942207,,,,,,,,black_plus_sign,,,null,object_06b.png,object_07b.png,,,,,,,,,,,,,,,,,,,,,
null,,black_cross(without_color)5,942842,,,,,,,,green,,,null,object_06b.png,object_07b.png,,,,,,,,,,,,,,,,,,,,,
null,,rt_plussign_withcolor5,943353,,,,,,,,green,,,null,object_06b.png,object_07b.png,,,,,,,,,,,,,,,,,,,,,
1369,,rt_thecrossant_black5,944748,,,,,,,,black_plus_sign,,,50,,,1,,,,,,,1,,,,,,,,,,,,,
null,,color_black5,944859,,,,,,,,black_plus_sign,,,null,,,,,,,,,,,,,,,,,,,,,,,
null,,learn_phase(without_color)5,948374,,,,,,,,black_plus_sign,,,null,object_06c.png,object_05c.png,,,,,,,,,,,,,,,,,,,,,
null,,black_cross(without_color)5,949087,,,,,,,,green,,,null,object_06c.png,object_05c.png,,,,,,,,,,,,,,,,,,,,,
null,,rt_plussign_withcolor5,949596,,,,,,,,green,,,null,object_06c.png,object_05c.png,,,,,,,,,,,,,,,,,,,,,
917,,rt_thecrossant_black5,950897,,,,,,,,black_plus_sign,,,50,,,1,,,,,,,1,,,,,,,,,,,,,
null,,color_black5,951009,,,,,,,,black_plus_sign,,,null,,,,,,,,,,,,,,,,,,,,,,,
null,,learn_phase(without_color)5,954518,,,,,,,,black_plus_sign,,,null,object_13b.png,object_14a.png,,,,,,,,,,,,,,,,,,,,,
null,,black_cross(without_color)5,955584,,,,,,,,green,,,null,object_13b.png,object_14a.png,,,,,,,,,,,,,,,,,,,,,
null,,rt_plussign_withcolor5,956090,,,,,,,,green,,,null,object_13b.png,object_14a.png,,,,,,,,,,,,,,,,,,,,,
950,,rt_thecrossant_black5,957034,,,,,,,,black_plus_sign,,,50,,,1,,,,,,,1,,,,,,,,,,,,,
null,,color_black5,957145,,,,,,,,black_plus_sign,,,null,,,,,,,,,,,,,,,,,,,,,,,
null,,learn_phase(without_color)5,960650,,,,,,,,black_plus_sign,,,null,object_04a.png,object_09a.png,,,,,,,,,,,,,,,,,,,,,
null,,black_cross(without_color)5,961575,,,,,,,,blue,,,null,object_04a.png,object_09a.png,,,,,,,,,,,,,,,,,,,,,
438,,rt_plussign_withcolor5,962086,,,,,,,,blue,,,49,object_04a.png,object_09a.png,,,,,,,,,,,,,,,,,,,,,
null,,rt_thecrossant_black5,963170,,,,,,,,black_plus_sign,,,null,,,1,,,,,,,1,,,,,,,,,,,,,
null,,color_black5,963281,,,,,,,,black_plus_sign,,,null,,,,,,,,,,,,,,,,,,,,,,,
null,,learn_phase(without_color)5,966795,,,,,,,,black_plus_sign,,,null,object_03b.png,object_09c.png,,,,,,,,,,,,,,,,,,,,,
null,,black_cross(without_color)5,967782,,,,,,,,green,,,null,object_03b.png,object_09c.png,,,,,,,,,,,,,,,,,,,,,
415,,rt_plussign_withcolor5,968290,,,,,,,,green,,,50,object_03b.png,object_09c.png,,,,,,,,,,,,,,,,,,,,,
null,,rt_thecrossant_black5,969321,,,,,,,,black_plus_sign,,,null,,,1,,,,,,,1,,,,,,,,,,,,,
null,,color_black5,969433,,,,,,,,black_plus_sign,,,null,,,,,,,,,,,,,,,,,,,,,,,
null,,learn_phase(without_color)5,972949,,,,,,,,black_plus_sign,,,null,object_08a.png,object_07c.png,,,,,,,,,,,,,,,,,,,,,
null,,black_cross(without_color)5,973538,,,,,,,,green,,,null,object_08a.png,object_07c.png,,,,,,,,,,,,,,,,,,,,,
null,,rt_plussign_withcolor5,974045,,,,,,,,green,,,null,object_08a.png,object_07c.png,,,,,,,,,,,,,,,,,,,,,
1230,,rt_thecrossant_black5,975477,,,,,,,,black_plus_sign,,,50,,,1,,,,,,,1,,,,,,,,,,,,,
null,,color_black5,975588,,,,,,,,black_plus_sign,,,null,,,,,,,,,,,,,,,,,,,,,,,
null,,learn_phase(without_color)5,979100,,,,,,,,black_plus_sign,,,null,object_13a.png,object_15b.png,,,,,,,,,,,,,,,,,,,,,
null,,black_cross(without_color)5,980024,,,,,,,,blue,,,null,object_13a.png,object_15b.png,,,,,,,,,,,,,,,,,,,,,
null,,rt_plussign_withcolor5,980531,,,,,,,,blue,,,null,object_13a.png,object_15b.png,,,,,,,,,,,,,,,,,,,,,
936,,rt_thecrossant_black5,981617,,,,,,,,black_plus_sign,,,49,,,1,,,,,,,1,,,,,,,,,,,,,
null,,color_black5,981729,,,,,,,,black_plus_sign,,,null,,,,,,,,,,,,,,,,,,,,,,,
null,,learn_phase(without_color)5,985237,,,,,,,,black_plus_sign,,,null,object_12b.png,object_12c.png,,,,,,,,,,,,,,,,,,,,,
null,,black_cross(without_color)5,986300,,,,,,,,blue,,,null,object_12b.png,object_12c.png,,,,,,,,,,,,,,,,,,,,,
null,,rt_plussign_withcolor5,986809,,,,,,,,blue,,,null,object_12b.png,object_12c.png,,,,,,,,,,,,,,,,,,,,,
1338,,rt_thecrossant_black5,987760,,,,,,,,black_plus_sign,,,49,,,1,,,,,,,1,,,,,,,,,,,,,
null,,color_black5,987870,,,,,,,,black_plus_sign,,,null,,,,,,,,,,,,,,,,,,,,,,,
null,,learn_phase(without_color)5,991380,,,,,,,,black_plus_sign,,,null,object_01b.png,object_02b.png,,,,,,,,,,,,,,,,,,,,,
null,,black_cross(without_color)5,991971,,,,,,,,blue,,,null,object_01b.png,object_02b.png,,,,,,,,,,,,,,,,,,,,,
null,,rt_plussign_withcolor5,992476,,,,,,,,blue,,,null,object_01b.png,object_02b.png,,,,,,,,,,,,,,,,,,,,,
1422,,rt_thecrossant_black5,993903,,,,,,,,black_plus_sign,,,49,,,1,,,,,,,1,,,,,,,,,,,,,
null,,color_black5,994015,,,,,,,,black_plus_sign,,,null,,,,,,,,,,,,,,,,,,,,,,,
null,,thebreak,994125,,,,,,,,<p></p>,,,null,,,,,,,,,,,,,,,,,,,,,,,
6034,,intro_0,1000159,,,,,,,,instruct,,,32,,,,,,,,,,,,,,,,,,,,,,,
3923,,directmemory_phase5,1004083,,,,,,,,object_15b.png,,,50,,,0,,object_13a.png,object_08a.png,object_04b.png,object_13a.png,,0.819672131147541,,0,,,,,,,,,,,
4293,,directmemory_phase5,1008382,,,,,,,,object_05c.png,,,49,,,1,,object_06c.png,object_13a.png,object_04a.png,object_06c.png,,0.8225806451612904,,1,,,,,,,,,,,
3756,,directmemory_phase5,1012140,,,,,,,,object_01c.png,,,51,,,0,,object_04b.png,object_08a.png,object_01b.png,object_04b.png,,0.8095238095238095,,0,,,,,,,,,,,
3725,,directmemory_phase5,1015869,,,,,,,,object_02b.png,,,49,,,0,,object_04a.png,object_03b.png,object_01b.png,object_01b.png,,0.796875,,0,,,,,,,,,,,
3864,,directmemory_phase5,1019737,,,,,,,,object_14a.png,,,50,,,0,,object_13b.png,object_03c.png,object_04a.png,object_13b.png,,0.7846153846153846,,0,,,,,,,,,,,
4574,,directmemory_phase5,1024314,,,,,,,,object_06a.png,,,51,,,0,,object_03c.png,object_01b.png,object_12b.png,object_03c.png,,0.7727272727272727,,0,,,,,,,,,,,
4661,,directmemory_phase5,1028977,,,,,,,,object_05a.png,,,51,,,0,,object_09b.png,object_14b.png,object_10a.png,object_09b.png,,0.7611940298507462,,0,,,,,,,,,,,
4837,,directmemory_phase5,1033818,,,,,,,,object_10b.png,,,50,,,0,,object_10a.png,object_03c.png,object_01b.png,object_10a.png,,0.75,,0,,,,,,,,,,,
3934,,directmemory_phase5,1037757,,,,,,,,object_09a.png,,,51,,,1,,object_12b.png,object_01b.png,object_04a.png,object_04a.png,,0.7536231884057971,,1,,,,,,,,,,,
2731,,directmemory_phase5,1040492,,,,,,,,object_09c.png,,,49,,,1,,object_03b.png,object_12b.png,object_06c.png,object_03b.png,,0.7571428571428571,,1,,,,,,,,,,,
3699,,directmemory_phase5,1044192,,,,,,,,object_12c.png,,,51,,,0,,object_12b.png,object_04a.png,object_13a.png,object_12b.png,,0.7464788732394366,,0,,,,,,,,,,,
4277,,directmemory_phase5,1048473,,,,,,,,object_07c.png,,,51,,,1,,object_06c.png,object_03c.png,object_08a.png,object_08a.png,,0.75,,1,,,,,,,,,,,
4299,,directmemory_phase5,1052775,,,,,,,,object_14c.png,,,51,,,1,,object_04a.png,object_03c.png,object_11a.png,object_11a.png,,0.7534246575342466,,1,,,,,,,,,,,
2878,,directmemory_phase5,1055656,,,,,,,,object_15c.png,,,49,,,0,,object_11a.png,object_03b.png,object_14b.png,object_14b.png,,0.7432432432432432,,0,,,,,,,,,,,
2766,,directmemory_phase5,1058425,,,,,,,,object_07b.png,,,51,,,1,,object_01b.png,object_03b.png,object_06b.png,object_06b.png,,0.7466666666666667,,1,,,,,,,,,,,
null,,thebreak,1058528,,,,,,,,<p></p>,,,null,,,,,,,,,,,,,,,,,,,,,,,
2057,,intro_0,1060587,,,,,,,,instruct,,,32,,,,,,,,,,,,,,,,,,,,,,,
null,,learn_phase(without_color)6,1064091,,,,,,,,black_plus_sign,,,null,object_12b.png,object_12c.png,,,,,,,,,,,,,,,,,,,,,
null,,black_cross(without_color)6,1065077,,,,,,,,green,,,null,object_12b.png,object_12c.png,,,,,,,,,,,,,,,,,,,,,
null,,rt_plussign_withcolor6,1065585,,,,,,,,green,,,null,object_12b.png,object_12c.png,,,,,,,,,,,,,,,,,,,,,
1535,,rt_thecrossant_black6,1066716,,,,,,,,black_plus_sign,,,50,,,1,,,,,,,1,,,,,,,,,,,,,
null,,color_black6,1066827,,,,,,,,black_plus_sign,,,null,,,,,,,,,,,,,,,,,,,,,,,
null,,learn_phase(without_color)6,1070338,,,,,,,,black_plus_sign,,,null,object_06c.png,object_05c.png,,,,,,,,,,,,,,,,,,,,,
null,,black_cross(without_color)6,1071408,,,,,,,,green,,,null,object_06c.png,object_05c.png,,,,,,,,,,,,,,,,,,,,,
null,,rt_plussign_withcolor6,1071916,,,,,,,,green,,,null,object_06c.png,object_05c.png,,,,,,,,,,,,,,,,,,,,,
1355,,rt_thecrossant_black6,1072867,,,,,,,,black_plus_sign,,,50,,,1,,,,,,,1,,,,,,,,,,,,,
null,,color_black6,1072976,,,,,,,,black_plus_sign,,,null,,,,,,,,,,,,,,,,,,,,,,,
null,,learn_phase(without_color)6,1076493,,,,,,,,black_plus_sign,,,null,object_06b.png,object_07b.png,,,,,,,,,,,,,,,,,,,,,
null,,black_cross(without_color)6,1077208,,,,,,,,blue,,,null,object_06b.png,object_07b.png,,,,,,,,,,,,,,,,,,,,,
null,,rt_plussign_withcolor6,1077716,,,,,,,,blue,,,null,object_06b.png,object_07b.png,,,,,,,,,,,,,,,,,,,,,
1238,,rt_thecrossant_black6,1079011,,,,,,,,black_plus_sign,,,49,,,1,,,,,,,1,,,,,,,,,,,,,
null,,color_black6,1079121,,,,,,,,black_plus_sign,,,null,,,,,,,,,,,,,,,,,,,,,,,
null,,learn_phase(without_color)6,1082628,,,,,,,,black_plus_sign,,,null,object_04a.png,object_09a.png,,,,,,,,,,,,,,,,,,,,,
null,,black_cross(without_color)6,1083613,,,,,,,,blue,,,null,object_04a.png,object_09a.png,,,,,,,,,,,,,,,,,,,,,
null,,rt_plussign_withcolor6,1084124,,,,,,,,blue,,,null,object_04a.png,object_09a.png,,,,,,,,,,,,,,,,,,,,,
1057,,rt_thecrossant_black6,1085161,,,,,,,,black_plus_sign,,,49,,,1,,,,,,,1,,,,,,,,,,,,,
null,,color_black6,1085276,,,,,,,,black_plus_sign,,,null,,,,,,,,,,,,,,,,,,,,,,,
null,,learn_phase(without_color)6,1088784,,,,,,,,black_plus_sign,,,null,object_08a.png,object_07c.png,,,,,,,,,,,,,,,,,,,,,
null,,black_cross(without_color)6,1089677,,,,,,,,blue,,,null,object_08a.png,object_07c.png,,,,,,,,,,,,,,,,,,,,,
null,,rt_plussign_withcolor6,1090179,,,,,,,,blue,,,null,object_08a.png,object_07c.png,,,,,,,,,,,,,,,,,,,,,
1187,,rt_thecrossant_black6,1091309,,,,,,,,black_plus_sign,,,49,,,1,,,,,,,1,,,,,,,,,,,,,
null,,color_black6,1091420,,,,,,,,black_plus_sign,,,null,,,,,,,,,,,,,,,,,,,,,,,
null,,learn_phase(without_color)6,1094932,,,,,,,,black_plus_sign,,,null,object_04b.png,object_01c.png,,,,,,,,,,,,,,,,,,,,,
null,,black_cross(without_color)6,1095555,,,,,,,,blue,,,null,object_04b.png,object_01c.png,,,,,,,,,,,,,,,,,,,,,
480,,rt_plussign_withcolor6,1096065,,,,,,,,blue,,,49,object_04b.png,object_01c.png,,,,,,,,,,,,,,,,,,,,,
null,,rt_thecrossant_black6,1097471,,,,,,,,black_plus_sign,,,null,,,1,,,,,,,1,,,,,,,,,,,,,
null,,color_black6,1097583,,,,,,,,black_plus_sign,,,null,,,,,,,,,,,,,,,,,,,,,,,
null,,learn_phase(without_color)6,1101100,,,,,,,,black_plus_sign,,,null,object_03b.png,object_09c.png,,,,,,,,,,,,,,,,,,,,,
null,,black_cross(without_color)6,1101821,,,,,,,,green,,,null,object_03b.png,object_09c.png,,,,,,,,,,,,,,,,,,,,,
null,,rt_plussign_withcolor6,1102330,,,,,,,,green,,,null,object_03b.png,object_09c.png,,,,,,,,,,,,,,,,,,,,,
773,,rt_thecrossant_black6,1103628,,,,,,,,black_plus_sign,,,49,,,0,,,,,,,0.8571428571428571,,,,,,,,,,,,,
null,,color_black6,1103744,,,,,,,,black_plus_sign,,,null,,,,,,,,,,,,,,,,,,,,,,,
null,,learn_phase(without_color)6,1107257,,,,,,,,black_plus_sign,,,null,object_10a.png,object_10b.png,,,,,,,,,,,,,,,,,,,,,
null,,black_cross(without_color)6,1107766,,,,,,,,blue,,,null,object_10a.png,object_10b.png,,,,,,,,,,,,,,,,,,,,,
null,,rt_plussign_withcolor6,1108273,,,,,,,,blue,,,null,object_10a.png,object_10b.png,,,,,,,,,,,,,,,,,,,,,
1044,,rt_thecrossant_black6,1109779,,,,,,,,black_plus_sign,,,49,,,1,,,,,,,0.875,,,,,,,,,,,,,
null,,color_black6,1109891,,,,,,,,black_plus_sign,,,null,,,,,,,,,,,,,,,,,,,,,,,
null,,learn_phase(without_color)6,1113403,,,,,,,,black_plus_sign,,,null,object_14b.png,object_15c.png,,,,,,,,,,,,,,,,,,,,,
null,,black_cross(without_color)6,1114096,,,,,,,,blue,,,null,object_14b.png,object_15c.png,,,,,,,,,,,,,,,,,,,,,
null,,rt_plussign_withcolor6,1114602,,,,,,,,blue,,,null,object_14b.png,object_15c.png,,,,,,,,,,,,,,,,,,,,,
761,,rt_thecrossant_black6,1115923,,,,,,,,black_plus_sign,,,49,,,1,,,,,,,0.8888888888888888,,,,,,,,,,,,,
null,,color_black6,1116032,,,,,,,,black_plus_sign,,,null,,,,,,,,,,,,,,,,,,,,,,,
null,,learn_phase(without_color)6,1119550,,,,,,,,black_plus_sign,,,null,object_13a.png,object_15b.png,,,,,,,,,,,,,,,,,,,,,
null,,black_cross(without_color)6,1120154,,,,,,,,blue,,,null,object_13a.png,object_15b.png,,,,,,,,,,,,,,,,,,,,,
null,,rt_plussign_withcolor6,1120665,,,,,,,,blue,,,null,object_13a.png,object_15b.png,,,,,,,,,,,,,,,,,,,,,
1059,,rt_thecrossant_black6,1122074,,,,,,,,black_plus_sign,,,49,,,1,,,,,,,0.9,,,,,,,,,,,,,
null,,color_black6,1122184,,,,,,,,black_plus_sign,,,null,,,,,,,,,,,,,,,,,,,,,,,
null,,learn_phase(without_color)6,1125697,,,,,,,,black_plus_sign,,,null,object_01b.png,object_02b.png,,,,,,,,,,,,,,,,,,,,,
null,,black_cross(without_color)6,1126315,,,,,,,,blue,,,null,object_01b.png,object_02b.png,,,,,,,,,,,,,,,,,,,,,
null,,rt_plussign_withcolor6,1126823,,,,,,,,blue,,,null,object_01b.png,object_02b.png,,,,,,,,,,,,,,,,,,,,,
991,,rt_thecrossant_black6,1128249,,,,,,,,black_plus_sign,,,49,,,1,,,,,,,0.9090909090909091,,,,,,,,,,,,,
null,,color_black6,1128359,,,,,,,,black_plus_sign,,,null,,,,,,,,,,,,,,,,,,,,,,,
null,,learn_phase(without_color)6,1131877,,,,,,,,black_plus_sign,,,null,object_03c.png,object_06a.png,,,,,,,,,,,,,,,,,,,,,
null,,black_cross(without_color)6,1132323,,,,,,,,green,,,null,object_03c.png,object_06a.png,,,,,,,,,,,,,,,,,,,,,
null,,rt_plussign_withcolor6,1132830,,,,,,,,green,,,null,object_03c.png,object_06a.png,,,,,,,,,,,,,,,,,,,,,
928,,rt_thecrossant_black6,1134416,,,,,,,,black_plus_sign,,,50,,,1,,,,,,,0.9166666666666666,,,,,,,,,,,,,
null,,color_black6,1134527,,,,,,,,black_plus_sign,,,null,,,,,,,,,,,,,,,,,,,,,,,
null,,learn_phase(without_color)6,1138039,,,,,,,,black_plus_sign,,,null,object_11a.png,object_14c.png,,,,,,,,,,,,,,,,,,,,,
null,,black_cross(without_color)6,1138927,,,,,,,,green,,,null,object_11a.png,object_14c.png,,,,,,,,,,,,,,,,,,,,,
null,,rt_plussign_withcolor6,1139436,,,,,,,,green,,,null,object_11a.png,object_14c.png,,,,,,,,,,,,,,,,,,,,,
593,,rt_thecrossant_black6,1140561,,,,,,,,black_plus_sign,,,50,,,1,,,,,,,0.9230769230769231,,,,,,,,,,,,,
null,,color_black6,1140671,,,,,,,,black_plus_sign,,,null,,,,,,,,,,,,,,,,,,,,,,,
null,,learn_phase(without_color)6,1144177,,,,,,,,black_plus_sign,,,null,object_13b.png,object_14a.png,,,,,,,,,,,,,,,,,,,,,
null,,black_cross(without_color)6,1144843,,,,,,,,blue,,,null,object_13b.png,object_14a.png,,,,,,,,,,,,,,,,,,,,,
null,,rt_plussign_withcolor6,1145351,,,,,,,,blue,,,null,object_13b.png,object_14a.png,,,,,,,,,,,,,,,,,,,,,
1221,,rt_thecrossant_black6,1146718,,,,,,,,black_plus_sign,,,50,,,0,,,,,,,0.8571428571428571,,,,,,,,,,,,,
null,,color_black6,1146827,,,,,,,,black_plus_sign,,,null,,,,,,,,,,,,,,,,,,,,,,,
null,,learn_phase(without_color)6,1150341,,,,,,,,black_plus_sign,,,null,object_09b.png,object_05a.png,,,,,,,,,,,,,,,,,,,,,
null,,black_cross(without_color)6,1151172,,,,,,,,blue,,,null,object_09b.png,object_05a.png,,,,,,,,,,,,,,,,,,,,,
null,,rt_plussign_withcolor6,1151685,,,,,,,,blue,,,null,object_09b.png,object_05a.png,,,,,,,,,,,,,,,,,,,,,
821,,rt_thecrossant_black6,1152872,,,,,,,,black_plus_sign,,,49,,,1,,,,,,,0.8666666666666667,,,,,,,,,,,,,
null,,color_black6,1152982,,,,,,,,black_plus_sign,,,null,,,,,,,,,,,,,,,,,,,,,,,
null,,thebreak,1153093,,,,,,,,<p></p>,,,null,,,,,,,,,,,,,,,,,,,,,,,
2665,,intro_0,1155760,,,,,,,,instruct,,,32,,,,,,,,,,,,,,,,,,,,,,,
4344,,directmemory_phase6,1160106,,,,,,,,object_15c.png,,,49,,,0,,object_04b.png,object_06c.png,object_14b.png,object_14b.png,,0.7368421052631579,,0,,,,,,,,,,,
3154,,directmemory_phase6,1163264,,,,,,,,object_12c.png,,,51,,,1,,object_11a.png,object_03b.png,object_12b.png,object_12b.png,,0.7402597402597403,,1,,,,,,,,,,,
2234,,directmemory_phase6,1165502,,,,,,,,object_14a.png,,,50,,,1,,object_03b.png,object_13b.png,object_01b.png,object_13b.png,,0.7435897435897436,,1,,,,,,,,,,,
3956,,directmemory_phase6,1169461,,,,,,,,object_05a.png,,,50,,,1,,object_08a.png,object_09b.png,object_11a.png,object_09b.png,,0.7468354430379747,,1,,,,,,,,,,,
1347,,directmemory_phase6,1170812,,,,,,,,object_06a.png,,,49,,,1,,object_03c.png,object_03b.png,object_04a.png,object_03c.png,,0.75,,1,,,,,,,,,,,
4636,,directmemory_phase6,1175453,,,,,,,,object_14c.png,,,51,,,1,,object_03b.png,object_14b.png,object_11a.png,object_11a.png,,0.7530864197530864,,1,,,,,,,,,,,
4904,,directmemory_phase6,1180360,,,,,,,,object_15b.png,,,51,,,1,,object_04a.png,object_01b.png,object_13a.png,object_13a.png,,0.7560975609756098,,1,,,,,,,,,,,
4711,,directmemory_phase6,1185076,,,,,,,,object_09a.png,,,50,,,1,,object_14b.png,object_04a.png,object_13a.png,object_04a.png,,0.7590361445783133,,1,,,,,,,,,,,
4422,,directmemory_phase6,1189502,,,,,,,,object_10b.png,,,51,,,1,,object_14b.png,object_06b.png,object_10a.png,object_10a.png,,0.7619047619047619,,1,,,,,,,,,,,
3845,,directmemory_phase6,1193350,,,,,,,,object_05c.png,,,51,,,1,,object_04a.png,object_14b.png,object_06c.png,object_06c.png,,0.7647058823529411,,1,,,,,,,,,,,
1483,,directmemory_phase6,1194839,,,,,,,,object_01c.png,,,49,,,1,,object_04b.png,object_12b.png,object_04a.png,object_04b.png,,0.7674418604651163,,1,,,,,,,,,,,
4394,,directmemory_phase6,1199236,,,,,,,,object_02b.png,,,50,,,1,,object_13a.png,object_01b.png,object_12b.png,object_01b.png,,0.7701149425287356,,1,,,,,,,,,,,
3818,,directmemory_phase6,1203058,,,,,,,,object_07b.png,,,49,,,1,,object_06b.png,object_12b.png,object_13a.png,object_06b.png,,0.7727272727272727,,1,,,,,,,,,,,
3996,,directmemory_phase6,1207057,,,,,,,,object_07c.png,,,51,,,1,,object_04b.png,object_06c.png,object_08a.png,object_08a.png,,0.7752808988764045,,1,,,,,,,,,,,
2789,,directmemory_phase6,1209850,,,,,,,,object_09c.png,,,51,,,1,,object_10a.png,object_13a.png,object_03b.png,object_03b.png,,0.7777777777777778,,1,,,,,,,,,,,
null,,thebreak,1209954,,,,,,,,<p></p>,,,null,,,,,,,,,,,,,,,,,,,,,,,
3302,,intro_0,1213259,,,,,,,,instruct,,,32,,,,,,,,,,,,,,,,,,,,,,,
null,,learn_phase(without_color)7,1216773,,,,,,,,black_plus_sign,,,null,object_10a.png,object_10b.png,,,,,,,,,,,,,,,,,,,,,
null,,black_cross(without_color)7,1217388,,,,,,,,green,,,null,object_10a.png,object_10b.png,,,,,,,,,,,,,,,,,,,,,
null,,rt_plussign_withcolor7,1217902,,,,,,,,green,,,null,object_10a.png,object_10b.png,,,,,,,,,,,,,,,,,,,,,
898,,rt_thecrossant_black7,1219313,,,,,,,,black_plus_sign,,,50,,,1,,,,,,,1,,,,,,,,,,,,,
null,,color_black7,1219425,,,,,,,,black_plus_sign,,,null,,,,,,,,,,,,,,,,,,,,,,,
null,,learn_phase(without_color)7,1222980,,,,,,,,black_plus_sign,,,null,object_03b.png,object_09c.png,,,,,,,,,,,,,,,,,,,,,
null,,black_cross(without_color)7,1223757,,,,,,,,blue,,,null,object_03b.png,object_09c.png,,,,,,,,,,,,,,,,,,,,,
null,,rt_plussign_withcolor7,1224267,,,,,,,,blue,,,null,object_03b.png,object_09c.png,,,,,,,,,,,,,,,,,,,,,
1194,,rt_thecrossant_black7,1225503,,,,,,,,black_plus_sign,,,49,,,1,,,,,,,1,,,,,,,,,,,,,
null,,color_black7,1225615,,,,,,,,black_plus_sign,,,null,,,,,,,,,,,,,,,,,,,,,,,
null,,learn_phase(without_color)7,1229120,,,,,,,,black_plus_sign,,,null,object_14b.png,object_15c.png,,,,,,,,,,,,,,,,,,,,,
null,,black_cross(without_color)7,1229959,,,,,,,,blue,,,null,object_14b.png,object_15c.png,,,,,,,,,,,,,,,,,,,,,
null,,rt_plussign_withcolor7,1230469,,,,,,,,blue,,,null,object_14b.png,object_15c.png,,,,,,,,,,,,,,,,,,,,,
1151,,rt_thecrossant_black7,1231657,,,,,,,,black_plus_sign,,,49,,,1,,,,,,,1,,,,,,,,,,,,,
null,,color_black7,1231768,,,,,,,,black_plus_sign,,,null,,,,,,,,,,,,,,,,,,,,,,,
null,,learn_phase(without_color)7,1235282,,,,,,,,black_plus_sign,,,null,object_11a.png,object_14c.png,,,,,,,,,,,,,,,,,,,,,
null,,black_cross(without_color)7,1235968,,,,,,,,blue,,,null,object_11a.png,object_14c.png,,,,,,,,,,,,,,,,,,,,,
null,,rt_plussign_withcolor7,1236478,,,,,,,,blue,,,null,object_11a.png,object_14c.png,,,,,,,,,,,,,,,,,,,,,
1260,,rt_thecrossant_black7,1237812,,,,,,,,black_plus_sign,,,49,,,1,,,,,,,1,,,,,,,,,,,,,
null,,color_black7,1237924,,,,,,,,black_plus_sign,,,null,,,,,,,,,,,,,,,,,,,,,,,
null,,learn_phase(without_color)7,1241427,,,,,,,,black_plus_sign,,,null,object_04a.png,object_09a.png,,,,,,,,,,,,,,,,,,,,,
null,,black_cross(without_color)7,1242080,,,,,,,,blue,,,null,object_04a.png,object_09a.png,,,,,,,,,,,,,,,,,,,,,
null,,rt_plussign_withcolor7,1242589,,,,,,,,blue,,,null,object_04a.png,object_09a.png,,,,,,,,,,,,,,,,,,,,,
844,,rt_thecrossant_black7,1243960,,,,,,,,black_plus_sign,,,49,,,1,,,,,,,1,,,,,,,,,,,,,
null,,color_black7,1244070,,,,,,,,black_plus_sign,,,null,,,,,,,,,,,,,,,,,,,,,,,
null,,learn_phase(without_color)7,1247577,,,,,,,,black_plus_sign,,,null,object_12b.png,object_12c.png,,,,,,,,,,,,,,,,,,,,,
null,,black_cross(without_color)7,1248591,,,,,,,,green,,,null,object_12b.png,object_12c.png,,,,,,,,,,,,,,,,,,,,,
null,,rt_plussign_withcolor7,1249099,,,,,,,,green,,,null,object_12b.png,object_12c.png,,,,,,,,,,,,,,,,,,,,,
1128,,rt_thecrossant_black7,1250101,,,,,,,,black_plus_sign,,,50,,,1,,,,,,,1,,,,,,,,,,,,,
null,,color_black7,1250213,,,,,,,,black_plus_sign,,,null,,,,,,,,,,,,,,,,,,,,,,,
null,,learn_phase(without_color)7,1253727,,,,,,,,black_plus_sign,,,null,object_01b.png,object_02b.png,,,,,,,,,,,,,,,,,,,,,
null,,black_cross(without_color)7,1254426,,,,,,,,green,,,null,object_01b.png,object_02b.png,,,,,,,,,,,,,,,,,,,,,
null,,rt_plussign_withcolor7,1254935,,,,,,,,green,,,null,object_01b.png,object_02b.png,,,,,,,,,,,,,,,,,,,,,
1226,,rt_thecrossant_black7,1256270,,,,,,,,black_plus_sign,,,50,,,1,,,,,,,1,,,,,,,,,,,,,
null,,color_black7,1256380,,,,,,,,black_plus_sign,,,null,,,,,,,,,,,,,,,,,,,,,,,
null,,learn_phase(without_color)7,1259891,,,,,,,,black_plus_sign,,,null,object_04b.png,object_01c.png,,,,,,,,,,,,,,,,,,,,,
null,,black_cross(without_color)7,1260543,,,,,,,,green,,,null,object_04b.png,object_01c.png,,,,,,,,,,,,,,,,,,,,,
null,,rt_plussign_withcolor7,1261050,,,,,,,,green,,,null,object_04b.png,object_01c.png,,,,,,,,,,,,,,,,,,,,,
932,,rt_thecrossant_black7,1262425,,,,,,,,black_plus_sign,,,50,,,1,,,,,,,1,,,,,,,,,,,,,
null,,color_black7,1262536,,,,,,,,black_plus_sign,,,null,,,,,,,,,,,,,,,,,,,,,,,
null,,learn_phase(without_color)7,1266044,,,,,,,,black_plus_sign,,,null,object_13a.png,object_15b.png,,,,,,,,,,,,,,,,,,,,,
null,,black_cross(without_color)7,1266759,,,,,,,,blue,,,null,object_13a.png,object_15b.png,,,,,,,,,,,,,,,,,,,,,
null,,rt_plussign_withcolor7,1267269,,,,,,,,blue,,,null,object_13a.png,object_15b.png,,,,,,,,,,,,,,,,,,,,,
1161,,rt_thecrossant_black7,1268575,,,,,,,,black_plus_sign,,,49,,,1,,,,,,,1,,,,,,,,,,,,,
null,,color_black7,1268683,,,,,,,,black_plus_sign,,,null,,,,,,,,,,,,,,,,,,,,,,,
null,,learn_phase(without_color)7,1272191,,,,,,,,black_plus_sign,,,null,object_09b.png,object_05a.png,,,,,,,,,,,,,,,,,,,,,
null,,black_cross(without_color)7,1272809,,,,,,,,green,,,null,object_09b.png,object_05a.png,,,,,,,,,,,,,,,,,,,,,
null,,rt_plussign_withcolor7,1273315,,,,,,,,green,,,null,object_09b.png,object_05a.png,,,,,,,,,,,,,,,,,,,,,
1032,,rt_thecrossant_black7,1274723,,,,,,,,black_plus_sign,,,50,,,1,,,,,,,1,,,,,,,,,,,,,
null,,color_black7,1274835,,,,,,,,black_plus_sign,,,null,,,,,,,,,,,,,,,,,,,,,,,
null,,learn_phase(without_color)7,1278344,,,,,,,,black_plus_sign,,,null,object_08a.png,object_07c.png,,,,,,,,,,,,,,,,,,,,,
null,,black_cross(without_color)7,1279267,,,,,,,,blue,,,null,object_08a.png,object_07c.png,,,,,,,,,,,,,,,,,,,,,
500,,rt_plussign_withcolor7,1279777,,,,,,,,blue,,,49,object_08a.png,object_07c.png,,,,,,,,,,,,,,,,,,,,,
null,,rt_thecrossant_black7,1280876,,,,,,,,black_plus_sign,,,null,,,1,,,,,,,1,,,,,,,,,,,,,
null,,color_black7,1280987,,,,,,,,black_plus_sign,,,null,,,,,,,,,,,,,,,,,,,,,,,
null,,learn_phase(without_color)7,1284501,,,,,,,,black_plus_sign,,,null,object_06b.png,object_07b.png,,,,,,,,,,,,,,,,,,,,,
null,,black_cross(without_color)7,1285088,,,,,,,,blue,,,null,object_06b.png,object_07b.png,,,,,,,,,,,,,,,,,,,,,
500,,rt_plussign_withcolor7,1285597,,,,,,,,blue,,,49,object_06b.png,object_07b.png,,,,,,,,,,,,,,,,,,,,,
null,,rt_thecrossant_black7,1287025,,,,,,,,black_plus_sign,,,null,,,1,,,,,,,1,,,,,,,,,,,,,
null,,color_black7,1287137,,,,,,,,black_plus_sign,,,null,,,,,,,,,,,,,,,,,,,,,,,
null,,learn_phase(without_color)7,1290649,,,,,,,,black_plus_sign,,,null,object_06c.png,object_05c.png,,,,,,,,,,,,,,,,,,,,,
null,,black_cross(without_color)7,1291314,,,,,,,,blue,,,null,object_06c.png,object_05c.png,,,,,,,,,,,,,,,,,,,,,
433,,rt_plussign_withcolor7,1291820,,,,,,,,blue,,,49,object_06c.png,object_05c.png,,,,,,,,,,,,,,,,,,,,,
null,,rt_thecrossant_black7,1293172,,,,,,,,black_plus_sign,,,null,,,1,,,,,,,1,,,,,,,,,,,,,
null,,color_black7,1293283,,,,,,,,black_plus_sign,,,null,,,,,,,,,,,,,,,,,,,,,,,
null,,learn_phase(without_color)7,1296791,,,,,,,,black_plus_sign,,,null,object_03c.png,object_06a.png,,,,,,,,,,,,,,,,,,,,,
null,,black_cross(without_color)7,1297367,,,,,,,,blue,,,null,object_03c.png,object_06a.png,,,,,,,,,,,,,,,,,,,,,
385,,rt_plussign_withcolor7,1297878,,,,,,,,blue,,,49,object_03c.png,object_06a.png,,,,,,,,,,,,,,,,,,,,,
null,,rt_thecrossant_black7,1299309,,,,,,,,black_plus_sign,,,null,,,1,,,,,,,1,,,,,,,,,,,,,
null,,color_black7,1299421,,,,,,,,black_plus_sign,,,null,,,,,,,,,,,,,,,,,,,,,,,
null,,learn_phase(without_color)7,1302930,,,,,,,,black_plus_sign,,,null,object_13b.png,object_14a.png,,,,,,,,,,,,,,,,,,,,,
null,,black_cross(without_color)7,1303739,,,,,,,,blue,,,null,object_13b.png,object_14a.png,,,,,,,,,,,,,,,,,,,,,
null,,rt_plussign_withcolor7,1304247,,,,,,,,blue,,,null,object_13b.png,object_14a.png,,,,,,,,,,,,,,,,,,,,,
1008,,rt_thecrossant_black7,1305468,,,,,,,,black_plus_sign,,,49,,,1,,,,,,,1,,,,,,,,,,,,,
null,,color_black7,1305577,,,,,,,,black_plus_sign,,,null,,,,,,,,,,,,,,,,,,,,,,,
null,,thebreak,1305694,,,,,,,,<p></p>,,,null,,,,,,,,,,,,,,,,,,,,,,,
5372,,intro_0,1311068,,,,,,,,instruct,,,32,,,,,,,,,,,,,,,,,,,,,,,
4432,,directmemory_phase7,1315502,,,,,,,,object_14c.png,,,50,,,0,,object_12b.png,object_08a.png,object_11a.png,object_11a.png,,0.7692307692307693,,0,,,,,,,,,,,
1828,,directmemory_phase7,1317334,,,,,,,,object_15c.png,,,50,,,1,,object_03c.png,object_14b.png,object_03b.png,object_14b.png,,0.7717391304347826,,1,,,,,,,,,,,
4104,,directmemory_phase7,1321443,,,,,,,,object_07c.png,,,50,,,1,,object_09b.png,object_08a.png,object_03c.png,object_08a.png,,0.7741935483870968,,1,,,,,,,,,,,
3073,,directmemory_phase7,1324522,,,,,,,,object_15b.png,,,49,,,1,,object_13a.png,object_04b.png,object_03c.png,object_13a.png,,0.776595744680851,,1,,,,,,,,,,,
1784,,directmemory_phase7,1326310,,,,,,,,object_07b.png,,,50,,,1,,object_11a.png,object_06b.png,object_03b.png,object_06b.png,,0.7789473684210526,,1,,,,,,,,,,,
2500,,directmemory_phase7,1328814,,,,,,,,object_05c.png,,,51,,,1,,object_08a.png,object_09b.png,object_06c.png,object_06c.png,,0.78125,,1,,,,,,,,,,,
1621,,directmemory_phase7,1330439,,,,,,,,object_09c.png,,,51,,,1,,object_01b.png,object_06b.png,object_03b.png,object_03b.png,,0.7835051546391752,,1,,,,,,,,,,,
3210,,directmemory_phase7,1333652,,,,,,,,object_02b.png,,,49,,,1,,object_01b.png,object_04a.png,object_11a.png,object_01b.png,,0.7857142857142857,,1,,,,,,,,,,,
3898,,directmemory_phase7,1337555,,,,,,,,object_05a.png,,,51,,,0,,object_10a.png,object_09b.png,object_04a.png,object_09b.png,,0.7777777777777778,,0,,,,,,,,,,,
1515,,directmemory_phase7,1339074,,,,,,,,object_12c.png,,,50,,,1,,object_01b.png,object_12b.png,object_09b.png,object_12b.png,,0.78,,1,,,,,,,,,,,
1574,,directmemory_phase7,1340652,,,,,,,,object_01c.png,,,49,,,1,,object_04b.png,object_04a.png,object_13a.png,object_04b.png,,0.7821782178217822,,1,,,,,,,,,,,
3913,,directmemory_phase7,1344569,,,,,,,,object_09a.png,,,51,,,1,,object_03c.png,object_12b.png,object_04a.png,object_04a.png,,0.7843137254901961,,1,,,,,,,,,,,
1492,,directmemory_phase7,1346066,,,,,,,,object_06a.png,,,49,,,1,,object_03c.png,object_04a.png,object_14b.png,object_03c.png,,0.7864077669902912,,1,,,,,,,,,,,
3092,,directmemory_phase7,1349161,,,,,,,,object_10b.png,,,51,,,1,,object_12b.png,object_04a.png,object_10a.png,object_10a.png,,0.7884615384615384,,1,,,,,,,,,,,
2151,,directmemory_phase7,1351318,,,,,,,,object_14a.png,,,51,,,1,,object_03b.png,object_10a.png,object_13b.png,object_13b.png,,0.7904761904761904,,1,,,,,,,,,,,
null,,thebreak,1351423,,,,,,,,<p></p>,,,null,,,,,,,,,,,,,,,,,,,,,,,
2566,,intro_0,1353991,,,,,,,,instruct,,,32,,,,,,,,,,,,,,,,,,,,,,,
null,,learn_phase(without_color)8,1357504,,,,,,,,black_plus_sign,,,null,object_09b.png,object_05a.png,,,,,,,,,,,,,,,,,,,,,
null,,black_cross(without_color)8,1358187,,,,,,,,green,,,null,object_09b.png,object_05a.png,,,,,,,,,,,,,,,,,,,,,
495,,rt_plussign_withcolor8,1358693,,,,,,,,green,,,50,object_09b.png,object_05a.png,,,,,,,,,,,,,,,,,,,,,
null,,rt_thecrossant_black8,1360022,,,,,,,,black_plus_sign,,,null,,,1,,,,,,,1,,,,,,,,,,,,,
null,,color_black8,1360133,,,,,,,,black_plus_sign,,,null,,,,,,,,,,,,,,,,,,,,,,,
null,,learn_phase(without_color)8,1363642,,,,,,,,black_plus_sign,,,null,object_12b.png,object_12c.png,,,,,,,,,,,,,,,,,,,,,
null,,black_cross(without_color)8,1364659,,,,,,,,blue,,,null,object_12b.png,object_12c.png,,,,,,,,,,,,,,,,,,,,,
null,,rt_plussign_withcolor8,1365169,,,,,,,,blue,,,null,object_12b.png,object_12c.png,,,,,,,,,,,,,,,,,,,,,
951,,rt_thecrossant_black8,1366231,,,,,,,,black_plus_sign,,,49,,,1,,,,,,,1,,,,,,,,,,,,,
null,,color_black8,1366343,,,,,,,,black_plus_sign,,,null,,,,,,,,,,,,,,,,,,,,,,,
null,,learn_phase(without_color)8,1370239,,,,,,,,black_plus_sign,,,null,object_14b.png,object_15c.png,,,,,,,,,,,,,,,,,,,,,
null,,black_cross(without_color)8,1370667,,,,,,,,green,,,null,object_14b.png,object_15c.png,,,,,,,,,,,,,,,,,,,,,
null,,rt_plussign_withcolor8,1371176,,,,,,,,green,,,null,object_14b.png,object_15c.png,,,,,,,,,,,,,,,,,,,,,
1299,,rt_thecrossant_black8,1372780,,,,,,,,black_plus_sign,,,50,,,1,,,,,,,1,,,,,,,,,,,,,
null,,color_black8,1372891,,,,,,,,black_plus_sign,,,null,,,,,,,,,,,,,,,,,,,,,,,
null,,learn_phase(without_color)8,1376792,,,,,,,,black_plus_sign,,,null,object_03c.png,object_06a.png,,,,,,,,,,,,,,,,,,,,,
null,,black_cross(without_color)8,1377363,,,,,,,,green,,,null,object_03c.png,object_06a.png,,,,,,,,,,,,,,,,,,,,,
null,,rt_plussign_withcolor8,1377877,,,,,,,,green,,,null,object_03c.png,object_06a.png,,,,,,,,,,,,,,,,,,,,,
773,,rt_thecrossant_black8,1379334,,,,,,,,black_plus_sign,,,50,,,1,,,,,,,1,,,,,,,,,,,,,
null,,color_black8,1379450,,,,,,,,black_plus_sign,,,null,,,,,,,,,,,,,,,,,,,,,,,
null,,learn_phase(without_color)8,1383371,,,,,,,,black_plus_sign,,,null,object_04a.png,object_09a.png,,,,,,,,,,,,,,,,,,,,,
null,,black_cross(without_color)8,1383859,,,,,,,,green,,,null,object_04a.png,object_09a.png,,,,,,,,,,,,,,,,,,,,,
null,,rt_plussign_withcolor8,1384366,,,,,,,,green,,,null,object_04a.png,object_09a.png,,,,,,,,,,,,,,,,,,,,,
974,,rt_thecrossant_black8,1385889,,,,,,,,black_plus_sign,,,50,,,1,,,,,,,1,,,,,,,,,,,,,
null,,color_black8,1386000,,,,,,,,black_plus_sign,,,null,,,,,,,,,,,,,,,,,,,,,,,
null,,learn_phase(without_color)8,1389514,,,,,,,,black_plus_sign,,,null,object_13a.png,object_15b.png,,,,,,,,,,,,,,,,,,,,,
null,,black_cross(without_color)8,1390057,,,,,,,,green,,,null,object_13a.png,object_15b.png,,,,,,,,,,,,,,,,,,,,,
null,,rt_plussign_withcolor8,1390567,,,,,,,,green,,,null,object_13a.png,object_15b.png,,,,,,,,,,,,,,,,,,,,,
660,,rt_thecrossant_black8,1392057,,,,,,,,black_plus_sign,,,50,,,1,,,,,,,1,,,,,,,,,,,,,
null,,color_black8,1392168,,,,,,,,black_plus_sign,,,null,,,,,,,,,,,,,,,,,,,,,,,
null,,learn_phase(without_color)8,1395687,,,,,,,,black_plus_sign,,,null,object_06b.png,object_07b.png,,,,,,,,,,,,,,,,,,,,,
null,,black_cross(without_color)8,1396553,,,,,,,,blue,,,null,object_06b.png,object_07b.png,,,,,,,,,,,,,,,,,,,,,
null,,rt_plussign_withcolor8,1397058,,,,,,,,blue,,,null,object_06b.png,object_07b.png,,,,,,,,,,,,,,,,,,,,,
887,,rt_thecrossant_black8,1398217,,,,,,,,black_plus_sign,,,49,,,1,,,,,,,1,,,,,,,,,,,,,
null,,color_black8,1398328,,,,,,,,black_plus_sign,,,null,,,,,,,,,,,,,,,,,,,,,,,
null,,learn_phase(without_color)8,1401841,,,,,,,,black_plus_sign,,,null,object_08a.png,object_07c.png,,,,,,,,,,,,,,,,,,,,,
null,,black_cross(without_color)8,1402399,,,,,,,,green,,,null,object_08a.png,object_07c.png,,,,,,,,,,,,,,,,,,,,,
null,,rt_plussign_withcolor8,1402906,,,,,,,,green,,,null,object_08a.png,object_07c.png,,,,,,,,,,,,,,,,,,,,,
1441,,rt_thecrossant_black8,1404367,,,,,,,,black_plus_sign,,,50,,,1,,,,,,,1,,,,,,,,,,,,,
null,,color_black8,1404479,,,,,,,,black_plus_sign,,,null,,,,,,,,,,,,,,,,,,,,,,,
null,,learn_phase(without_color)8,1408422,,,,,,,,black_plus_sign,,,null,object_06c.png,object_05c.png,,,,,,,,,,,,,,,,,,,,,
null,,black_cross(without_color)8,1409214,,,,,,,,blue,,,null,object_06c.png,object_05c.png,,,,,,,,,,,,,,,,,,,,,
null,,rt_plussign_withcolor8,1409723,,,,,,,,blue,,,null,object_06c.png,object_05c.png,,,,,,,,,,,,,,,,,,,,,
795,,rt_thecrossant_black8,1410963,,,,,,,,black_plus_sign,,,49,,,1,,,,,,,1,,,,,,,,,,,,,
null,,color_black8,1411074,,,,,,,,black_plus_sign,,,null,,,,,,,,,,,,,,,,,,,,,,,
null,,learn_phase(without_color)8,1414583,,,,,,,,black_plus_sign,,,null,object_03b.png,object_09c.png,,,,,,,,,,,,,,,,,,,,,
null,,black_cross(without_color)8,1415453,,,,,,,,green,,,null,object_03b.png,object_09c.png,,,,,,,,,,,,,,,,,,,,,
null,,rt_plussign_withcolor8,1415961,,,,,,,,green,,,null,object_03b.png,object_09c.png,,,,,,,,,,,,,,,,,,,,,
1184,,rt_thecrossant_black8,1417114,,,,,,,,black_plus_sign,,,50,,,1,,,,,,,1,,,,,,,,,,,,,
null,,color_black8,1417223,,,,,,,,black_plus_sign,,,null,,,,,,,,,,,,,,,,,,,,,,,
null,,learn_phase(without_color)8,1421140,,,,,,,,black_plus_sign,,,null,object_13b.png,object_14a.png,,,,,,,,,,,,,,,,,,,,,
null,,black_cross(without_color)8,1421588,,,,,,,,blue,,,null,object_13b.png,object_14a.png,,,,,,,,,,,,,,,,,,,,,
null,,rt_plussign_withcolor8,1422096,,,,,,,,blue,,,null,object_13b.png,object_14a.png,,,,,,,,,,,,,,,,,,,,,
1107,,rt_thecrossant_black8,1423667,,,,,,,,black_plus_sign,,,49,,,1,,,,,,,1,,,,,,,,,,,,,
null,,color_black8,1423778,,,,,,,,black_plus_sign,,,null,,,,,,,,,,,,,,,,,,,,,,,
null,,learn_phase(without_color)8,1427727,,,,,,,,black_plus_sign,,,null,object_11a.png,object_14c.png,,,,,,,,,,,,,,,,,,,,,
null,,black_cross(without_color)8,1428457,,,,,,,,blue,,,null,object_11a.png,object_14c.png,,,,,,,,,,,,,,,,,,,,,
null,,rt_plussign_withcolor8,1428966,,,,,,,,blue,,,null,object_11a.png,object_14c.png,,,,,,,,,,,,,,,,,,,,,
751,,rt_thecrossant_black8,1430261,,,,,,,,black_plus_sign,,,49,,,1,,,,,,,1,,,,,,,,,,,,,
null,,color_black8,1430372,,,,,,,,black_plus_sign,,,null,,,,,,,,,,,,,,,,,,,,,,,
null,,learn_phase(without_color)8,1434314,,,,,,,,black_plus_sign,,,null,object_10a.png,object_10b.png,,,,,,,,,,,,,,,,,,,,,
null,,black_cross(without_color)8,1435342,,,,,,,,blue,,,null,object_10a.png,object_10b.png,,,,,,,,,,,,,,,,,,,,,
491,,rt_plussign_withcolor8,1435855,,,,,,,,blue,,,49,object_10a.png,object_10b.png,,,,,,,,,,,,,,,,,,,,,
null,,rt_thecrossant_black8,1436842,,,,,,,,black_plus_sign,,,null,,,1,,,,,,,1,,,,,,,,,,,,,
null,,color_black8,1436956,,,,,,,,black_plus_sign,,,null,,,,,,,,,,,,,,,,,,,,,,,
null,,learn_phase(without_color)8,1440462,,,,,,,,black_plus_sign,,,null,object_04b.png,object_01c.png,,,,,,,,,,,,,,,,,,,,,
null,,black_cross(without_color)8,1441099,,,,,,,,green,,,null,object_04b.png,object_01c.png,,,,,,,,,,,,,,,,,,,,,
null,,rt_plussign_withcolor8,1441604,,,,,,,,green,,,null,object_04b.png,object_01c.png,,,,,,,,,,,,,,,,,,,,,
1628,,rt_thecrossant_black8,1442991,,,,,,,,black_plus_sign,,,50,,,1,,,,,,,1,,,,,,,,,,,,,
null,,color_black8,1443103,,,,,,,,black_plus_sign,,,null,,,,,,,,,,,,,,,,,,,,,,,
null,,learn_phase(without_color)8,1446611,,,,,,,,black_plus_sign,,,null,object_01b.png,object_02b.png,,,,,,,,,,,,,,,,,,,,,
null,,black_cross(without_color)8,1447598,,,,,,,,green,,,null,object_01b.png,object_02b.png,,,,,,,,,,,,,,,,,,,,,
null,,rt_plussign_withcolor8,1448105,,,,,,,,green,,,null,object_01b.png,object_02b.png,,,,,,,,,,,,,,,,,,,,,
855,,rt_thecrossant_black8,1449136,,,,,,,,black_plus_sign,,,50,,,1,,,,,,,1,,,,,,,,,,,,,
null,,color_black8,1449247,,,,,,,,black_plus_sign,,,null,,,,,,,,,,,,,,,,,,,,,,,
null,,thebreak,1449358,,,,,,,,<p></p>,,,null,,,,,,,,,,,,,,,,,,,,,,,
1612,,intro_0,1450972,,,,,,,,instruct,,,32,,,,,,,,,,,,,,,,,,,,,,,
2141,,directmemory_phase8,1453115,,,,,,,,object_12c.png,,,49,,,1,,object_12b.png,object_04a.png,object_08a.png,object_12b.png,,0.7924528301886793,,1,,,,,,,,,,,
1756,,directmemory_phase8,1454875,,,,,,,,object_14a.png,,,50,,,1,,object_03b.png,object_13b.png,object_12b.png,object_13b.png,,0.794392523364486,,1,,,,,,,,,,,
3399,,directmemory_phase8,1458278,,,,,,,,object_14c.png,,,51,,,1,,object_01b.png,object_06b.png,object_11a.png,object_11a.png,,0.7962962962962963,,1,,,,,,,,,,,
3948,,directmemory_phase8,1462231,,,,,,,,object_05a.png,,,51,,,1,,object_04b.png,object_06b.png,object_09b.png,object_09b.png,,0.7981651376146789,,1,,,,,,,,,,,
1952,,directmemory_phase8,1464187,,,,,,,,object_15c.png,,,49,,,1,,object_14b.png,object_12b.png,object_03b.png,object_14b.png,,0.8,,1,,,,,,,,,,,
2460,,directmemory_phase8,1466652,,,,,,,,object_09a.png,,,51,,,1,,object_08a.png,object_14b.png,object_04a.png,object_04a.png,,0.8018018018018018,,1,,,,,,,,,,,
1750,,directmemory_phase8,1468405,,,,,,,,object_07c.png,,,49,,,1,,object_08a.png,object_06c.png,object_09b.png,object_08a.png,,0.8035714285714286,,1,,,,,,,,,,,
2791,,directmemory_phase8,1471199,,,,,,,,object_10b.png,,,51,,,1,,object_04b.png,object_06c.png,object_10a.png,object_10a.png,,0.8053097345132744,,1,,,,,,,,,,,
1599,,directmemory_phase8,1472803,,,,,,,,object_06a.png,,,51,,,1,,object_06b.png,object_11a.png,object_03c.png,object_03c.png,,0.8070175438596491,,1,,,,,,,,,,,
1937,,directmemory_phase8,1474745,,,,,,,,object_15b.png,,,49,,,1,,object_13a.png,object_03b.png,object_06b.png,object_13a.png,,0.808695652173913,,1,,,,,,,,,,,
1736,,directmemory_phase8,1476486,,,,,,,,object_09c.png,,,49,,,1,,object_03b.png,object_04b.png,object_06c.png,object_03b.png,,0.8103448275862069,,1,,,,,,,,,,,
1340,,directmemory_phase8,1477830,,,,,,,,object_07b.png,,,50,,,1,,object_04b.png,object_06b.png,object_03b.png,object_06b.png,,0.811965811965812,,1,,,,,,,,,,,
1947,,directmemory_phase8,1479782,,,,,,,,object_05c.png,,,51,,,1,,object_09b.png,object_08a.png,object_06c.png,object_06c.png,,0.8135593220338984,,1,,,,,,,,,,,
1214,,directmemory_phase8,1481000,,,,,,,,object_01c.png,,,49,,,1,,object_04b.png,object_03b.png,object_01b.png,object_04b.png,,0.8151260504201681,,1,,,,,,,,,,,
2115,,directmemory_phase8,1483118,,,,,,,,object_02b.png,,,51,,,1,,object_10a.png,object_12b.png,object_01b.png,object_01b.png,,0.8166666666666667,,1,,,,,,,,,,,
null,,thebreak,1483230,,,,,,,,<p></p>,,,null,,,,,,,,,,,,,,,,,,,,,,,
10823,,intro_0,1494055,,,,,,,,instruct,,,32,,,,,,,,,,,,,,,,,,,,,,,
35489,,intro_1,1529545,,,,,,,,instruct,,,32,,,,,,,,,,,,,,,,,,,,,,,
12195,,intro_2,1541741,,,,,,,,instruct,,,32,,,,,,,,,,,,,,,,,,,,,,,
,,intro_3,1559809,,,,,,,,instruct,,,,,,,,,,,,,,,,,,,,,,,,,,
5176,,intro_4,1564986,,,,,,,,instruct,,,32,,,,,,,,,,,,,,,,,,,,,,,
10131,,inference_phase,1575120,,,,,,,,object_07c.png,,,49,object_07a.png,object_05b.png,0,,,,,object_05b.png,,0,,,object_04c.png,,,,,,,,,,
2829,,inference_phase,1577953,,,,,,,,object_09c.png,,,51,object_02a.png,object_04c.png,1,,,,,object_04c.png,,0.5,,,object_11b.png,,,,,,,,,,
12792,,inference_phase,1590749,,,,,,,,object_07b.png,,,49,object_10c.png,object_07a.png,0,,,,,object_07a.png,,0.3333333333333333,,,object_05b.png,,,,,,,,,,
6768,,inference_phase,1597521,,,,,,,,object_05a.png,,,51,object_02c.png,object_08b.png,0,,,,,object_02c.png,,0.25,,,object_08c.png,,,,,,,,,,
9970,,inference_phase,1607496,,,,,,,,object_02b.png,,,50,object_02c.png,object_15a.png,1,,,,,object_08b.png,,0.4,,,object_08b.png,,,,,,,,,,
3076,,inference_phase,1610576,,,,,,,,object_05c.png,,,51,object_15a.png,object_02a.png,1,,,,,object_02a.png,,0.5,,,object_08b.png,,,,,,,,,,
7009,,inference_phase,1617590,,,,,,,,object_06a.png,,,49,object_01a.png,object_07a.png,0,,,,,object_08c.png,,0.42857142857142855,,,object_08c.png,,,,,,,,,,
3731,,inference_phase,1621325,,,,,,,,object_12c.png,,,51,object_07a.png,object_12a.png,1,,,,,object_12a.png,,0.5,,,object_08c.png,,,,,,,,,,
5326,,inference_phase,1626655,,,,,,,,object_10b.png,,,51,object_11c.png,object_10c.png,1,,,,,object_10c.png,,0.5555555555555556,,,object_01a.png,,,,,,,,,,
4210,,inference_phase,1630869,,,,,,,,object_15c.png,,,49,object_11c.png,object_02a.png,1,,,,,object_11c.png,,0.6,,,object_05b.png,,,,,,,,,,
5131,,inference_phase,1636003,,,,,,,,object_14a.png,,,51,object_02c.png,object_13c.png,1,,,,,object_13c.png,,0.6363636363636364,,,object_05b.png,,,,,,,,,,
4322,,inference_phase,1640329,,,,,,,,object_01c.png,,,50,object_08b.png,object_07a.png,1,,,,,object_01a.png,,0.6666666666666666,,,object_01a.png,,,,,,,,,,
5334,,inference_phase,1645669,,,,,,,,object_14c.png,,,49,object_11b.png,object_15a.png,1,,,,,object_11b.png,,0.6923076923076923,,,object_10c.png,,,,,,,,,,
5921,,inference_phase,1651595,,,,,,,,object_15b.png,,,50,object_11c.png,object_08b.png,1,,,,,object_15a.png,,0.7142857142857143,,,object_15a.png,,,,,,,,,,
5890,,inference_phase,1657490,,,,,,,,object_09a.png,,,50,object_15a.png,object_02c.png,1,,,,,object_03a.png,,0.7333333333333333,,,object_03a.png,,,,,,,,,,
,,survey,1794403,,,,,,,,survey-questions,,,,,,,,,,,,,,,,,none,high,nope,Either stories, or some feature paralleled  in each object,The final trial (friends) was very difficult.  I mostly guessed in that trial.,no,It's hard to compose a story in only 3.5 seconds.,,,
13058,,thank_you,1807495,,,,,,,,<p> Congratulations, you are all done!</p><p> <strong>Please click space on your keyboard to end the experiment!</strong> The secret code to enter at the beginning screen is: <strong>CIMBPENS</strong></p><p> Please make sure to submit the HIT and email uciccnl@gmail.com if you had any issues! </p><br><p>Please remember to submit this data by clicking space after copying the code. Failure of submission will lead to in-complete payment</p>,,,32,,,,,,,,,,,,,,,,,,,,,0,0,C78LSMTN
