rt,responses,trial_type,time_elapsed,identifier_a,identifier_b,identifier_c,tasktype,browser_type,local_time,UTC_time,stimulus,button_pressed,response,key_press,stimulus_left,stimulus_right,practice_cumulative_accuracy,accuracy,stimulus_down_left,stimulus_down_mid,stimulus_down_right,stimulus_correct,prac_weighted_accuracy,cumulative_accuracy,failed_practice,weighted_accuracy,stimulus_middle,problems,smooth,distraction,strategies,easier,similar,comments,detectfocus,breakfocus,completion_code
10409,{worker_id:55900dcffdf99b3f7aada3f5},id_enter,10412,object_15c.png; object_10b.png; object_08b.png; object_03c.png; object_09c.png; object_14c.png; object_02c.png; object_13c.png; object_02b.png; object_06c.png; object_08a.png; object_03b.png; object_04a.png; object_10a.png; object_14a.png,object_02a.png; object_08c.png; object_07c.png; object_12a.png; object_03a.png; object_05c.png; object_07b.png; object_11b.png; object_12c.png; object_14b.png; object_04b.png; object_07a.png; object_04c.png; object_09b.png; object_13b.png,object_01c.png; object_01b.png; object_06a.png; object_15b.png; object_12b.png; object_09a.png; object_13a.png; object_01a.png; object_05a.png; object_11c.png; object_11a.png; object_15a.png; object_06b.png; object_05b.png; object_10c.png,blocked,Mozilla/5.0 (Windows NT 10.0; Win64; x64) AppleWebKit/537.36 (KHTML, like Gecko) Chrome/136.0.0.0 Safari/537.36,5/11/2025, 3:03:02 PM,2025-05-11 22:03:02.174,,,,,,,,,,,,,,,,,,,,,,,,,,,
26188,,make_fullscreen,36616,,,,,,,,fullscreen,0,,,,,,,,,,,,,,,,,,,,,,,,,
7212.899999976158,,instruct_1,43831,,,,,,,,instruct,0,Next,,,,,,,,,,,,,,,,,,,,,,,,
12812.399999976158,,instruct_2,56648,,,,,,,,instruct,1,Next,,,,,,,,,,,,,,,,,,,,,,,,
7514.400000095367,,instruct_3,64163,,,,,,,,instruct,1,Next,,,,,,,,,,,,,,,,,,,,,,,,
27178.300000071526,,instruct_4,91344,,,,,,,,instruct,1,Next,,,,,,,,,,,,,,,,,,,,,,,,
16201.599999904633,,instruct_5,107547,,,,,,,,instruct,1,Next,,,,,,,,,,,,,,,,,,,,,,,,
5982.399999976158,,instruct_6,113531,,,,,,,,instruct,1,Next,,,,,,,,,,,,,,,,,,,,,,,,
36862.5,,instruct_7,150396,,,,,,,,instruct,1,Next,,,,,,,,,,,,,,,,,,,,,,,,
null,,prac_atten_color_black,150825,,,,,,,,black_plus_sign,,,null,,,,,,,,,,,,,,,,,,,,,,,
null,,prac_atten_color,151801,,,,,,,,<p style='position:absolute;top: 50%;right: 50%;transform: translate(50%, -50%);font-size: 125px;color: blue;'>+</p>,,,null,,,,,,,,,,,,,,,,,,,,,,,
1054.8999999761581,,prac_atten_color_black,153802,,,,,,,,black_plus_sign,,,49,,,,,,,,,,,,,,,,,,,,,,,
null,,prac_atten_color_black,154232,,,,,,,,black_plus_sign,,,null,,,,,,,,,,,,,,,,,,,,,,,
null,,prac_atten_color,154697,,,,,,,,<p style='position:absolute;top: 50%;right: 50%;transform: translate(50%, -50%);font-size: 125px;color: green;'>+</p>,,,null,,,,,,,,,,,,,,,,,,,,,,,
525.2000000476837,,prac_atten_color_black,156699,,,,,,,,black_plus_sign,,,50,,,,,,,,,,,,,,,,,,,,,,,
null,,prac_atten_color_black,157639,,,,,,,,black_plus_sign,,,null,,,,,,,,,,,,,,,,,,,,,,,
903.3999999761581,,prac_atten_color,158660,,,,,,,,<p style='position:absolute;top: 50%;right: 50%;transform: translate(50%, -50%);font-size: 125px;color: green;'>+</p>,,,50,,,,,,,,,,,,,,,,,,,,,,,
null,,prac_atten_color_black,160663,,,,,,,,black_plus_sign,,,null,,,,,,,,,,,,,,,,,,,,,,,
null,,prac_atten_color_black,161048,,,,,,,,black_plus_sign,,,null,,,,,,,,,,,,,,,,,,,,,,,
410,,prac_atten_color,161804,,,,,,,,<p style='position:absolute;top: 50%;right: 50%;transform: translate(50%, -50%);font-size: 125px;color: blue;'>+</p>,,,49,,,,,,,,,,,,,,,,,,,,,,,
null,,prac_atten_color_black,163806,,,,,,,,black_plus_sign,,,null,,,,,,,,,,,,,,,,,,,,,,,
null,,prac_atten_color_black,164458,,,,,,,,black_plus_sign,,,null,,,,,,,,,,,,,,,,,,,,,,,
null,,prac_atten_color,164890,,,,,,,,<p style='position:absolute;top: 50%;right: 50%;transform: translate(50%, -50%);font-size: 125px;color: green;'>+</p>,,,null,,,,,,,,,,,,,,,,,,,,,,,
174.39999997615814,,prac_atten_color_black,166893,,,,,,,,black_plus_sign,,,50,,,,,,,,,,,,,,,,,,,,,,,
null,,prac_atten_color_black,167867,,,,,,,,black_plus_sign,,,null,,,,,,,,,,,,,,,,,,,,,,,
null,,prac_atten_color,168421,,,,,,,,<p style='position:absolute;top: 50%;right: 50%;transform: translate(50%, -50%);font-size: 125px;color: green;'>+</p>,,,null,,,,,,,,,,,,,,,,,,,,,,,
80.5,,prac_atten_color_black,170423,,,,,,,,black_plus_sign,,,50,,,,,,,,,,,,,,,,,,,,,,,
null,,prac_atten_color_black,171276,,,,,,,,black_plus_sign,,,null,,,,,,,,,,,,,,,,,,,,,,,
857,,prac_atten_color,172143,,,,,,,,<p style='position:absolute;top: 50%;right: 50%;transform: translate(50%, -50%);font-size: 125px;color: blue;'>+</p>,,,49,,,,,,,,,,,,,,,,,,,,,,,
null,,prac_atten_color_black,174146,,,,,,,,black_plus_sign,,,null,,,,,,,,,,,,,,,,,,,,,,,
null,,prac_atten_color_black,174684,,,,,,,,black_plus_sign,,,null,,,,,,,,,,,,,,,,,,,,,,,
549.1000000238419,,prac_atten_color,175366,,,,,,,,<p style='position:absolute;top: 50%;right: 50%;transform: translate(50%, -50%);font-size: 125px;color: green;'>+</p>,,,50,,,,,,,,,,,,,,,,,,,,,,,
null,,prac_atten_color_black,177367,,,,,,,,black_plus_sign,,,null,,,,,,,,,,,,,,,,,,,,,,,
null,,prac_atten_color_black,178092,,,,,,,,black_plus_sign,,,null,,,,,,,,,,,,,,,,,,,,,,,
535.7999999523163,,prac_atten_color,178816,,,,,,,,<p style='position:absolute;top: 50%;right: 50%;transform: translate(50%, -50%);font-size: 125px;color: blue;'>+</p>,,,49,,,,,,,,,,,,,,,,,,,,,,,
null,,prac_atten_color_black,180820,,,,,,,,black_plus_sign,,,null,,,,,,,,,,,,,,,,,,,,,,,
null,,prac_atten_color_black,181501,,,,,,,,black_plus_sign,,,null,,,,,,,,,,,,,,,,,,,,,,,
901.3000000715256,,prac_atten_color,182546,,,,,,,,<p style='position:absolute;top: 50%;right: 50%;transform: translate(50%, -50%);font-size: 125px;color: blue;'>+</p>,,,49,,,,,,,,,,,,,,,,,,,,,,,
189.20000004768372,,prac_atten_color_black,184547,,,,,,,,black_plus_sign,,,49,,,,,,,,,,,,,,,,,,,,,,,
7847.200000047684,,attentioncheck_feedback,192396,,,,,,,,cross_check_feedback,0,,,,,,,,,,,,,,,,,,,,,,,,,
13552.199999928474,,last_instruct,205949,,,,,,,,instruct,,,32,,,,,,,,,,,,,,,,,,,,,,,
null,,prac_learn_phase(without_color),209452,,,,,,,,black_plus_sign,,,null,object_08b.png,object_07c.png,,,,,,,,,,,,,,,,,,,,,
null,,prac_black_cross(without_color),210026,,,,,,,,blue,,,null,object_08b.png,object_07c.png,,,,,,,,,,,,,,,,,,,,,
null,,prac_rt_plussign_withcolor,210527,,,,,,,,blue,,,null,object_08b.png,object_07c.png,,,,,,,,,,,,,,,,,,,,,
null,,prac_rt_thecrossant_black,211959,,,,,,,,black_plus_sign,,,null,,,NaN,,,,,,,,,,,,,,,,,,,,
null,,prac_color_black,212062,,,,,,,,black_plus_sign,,,null,,,,,,,,,,,,,,,,,,,,,,,
null,,prac_learn_phase(without_color),215566,,,,,,,,black_plus_sign,,,null,object_03b.png,object_07a.png,,,,,,,,,,,,,,,,,,,,,
null,,black_cross(without_color)1,216266,,,,,,,,green,,,null,object_08b.png,object_07c.png,,,,,,,,,,,,,,,,,,,,,
null,,prac_rt_plussign_withcolor,216768,,,,,,,,green,,,null,object_03b.png,object_07a.png,,,,,,,,,,,,,,,,,,,,,
null,,prac_rt_thecrossant_black,218262,,,,,,,,black_plus_sign,,,null,,,NaN,,,,,,,,,,,,,,,,,,,,
null,,warning_page,223265,,,,,,,,warning,,,null,,,,,,,,,,,,,,,,,,,,,,,
null,,prac_color_black,223367,,,,,,,,black_plus_sign,,,null,,,,,,,,,,,,,,,,,,,,,,,
null,,prac_learn_phase(without_color),226870,,,,,,,,black_plus_sign,,,null,object_10a.png,object_09b.png,,,,,,,,,,,,,,,,,,,,,
null,,black_cross(without_color)1,227568,,,,,,,,green,,,null,object_08b.png,object_07c.png,,,,,,,,,,,,,,,,,,,,,
null,,prac_rt_plussign_withcolor,228070,,,,,,,,green,,,null,object_10a.png,object_09b.png,,,,,,,,,,,,,,,,,,,,,
1530.8999999761581,,prac_rt_thecrossant_black,229389,,,,,,,,black_plus_sign,,,50,,,1,1,,,,,,,,,,,,,,,,,,,
null,,prac_color_black,229492,,,,,,,,black_plus_sign,,,null,,,,,,,,,,,,,,,,,,,,,,,
null,,prac_learn_phase(without_color),232996,,,,,,,,black_plus_sign,,,null,object_15c.png,object_02a.png,,,,,,,,,,,,,,,,,,,,,
null,,black_cross(without_color)1,233696,,,,,,,,green,,,null,object_08b.png,object_07c.png,,,,,,,,,,,,,,,,,,,,,
null,,prac_rt_plussign_withcolor,234198,,,,,,,,green,,,null,object_15c.png,object_02a.png,,,,,,,,,,,,,,,,,,,,,
1558.6999999284744,,prac_rt_thecrossant_black,235648,,,,,,,,black_plus_sign,,,50,,,1,1,,,,,,,,,,,,,,,,,,,
null,,prac_color_black,235751,,,,,,,,black_plus_sign,,,null,,,,,,,,,,,,,,,,,,,,,,,
25942,,instruct_dir_01,261696,,,,,,,,instruct,0,Next,,,,,,,,,,,,,,,,,,,,,,,,
13834,,instruct_dir_2,275531,,,,,,,,instruct,1,Next,,,,,,,,,,,,,,,,,,,,,,,,
8550.599999904633,,instruct_dir_3,284083,,,,,,,,instruct,1,Next,,,,,,,,,,,,,,,,,,,,,,,,
8905.700000047684,,instruct_dir_4,292991,,,,,,,,instruct,1,Start,,,,,,,,,,,,,,,,,,,,,,,,
null,,thebreak,293093,,,,,,,,<p></p>,,,null,,,,,,,,,,,,,,,,,,,,,,,
4884.199999928474,,intro_0,297979,,,,,,,,instruct,,,32,,,,,,,,,,,,,,,,,,,,,,,
2999,,prac_directmemory_phase,300980,,,,,,,,practice/object_02b.png,,,51,,,,0,practice/object_02a.png,practice/object_03a.png,practice/object_01a.png,practice/object_02a.png,0,0,,,,,,,,,,,,,
3389.100000023842,,prac_directmemory_phase,304374,,,,,,,,practice/object_03b.png,,,49,,,,0,practice/object_02a.png,practice/object_03a.png,practice/object_04a.png,practice/object_03a.png,0,0,,,,,,,,,,,,,
2093.7999999523163,,prac_directmemory_phase,306469,,,,,,,,practice/object_04b.png,,,51,,,,0,practice/object_04a.png,practice/object_03a.png,practice/object_01a.png,practice/object_04a.png,0,0,,,,,,,,,,,,,
2682.2000000476837,,prac_directmemory_phase,309155,,,,,,,,practice/object_01b.png,,,50,,,,1,practice/object_04a.png,practice/object_01a.png,practice/object_03a.png,practice/object_01a.png,1,0.25,,,,,,,,,,,,,
8938.600000023842,,practice_feedback_force_restart,318096,,,,,,,,practice_feedback,0,,,,,,,,,,,,,1,,,,,,,,,,,,
14419.399999976158,,last_instruct,332516,,,,,,,,instruct,,,32,,,,,,,,,,,,,,,,,,,,,,,
null,,prac_learn_phase(without_color),336019,,,,,,,,black_plus_sign,,,null,object_08b.png,object_07c.png,,,,,,,,,,,,,,,,,,,,,
null,,prac_black_cross(without_color),337021,,,,,,,,blue,,,null,object_08b.png,object_07c.png,,,,,,,,,,,,,,,,,,,,,
null,,prac_rt_plussign_withcolor,337523,,,,,,,,blue,,,null,object_08b.png,object_07c.png,,,,,,,,,,,,,,,,,,,,,
null,,prac_rt_thecrossant_black,338527,,,,,,,,black_plus_sign,,,null,,,1,,,,,,,,,,,,,,,,,,,,
null,,prac_color_black,338630,,,,,,,,black_plus_sign,,,null,,,,,,,,,,,,,,,,,,,,,,,
null,,prac_learn_phase(without_color),342133,,,,,,,,black_plus_sign,,,null,object_03b.png,object_07a.png,,,,,,,,,,,,,,,,,,,,,
null,,black_cross(without_color)1,342833,,,,,,,,green,,,null,object_08b.png,object_07c.png,,,,,,,,,,,,,,,,,,,,,
null,,prac_rt_plussign_withcolor,343335,,,,,,,,green,,,null,object_03b.png,object_07a.png,,,,,,,,,,,,,,,,,,,,,
1483.8999999761581,,prac_rt_thecrossant_black,344635,,,,,,,,black_plus_sign,,,50,,,1,1,,,,,,,,,,,,,,,,,,,
null,,prac_color_black,344738,,,,,,,,black_plus_sign,,,null,,,,,,,,,,,,,,,,,,,,,,,
null,,prac_learn_phase(without_color),348242,,,,,,,,black_plus_sign,,,null,object_10a.png,object_09b.png,,,,,,,,,,,,,,,,,,,,,
null,,black_cross(without_color)1,348941,,,,,,,,green,,,null,object_08b.png,object_07c.png,,,,,,,,,,,,,,,,,,,,,
null,,prac_rt_plussign_withcolor,349443,,,,,,,,green,,,null,object_10a.png,object_09b.png,,,,,,,,,,,,,,,,,,,,,
1216.2999999523163,,prac_rt_thecrossant_black,350657,,,,,,,,black_plus_sign,,,50,,,1,1,,,,,,,,,,,,,,,,,,,
null,,prac_color_black,350759,,,,,,,,black_plus_sign,,,null,,,,,,,,,,,,,,,,,,,,,,,
null,,prac_learn_phase(without_color),354262,,,,,,,,black_plus_sign,,,null,object_15c.png,object_02a.png,,,,,,,,,,,,,,,,,,,,,
null,,black_cross(without_color)1,354962,,,,,,,,green,,,null,object_08b.png,object_07c.png,,,,,,,,,,,,,,,,,,,,,
null,,prac_rt_plussign_withcolor,355464,,,,,,,,green,,,null,object_15c.png,object_02a.png,,,,,,,,,,,,,,,,,,,,,
1109.6000000238419,,prac_rt_thecrossant_black,356381,,,,,,,,black_plus_sign,,,50,,,1,1,,,,,,,,,,,,,,,,,,,
null,,prac_color_black,356484,,,,,,,,black_plus_sign,,,null,,,,,,,,,,,,,,,,,,,,,,,
4880.600000023842,,instruct_dir_01,361367,,,,,,,,instruct,0,Next,,,,,,,,,,,,,,,,,,,,,,,,
3050.5,,instruct_dir_2,364419,,,,,,,,instruct,1,Next,,,,,,,,,,,,,,,,,,,,,,,,
5962.900000095367,,instruct_dir_3,370383,,,,,,,,instruct,1,Next,,,,,,,,,,,,,,,,,,,,,,,,
13046.800000071526,,instruct_dir_4,383431,,,,,,,,instruct,1,Start,,,,,,,,,,,,,,,,,,,,,,,,
null,,thebreak,383533,,,,,,,,<p></p>,,,null,,,,,,,,,,,,,,,,,,,,,,,
2193.899999976158,,intro_0,385729,,,,,,,,instruct,,,32,,,,,,,,,,,,,,,,,,,,,,,
4286.899999976158,,prac_directmemory_phase,390018,,,,,,,,practice/object_02b.png,,,50,,,,0,practice/object_02a.png,practice/object_03a.png,practice/object_01a.png,practice/object_02a.png,0,0,,,,,,,,,,,,,
5018.200000047684,,prac_directmemory_phase,395040,,,,,,,,practice/object_03b.png,,,50,,,,1,practice/object_02a.png,practice/object_03a.png,practice/object_04a.png,practice/object_03a.png,1,0.5,,,,,,,,,,,,,
3206,,prac_directmemory_phase,398250,,,,,,,,practice/object_04b.png,,,49,,,,1,practice/object_04a.png,practice/object_03a.png,practice/object_01a.png,practice/object_04a.png,1,0.6666666666666666,,,,,,,,,,,,,
1669.6999999284744,,prac_directmemory_phase,399921,,,,,,,,practice/object_01b.png,,,50,,,,1,practice/object_04a.png,practice/object_01a.png,practice/object_03a.png,practice/object_01a.png,1,0.75,,,,,,,,,,,,,
10113.100000023842,,practice_feedback,410036,,,,,,,,practice_feedback,1,,,,,,,,,,,,,,,,,,,,,,,,,
13402.5,,proceed_actualTask,423440,,,,,,,,proceed_actualTask,1,Continue,,,,,,,,,,,,,,,,,,,,,,,,
13051.100000023842,,last_inst,436492,,,,,,,,last_inst,,,32,,,,,,,,,,,,,,,,,,,,,,,
null,,learn_phase(without_color)1,439994,,,,,,,,black_plus_sign,,,null,object_08b.png,object_07c.png,,,,,,,,,,,,,,,,,,,,,
null,,black_cross(without_color)1,440693,,,,,,,,green,,,null,object_08b.png,object_07c.png,,,,,,,,,,,,,,,,,,,,,
null,,rt_plussign_withcolor1,441196,,,,,,,,green,,,null,object_08b.png,object_07c.png,,,,,,,,,,,,,,,,,,,,,
1283,,rt_thecrossant_black1,442506,,,,,,,,black_plus_sign,,,50,,,,1,,,,,,1,,,,,,,,,,,,,
null,,color_black1,442609,,,,,,,,black_plus_sign,,,null,,,,,,,,,,,,,,,,,,,,,,,
null,,learn_phase(without_color)1,446113,,,,,,,,black_plus_sign,,,null,object_03b.png,object_07a.png,,,,,,,,,,,,,,,,,,,,,
null,,black_cross(without_color)1,446801,,,,,,,,green,,,null,object_03b.png,object_07a.png,,,,,,,,,,,,,,,,,,,,,
null,,rt_plussign_withcolor1,447303,,,,,,,,green,,,null,object_03b.png,object_07a.png,,,,,,,,,,,,,,,,,,,,,
1127.1999999284744,,rt_thecrossant_black1,448621,,,,,,,,black_plus_sign,,,50,,,,1,,,,,,1,,,,,,,,,,,,,
null,,color_black1,448723,,,,,,,,black_plus_sign,,,null,,,,,,,,,,,,,,,,,,,,,,,
null,,learn_phase(without_color)1,452227,,,,,,,,black_plus_sign,,,null,object_10a.png,object_09b.png,,,,,,,,,,,,,,,,,,,,,
null,,black_cross(without_color)1,452631,,,,,,,,blue,,,null,object_10a.png,object_09b.png,,,,,,,,,,,,,,,,,,,,,
null,,rt_plussign_withcolor1,453133,,,,,,,,blue,,,null,object_10a.png,object_09b.png,,,,,,,,,,,,,,,,,,,,,
1122.7999999523163,,rt_thecrossant_black1,454737,,,,,,,,black_plus_sign,,,49,,,,1,,,,,,1,,,,,,,,,,,,,
null,,color_black1,454839,,,,,,,,black_plus_sign,,,null,,,,,,,,,,,,,,,,,,,,,,,
null,,learn_phase(without_color)1,458342,,,,,,,,black_plus_sign,,,null,object_15c.png,object_02a.png,,,,,,,,,,,,,,,,,,,,,
null,,black_cross(without_color)1,459185,,,,,,,,blue,,,null,object_15c.png,object_02a.png,,,,,,,,,,,,,,,,,,,,,
null,,rt_plussign_withcolor1,459687,,,,,,,,blue,,,null,object_15c.png,object_02a.png,,,,,,,,,,,,,,,,,,,,,
null,,rt_thecrossant_black1,460849,,,,,,,,black_plus_sign,,,null,,,,,,,,,,1,,,,,,,,,,,,,
null,,color_black1,460952,,,,,,,,black_plus_sign,,,null,,,,,,,,,,,,,,,,,,,,,,,
null,,learn_phase(without_color)1,464454,,,,,,,,black_plus_sign,,,null,object_14a.png,object_13b.png,,,,,,,,,,,,,,,,,,,,,
null,,black_cross(without_color)1,465254,,,,,,,,green,,,null,object_14a.png,object_13b.png,,,,,,,,,,,,,,,,,,,,,
null,,rt_plussign_withcolor1,465758,,,,,,,,green,,,null,object_14a.png,object_13b.png,,,,,,,,,,,,,,,,,,,,,
1256.8000000715256,,rt_thecrossant_black1,466962,,,,,,,,black_plus_sign,,,50,,,,1,,,,,,1,,,,,,,,,,,,,
null,,color_black1,467064,,,,,,,,black_plus_sign,,,null,,,,,,,,,,,,,,,,,,,,,,,
null,,learn_phase(without_color)1,470566,,,,,,,,black_plus_sign,,,null,object_09c.png,object_03a.png,,,,,,,,,,,,,,,,,,,,,
null,,black_cross(without_color)1,471178,,,,,,,,blue,,,null,object_09c.png,object_03a.png,,,,,,,,,,,,,,,,,,,,,
null,,rt_plussign_withcolor1,471681,,,,,,,,blue,,,null,object_09c.png,object_03a.png,,,,,,,,,,,,,,,,,,,,,
1142.3999999761581,,rt_thecrossant_black1,473073,,,,,,,,black_plus_sign,,,49,,,,1,,,,,,1,,,,,,,,,,,,,
null,,color_black1,473176,,,,,,,,black_plus_sign,,,null,,,,,,,,,,,,,,,,,,,,,,,
null,,learn_phase(without_color)1,476678,,,,,,,,black_plus_sign,,,null,object_02b.png,object_12c.png,,,,,,,,,,,,,,,,,,,,,
null,,black_cross(without_color)1,477225,,,,,,,,green,,,null,object_02b.png,object_12c.png,,,,,,,,,,,,,,,,,,,,,
null,,rt_plussign_withcolor1,477727,,,,,,,,green,,,null,object_02b.png,object_12c.png,,,,,,,,,,,,,,,,,,,,,
null,,rt_thecrossant_black1,479186,,,,,,,,black_plus_sign,,,null,,,,,,,,,,1,,,,,,,,,,,,,
null,,color_black1,479290,,,,,,,,black_plus_sign,,,null,,,,,,,,,,,,,,,,,,,,,,,
null,,learn_phase(without_color)1,482793,,,,,,,,black_plus_sign,,,null,object_08a.png,object_04b.png,,,,,,,,,,,,,,,,,,,,,
null,,black_cross(without_color)1,483249,,,,,,,,green,,,null,object_08a.png,object_04b.png,,,,,,,,,,,,,,,,,,,,,
null,,rt_plussign_withcolor1,483751,,,,,,,,green,,,null,object_08a.png,object_04b.png,,,,,,,,,,,,,,,,,,,,,
null,,rt_thecrossant_black1,485302,,,,,,,,black_plus_sign,,,null,,,,,,,,,,1,,,,,,,,,,,,,
null,,warning_page,490305,,,,,,,,warning,,,null,,,,,,,,,,,,,,,,,,,,,,,
null,,color_black1,490408,,,,,,,,black_plus_sign,,,null,,,,,,,,,,,,,,,,,,,,,,,
null,,learn_phase(without_color)1,493912,,,,,,,,black_plus_sign,,,null,object_06c.png,object_14b.png,,,,,,,,,,,,,,,,,,,,,
null,,black_cross(without_color)1,494610,,,,,,,,blue,,,null,object_06c.png,object_14b.png,,,,,,,,,,,,,,,,,,,,,
null,,rt_plussign_withcolor1,495113,,,,,,,,blue,,,null,object_06c.png,object_14b.png,,,,,,,,,,,,,,,,,,,,,
818.3000000715256,,rt_thecrossant_black1,496421,,,,,,,,black_plus_sign,,,49,,,,1,,,,,,1,,,,,,,,,,,,,
null,,color_black1,496525,,,,,,,,black_plus_sign,,,null,,,,,,,,,,,,,,,,,,,,,,,
null,,learn_phase(without_color)1,500028,,,,,,,,black_plus_sign,,,null,object_14c.png,object_05c.png,,,,,,,,,,,,,,,,,,,,,
null,,black_cross(without_color)1,500566,,,,,,,,green,,,null,object_14c.png,object_05c.png,,,,,,,,,,,,,,,,,,,,,
null,,rt_plussign_withcolor1,501068,,,,,,,,green,,,null,object_14c.png,object_05c.png,,,,,,,,,,,,,,,,,,,,,
1067.3000000715256,,rt_thecrossant_black1,502536,,,,,,,,black_plus_sign,,,50,,,,1,,,,,,1,,,,,,,,,,,,,
null,,color_black1,502638,,,,,,,,black_plus_sign,,,null,,,,,,,,,,,,,,,,,,,,,,,
null,,learn_phase(without_color)1,506140,,,,,,,,black_plus_sign,,,null,object_03c.png,object_12a.png,,,,,,,,,,,,,,,,,,,,,
null,,black_cross(without_color)1,506579,,,,,,,,blue,,,null,object_03c.png,object_12a.png,,,,,,,,,,,,,,,,,,,,,
null,,rt_plussign_withcolor1,507081,,,,,,,,blue,,,null,object_03c.png,object_12a.png,,,,,,,,,,,,,,,,,,,,,
1242.9000000953674,,rt_thecrossant_black1,508646,,,,,,,,black_plus_sign,,,49,,,,1,,,,,,1,,,,,,,,,,,,,
null,,color_black1,508752,,,,,,,,black_plus_sign,,,null,,,,,,,,,,,,,,,,,,,,,,,
null,,learn_phase(without_color)1,512255,,,,,,,,black_plus_sign,,,null,object_13c.png,object_11b.png,,,,,,,,,,,,,,,,,,,,,
null,,black_cross(without_color)1,513307,,,,,,,,green,,,null,object_13c.png,object_11b.png,,,,,,,,,,,,,,,,,,,,,
null,,rt_plussign_withcolor1,513809,,,,,,,,green,,,null,object_13c.png,object_11b.png,,,,,,,,,,,,,,,,,,,,,
1013.5999999046326,,rt_thecrossant_black1,514764,,,,,,,,black_plus_sign,,,50,,,,1,,,,,,1,,,,,,,,,,,,,
null,,color_black1,514867,,,,,,,,black_plus_sign,,,null,,,,,,,,,,,,,,,,,,,,,,,
null,,learn_phase(without_color)1,518370,,,,,,,,black_plus_sign,,,null,object_02c.png,object_07b.png,,,,,,,,,,,,,,,,,,,,,
null,,black_cross(without_color)1,518856,,,,,,,,green,,,null,object_02c.png,object_07b.png,,,,,,,,,,,,,,,,,,,,,
null,,rt_plussign_withcolor1,519371,,,,,,,,green,,,null,object_02c.png,object_07b.png,,,,,,,,,,,,,,,,,,,,,
1617.5,,rt_thecrossant_black1,520891,,,,,,,,black_plus_sign,,,50,,,,1,,,,,,1,,,,,,,,,,,,,
null,,color_black1,520994,,,,,,,,black_plus_sign,,,null,,,,,,,,,,,,,,,,,,,,,,,
null,,learn_phase(without_color)1,524498,,,,,,,,black_plus_sign,,,null,object_10b.png,object_08c.png,,,,,,,,,,,,,,,,,,,,,
null,,black_cross(without_color)1,525384,,,,,,,,blue,,,null,object_10b.png,object_08c.png,,,,,,,,,,,,,,,,,,,,,
null,,rt_plussign_withcolor1,525889,,,,,,,,blue,,,null,object_10b.png,object_08c.png,,,,,,,,,,,,,,,,,,,,,
942.7000000476837,,rt_thecrossant_black1,527008,,,,,,,,black_plus_sign,,,49,,,,1,,,,,,1,,,,,,,,,,,,,
null,,color_black1,527111,,,,,,,,black_plus_sign,,,null,,,,,,,,,,,,,,,,,,,,,,,
null,,learn_phase(without_color)1,530615,,,,,,,,black_plus_sign,,,null,object_04a.png,object_04c.png,,,,,,,,,,,,,,,,,,,,,
null,,black_cross(without_color)1,531190,,,,,,,,blue,,,null,object_04a.png,object_04c.png,,,,,,,,,,,,,,,,,,,,,
null,,rt_plussign_withcolor1,531692,,,,,,,,blue,,,null,object_04a.png,object_04c.png,,,,,,,,,,,,,,,,,,,,,
2009.7999999523163,,rt_thecrossant_black1,533123,,,,,,,,black_plus_sign,,,49,,,,1,,,,,,1,,,,,,,,,,,,,
null,,color_black1,533227,,,,,,,,black_plus_sign,,,null,,,,,,,,,,,,,,,,,,,,,,,
null,,thebreak,533333,,,,,,,,<p></p>,,,null,,,,,,,,,,,,,,,,,,,,,,,
1770.1999999284744,,intro_0,535105,,,,,,,,instruct,,,32,,,,,,,,,,,,,,,,,,,,,,,
6892.899999976158,,directmemory_phase1,541999,,,,,,,,object_07c.png,,,49,,,,1,object_08b.png,object_15c.png,object_04a.png,object_08b.png,,1,,1,,,,,,,,,,,
6525.599999904633,,directmemory_phase1,548527,,,,,,,,object_12a.png,,,49,,,,0,object_04a.png,object_03c.png,object_03b.png,object_03c.png,,0.5,,0,,,,,,,,,,,
4132.299999952316,,directmemory_phase1,552663,,,,,,,,object_14b.png,,,50,,,,0,object_06c.png,object_04a.png,object_09c.png,object_06c.png,,0.3333333333333333,,0,,,,,,,,,,,
5191.900000095367,,directmemory_phase1,557859,,,,,,,,object_07a.png,,,51,,,,0,object_03b.png,object_08a.png,object_09c.png,object_03b.png,,0.25,,0,,,,,,,,,,,
2521.5999999046326,,directmemory_phase1,560384,,,,,,,,object_03a.png,,,49,,,,1,object_09c.png,object_02c.png,object_06c.png,object_09c.png,,0.4,,1,,,,,,,,,,,
3603.7999999523163,,directmemory_phase1,563992,,,,,,,,object_08c.png,,,49,,,,0,object_03b.png,object_10b.png,object_13c.png,object_10b.png,,0.3333333333333333,,0,,,,,,,,,,,
3742.5,,directmemory_phase1,567738,,,,,,,,object_02a.png,,,51,,,,0,object_09c.png,object_15c.png,object_04a.png,object_15c.png,,0.2857142857142857,,0,,,,,,,,,,,
3612,,directmemory_phase1,571351,,,,,,,,object_05c.png,,,51,,,,0,object_09c.png,object_14c.png,object_02c.png,object_14c.png,,0.25,,0,,,,,,,,,,,
4271.399999976158,,directmemory_phase1,575624,,,,,,,,object_12c.png,,,51,,,,0,object_02b.png,object_13c.png,object_03b.png,object_02b.png,,0.2222222222222222,,0,,,,,,,,,,,
2783.600000023842,,directmemory_phase1,578410,,,,,,,,object_04b.png,,,50,,,,1,object_13c.png,object_08a.png,object_10b.png,object_08a.png,,0.3,,1,,,,,,,,,,,
4640.700000047684,,directmemory_phase1,583057,,,,,,,,object_13b.png,,,51,,,,0,object_14a.png,object_03b.png,object_08b.png,object_14a.png,,0.2727272727272727,,0,,,,,,,,,,,
3767.600000023842,,directmemory_phase1,586828,,,,,,,,object_04c.png,,,49,,,,1,object_04a.png,object_08a.png,object_13c.png,object_04a.png,,0.3333333333333333,,1,,,,,,,,,,,
4688.700000047684,,directmemory_phase1,591522,,,,,,,,object_11b.png,,,49,,,,1,object_13c.png,object_08a.png,object_02b.png,object_13c.png,,0.38461538461538464,,1,,,,,,,,,,,
4967,,directmemory_phase1,596493,,,,,,,,object_07b.png,,,49,,,,1,object_02c.png,object_13c.png,object_08b.png,object_02c.png,,0.42857142857142855,,1,,,,,,,,,,,
5424.5,,directmemory_phase1,601921,,,,,,,,object_09b.png,,,49,,,,0,object_06c.png,object_10a.png,object_15c.png,object_10a.png,,0.4,,0,,,,,,,,,,,
null,,thebreak,602027,,,,,,,,<p></p>,,,null,,,,,,,,,,,,,,,,,,,,,,,
2013.3999999761581,,intro_0,604042,,,,,,,,instruct,,,32,,,,,,,,,,,,,,,,,,,,,,,
null,,learn_phase(without_color)2,607544,,,,,,,,black_plus_sign,,,null,object_13c.png,object_11b.png,,,,,,,,,,,,,,,,,,,,,
null,,black_cross(without_color)2,608018,,,,,,,,green,,,null,object_13c.png,object_11b.png,,,,,,,,,,,,,,,,,,,,,
null,,rt_plussign_withcolor2,608519,,,,,,,,green,,,null,object_13c.png,object_11b.png,,,,,,,,,,,,,,,,,,,,,
947.3999999761581,,rt_thecrossant_black2,610050,,,,,,,,black_plus_sign,,,50,,,,1,,,,,,1,,,,,,,,,,,,,
null,,color_black2,610153,,,,,,,,black_plus_sign,,,null,,,,,,,,,,,,,,,,,,,,,,,
null,,learn_phase(without_color)2,613668,,,,,,,,black_plus_sign,,,null,object_10a.png,object_09b.png,,,,,,,,,,,,,,,,,,,,,
null,,black_cross(without_color)2,614699,,,,,,,,blue,,,null,object_10a.png,object_09b.png,,,,,,,,,,,,,,,,,,,,,
null,,rt_plussign_withcolor2,615202,,,,,,,,blue,,,null,object_10a.png,object_09b.png,,,,,,,,,,,,,,,,,,,,,
null,,rt_thecrossant_black2,616176,,,,,,,,black_plus_sign,,,null,,,,,,,,,,1,,,,,,,,,,,,,
null,,color_black2,616279,,,,,,,,black_plus_sign,,,null,,,,,,,,,,,,,,,,,,,,,,,
null,,learn_phase(without_color)2,619784,,,,,,,,black_plus_sign,,,null,object_08b.png,object_07c.png,,,,,,,,,,,,,,,,,,,,,
null,,black_cross(without_color)2,620760,,,,,,,,blue,,,null,object_08b.png,object_07c.png,,,,,,,,,,,,,,,,,,,,,
null,,rt_plussign_withcolor2,621262,,,,,,,,blue,,,null,object_08b.png,object_07c.png,,,,,,,,,,,,,,,,,,,,,
2054.7000000476837,,rt_thecrossant_black2,622292,,,,,,,,black_plus_sign,,,49,,,,1,,,,,,1,,,,,,,,,,,,,
null,,color_black2,622396,,,,,,,,black_plus_sign,,,null,,,,,,,,,,,,,,,,,,,,,,,
null,,learn_phase(without_color)2,625899,,,,,,,,black_plus_sign,,,null,object_03c.png,object_12a.png,,,,,,,,,,,,,,,,,,,,,
null,,black_cross(without_color)2,626425,,,,,,,,blue,,,null,object_03c.png,object_12a.png,,,,,,,,,,,,,,,,,,,,,
null,,rt_plussign_withcolor2,626940,,,,,,,,blue,,,null,object_03c.png,object_12a.png,,,,,,,,,,,,,,,,,,,,,
1397.6000000238419,,rt_thecrossant_black2,628419,,,,,,,,black_plus_sign,,,49,,,,1,,,,,,1,,,,,,,,,,,,,
null,,color_black2,628522,,,,,,,,black_plus_sign,,,null,,,,,,,,,,,,,,,,,,,,,,,
null,,learn_phase(without_color)2,632027,,,,,,,,black_plus_sign,,,null,object_09c.png,object_03a.png,,,,,,,,,,,,,,,,,,,,,
null,,black_cross(without_color)2,632862,,,,,,,,green,,,null,object_09c.png,object_03a.png,,,,,,,,,,,,,,,,,,,,,
465.8000000715256,,rt_plussign_withcolor2,633366,,,,,,,,green,,,50,object_09c.png,object_03a.png,,,,,,,,,,,,,,,,,,,,,
null,,rt_thecrossant_black2,634537,,,,,,,,black_plus_sign,,,null,,,,1,,,,,,1,,,,,,,,,,,,,
null,,color_black2,634639,,,,,,,,black_plus_sign,,,null,,,,,,,,,,,,,,,,,,,,,,,
null,,learn_phase(without_color)2,638143,,,,,,,,black_plus_sign,,,null,object_08a.png,object_04b.png,,,,,,,,,,,,,,,,,,,,,
null,,black_cross(without_color)2,639213,,,,,,,,blue,,,null,object_08a.png,object_04b.png,,,,,,,,,,,,,,,,,,,,,
null,,rt_plussign_withcolor2,639717,,,,,,,,blue,,,null,object_08a.png,object_04b.png,,,,,,,,,,,,,,,,,,,,,
1189.6999999284744,,rt_thecrossant_black2,640652,,,,,,,,black_plus_sign,,,49,,,,1,,,,,,1,,,,,,,,,,,,,
null,,color_black2,640758,,,,,,,,black_plus_sign,,,null,,,,,,,,,,,,,,,,,,,,,,,
null,,learn_phase(without_color)2,644259,,,,,,,,black_plus_sign,,,null,object_14a.png,object_13b.png,,,,,,,,,,,,,,,,,,,,,
null,,black_cross(without_color)2,645146,,,,,,,,blue,,,null,object_14a.png,object_13b.png,,,,,,,,,,,,,,,,,,,,,
null,,rt_plussign_withcolor2,645648,,,,,,,,blue,,,null,object_14a.png,object_13b.png,,,,,,,,,,,,,,,,,,,,,
1480.5,,rt_thecrossant_black2,646765,,,,,,,,black_plus_sign,,,49,,,,1,,,,,,1,,,,,,,,,,,,,
null,,color_black2,646867,,,,,,,,black_plus_sign,,,null,,,,,,,,,,,,,,,,,,,,,,,
null,,learn_phase(without_color)2,650371,,,,,,,,black_plus_sign,,,null,object_14c.png,object_05c.png,,,,,,,,,,,,,,,,,,,,,
null,,black_cross(without_color)2,651396,,,,,,,,blue,,,null,object_14c.png,object_05c.png,,,,,,,,,,,,,,,,,,,,,
null,,rt_plussign_withcolor2,651902,,,,,,,,blue,,,null,object_14c.png,object_05c.png,,,,,,,,,,,,,,,,,,,,,
1295.6000000238419,,rt_thecrossant_black2,652887,,,,,,,,black_plus_sign,,,49,,,,1,,,,,,1,,,,,,,,,,,,,
null,,color_black2,652989,,,,,,,,black_plus_sign,,,null,,,,,,,,,,,,,,,,,,,,,,,
null,,learn_phase(without_color)2,656494,,,,,,,,black_plus_sign,,,null,object_03b.png,object_07a.png,,,,,,,,,,,,,,,,,,,,,
null,,black_cross(without_color)2,656921,,,,,,,,green,,,null,object_03b.png,object_07a.png,,,,,,,,,,,,,,,,,,,,,
null,,rt_plussign_withcolor2,657424,,,,,,,,green,,,null,object_03b.png,object_07a.png,,,,,,,,,,,,,,,,,,,,,
2357.399999976158,,rt_thecrossant_black2,659003,,,,,,,,black_plus_sign,,,50,,,,1,,,,,,1,,,,,,,,,,,,,
null,,color_black2,659116,,,,,,,,black_plus_sign,,,null,,,,,,,,,,,,,,,,,,,,,,,
null,,learn_phase(without_color)2,662618,,,,,,,,black_plus_sign,,,null,object_02b.png,object_12c.png,,,,,,,,,,,,,,,,,,,,,
null,,black_cross(without_color)2,663470,,,,,,,,blue,,,null,object_02b.png,object_12c.png,,,,,,,,,,,,,,,,,,,,,
null,,rt_plussign_withcolor2,663972,,,,,,,,blue,,,null,object_02b.png,object_12c.png,,,,,,,,,,,,,,,,,,,,,
772.3000000715256,,rt_thecrossant_black2,665125,,,,,,,,black_plus_sign,,,49,,,,1,,,,,,1,,,,,,,,,,,,,
null,,color_black2,665229,,,,,,,,black_plus_sign,,,null,,,,,,,,,,,,,,,,,,,,,,,
null,,learn_phase(without_color)2,668734,,,,,,,,black_plus_sign,,,null,object_06c.png,object_14b.png,,,,,,,,,,,,,,,,,,,,,
null,,black_cross(without_color)2,669368,,,,,,,,green,,,null,object_06c.png,object_14b.png,,,,,,,,,,,,,,,,,,,,,
null,,rt_plussign_withcolor2,669871,,,,,,,,green,,,null,object_06c.png,object_14b.png,,,,,,,,,,,,,,,,,,,,,
2102.6999999284744,,rt_thecrossant_black2,671242,,,,,,,,black_plus_sign,,,50,,,,1,,,,,,1,,,,,,,,,,,,,
null,,color_black2,671345,,,,,,,,black_plus_sign,,,null,,,,,,,,,,,,,,,,,,,,,,,
null,,learn_phase(without_color)2,674850,,,,,,,,black_plus_sign,,,null,object_02c.png,object_07b.png,,,,,,,,,,,,,,,,,,,,,
null,,black_cross(without_color)2,675655,,,,,,,,blue,,,null,object_02c.png,object_07b.png,,,,,,,,,,,,,,,,,,,,,
null,,rt_plussign_withcolor2,676156,,,,,,,,blue,,,null,object_02c.png,object_07b.png,,,,,,,,,,,,,,,,,,,,,
1161,,rt_thecrossant_black2,677357,,,,,,,,black_plus_sign,,,49,,,,1,,,,,,1,,,,,,,,,,,,,
null,,color_black2,677459,,,,,,,,black_plus_sign,,,null,,,,,,,,,,,,,,,,,,,,,,,
null,,learn_phase(without_color)2,680962,,,,,,,,black_plus_sign,,,null,object_04a.png,object_04c.png,,,,,,,,,,,,,,,,,,,,,
null,,black_cross(without_color)2,681367,,,,,,,,green,,,null,object_04a.png,object_04c.png,,,,,,,,,,,,,,,,,,,,,
null,,rt_plussign_withcolor2,681869,,,,,,,,green,,,null,object_04a.png,object_04c.png,,,,,,,,,,,,,,,,,,,,,
1894.6000000238419,,rt_thecrossant_black2,683468,,,,,,,,black_plus_sign,,,50,,,,1,,,,,,1,,,,,,,,,,,,,
null,,color_black2,683571,,,,,,,,black_plus_sign,,,null,,,,,,,,,,,,,,,,,,,,,,,
null,,learn_phase(without_color)2,687076,,,,,,,,black_plus_sign,,,null,object_10b.png,object_08c.png,,,,,,,,,,,,,,,,,,,,,
null,,black_cross(without_color)2,688059,,,,,,,,blue,,,null,object_10b.png,object_08c.png,,,,,,,,,,,,,,,,,,,,,
null,,rt_plussign_withcolor2,688561,,,,,,,,blue,,,null,object_10b.png,object_08c.png,,,,,,,,,,,,,,,,,,,,,
827.6000000238419,,rt_thecrossant_black2,689585,,,,,,,,black_plus_sign,,,49,,,,1,,,,,,1,,,,,,,,,,,,,
null,,color_black2,689688,,,,,,,,black_plus_sign,,,null,,,,,,,,,,,,,,,,,,,,,,,
null,,learn_phase(without_color)2,693193,,,,,,,,black_plus_sign,,,null,object_15c.png,object_02a.png,,,,,,,,,,,,,,,,,,,,,
null,,black_cross(without_color)2,693707,,,,,,,,green,,,null,object_15c.png,object_02a.png,,,,,,,,,,,,,,,,,,,,,
null,,rt_plussign_withcolor2,694209,,,,,,,,green,,,null,object_15c.png,object_02a.png,,,,,,,,,,,,,,,,,,,,,
2346.9000000953674,,rt_thecrossant_black2,695703,,,,,,,,black_plus_sign,,,50,,,,1,,,,,,1,,,,,,,,,,,,,
null,,color_black2,695807,,,,,,,,black_plus_sign,,,null,,,,,,,,,,,,,,,,,,,,,,,
null,,thebreak,695911,,,,,,,,<p></p>,,,null,,,,,,,,,,,,,,,,,,,,,,,
5292.899999976158,,intro_0,701206,,,,,,,,instruct,,,32,,,,,,,,,,,,,,,,,,,,,,,
4343.299999952316,,directmemory_phase2,705552,,,,,,,,object_05c.png,,,49,,,,0,object_15c.png,object_14c.png,object_03b.png,object_14c.png,,0.375,,0,,,,,,,,,,,
4851.300000071526,,directmemory_phase2,710408,,,,,,,,object_07c.png,,,50,,,,1,object_14c.png,object_08b.png,object_02c.png,object_08b.png,,0.4117647058823529,,1,,,,,,,,,,,
1527.2000000476837,,directmemory_phase2,711939,,,,,,,,object_04c.png,,,49,,,,1,object_04a.png,object_02b.png,object_03c.png,object_04a.png,,0.4444444444444444,,1,,,,,,,,,,,
4979.799999952316,,directmemory_phase2,716920,,,,,,,,object_03a.png,,,50,,,,0,object_09c.png,object_14c.png,object_06c.png,object_09c.png,,0.42105263157894735,,0,,,,,,,,,,,
1902.2000000476837,,directmemory_phase2,718825,,,,,,,,object_08c.png,,,49,,,,1,object_10b.png,object_04a.png,object_03b.png,object_10b.png,,0.45,,1,,,,,,,,,,,
5393.100000023842,,directmemory_phase2,724223,,,,,,,,object_14b.png,,,50,,,,1,object_13c.png,object_06c.png,object_10a.png,object_06c.png,,0.47619047619047616,,1,,,,,,,,,,,
4358.700000047684,,directmemory_phase2,728586,,,,,,,,object_11b.png,,,50,,,,0,object_04a.png,object_10b.png,object_13c.png,object_13c.png,,0.45454545454545453,,0,,,,,,,,,,,
5945.300000071526,,directmemory_phase2,734534,,,,,,,,object_07a.png,,,51,,,,1,object_09c.png,object_14c.png,object_03b.png,object_03b.png,,0.4782608695652174,,1,,,,,,,,,,,
3513.1999999284744,,directmemory_phase2,738052,,,,,,,,object_12a.png,,,50,,,,1,object_15c.png,object_03c.png,object_03b.png,object_03c.png,,0.5,,1,,,,,,,,,,,
5087.800000071526,,directmemory_phase2,743144,,,,,,,,object_02a.png,,,50,,,,0,object_09c.png,object_02b.png,object_15c.png,object_15c.png,,0.48,,0,,,,,,,,,,,
1988.8999999761581,,directmemory_phase2,745136,,,,,,,,object_07b.png,,,49,,,,1,object_02c.png,object_15c.png,object_10a.png,object_02c.png,,0.5,,1,,,,,,,,,,,
3957.7000000476837,,directmemory_phase2,749097,,,,,,,,object_09b.png,,,51,,,,1,object_09c.png,object_06c.png,object_10a.png,object_10a.png,,0.5185185185185185,,1,,,,,,,,,,,
3329.5,,directmemory_phase2,752428,,,,,,,,object_04b.png,,,51,,,,1,object_03c.png,object_06c.png,object_08a.png,object_08a.png,,0.5357142857142857,,1,,,,,,,,,,,
5467.599999904633,,directmemory_phase2,757898,,,,,,,,object_13b.png,,,49,,,,1,object_14a.png,object_06c.png,object_04a.png,object_14a.png,,0.5517241379310345,,1,,,,,,,,,,,
4315,,directmemory_phase2,762218,,,,,,,,object_12c.png,,,50,,,,1,object_02c.png,object_02b.png,object_10b.png,object_02b.png,,0.5666666666666667,,1,,,,,,,,,,,
null,,thebreak,762324,,,,,,,,<p></p>,,,null,,,,,,,,,,,,,,,,,,,,,,,
4316.900000095367,,intro_0,766643,,,,,,,,instruct,,,32,,,,,,,,,,,,,,,,,,,,,,,
null,,learn_phase(without_color)3,770146,,,,,,,,black_plus_sign,,,null,object_02b.png,object_12c.png,,,,,,,,,,,,,,,,,,,,,
null,,black_cross(without_color)3,771207,,,,,,,,green,,,null,object_02b.png,object_12c.png,,,,,,,,,,,,,,,,,,,,,
null,,rt_plussign_withcolor3,771709,,,,,,,,green,,,null,object_02b.png,object_12c.png,,,,,,,,,,,,,,,,,,,,,
1523,,rt_thecrossant_black3,772655,,,,,,,,black_plus_sign,,,50,,,,1,,,,,,1,,,,,,,,,,,,,
null,,color_black3,772759,,,,,,,,black_plus_sign,,,null,,,,,,,,,,,,,,,,,,,,,,,
null,,learn_phase(without_color)3,776262,,,,,,,,black_plus_sign,,,null,object_10a.png,object_09b.png,,,,,,,,,,,,,,,,,,,,,
null,,black_cross(without_color)3,777273,,,,,,,,green,,,null,object_10a.png,object_09b.png,,,,,,,,,,,,,,,,,,,,,
null,,rt_plussign_withcolor3,777774,,,,,,,,green,,,null,object_10a.png,object_09b.png,,,,,,,,,,,,,,,,,,,,,
1630.5,,rt_thecrossant_black3,778770,,,,,,,,black_plus_sign,,,50,,,,1,,,,,,1,,,,,,,,,,,,,
null,,color_black3,778872,,,,,,,,black_plus_sign,,,null,,,,,,,,,,,,,,,,,,,,,,,
null,,learn_phase(without_color)3,782376,,,,,,,,black_plus_sign,,,null,object_03c.png,object_12a.png,,,,,,,,,,,,,,,,,,,,,
null,,black_cross(without_color)3,783455,,,,,,,,green,,,null,object_03c.png,object_12a.png,,,,,,,,,,,,,,,,,,,,,
null,,rt_plussign_withcolor3,783957,,,,,,,,green,,,null,object_03c.png,object_12a.png,,,,,,,,,,,,,,,,,,,,,
1736.6000000238419,,rt_thecrossant_black3,784882,,,,,,,,black_plus_sign,,,50,,,,1,,,,,,1,,,,,,,,,,,,,
null,,color_black3,784984,,,,,,,,black_plus_sign,,,null,,,,,,,,,,,,,,,,,,,,,,,
null,,learn_phase(without_color)3,788487,,,,,,,,black_plus_sign,,,null,object_08b.png,object_07c.png,,,,,,,,,,,,,,,,,,,,,
null,,black_cross(without_color)3,789047,,,,,,,,blue,,,null,object_08b.png,object_07c.png,,,,,,,,,,,,,,,,,,,,,
415.7000000476837,,rt_plussign_withcolor3,789556,,,,,,,,blue,,,49,object_08b.png,object_07c.png,,,,,,,,,,,,,,,,,,,,,
null,,rt_thecrossant_black3,791002,,,,,,,,black_plus_sign,,,49,,,,1,,,,,,1,,,,,,,,,,,,,
null,,color_black3,791105,,,,,,,,black_plus_sign,,,null,,,,,,,,,,,,,,,,,,,,,,,
null,,learn_phase(without_color)3,794610,,,,,,,,black_plus_sign,,,null,object_04a.png,object_04c.png,,,,,,,,,,,,,,,,,,,,,
null,,black_cross(without_color)3,795381,,,,,,,,blue,,,null,object_04a.png,object_04c.png,,,,,,,,,,,,,,,,,,,,,
null,,rt_plussign_withcolor3,795883,,,,,,,,blue,,,null,object_04a.png,object_04c.png,,,,,,,,,,,,,,,,,,,,,
1819.2000000476837,,rt_thecrossant_black3,797117,,,,,,,,black_plus_sign,,,49,,,,1,,,,,,1,,,,,,,,,,,,,
null,,color_black3,797221,,,,,,,,black_plus_sign,,,null,,,,,,,,,,,,,,,,,,,,,,,
null,,learn_phase(without_color)3,800724,,,,,,,,black_plus_sign,,,null,object_06c.png,object_14b.png,,,,,,,,,,,,,,,,,,,,,
null,,black_cross(without_color)3,801746,,,,,,,,green,,,null,object_06c.png,object_14b.png,,,,,,,,,,,,,,,,,,,,,
null,,rt_plussign_withcolor3,802248,,,,,,,,green,,,null,object_06c.png,object_14b.png,,,,,,,,,,,,,,,,,,,,,
1458.1999999284744,,rt_thecrossant_black3,803234,,,,,,,,black_plus_sign,,,50,,,,1,,,,,,1,,,,,,,,,,,,,
null,,color_black3,803336,,,,,,,,black_plus_sign,,,null,,,,,,,,,,,,,,,,,,,,,,,
null,,learn_phase(without_color)3,806840,,,,,,,,black_plus_sign,,,null,object_09c.png,object_03a.png,,,,,,,,,,,,,,,,,,,,,
null,,black_cross(without_color)3,807390,,,,,,,,blue,,,null,object_09c.png,object_03a.png,,,,,,,,,,,,,,,,,,,,,
null,,rt_plussign_withcolor3,807892,,,,,,,,blue,,,null,object_09c.png,object_03a.png,,,,,,,,,,,,,,,,,,,,,
1276.1000000238419,,rt_thecrossant_black3,809349,,,,,,,,black_plus_sign,,,49,,,,1,,,,,,1,,,,,,,,,,,,,
null,,color_black3,809452,,,,,,,,black_plus_sign,,,null,,,,,,,,,,,,,,,,,,,,,,,
null,,learn_phase(without_color)3,812956,,,,,,,,black_plus_sign,,,null,object_03b.png,object_07a.png,,,,,,,,,,,,,,,,,,,,,
null,,black_cross(without_color)3,813359,,,,,,,,blue,,,null,object_03b.png,object_07a.png,,,,,,,,,,,,,,,,,,,,,
null,,rt_plussign_withcolor3,813861,,,,,,,,blue,,,null,object_03b.png,object_07a.png,,,,,,,,,,,,,,,,,,,,,
829.5,,rt_thecrossant_black3,815464,,,,,,,,black_plus_sign,,,49,,,,1,,,,,,1,,,,,,,,,,,,,
null,,color_black3,815567,,,,,,,,black_plus_sign,,,null,,,,,,,,,,,,,,,,,,,,,,,
null,,learn_phase(without_color)3,819070,,,,,,,,black_plus_sign,,,null,object_10b.png,object_08c.png,,,,,,,,,,,,,,,,,,,,,
null,,black_cross(without_color)3,819809,,,,,,,,green,,,null,object_10b.png,object_08c.png,,,,,,,,,,,,,,,,,,,,,
null,,rt_plussign_withcolor3,820310,,,,,,,,green,,,null,object_10b.png,object_08c.png,,,,,,,,,,,,,,,,,,,,,
1236.7999999523163,,rt_thecrossant_black3,821576,,,,,,,,black_plus_sign,,,50,,,,1,,,,,,1,,,,,,,,,,,,,
null,,color_black3,821678,,,,,,,,black_plus_sign,,,null,,,,,,,,,,,,,,,,,,,,,,,
null,,learn_phase(without_color)3,825181,,,,,,,,black_plus_sign,,,null,object_15c.png,object_02a.png,,,,,,,,,,,,,,,,,,,,,
null,,black_cross(without_color)3,825671,,,,,,,,green,,,null,object_15c.png,object_02a.png,,,,,,,,,,,,,,,,,,,,,
null,,rt_plussign_withcolor3,826175,,,,,,,,green,,,null,object_15c.png,object_02a.png,,,,,,,,,,,,,,,,,,,,,
1773.7999999523163,,rt_thecrossant_black3,827691,,,,,,,,black_plus_sign,,,50,,,,1,,,,,,1,,,,,,,,,,,,,
null,,color_black3,827794,,,,,,,,black_plus_sign,,,null,,,,,,,,,,,,,,,,,,,,,,,
null,,learn_phase(without_color)3,831298,,,,,,,,black_plus_sign,,,null,object_13c.png,object_11b.png,,,,,,,,,,,,,,,,,,,,,
null,,black_cross(without_color)3,832323,,,,,,,,blue,,,null,object_13c.png,object_11b.png,,,,,,,,,,,,,,,,,,,,,
null,,rt_plussign_withcolor3,832826,,,,,,,,blue,,,null,object_13c.png,object_11b.png,,,,,,,,,,,,,,,,,,,,,
871.1000000238419,,rt_thecrossant_black3,833807,,,,,,,,black_plus_sign,,,49,,,,1,,,,,,1,,,,,,,,,,,,,
null,,color_black3,833911,,,,,,,,black_plus_sign,,,null,,,,,,,,,,,,,,,,,,,,,,,
null,,learn_phase(without_color)3,837415,,,,,,,,black_plus_sign,,,null,object_02c.png,object_07b.png,,,,,,,,,,,,,,,,,,,,,
null,,black_cross(without_color)3,837968,,,,,,,,green,,,null,object_02c.png,object_07b.png,,,,,,,,,,,,,,,,,,,,,
null,,rt_plussign_withcolor3,838470,,,,,,,,green,,,null,object_02c.png,object_07b.png,,,,,,,,,,,,,,,,,,,,,
1758.7999999523163,,rt_thecrossant_black3,839923,,,,,,,,black_plus_sign,,,50,,,,1,,,,,,1,,,,,,,,,,,,,
null,,color_black3,840027,,,,,,,,black_plus_sign,,,null,,,,,,,,,,,,,,,,,,,,,,,
null,,learn_phase(without_color)3,843531,,,,,,,,black_plus_sign,,,null,object_08a.png,object_04b.png,,,,,,,,,,,,,,,,,,,,,
null,,black_cross(without_color)3,844633,,,,,,,,blue,,,null,object_08a.png,object_04b.png,,,,,,,,,,,,,,,,,,,,,
null,,rt_plussign_withcolor3,845135,,,,,,,,blue,,,null,object_08a.png,object_04b.png,,,,,,,,,,,,,,,,,,,,,
876.3999999761581,,rt_thecrossant_black3,846041,,,,,,,,black_plus_sign,,,49,,,,1,,,,,,1,,,,,,,,,,,,,
null,,color_black3,846144,,,,,,,,black_plus_sign,,,null,,,,,,,,,,,,,,,,,,,,,,,
null,,learn_phase(without_color)3,849647,,,,,,,,black_plus_sign,,,null,object_14a.png,object_13b.png,,,,,,,,,,,,,,,,,,,,,
null,,black_cross(without_color)3,850077,,,,,,,,green,,,null,object_14a.png,object_13b.png,,,,,,,,,,,,,,,,,,,,,
null,,rt_plussign_withcolor3,850595,,,,,,,,green,,,null,object_14a.png,object_13b.png,,,,,,,,,,,,,,,,,,,,,
2504.6999999284744,,rt_thecrossant_black3,852173,,,,,,,,black_plus_sign,,,50,,,,1,,,,,,1,,,,,,,,,,,,,
null,,color_black3,852276,,,,,,,,black_plus_sign,,,null,,,,,,,,,,,,,,,,,,,,,,,
null,,learn_phase(without_color)3,855778,,,,,,,,black_plus_sign,,,null,object_14c.png,object_05c.png,,,,,,,,,,,,,,,,,,,,,
null,,black_cross(without_color)3,856383,,,,,,,,blue,,,null,object_14c.png,object_05c.png,,,,,,,,,,,,,,,,,,,,,
null,,rt_plussign_withcolor3,856885,,,,,,,,blue,,,null,object_14c.png,object_05c.png,,,,,,,,,,,,,,,,,,,,,
1431,,rt_thecrossant_black3,858284,,,,,,,,black_plus_sign,,,49,,,,1,,,,,,1,,,,,,,,,,,,,
null,,color_black3,858386,,,,,,,,black_plus_sign,,,null,,,,,,,,,,,,,,,,,,,,,,,
null,,thebreak,858489,,,,,,,,<p></p>,,,null,,,,,,,,,,,,,,,,,,,,,,,
4495.699999928474,,intro_0,862986,,,,,,,,instruct,,,32,,,,,,,,,,,,,,,,,,,,,,,
3684.899999976158,,directmemory_phase3,866675,,,,,,,,object_04c.png,,,50,,,,1,object_14c.png,object_04a.png,object_15c.png,object_04a.png,,0.5806451612903226,,1,,,,,,,,,,,
3664.399999976158,,directmemory_phase3,870344,,,,,,,,object_09b.png,,,51,,,,1,object_06c.png,object_14c.png,object_10a.png,object_10a.png,,0.59375,,1,,,,,,,,,,,
1889.5,,directmemory_phase3,872238,,,,,,,,object_04b.png,,,49,,,,1,object_08a.png,object_10b.png,object_02c.png,object_08a.png,,0.6060606060606061,,1,,,,,,,,,,,
3164.1999999284744,,directmemory_phase3,875406,,,,,,,,object_03a.png,,,49,,,,1,object_09c.png,object_04a.png,object_08a.png,object_09c.png,,0.6176470588235294,,1,,,,,,,,,,,
2298.5,,directmemory_phase3,877709,,,,,,,,object_07c.png,,,50,,,,1,object_15c.png,object_08b.png,object_13c.png,object_08b.png,,0.6285714285714286,,1,,,,,,,,,,,
3219.1999999284744,,directmemory_phase3,880932,,,,,,,,object_13b.png,,,51,,,,1,object_10b.png,object_03c.png,object_14a.png,object_14a.png,,0.6388888888888888,,1,,,,,,,,,,,
2549.2000000476837,,directmemory_phase3,883486,,,,,,,,object_07b.png,,,50,,,,1,object_15c.png,object_02c.png,object_13c.png,object_02c.png,,0.6486486486486487,,1,,,,,,,,,,,
3649.100000023842,,directmemory_phase3,887137,,,,,,,,object_02a.png,,,49,,,,0,object_13c.png,object_02c.png,object_15c.png,object_15c.png,,0.631578947368421,,0,,,,,,,,,,,
2894,,directmemory_phase3,890033,,,,,,,,object_12c.png,,,50,,,,0,object_13c.png,object_03b.png,object_02b.png,object_02b.png,,0.6153846153846154,,0,,,,,,,,,,,
4828.700000047684,,directmemory_phase3,894864,,,,,,,,object_14b.png,,,50,,,,1,object_10b.png,object_06c.png,object_14c.png,object_06c.png,,0.625,,1,,,,,,,,,,,
3417,,directmemory_phase3,898286,,,,,,,,object_07a.png,,,49,,,,1,object_03b.png,object_08a.png,object_03c.png,object_03b.png,,0.6341463414634146,,1,,,,,,,,,,,
2389.3000000715256,,directmemory_phase3,900680,,,,,,,,object_08c.png,,,50,,,,1,object_10a.png,object_10b.png,object_08a.png,object_10b.png,,0.6428571428571429,,1,,,,,,,,,,,
5621.600000023842,,directmemory_phase3,906307,,,,,,,,object_11b.png,,,49,,,,0,object_14c.png,object_13c.png,object_06c.png,object_13c.png,,0.627906976744186,,0,,,,,,,,,,,
1296.7000000476837,,directmemory_phase3,907607,,,,,,,,object_12a.png,,,50,,,,1,object_10a.png,object_03c.png,object_09c.png,object_03c.png,,0.6363636363636364,,1,,,,,,,,,,,
4987,,directmemory_phase3,912597,,,,,,,,object_05c.png,,,49,,,,0,object_13c.png,object_14c.png,object_02c.png,object_14c.png,,0.6222222222222222,,0,,,,,,,,,,,
null,,thebreak,912702,,,,,,,,<p></p>,,,null,,,,,,,,,,,,,,,,,,,,,,,
4844.800000071526,,intro_0,917549,,,,,,,,instruct,,,32,,,,,,,,,,,,,,,,,,,,,,,
null,,learn_phase(without_color)4,921052,,,,,,,,black_plus_sign,,,null,object_10b.png,object_08c.png,,,,,,,,,,,,,,,,,,,,,
null,,black_cross(without_color)4,922050,,,,,,,,green,,,null,object_10b.png,object_08c.png,,,,,,,,,,,,,,,,,,,,,
null,,rt_plussign_withcolor4,922552,,,,,,,,green,,,null,object_10b.png,object_08c.png,,,,,,,,,,,,,,,,,,,,,
1699.7000000476837,,rt_thecrossant_black4,923559,,,,,,,,black_plus_sign,,,50,,,,1,,,,,,1,,,,,,,,,,,,,
null,,color_black4,923662,,,,,,,,black_plus_sign,,,null,,,,,,,,,,,,,,,,,,,,,,,
null,,learn_phase(without_color)4,927164,,,,,,,,black_plus_sign,,,null,object_02c.png,object_07b.png,,,,,,,,,,,,,,,,,,,,,
null,,black_cross(without_color)4,928263,,,,,,,,blue,,,null,object_02c.png,object_07b.png,,,,,,,,,,,,,,,,,,,,,
null,,rt_plussign_withcolor4,928766,,,,,,,,blue,,,null,object_02c.png,object_07b.png,,,,,,,,,,,,,,,,,,,,,
1346.3000000715256,,rt_thecrossant_black4,929673,,,,,,,,black_plus_sign,,,49,,,,1,,,,,,1,,,,,,,,,,,,,
null,,color_black4,929777,,,,,,,,black_plus_sign,,,null,,,,,,,,,,,,,,,,,,,,,,,
null,,learn_phase(without_color)4,933281,,,,,,,,black_plus_sign,,,null,object_08b.png,object_07c.png,,,,,,,,,,,,,,,,,,,,,
null,,black_cross(without_color)4,933709,,,,,,,,green,,,null,object_08b.png,object_07c.png,,,,,,,,,,,,,,,,,,,,,
null,,rt_plussign_withcolor4,934212,,,,,,,,green,,,null,object_08b.png,object_07c.png,,,,,,,,,,,,,,,,,,,,,
2220.100000023842,,rt_thecrossant_black4,935790,,,,,,,,black_plus_sign,,,50,,,,1,,,,,,1,,,,,,,,,,,,,
null,,color_black4,935893,,,,,,,,black_plus_sign,,,null,,,,,,,,,,,,,,,,,,,,,,,
null,,learn_phase(without_color)4,939399,,,,,,,,black_plus_sign,,,null,object_09c.png,object_03a.png,,,,,,,,,,,,,,,,,,,,,
null,,black_cross(without_color)4,940099,,,,,,,,green,,,null,object_09c.png,object_03a.png,,,,,,,,,,,,,,,,,,,,,
null,,rt_plussign_withcolor4,940601,,,,,,,,green,,,null,object_09c.png,object_03a.png,,,,,,,,,,,,,,,,,,,,,
901.6000000238419,,rt_thecrossant_black4,941907,,,,,,,,black_plus_sign,,,50,,,,1,,,,,,1,,,,,,,,,,,,,
null,,color_black4,942011,,,,,,,,black_plus_sign,,,null,,,,,,,,,,,,,,,,,,,,,,,
null,,learn_phase(without_color)4,945515,,,,,,,,black_plus_sign,,,null,object_14c.png,object_05c.png,,,,,,,,,,,,,,,,,,,,,
null,,black_cross(without_color)4,945979,,,,,,,,blue,,,null,object_14c.png,object_05c.png,,,,,,,,,,,,,,,,,,,,,
null,,rt_plussign_withcolor4,946481,,,,,,,,blue,,,null,object_14c.png,object_05c.png,,,,,,,,,,,,,,,,,,,,,
1259.5,,rt_thecrossant_black4,948023,,,,,,,,black_plus_sign,,,49,,,,1,,,,,,1,,,,,,,,,,,,,
null,,color_black4,948127,,,,,,,,black_plus_sign,,,null,,,,,,,,,,,,,,,,,,,,,,,
null,,learn_phase(without_color)4,951631,,,,,,,,black_plus_sign,,,null,object_02b.png,object_12c.png,,,,,,,,,,,,,,,,,,,,,
null,,black_cross(without_color)4,952684,,,,,,,,green,,,null,object_02b.png,object_12c.png,,,,,,,,,,,,,,,,,,,,,
null,,rt_plussign_withcolor4,953187,,,,,,,,green,,,null,object_02b.png,object_12c.png,,,,,,,,,,,,,,,,,,,,,
942,,rt_thecrossant_black4,954141,,,,,,,,black_plus_sign,,,50,,,,1,,,,,,1,,,,,,,,,,,,,
null,,color_black4,954256,,,,,,,,black_plus_sign,,,null,,,,,,,,,,,,,,,,,,,,,,,
null,,learn_phase(without_color)4,957760,,,,,,,,black_plus_sign,,,null,object_06c.png,object_14b.png,,,,,,,,,,,,,,,,,,,,,
null,,black_cross(without_color)4,958375,,,,,,,,green,,,null,object_06c.png,object_14b.png,,,,,,,,,,,,,,,,,,,,,
null,,rt_plussign_withcolor4,958876,,,,,,,,green,,,null,object_06c.png,object_14b.png,,,,,,,,,,,,,,,,,,,,,
1484.8999999761581,,rt_thecrossant_black4,960267,,,,,,,,black_plus_sign,,,50,,,,1,,,,,,1,,,,,,,,,,,,,
null,,color_black4,960369,,,,,,,,black_plus_sign,,,null,,,,,,,,,,,,,,,,,,,,,,,
null,,learn_phase(without_color)4,963872,,,,,,,,black_plus_sign,,,null,object_04a.png,object_04c.png,,,,,,,,,,,,,,,,,,,,,
null,,black_cross(without_color)4,964377,,,,,,,,blue,,,null,object_04a.png,object_04c.png,,,,,,,,,,,,,,,,,,,,,
null,,rt_plussign_withcolor4,964879,,,,,,,,blue,,,null,object_04a.png,object_04c.png,,,,,,,,,,,,,,,,,,,,,
1885.8000000715256,,rt_thecrossant_black4,966383,,,,,,,,black_plus_sign,,,49,,,,1,,,,,,1,,,,,,,,,,,,,
null,,color_black4,966487,,,,,,,,black_plus_sign,,,null,,,,,,,,,,,,,,,,,,,,,,,
null,,learn_phase(without_color)4,969992,,,,,,,,black_plus_sign,,,null,object_08a.png,object_04b.png,,,,,,,,,,,,,,,,,,,,,
null,,black_cross(without_color)4,970814,,,,,,,,blue,,,null,object_08a.png,object_04b.png,,,,,,,,,,,,,,,,,,,,,
null,,rt_plussign_withcolor4,971316,,,,,,,,blue,,,null,object_08a.png,object_04b.png,,,,,,,,,,,,,,,,,,,,,
null,,rt_thecrossant_black4,972499,,,,,,,,black_plus_sign,,,null,,,,,,,,,,1,,,,,,,,,,,,,
null,,color_black4,972603,,,,,,,,black_plus_sign,,,null,,,,,,,,,,,,,,,,,,,,,,,
null,,learn_phase(without_color)4,976107,,,,,,,,black_plus_sign,,,null,object_03b.png,object_07a.png,,,,,,,,,,,,,,,,,,,,,
null,,black_cross(without_color)4,976696,,,,,,,,green,,,null,object_03b.png,object_07a.png,,,,,,,,,,,,,,,,,,,,,
null,,rt_plussign_withcolor4,977199,,,,,,,,green,,,null,object_03b.png,object_07a.png,,,,,,,,,,,,,,,,,,,,,
1414.6000000238419,,rt_thecrossant_black4,978618,,,,,,,,black_plus_sign,,,50,,,,1,,,,,,1,,,,,,,,,,,,,
null,,color_black4,978721,,,,,,,,black_plus_sign,,,null,,,,,,,,,,,,,,,,,,,,,,,
null,,learn_phase(without_color)4,982227,,,,,,,,black_plus_sign,,,null,object_13c.png,object_11b.png,,,,,,,,,,,,,,,,,,,,,
null,,black_cross(without_color)4,983007,,,,,,,,blue,,,null,object_13c.png,object_11b.png,,,,,,,,,,,,,,,,,,,,,
null,,rt_plussign_withcolor4,983510,,,,,,,,blue,,,null,object_13c.png,object_11b.png,,,,,,,,,,,,,,,,,,,,,
933.3000000715256,,rt_thecrossant_black4,984735,,,,,,,,black_plus_sign,,,49,,,,1,,,,,,1,,,,,,,,,,,,,
null,,color_black4,984839,,,,,,,,black_plus_sign,,,null,,,,,,,,,,,,,,,,,,,,,,,
null,,learn_phase(without_color)4,988342,,,,,,,,black_plus_sign,,,null,object_15c.png,object_02a.png,,,,,,,,,,,,,,,,,,,,,
null,,black_cross(without_color)4,989274,,,,,,,,green,,,null,object_15c.png,object_02a.png,,,,,,,,,,,,,,,,,,,,,
null,,rt_plussign_withcolor4,989777,,,,,,,,green,,,null,object_15c.png,object_02a.png,,,,,,,,,,,,,,,,,,,,,
1812.9000000953674,,rt_thecrossant_black4,990853,,,,,,,,black_plus_sign,,,50,,,,1,,,,,,1,,,,,,,,,,,,,
null,,color_black4,990954,,,,,,,,black_plus_sign,,,null,,,,,,,,,,,,,,,,,,,,,,,
null,,learn_phase(without_color)4,994458,,,,,,,,black_plus_sign,,,null,object_10a.png,object_09b.png,,,,,,,,,,,,,,,,,,,,,
null,,black_cross(without_color)4,995252,,,,,,,,blue,,,null,object_10a.png,object_09b.png,,,,,,,,,,,,,,,,,,,,,
null,,rt_plussign_withcolor4,995753,,,,,,,,blue,,,null,object_10a.png,object_09b.png,,,,,,,,,,,,,,,,,,,,,
1742.5,,rt_thecrossant_black4,996963,,,,,,,,black_plus_sign,,,49,,,,1,,,,,,1,,,,,,,,,,,,,
null,,color_black4,997065,,,,,,,,black_plus_sign,,,null,,,,,,,,,,,,,,,,,,,,,,,
null,,learn_phase(without_color)4,1000569,,,,,,,,black_plus_sign,,,null,object_14a.png,object_13b.png,,,,,,,,,,,,,,,,,,,,,
null,,black_cross(without_color)4,1001582,,,,,,,,blue,,,null,object_14a.png,object_13b.png,,,,,,,,,,,,,,,,,,,,,
null,,rt_plussign_withcolor4,1002084,,,,,,,,blue,,,null,object_14a.png,object_13b.png,,,,,,,,,,,,,,,,,,,,,
null,,rt_thecrossant_black4,1003077,,,,,,,,black_plus_sign,,,null,,,,,,,,,,1,,,,,,,,,,,,,
null,,color_black4,1003180,,,,,,,,black_plus_sign,,,null,,,,,,,,,,,,,,,,,,,,,,,
null,,learn_phase(without_color)4,1006683,,,,,,,,black_plus_sign,,,null,object_03c.png,object_12a.png,,,,,,,,,,,,,,,,,,,,,
null,,black_cross(without_color)4,1007145,,,,,,,,blue,,,null,object_03c.png,object_12a.png,,,,,,,,,,,,,,,,,,,,,
null,,rt_plussign_withcolor4,1007650,,,,,,,,blue,,,null,object_03c.png,object_12a.png,,,,,,,,,,,,,,,,,,,,,
1326.2000000476837,,rt_thecrossant_black4,1009198,,,,,,,,black_plus_sign,,,49,,,,1,,,,,,1,,,,,,,,,,,,,
null,,color_black4,1009302,,,,,,,,black_plus_sign,,,null,,,,,,,,,,,,,,,,,,,,,,,
null,,thebreak,1009406,,,,,,,,<p></p>,,,null,,,,,,,,,,,,,,,,,,,,,,,
3974,,intro_0,1013383,,,,,,,,instruct,,,32,,,,,,,,,,,,,,,,,,,,,,,
5060.5,,directmemory_phase4,1018446,,,,,,,,object_09b.png,,,51,,,,0,object_15c.png,object_10a.png,object_02b.png,object_10a.png,,0.6086956521739131,,0,,,,,,,,,,,
1860.2999999523163,,directmemory_phase4,1020311,,,,,,,,object_04b.png,,,50,,,,1,object_10a.png,object_08a.png,object_02b.png,object_08a.png,,0.6170212765957447,,1,,,,,,,,,,,
2902.100000023842,,directmemory_phase4,1023218,,,,,,,,object_13b.png,,,50,,,,1,object_08a.png,object_14a.png,object_03c.png,object_14a.png,,0.625,,1,,,,,,,,,,,
4890.5,,directmemory_phase4,1028113,,,,,,,,object_02a.png,,,50,,,,0,object_13c.png,object_14c.png,object_15c.png,object_15c.png,,0.6122448979591837,,0,,,,,,,,,,,
4401.600000023842,,directmemory_phase4,1032517,,,,,,,,object_05c.png,,,49,,,,1,object_14c.png,object_03b.png,object_02b.png,object_14c.png,,0.62,,1,,,,,,,,,,,
4485.300000071526,,directmemory_phase4,1037006,,,,,,,,object_07a.png,,,51,,,,1,object_08b.png,object_04a.png,object_03b.png,object_03b.png,,0.6274509803921569,,1,,,,,,,,,,,
1219.3000000715256,,directmemory_phase4,1038230,,,,,,,,object_07b.png,,,49,,,,1,object_02c.png,object_04a.png,object_03c.png,object_02c.png,,0.6346153846153846,,1,,,,,,,,,,,
4072.399999976158,,directmemory_phase4,1042308,,,,,,,,object_04c.png,,,51,,,,1,object_02c.png,object_03c.png,object_04a.png,object_04a.png,,0.6415094339622641,,1,,,,,,,,,,,
3495.100000023842,,directmemory_phase4,1045807,,,,,,,,object_11b.png,,,50,,,,1,object_10b.png,object_13c.png,object_09c.png,object_13c.png,,0.6481481481481481,,1,,,,,,,,,,,
2588.5,,directmemory_phase4,1048401,,,,,,,,object_12c.png,,,51,,,,1,object_10b.png,object_10a.png,object_02b.png,object_02b.png,,0.6545454545454545,,1,,,,,,,,,,,
4017.1999999284744,,directmemory_phase4,1052423,,,,,,,,object_07c.png,,,50,,,,1,object_10b.png,object_08b.png,object_08a.png,object_08b.png,,0.6607142857142857,,1,,,,,,,,,,,
3265.6999999284744,,directmemory_phase4,1055694,,,,,,,,object_03a.png,,,49,,,,1,object_09c.png,object_02b.png,object_10a.png,object_09c.png,,0.6666666666666666,,1,,,,,,,,,,,
3722.5,,directmemory_phase4,1059421,,,,,,,,object_12a.png,,,49,,,,1,object_03c.png,object_10a.png,object_02c.png,object_03c.png,,0.6724137931034483,,1,,,,,,,,,,,
3202.6999999284744,,directmemory_phase4,1062627,,,,,,,,object_14b.png,,,51,,,,1,object_02c.png,object_04a.png,object_06c.png,object_06c.png,,0.6779661016949152,,1,,,,,,,,,,,
4846.700000047684,,directmemory_phase4,1067476,,,,,,,,object_08c.png,,,49,,,,1,object_10b.png,object_02b.png,object_10a.png,object_10b.png,,0.6833333333333333,,1,,,,,,,,,,,
null,,thebreak,1067578,,,,,,,,<p></p>,,,null,,,,,,,,,,,,,,,,,,,,,,,
2510.7000000476837,,intro_0,1070090,,,,,,,,instruct,,,32,,,,,,,,,,,,,,,,,,,,,,,
null,,learn_phase(without_color)5,1073594,,,,,,,,black_plus_sign,,,null,object_12c.png,object_05a.png,,,,,,,,,,,,,,,,,,,,,
null,,black_cross(without_color)5,1074368,,,,,,,,green,,,null,object_12c.png,object_05a.png,,,,,,,,,,,,,,,,,,,,,
null,,rt_plussign_withcolor5,1074872,,,,,,,,green,,,null,object_12c.png,object_05a.png,,,,,,,,,,,,,,,,,,,,,
null,,rt_thecrossant_black5,1076105,,,,,,,,black_plus_sign,,,null,,,,,,,,,,NaN,,,,,,,,,,,,,
null,,color_black5,1076210,,,,,,,,black_plus_sign,,,null,,,,,,,,,,,,,,,,,,,,,,,
null,,learn_phase(without_color)5,1079714,,,,,,,,black_plus_sign,,,null,object_07a.png,object_15a.png,,,,,,,,,,,,,,,,,,,,,
null,,black_cross(without_color)5,1080339,,,,,,,,green,,,null,object_07a.png,object_15a.png,,,,,,,,,,,,,,,,,,,,,
null,,rt_plussign_withcolor5,1080842,,,,,,,,green,,,null,object_07a.png,object_15a.png,,,,,,,,,,,,,,,,,,,,,
1506.6999999284744,,rt_thecrossant_black5,1082225,,,,,,,,black_plus_sign,,,50,,,,1,,,,,,1,,,,,,,,,,,,,
null,,color_black5,1082328,,,,,,,,black_plus_sign,,,null,,,,,,,,,,,,,,,,,,,,,,,
null,,learn_phase(without_color)5,1085833,,,,,,,,black_plus_sign,,,null,object_07b.png,object_13a.png,,,,,,,,,,,,,,,,,,,,,
null,,black_cross(without_color)5,1086317,,,,,,,,blue,,,null,object_07b.png,object_13a.png,,,,,,,,,,,,,,,,,,,,,
null,,rt_plussign_withcolor5,1086819,,,,,,,,blue,,,null,object_07b.png,object_13a.png,,,,,,,,,,,,,,,,,,,,,
1226.4000000953674,,rt_thecrossant_black5,1088340,,,,,,,,black_plus_sign,,,49,,,,1,,,,,,1,,,,,,,,,,,,,
null,,color_black5,1088443,,,,,,,,black_plus_sign,,,null,,,,,,,,,,,,,,,,,,,,,,,
null,,learn_phase(without_color)5,1091947,,,,,,,,black_plus_sign,,,null,object_07c.png,object_06a.png,,,,,,,,,,,,,,,,,,,,,
null,,black_cross(without_color)5,1092928,,,,,,,,blue,,,null,object_07c.png,object_06a.png,,,,,,,,,,,,,,,,,,,,,
null,,rt_plussign_withcolor5,1093431,,,,,,,,blue,,,null,object_07c.png,object_06a.png,,,,,,,,,,,,,,,,,,,,,
899.3999999761581,,rt_thecrossant_black5,1094457,,,,,,,,black_plus_sign,,,49,,,,1,,,,,,1,,,,,,,,,,,,,
null,,color_black5,1094560,,,,,,,,black_plus_sign,,,null,,,,,,,,,,,,,,,,,,,,,,,
null,,learn_phase(without_color)5,1098064,,,,,,,,black_plus_sign,,,null,object_09b.png,object_05b.png,,,,,,,,,,,,,,,,,,,,,
null,,black_cross(without_color)5,1098497,,,,,,,,green,,,null,object_09b.png,object_05b.png,,,,,,,,,,,,,,,,,,,,,
null,,rt_plussign_withcolor5,1099000,,,,,,,,green,,,null,object_09b.png,object_05b.png,,,,,,,,,,,,,,,,,,,,,
2365.4000000953674,,rt_thecrossant_black5,1100573,,,,,,,,black_plus_sign,,,50,,,,1,,,,,,1,,,,,,,,,,,,,
null,,color_black5,1100674,,,,,,,,black_plus_sign,,,null,,,,,,,,,,,,,,,,,,,,,,,
null,,learn_phase(without_color)5,1104177,,,,,,,,black_plus_sign,,,null,object_08c.png,object_01b.png,,,,,,,,,,,,,,,,,,,,,
null,,black_cross(without_color)5,1104850,,,,,,,,green,,,null,object_08c.png,object_01b.png,,,,,,,,,,,,,,,,,,,,,
null,,rt_plussign_withcolor5,1105359,,,,,,,,green,,,null,object_08c.png,object_01b.png,,,,,,,,,,,,,,,,,,,,,
1044.4000000953674,,rt_thecrossant_black5,1106704,,,,,,,,black_plus_sign,,,50,,,,1,,,,,,1,,,,,,,,,,,,,
null,,color_black5,1106807,,,,,,,,black_plus_sign,,,null,,,,,,,,,,,,,,,,,,,,,,,
null,,learn_phase(without_color)5,1110311,,,,,,,,black_plus_sign,,,null,object_11b.png,object_01a.png,,,,,,,,,,,,,,,,,,,,,
null,,black_cross(without_color)5,1111106,,,,,,,,blue,,,null,object_11b.png,object_01a.png,,,,,,,,,,,,,,,,,,,,,
null,,rt_plussign_withcolor5,1111608,,,,,,,,blue,,,null,object_11b.png,object_01a.png,,,,,,,,,,,,,,,,,,,,,
1264.5,,rt_thecrossant_black5,1112821,,,,,,,,black_plus_sign,,,49,,,,1,,,,,,1,,,,,,,,,,,,,
null,,color_black5,1112924,,,,,,,,black_plus_sign,,,null,,,,,,,,,,,,,,,,,,,,,,,
null,,learn_phase(without_color)5,1116429,,,,,,,,black_plus_sign,,,null,object_12a.png,object_15b.png,,,,,,,,,,,,,,,,,,,,,
null,,black_cross(without_color)5,1117350,,,,,,,,blue,,,null,object_12a.png,object_15b.png,,,,,,,,,,,,,,,,,,,,,
null,,rt_plussign_withcolor5,1117853,,,,,,,,blue,,,null,object_12a.png,object_15b.png,,,,,,,,,,,,,,,,,,,,,
1473.6000000238419,,rt_thecrossant_black5,1118938,,,,,,,,black_plus_sign,,,49,,,,1,,,,,,1,,,,,,,,,,,,,
null,,color_black5,1119042,,,,,,,,black_plus_sign,,,null,,,,,,,,,,,,,,,,,,,,,,,
null,,learn_phase(without_color)5,1122546,,,,,,,,black_plus_sign,,,null,object_04c.png,object_06b.png,,,,,,,,,,,,,,,,,,,,,
null,,black_cross(without_color)5,1123230,,,,,,,,green,,,null,object_04c.png,object_06b.png,,,,,,,,,,,,,,,,,,,,,
null,,rt_plussign_withcolor5,1123733,,,,,,,,green,,,null,object_04c.png,object_06b.png,,,,,,,,,,,,,,,,,,,,,
1932.1999999284744,,rt_thecrossant_black5,1125055,,,,,,,,black_plus_sign,,,50,,,,1,,,,,,1,,,,,,,,,,,,,
null,,color_black5,1125159,,,,,,,,black_plus_sign,,,null,,,,,,,,,,,,,,,,,,,,,,,
null,,learn_phase(without_color)5,1128664,,,,,,,,black_plus_sign,,,null,object_03a.png,object_12b.png,,,,,,,,,,,,,,,,,,,,,
null,,black_cross(without_color)5,1129716,,,,,,,,green,,,null,object_03a.png,object_12b.png,,,,,,,,,,,,,,,,,,,,,
null,,rt_plussign_withcolor5,1130219,,,,,,,,green,,,null,object_03a.png,object_12b.png,,,,,,,,,,,,,,,,,,,,,
1200.7000000476837,,rt_thecrossant_black5,1131175,,,,,,,,black_plus_sign,,,50,,,,1,,,,,,1,,,,,,,,,,,,,
null,,color_black5,1131277,,,,,,,,black_plus_sign,,,null,,,,,,,,,,,,,,,,,,,,,,,
null,,learn_phase(without_color)5,1134780,,,,,,,,black_plus_sign,,,null,object_14b.png,object_11c.png,,,,,,,,,,,,,,,,,,,,,
null,,black_cross(without_color)5,1135490,,,,,,,,green,,,null,object_14b.png,object_11c.png,,,,,,,,,,,,,,,,,,,,,
null,,rt_plussign_withcolor5,1135992,,,,,,,,green,,,null,object_14b.png,object_11c.png,,,,,,,,,,,,,,,,,,,,,
1724.5,,rt_thecrossant_black5,1137287,,,,,,,,black_plus_sign,,,50,,,,1,,,,,,1,,,,,,,,,,,,,
null,,color_black5,1137392,,,,,,,,black_plus_sign,,,null,,,,,,,,,,,,,,,,,,,,,,,
null,,learn_phase(without_color)5,1140897,,,,,,,,black_plus_sign,,,null,object_04b.png,object_11a.png,,,,,,,,,,,,,,,,,,,,,
null,,black_cross(without_color)5,1141377,,,,,,,,green,,,null,object_04b.png,object_11a.png,,,,,,,,,,,,,,,,,,,,,
null,,rt_plussign_withcolor5,1141880,,,,,,,,green,,,null,object_04b.png,object_11a.png,,,,,,,,,,,,,,,,,,,,,
1496.6000000238419,,rt_thecrossant_black5,1143408,,,,,,,,black_plus_sign,,,50,,,,1,,,,,,1,,,,,,,,,,,,,
null,,color_black5,1143512,,,,,,,,black_plus_sign,,,null,,,,,,,,,,,,,,,,,,,,,,,
null,,learn_phase(without_color)5,1147017,,,,,,,,black_plus_sign,,,null,object_05c.png,object_09a.png,,,,,,,,,,,,,,,,,,,,,
null,,black_cross(without_color)5,1147736,,,,,,,,green,,,null,object_05c.png,object_09a.png,,,,,,,,,,,,,,,,,,,,,
null,,rt_plussign_withcolor5,1148239,,,,,,,,green,,,null,object_05c.png,object_09a.png,,,,,,,,,,,,,,,,,,,,,
911.5999999046326,,rt_thecrossant_black5,1149527,,,,,,,,black_plus_sign,,,50,,,,1,,,,,,1,,,,,,,,,,,,,
null,,color_black5,1149631,,,,,,,,black_plus_sign,,,null,,,,,,,,,,,,,,,,,,,,,,,
null,,learn_phase(without_color)5,1153136,,,,,,,,black_plus_sign,,,null,object_02a.png,object_01c.png,,,,,,,,,,,,,,,,,,,,,
null,,black_cross(without_color)5,1154088,,,,,,,,green,,,null,object_02a.png,object_01c.png,,,,,,,,,,,,,,,,,,,,,
null,,rt_plussign_withcolor5,1154592,,,,,,,,green,,,null,object_02a.png,object_01c.png,,,,,,,,,,,,,,,,,,,,,
1185.6999999284744,,rt_thecrossant_black5,1155647,,,,,,,,black_plus_sign,,,50,,,,1,,,,,,1,,,,,,,,,,,,,
null,,color_black5,1155750,,,,,,,,black_plus_sign,,,null,,,,,,,,,,,,,,,,,,,,,,,
null,,learn_phase(without_color)5,1159254,,,,,,,,black_plus_sign,,,null,object_13b.png,object_10c.png,,,,,,,,,,,,,,,,,,,,,
null,,black_cross(without_color)5,1159735,,,,,,,,blue,,,null,object_13b.png,object_10c.png,,,,,,,,,,,,,,,,,,,,,
null,,rt_plussign_withcolor5,1160238,,,,,,,,blue,,,null,object_13b.png,object_10c.png,,,,,,,,,,,,,,,,,,,,,
1473.0999999046326,,rt_thecrossant_black5,1161764,,,,,,,,black_plus_sign,,,49,,,,1,,,,,,1,,,,,,,,,,,,,
null,,color_black5,1161868,,,,,,,,black_plus_sign,,,null,,,,,,,,,,,,,,,,,,,,,,,
null,,thebreak,1161974,,,,,,,,<p></p>,,,null,,,,,,,,,,,,,,,,,,,,,,,
3858.399999976158,,intro_0,1165835,,,,,,,,instruct,,,32,,,,,,,,,,,,,,,,,,,,,,,
4481.799999952316,,directmemory_phase5,1170318,,,,,,,,object_11c.png,,,51,,,,1,object_07b.png,object_08c.png,object_14b.png,object_14b.png,,0.6885245901639344,,1,,,,,,,,,,,
3708.4000000953674,,directmemory_phase5,1174030,,,,,,,,object_12b.png,,,50,,,,0,object_03a.png,object_11b.png,object_07b.png,object_03a.png,,0.6774193548387096,,0,,,,,,,,,,,
4569.600000023842,,directmemory_phase5,1178606,,,,,,,,object_01c.png,,,49,,,,0,object_07a.png,object_08c.png,object_02a.png,object_02a.png,,0.6666666666666666,,0,,,,,,,,,,,
4889.899999976158,,directmemory_phase5,1183501,,,,,,,,object_15b.png,,,51,,,,0,object_12a.png,object_07a.png,object_02a.png,object_12a.png,,0.65625,,0,,,,,,,,,,,
5252.100000023842,,directmemory_phase5,1188756,,,,,,,,object_01a.png,,,49,,,,1,object_11b.png,object_07b.png,object_05c.png,object_11b.png,,0.6615384615384615,,1,,,,,,,,,,,
5351.300000071526,,directmemory_phase5,1194111,,,,,,,,object_13a.png,,,49,,,,0,object_08c.png,object_07b.png,object_12c.png,object_07b.png,,0.6515151515151515,,0,,,,,,,,,,,
4315.5,,directmemory_phase5,1198432,,,,,,,,object_11a.png,,,50,,,,0,object_04b.png,object_09b.png,object_12c.png,object_04b.png,,0.6417910447761194,,0,,,,,,,,,,,
4200.400000095367,,directmemory_phase5,1202637,,,,,,,,object_05b.png,,,50,,,,1,object_04b.png,object_09b.png,object_07c.png,object_09b.png,,0.6470588235294118,,1,,,,,,,,,,,
3580.3000000715256,,directmemory_phase5,1206219,,,,,,,,object_15a.png,,,50,,,,0,object_07a.png,object_04c.png,object_08c.png,object_07a.png,,0.6376811594202898,,0,,,,,,,,,,,
4631.899999976158,,directmemory_phase5,1210854,,,,,,,,object_10c.png,,,51,,,,1,object_04c.png,object_09b.png,object_13b.png,object_13b.png,,0.6428571428571429,,1,,,,,,,,,,,
6476.100000023842,,directmemory_phase5,1217335,,,,,,,,object_01b.png,,,50,,,,1,object_05c.png,object_08c.png,object_12c.png,object_08c.png,,0.647887323943662,,1,,,,,,,,,,,
5372.600000023842,,directmemory_phase5,1222714,,,,,,,,object_09a.png,,,51,,,,0,object_05c.png,object_07b.png,object_03a.png,object_05c.png,,0.6388888888888888,,0,,,,,,,,,,,
4855.299999952316,,directmemory_phase5,1227574,,,,,,,,object_06b.png,,,49,,,,0,object_08c.png,object_09b.png,object_04c.png,object_04c.png,,0.6301369863013698,,0,,,,,,,,,,,
5035.799999952316,,directmemory_phase5,1232616,,,,,,,,object_05a.png,,,50,,,,0,object_12c.png,object_07c.png,object_04c.png,object_12c.png,,0.6216216216216216,,0,,,,,,,,,,,
4604.300000071526,,directmemory_phase5,1237225,,,,,,,,object_06a.png,,,50,,,,0,object_11b.png,object_08c.png,object_07c.png,object_07c.png,,0.6133333333333333,,0,,,,,,,,,,,
null,,thebreak,1237328,,,,,,,,<p></p>,,,null,,,,,,,,,,,,,,,,,,,,,,,
5609.800000071526,,intro_0,1242939,,,,,,,,instruct,,,32,,,,,,,,,,,,,,,,,,,,,,,
null,,learn_phase(without_color)6,1246443,,,,,,,,black_plus_sign,,,null,object_13b.png,object_10c.png,,,,,,,,,,,,,,,,,,,,,
null,,black_cross(without_color)6,1246872,,,,,,,,green,,,null,object_13b.png,object_10c.png,,,,,,,,,,,,,,,,,,,,,
null,,rt_plussign_withcolor6,1247375,,,,,,,,green,,,null,object_13b.png,object_10c.png,,,,,,,,,,,,,,,,,,,,,
null,,rt_thecrossant_black6,1248952,,,,,,,,black_plus_sign,,,null,,,,,,,,,,NaN,,,,,,,,,,,,,
null,,color_black6,1249055,,,,,,,,black_plus_sign,,,null,,,,,,,,,,,,,,,,,,,,,,,
null,,learn_phase(without_color)6,1252560,,,,,,,,black_plus_sign,,,null,object_07c.png,object_06a.png,,,,,,,,,,,,,,,,,,,,,
null,,black_cross(without_color)6,1253325,,,,,,,,green,,,null,object_07c.png,object_06a.png,,,,,,,,,,,,,,,,,,,,,
null,,rt_plussign_withcolor6,1253828,,,,,,,,green,,,null,object_07c.png,object_06a.png,,,,,,,,,,,,,,,,,,,,,
866,,rt_thecrossant_black6,1255071,,,,,,,,black_plus_sign,,,50,,,,1,,,,,,1,,,,,,,,,,,,,
null,,color_black6,1255174,,,,,,,,black_plus_sign,,,null,,,,,,,,,,,,,,,,,,,,,,,
null,,learn_phase(without_color)6,1258678,,,,,,,,black_plus_sign,,,null,object_05c.png,object_09a.png,,,,,,,,,,,,,,,,,,,,,
null,,black_cross(without_color)6,1259122,,,,,,,,blue,,,null,object_05c.png,object_09a.png,,,,,,,,,,,,,,,,,,,,,
null,,rt_plussign_withcolor6,1259624,,,,,,,,blue,,,null,object_05c.png,object_09a.png,,,,,,,,,,,,,,,,,,,,,
1735.2999999523163,,rt_thecrossant_black6,1261197,,,,,,,,black_plus_sign,,,49,,,,1,,,,,,1,,,,,,,,,,,,,
null,,color_black6,1261300,,,,,,,,black_plus_sign,,,null,,,,,,,,,,,,,,,,,,,,,,,
null,,learn_phase(without_color)6,1264805,,,,,,,,black_plus_sign,,,null,object_07a.png,object_15a.png,,,,,,,,,,,,,,,,,,,,,
null,,black_cross(without_color)6,1265304,,,,,,,,green,,,null,object_07a.png,object_15a.png,,,,,,,,,,,,,,,,,,,,,
null,,rt_plussign_withcolor6,1265807,,,,,,,,green,,,null,object_07a.png,object_15a.png,,,,,,,,,,,,,,,,,,,,,
1748.3999999761581,,rt_thecrossant_black6,1267313,,,,,,,,black_plus_sign,,,50,,,,1,,,,,,1,,,,,,,,,,,,,
null,,color_black6,1267417,,,,,,,,black_plus_sign,,,null,,,,,,,,,,,,,,,,,,,,,,,
null,,learn_phase(without_color)6,1270921,,,,,,,,black_plus_sign,,,null,object_04b.png,object_11a.png,,,,,,,,,,,,,,,,,,,,,
null,,black_cross(without_color)6,1271473,,,,,,,,green,,,null,object_04b.png,object_11a.png,,,,,,,,,,,,,,,,,,,,,
null,,rt_plussign_withcolor6,1271974,,,,,,,,green,,,null,object_04b.png,object_11a.png,,,,,,,,,,,,,,,,,,,,,
1042.7000000476837,,rt_thecrossant_black6,1273426,,,,,,,,black_plus_sign,,,50,,,,1,,,,,,1,,,,,,,,,,,,,
null,,color_black6,1273528,,,,,,,,black_plus_sign,,,null,,,,,,,,,,,,,,,,,,,,,,,
null,,learn_phase(without_color)6,1277046,,,,,,,,black_plus_sign,,,null,object_09b.png,object_05b.png,,,,,,,,,,,,,,,,,,,,,
null,,black_cross(without_color)6,1278131,,,,,,,,green,,,null,object_09b.png,object_05b.png,,,,,,,,,,,,,,,,,,,,,
null,,rt_plussign_withcolor6,1278633,,,,,,,,green,,,null,object_09b.png,object_05b.png,,,,,,,,,,,,,,,,,,,,,
1353.5,,rt_thecrossant_black6,1279557,,,,,,,,black_plus_sign,,,50,,,,1,,,,,,1,,,,,,,,,,,,,
null,,color_black6,1279661,,,,,,,,black_plus_sign,,,null,,,,,,,,,,,,,,,,,,,,,,,
null,,learn_phase(without_color)6,1283165,,,,,,,,black_plus_sign,,,null,object_03a.png,object_12b.png,,,,,,,,,,,,,,,,,,,,,
null,,black_cross(without_color)6,1284043,,,,,,,,green,,,null,object_03a.png,object_12b.png,,,,,,,,,,,,,,,,,,,,,
null,,rt_plussign_withcolor6,1284545,,,,,,,,green,,,null,object_03a.png,object_12b.png,,,,,,,,,,,,,,,,,,,,,
1469.5999999046326,,rt_thecrossant_black6,1285675,,,,,,,,black_plus_sign,,,50,,,,1,,,,,,1,,,,,,,,,,,,,
null,,color_black6,1285779,,,,,,,,black_plus_sign,,,null,,,,,,,,,,,,,,,,,,,,,,,
null,,learn_phase(without_color)6,1289283,,,,,,,,black_plus_sign,,,null,object_12c.png,object_05a.png,,,,,,,,,,,,,,,,,,,,,
null,,black_cross(without_color)6,1289969,,,,,,,,blue,,,null,object_12c.png,object_05a.png,,,,,,,,,,,,,,,,,,,,,
null,,rt_plussign_withcolor6,1290472,,,,,,,,blue,,,null,object_12c.png,object_05a.png,,,,,,,,,,,,,,,,,,,,,
1336.2999999523163,,rt_thecrossant_black6,1291793,,,,,,,,black_plus_sign,,,49,,,,1,,,,,,1,,,,,,,,,,,,,
null,,color_black6,1291897,,,,,,,,black_plus_sign,,,null,,,,,,,,,,,,,,,,,,,,,,,
null,,learn_phase(without_color)6,1295401,,,,,,,,black_plus_sign,,,null,object_02a.png,object_01c.png,,,,,,,,,,,,,,,,,,,,,
null,,black_cross(without_color)6,1296479,,,,,,,,green,,,null,object_02a.png,object_01c.png,,,,,,,,,,,,,,,,,,,,,
null,,rt_plussign_withcolor6,1296983,,,,,,,,green,,,null,object_02a.png,object_01c.png,,,,,,,,,,,,,,,,,,,,,
1149.2000000476837,,rt_thecrossant_black6,1297912,,,,,,,,black_plus_sign,,,50,,,,1,,,,,,1,,,,,,,,,,,,,
null,,color_black6,1298016,,,,,,,,black_plus_sign,,,null,,,,,,,,,,,,,,,,,,,,,,,
null,,learn_phase(without_color)6,1301520,,,,,,,,black_plus_sign,,,null,object_08c.png,object_01b.png,,,,,,,,,,,,,,,,,,,,,
null,,black_cross(without_color)6,1302243,,,,,,,,blue,,,null,object_08c.png,object_01b.png,,,,,,,,,,,,,,,,,,,,,
null,,rt_plussign_withcolor6,1302747,,,,,,,,blue,,,null,object_08c.png,object_01b.png,,,,,,,,,,,,,,,,,,,,,
1340.7999999523163,,rt_thecrossant_black6,1304030,,,,,,,,black_plus_sign,,,49,,,,1,,,,,,1,,,,,,,,,,,,,
null,,color_black6,1304134,,,,,,,,black_plus_sign,,,null,,,,,,,,,,,,,,,,,,,,,,,
null,,learn_phase(without_color)6,1307638,,,,,,,,black_plus_sign,,,null,object_14b.png,object_11c.png,,,,,,,,,,,,,,,,,,,,,
null,,black_cross(without_color)6,1308575,,,,,,,,blue,,,null,object_14b.png,object_11c.png,,,,,,,,,,,,,,,,,,,,,
null,,rt_plussign_withcolor6,1309077,,,,,,,,blue,,,null,object_14b.png,object_11c.png,,,,,,,,,,,,,,,,,,,,,
1259.8999999761581,,rt_thecrossant_black6,1310146,,,,,,,,black_plus_sign,,,49,,,,1,,,,,,1,,,,,,,,,,,,,
null,,color_black6,1310250,,,,,,,,black_plus_sign,,,null,,,,,,,,,,,,,,,,,,,,,,,
null,,learn_phase(without_color)6,1313755,,,,,,,,black_plus_sign,,,null,object_11b.png,object_01a.png,,,,,,,,,,,,,,,,,,,,,
null,,black_cross(without_color)6,1314629,,,,,,,,green,,,null,object_11b.png,object_01a.png,,,,,,,,,,,,,,,,,,,,,
null,,rt_plussign_withcolor6,1315131,,,,,,,,green,,,null,object_11b.png,object_01a.png,,,,,,,,,,,,,,,,,,,,,
1424.2000000476837,,rt_thecrossant_black6,1316264,,,,,,,,black_plus_sign,,,50,,,,1,,,,,,1,,,,,,,,,,,,,
null,,color_black6,1316367,,,,,,,,black_plus_sign,,,null,,,,,,,,,,,,,,,,,,,,,,,
null,,learn_phase(without_color)6,1319872,,,,,,,,black_plus_sign,,,null,object_04c.png,object_06b.png,,,,,,,,,,,,,,,,,,,,,
null,,black_cross(without_color)6,1320723,,,,,,,,blue,,,null,object_04c.png,object_06b.png,,,,,,,,,,,,,,,,,,,,,
null,,rt_plussign_withcolor6,1321225,,,,,,,,blue,,,null,object_04c.png,object_06b.png,,,,,,,,,,,,,,,,,,,,,
1372.2999999523163,,rt_thecrossant_black6,1322380,,,,,,,,black_plus_sign,,,49,,,,1,,,,,,1,,,,,,,,,,,,,
null,,color_black6,1322484,,,,,,,,black_plus_sign,,,null,,,,,,,,,,,,,,,,,,,,,,,
null,,learn_phase(without_color)6,1325987,,,,,,,,black_plus_sign,,,null,object_07b.png,object_13a.png,,,,,,,,,,,,,,,,,,,,,
null,,black_cross(without_color)6,1326402,,,,,,,,blue,,,null,object_07b.png,object_13a.png,,,,,,,,,,,,,,,,,,,,,
null,,rt_plussign_withcolor6,1326904,,,,,,,,blue,,,null,object_07b.png,object_13a.png,,,,,,,,,,,,,,,,,,,,,
1248.1000000238419,,rt_thecrossant_black6,1328494,,,,,,,,black_plus_sign,,,49,,,,1,,,,,,1,,,,,,,,,,,,,
null,,color_black6,1328600,,,,,,,,black_plus_sign,,,null,,,,,,,,,,,,,,,,,,,,,,,
null,,learn_phase(without_color)6,1332104,,,,,,,,black_plus_sign,,,null,object_12a.png,object_15b.png,,,,,,,,,,,,,,,,,,,,,
null,,black_cross(without_color)6,1332711,,,,,,,,green,,,null,object_12a.png,object_15b.png,,,,,,,,,,,,,,,,,,,,,
null,,rt_plussign_withcolor6,1333214,,,,,,,,green,,,null,object_12a.png,object_15b.png,,,,,,,,,,,,,,,,,,,,,
1493.7999999523163,,rt_thecrossant_black6,1334613,,,,,,,,black_plus_sign,,,50,,,,1,,,,,,1,,,,,,,,,,,,,
null,,color_black6,1334718,,,,,,,,black_plus_sign,,,null,,,,,,,,,,,,,,,,,,,,,,,
null,,thebreak,1334822,,,,,,,,<p></p>,,,null,,,,,,,,,,,,,,,,,,,,,,,
5010.5,,intro_0,1339836,,,,,,,,instruct,,,32,,,,,,,,,,,,,,,,,,,,,,,
4559.100000023842,,directmemory_phase6,1344397,,,,,,,,object_06a.png,,,49,,,,1,object_07c.png,object_04c.png,object_07a.png,object_07c.png,,0.618421052631579,,1,,,,,,,,,,,
4737.299999952316,,directmemory_phase6,1349137,,,,,,,,object_05a.png,,,49,,,,1,object_12c.png,object_02a.png,object_07c.png,object_12c.png,,0.6233766233766234,,1,,,,,,,,,,,
5044.299999952316,,directmemory_phase6,1354187,,,,,,,,object_06b.png,,,49,,,,1,object_04c.png,object_12a.png,object_07b.png,object_04c.png,,0.6282051282051282,,1,,,,,,,,,,,
4310,,directmemory_phase6,1358503,,,,,,,,object_15a.png,,,49,,,,0,object_09b.png,object_14b.png,object_07a.png,object_07a.png,,0.620253164556962,,0,,,,,,,,,,,
3649.5,,directmemory_phase6,1362158,,,,,,,,object_11c.png,,,49,,,,1,object_14b.png,object_11b.png,object_12a.png,object_14b.png,,0.625,,1,,,,,,,,,,,
5696.900000095367,,directmemory_phase6,1367859,,,,,,,,object_05b.png,,,50,,,,1,object_11b.png,object_09b.png,object_08c.png,object_09b.png,,0.6296296296296297,,1,,,,,,,,,,,
4693.799999952316,,directmemory_phase6,1372557,,,,,,,,object_12b.png,,,49,,,,1,object_03a.png,object_05c.png,object_07b.png,object_03a.png,,0.6341463414634146,,1,,,,,,,,,,,
3945.7000000476837,,directmemory_phase6,1376507,,,,,,,,object_13a.png,,,49,,,,1,object_07b.png,object_05c.png,object_04b.png,object_07b.png,,0.6385542168674698,,1,,,,,,,,,,,
4890.5,,directmemory_phase6,1381399,,,,,,,,object_15b.png,,,49,,,,0,object_07b.png,object_12a.png,object_09b.png,object_12a.png,,0.6309523809523809,,0,,,,,,,,,,,
2005.2000000476837,,directmemory_phase6,1383407,,,,,,,,object_10c.png,,,51,,,,1,object_02a.png,object_11b.png,object_13b.png,object_13b.png,,0.6352941176470588,,1,,,,,,,,,,,
4756.600000023842,,directmemory_phase6,1388166,,,,,,,,object_11a.png,,,51,,,,0,object_14b.png,object_04b.png,object_08c.png,object_04b.png,,0.627906976744186,,0,,,,,,,,,,,
4305.099999904633,,directmemory_phase6,1392476,,,,,,,,object_01b.png,,,50,,,,1,object_14b.png,object_08c.png,object_12a.png,object_08c.png,,0.632183908045977,,1,,,,,,,,,,,
4554.800000071526,,directmemory_phase6,1397036,,,,,,,,object_09a.png,,,51,,,,0,object_04c.png,object_05c.png,object_07c.png,object_05c.png,,0.625,,0,,,,,,,,,,,
5082.699999928474,,directmemory_phase6,1402125,,,,,,,,object_01a.png,,,51,,,,1,object_02a.png,object_12c.png,object_11b.png,object_11b.png,,0.6292134831460674,,1,,,,,,,,,,,
4190.5,,directmemory_phase6,1406321,,,,,,,,object_01c.png,,,49,,,,1,object_02a.png,object_07a.png,object_11b.png,object_02a.png,,0.6333333333333333,,1,,,,,,,,,,,
null,,thebreak,1406427,,,,,,,,<p></p>,,,null,,,,,,,,,,,,,,,,,,,,,,,
4451.700000047684,,intro_0,1410882,,,,,,,,instruct,,,32,,,,,,,,,,,,,,,,,,,,,,,
null,,learn_phase(without_color)7,1414385,,,,,,,,black_plus_sign,,,null,object_14b.png,object_11c.png,,,,,,,,,,,,,,,,,,,,,
null,,black_cross(without_color)7,1414986,,,,,,,,green,,,null,object_14b.png,object_11c.png,,,,,,,,,,,,,,,,,,,,,
null,,rt_plussign_withcolor7,1415488,,,,,,,,green,,,null,object_14b.png,object_11c.png,,,,,,,,,,,,,,,,,,,,,
null,,rt_thecrossant_black7,1416892,,,,,,,,black_plus_sign,,,null,,,,,,,,,,NaN,,,,,,,,,,,,,
null,,color_black7,1416995,,,,,,,,black_plus_sign,,,null,,,,,,,,,,,,,,,,,,,,,,,
null,,learn_phase(without_color)7,1420499,,,,,,,,black_plus_sign,,,null,object_08c.png,object_01b.png,,,,,,,,,,,,,,,,,,,,,
null,,black_cross(without_color)7,1421019,,,,,,,,blue,,,null,object_08c.png,object_01b.png,,,,,,,,,,,,,,,,,,,,,
null,,rt_plussign_withcolor7,1421534,,,,,,,,blue,,,null,object_08c.png,object_01b.png,,,,,,,,,,,,,,,,,,,,,
995.8999999761581,,rt_thecrossant_black7,1423022,,,,,,,,black_plus_sign,,,50,,,,0,,,,,,0,,,,,,,,,,,,,
null,,warning_page,1428027,,,,,,,,warning,,,null,,,,,,,,,,,,,,,,,,,,,,,
null,,color_black7,1428130,,,,,,,,black_plus_sign,,,null,,,,,,,,,,,,,,,,,,,,,,,
null,,learn_phase(without_color)7,1431634,,,,,,,,black_plus_sign,,,null,object_07a.png,object_15a.png,,,,,,,,,,,,,,,,,,,,,
null,,black_cross(without_color)7,1432078,,,,,,,,blue,,,null,object_07a.png,object_15a.png,,,,,,,,,,,,,,,,,,,,,
null,,rt_plussign_withcolor7,1432581,,,,,,,,blue,,,null,object_07a.png,object_15a.png,,,,,,,,,,,,,,,,,,,,,
981.6000000238419,,rt_thecrossant_black7,1434143,,,,,,,,black_plus_sign,,,49,,,,1,,,,,,0.5,,,,,,,,,,,,,
null,,color_black7,1434247,,,,,,,,black_plus_sign,,,null,,,,,,,,,,,,,,,,,,,,,,,
null,,learn_phase(without_color)7,1437752,,,,,,,,black_plus_sign,,,null,object_05c.png,object_09a.png,,,,,,,,,,,,,,,,,,,,,
null,,black_cross(without_color)7,1438482,,,,,,,,blue,,,null,object_05c.png,object_09a.png,,,,,,,,,,,,,,,,,,,,,
null,,rt_plussign_withcolor7,1438984,,,,,,,,blue,,,null,object_05c.png,object_09a.png,,,,,,,,,,,,,,,,,,,,,
804.6000000238419,,rt_thecrossant_black7,1440261,,,,,,,,black_plus_sign,,,49,,,,1,,,,,,0.6666666666666666,,,,,,,,,,,,,
null,,color_black7,1440364,,,,,,,,black_plus_sign,,,null,,,,,,,,,,,,,,,,,,,,,,,
null,,learn_phase(without_color)7,1443869,,,,,,,,black_plus_sign,,,null,object_11b.png,object_01a.png,,,,,,,,,,,,,,,,,,,,,
null,,black_cross(without_color)7,1444740,,,,,,,,green,,,null,object_11b.png,object_01a.png,,,,,,,,,,,,,,,,,,,,,
null,,rt_plussign_withcolor7,1445243,,,,,,,,green,,,null,object_11b.png,object_01a.png,,,,,,,,,,,,,,,,,,,,,
1792.6000000238419,,rt_thecrossant_black7,1446378,,,,,,,,black_plus_sign,,,50,,,,1,,,,,,0.75,,,,,,,,,,,,,
null,,color_black7,1446480,,,,,,,,black_plus_sign,,,null,,,,,,,,,,,,,,,,,,,,,,,
null,,learn_phase(without_color)7,1449982,,,,,,,,black_plus_sign,,,null,object_02a.png,object_01c.png,,,,,,,,,,,,,,,,,,,,,
null,,black_cross(without_color)7,1450759,,,,,,,,blue,,,null,object_02a.png,object_01c.png,,,,,,,,,,,,,,,,,,,,,
null,,rt_plussign_withcolor7,1451261,,,,,,,,blue,,,null,object_02a.png,object_01c.png,,,,,,,,,,,,,,,,,,,,,
1278.1000000238419,,rt_thecrossant_black7,1452489,,,,,,,,black_plus_sign,,,49,,,,1,,,,,,0.8,,,,,,,,,,,,,
null,,color_black7,1452591,,,,,,,,black_plus_sign,,,null,,,,,,,,,,,,,,,,,,,,,,,
null,,learn_phase(without_color)7,1456095,,,,,,,,black_plus_sign,,,null,object_04b.png,object_11a.png,,,,,,,,,,,,,,,,,,,,,
null,,black_cross(without_color)7,1456811,,,,,,,,green,,,null,object_04b.png,object_11a.png,,,,,,,,,,,,,,,,,,,,,
null,,rt_plussign_withcolor7,1457315,,,,,,,,green,,,null,object_04b.png,object_11a.png,,,,,,,,,,,,,,,,,,,,,
1219.5,,rt_thecrossant_black7,1458607,,,,,,,,black_plus_sign,,,50,,,,1,,,,,,0.8333333333333334,,,,,,,,,,,,,
null,,color_black7,1458710,,,,,,,,black_plus_sign,,,null,,,,,,,,,,,,,,,,,,,,,,,
null,,learn_phase(without_color)7,1462213,,,,,,,,black_plus_sign,,,null,object_07c.png,object_06a.png,,,,,,,,,,,,,,,,,,,,,
null,,black_cross(without_color)7,1462802,,,,,,,,green,,,null,object_07c.png,object_06a.png,,,,,,,,,,,,,,,,,,,,,
null,,rt_plussign_withcolor7,1463305,,,,,,,,green,,,null,object_07c.png,object_06a.png,,,,,,,,,,,,,,,,,,,,,
1759.1999999284744,,rt_thecrossant_black7,1464725,,,,,,,,black_plus_sign,,,50,,,,1,,,,,,0.8571428571428571,,,,,,,,,,,,,
null,,color_black7,1464829,,,,,,,,black_plus_sign,,,null,,,,,,,,,,,,,,,,,,,,,,,
null,,learn_phase(without_color)7,1468334,,,,,,,,black_plus_sign,,,null,object_07b.png,object_13a.png,,,,,,,,,,,,,,,,,,,,,
null,,black_cross(without_color)7,1468785,,,,,,,,blue,,,null,object_07b.png,object_13a.png,,,,,,,,,,,,,,,,,,,,,
null,,rt_plussign_withcolor7,1469287,,,,,,,,blue,,,null,object_07b.png,object_13a.png,,,,,,,,,,,,,,,,,,,,,
909.1000000238419,,rt_thecrossant_black7,1470845,,,,,,,,black_plus_sign,,,49,,,,1,,,,,,0.875,,,,,,,,,,,,,
null,,color_black7,1470948,,,,,,,,black_plus_sign,,,null,,,,,,,,,,,,,,,,,,,,,,,
null,,learn_phase(without_color)7,1474454,,,,,,,,black_plus_sign,,,null,object_09b.png,object_05b.png,,,,,,,,,,,,,,,,,,,,,
null,,black_cross(without_color)7,1475389,,,,,,,,blue,,,null,object_09b.png,object_05b.png,,,,,,,,,,,,,,,,,,,,,
null,,rt_plussign_withcolor7,1475893,,,,,,,,blue,,,null,object_09b.png,object_05b.png,,,,,,,,,,,,,,,,,,,,,
768.2000000476837,,rt_thecrossant_black7,1476965,,,,,,,,black_plus_sign,,,49,,,,1,,,,,,0.8888888888888888,,,,,,,,,,,,,
null,,color_black7,1477069,,,,,,,,black_plus_sign,,,null,,,,,,,,,,,,,,,,,,,,,,,
null,,learn_phase(without_color)7,1480576,,,,,,,,black_plus_sign,,,null,object_03a.png,object_12b.png,,,,,,,,,,,,,,,,,,,,,
null,,black_cross(without_color)7,1481421,,,,,,,,blue,,,null,object_03a.png,object_12b.png,,,,,,,,,,,,,,,,,,,,,
null,,rt_plussign_withcolor7,1481923,,,,,,,,blue,,,null,object_03a.png,object_12b.png,,,,,,,,,,,,,,,,,,,,,
1227.5,,rt_thecrossant_black7,1483082,,,,,,,,black_plus_sign,,,49,,,,1,,,,,,0.9,,,,,,,,,,,,,
null,,color_black7,1483184,,,,,,,,black_plus_sign,,,null,,,,,,,,,,,,,,,,,,,,,,,
null,,learn_phase(without_color)7,1486687,,,,,,,,black_plus_sign,,,null,object_13b.png,object_10c.png,,,,,,,,,,,,,,,,,,,,,
null,,black_cross(without_color)7,1487391,,,,,,,,green,,,null,object_13b.png,object_10c.png,,,,,,,,,,,,,,,,,,,,,
null,,rt_plussign_withcolor7,1487894,,,,,,,,green,,,null,object_13b.png,object_10c.png,,,,,,,,,,,,,,,,,,,,,
1404,,rt_thecrossant_black7,1489197,,,,,,,,black_plus_sign,,,50,,,,1,,,,,,0.9090909090909091,,,,,,,,,,,,,
null,,color_black7,1489299,,,,,,,,black_plus_sign,,,null,,,,,,,,,,,,,,,,,,,,,,,
null,,learn_phase(without_color)7,1492802,,,,,,,,black_plus_sign,,,null,object_12c.png,object_05a.png,,,,,,,,,,,,,,,,,,,,,
null,,black_cross(without_color)7,1493593,,,,,,,,green,,,null,object_12c.png,object_05a.png,,,,,,,,,,,,,,,,,,,,,
null,,rt_plussign_withcolor7,1494097,,,,,,,,green,,,null,object_12c.png,object_05a.png,,,,,,,,,,,,,,,,,,,,,
1124.5,,rt_thecrossant_black7,1495312,,,,,,,,black_plus_sign,,,50,,,,1,,,,,,0.9166666666666666,,,,,,,,,,,,,
null,,color_black7,1495417,,,,,,,,black_plus_sign,,,null,,,,,,,,,,,,,,,,,,,,,,,
null,,learn_phase(without_color)7,1498921,,,,,,,,black_plus_sign,,,null,object_04c.png,object_06b.png,,,,,,,,,,,,,,,,,,,,,
null,,black_cross(without_color)7,1499921,,,,,,,,green,,,null,object_04c.png,object_06b.png,,,,,,,,,,,,,,,,,,,,,
null,,rt_plussign_withcolor7,1500424,,,,,,,,green,,,null,object_04c.png,object_06b.png,,,,,,,,,,,,,,,,,,,,,
1085,,rt_thecrossant_black7,1501430,,,,,,,,black_plus_sign,,,50,,,,1,,,,,,0.9230769230769231,,,,,,,,,,,,,
null,,color_black7,1501534,,,,,,,,black_plus_sign,,,null,,,,,,,,,,,,,,,,,,,,,,,
null,,learn_phase(without_color)7,1505039,,,,,,,,black_plus_sign,,,null,object_12a.png,object_15b.png,,,,,,,,,,,,,,,,,,,,,
null,,black_cross(without_color)7,1505667,,,,,,,,green,,,null,object_12a.png,object_15b.png,,,,,,,,,,,,,,,,,,,,,
null,,rt_plussign_withcolor7,1506183,,,,,,,,green,,,null,object_12a.png,object_15b.png,,,,,,,,,,,,,,,,,,,,,
null,,rt_thecrossant_black7,1507562,,,,,,,,black_plus_sign,,,null,,,,,,,,,,0.9230769230769231,,,,,,,,,,,,,
null,,warning_page,1512567,,,,,,,,warning,,,null,,,,,,,,,,,,,,,,,,,,,,,
null,,color_black7,1512671,,,,,,,,black_plus_sign,,,null,,,,,,,,,,,,,,,,,,,,,,,
null,,thebreak,1512777,,,,,,,,<p></p>,,,null,,,,,,,,,,,,,,,,,,,,,,,
4704,,intro_0,1517483,,,,,,,,instruct,,,32,,,,,,,,,,,,,,,,,,,,,,,
2611.3000000715256,,directmemory_phase7,1520096,,,,,,,,object_15a.png,,,51,,,,1,object_02a.png,object_07b.png,object_07a.png,object_07a.png,,0.6373626373626373,,1,,,,,,,,,,,
4750.399999976158,,directmemory_phase7,1524849,,,,,,,,object_05a.png,,,51,,,,0,object_05c.png,object_12c.png,object_11b.png,object_12c.png,,0.6304347826086957,,0,,,,,,,,,,,
3565.2999999523163,,directmemory_phase7,1528419,,,,,,,,object_12b.png,,,51,,,,1,object_02a.png,object_07b.png,object_03a.png,object_03a.png,,0.6344086021505376,,1,,,,,,,,,,,
1791,,directmemory_phase7,1530213,,,,,,,,object_13a.png,,,49,,,,1,object_07b.png,object_03a.png,object_12a.png,object_07b.png,,0.6382978723404256,,1,,,,,,,,,,,
5334.299999952316,,directmemory_phase7,1535554,,,,,,,,object_09a.png,,,49,,,,0,object_04c.png,object_08c.png,object_05c.png,object_05c.png,,0.631578947368421,,0,,,,,,,,,,,
1618.2999999523163,,directmemory_phase7,1537181,,,,,,,,object_10c.png,,,51,,,,1,object_05c.png,object_07b.png,object_13b.png,object_13b.png,,0.6354166666666666,,1,,,,,,,,,,,
1343.2999999523163,,directmemory_phase7,1538530,,,,,,,,object_01c.png,,,49,,,,1,object_02a.png,object_12a.png,object_14b.png,object_02a.png,,0.6391752577319587,,1,,,,,,,,,,,
6734.399999976158,,directmemory_phase7,1545269,,,,,,,,object_11c.png,,,50,,,,1,object_02a.png,object_14b.png,object_05c.png,object_14b.png,,0.6428571428571429,,1,,,,,,,,,,,
2521.7999999523163,,directmemory_phase7,1547795,,,,,,,,object_06a.png,,,50,,,,1,object_07a.png,object_07c.png,object_02a.png,object_07c.png,,0.6464646464646465,,1,,,,,,,,,,,
2352.2000000476837,,directmemory_phase7,1550153,,,,,,,,object_06b.png,,,49,,,,1,object_04c.png,object_08c.png,object_03a.png,object_04c.png,,0.65,,1,,,,,,,,,,,
1736.6000000238419,,directmemory_phase7,1551894,,,,,,,,object_05b.png,,,50,,,,1,object_12a.png,object_09b.png,object_12c.png,object_09b.png,,0.6534653465346535,,1,,,,,,,,,,,
3249.399999976158,,directmemory_phase7,1555146,,,,,,,,object_01a.png,,,51,,,,1,object_12a.png,object_14b.png,object_11b.png,object_11b.png,,0.6568627450980392,,1,,,,,,,,,,,
5816.699999928474,,directmemory_phase7,1560965,,,,,,,,object_15b.png,,,51,,,,0,object_03a.png,object_12a.png,object_12c.png,object_12a.png,,0.6504854368932039,,0,,,,,,,,,,,
4267.5,,directmemory_phase7,1565235,,,,,,,,object_01b.png,,,50,,,,1,object_04b.png,object_08c.png,object_11b.png,object_08c.png,,0.6538461538461539,,1,,,,,,,,,,,
4697.799999952316,,directmemory_phase7,1569939,,,,,,,,object_11a.png,,,50,,,,0,object_02a.png,object_03a.png,object_04b.png,object_04b.png,,0.6476190476190476,,0,,,,,,,,,,,
null,,thebreak,1570059,,,,,,,,<p></p>,,,null,,,,,,,,,,,,,,,,,,,,,,,
3602.7999999523163,,intro_0,1573665,,,,,,,,instruct,,,32,,,,,,,,,,,,,,,,,,,,,,,
null,,learn_phase(without_color)8,1577168,,,,,,,,black_plus_sign,,,null,object_08c.png,object_01b.png,,,,,,,,,,,,,,,,,,,,,
null,,black_cross(without_color)8,1577628,,,,,,,,blue,,,null,object_08c.png,object_01b.png,,,,,,,,,,,,,,,,,,,,,
null,,rt_plussign_withcolor8,1578131,,,,,,,,blue,,,null,object_08c.png,object_01b.png,,,,,,,,,,,,,,,,,,,,,
796.4000000953674,,rt_thecrossant_black8,1579679,,,,,,,,black_plus_sign,,,49,,,,1,,,,,,1,,,,,,,,,,,,,
null,,color_black8,1579783,,,,,,,,black_plus_sign,,,null,,,,,,,,,,,,,,,,,,,,,,,
null,,learn_phase(without_color)8,1583288,,,,,,,,black_plus_sign,,,null,object_04c.png,object_06b.png,,,,,,,,,,,,,,,,,,,,,
null,,black_cross(without_color)8,1584302,,,,,,,,green,,,null,object_04c.png,object_06b.png,,,,,,,,,,,,,,,,,,,,,
null,,rt_plussign_withcolor8,1584804,,,,,,,,green,,,null,object_04c.png,object_06b.png,,,,,,,,,,,,,,,,,,,,,
930.7999999523163,,rt_thecrossant_black8,1585797,,,,,,,,black_plus_sign,,,50,,,,1,,,,,,1,,,,,,,,,,,,,
null,,color_black8,1585899,,,,,,,,black_plus_sign,,,null,,,,,,,,,,,,,,,,,,,,,,,
null,,learn_phase(without_color)8,1589402,,,,,,,,black_plus_sign,,,null,object_02a.png,object_01c.png,,,,,,,,,,,,,,,,,,,,,
null,,black_cross(without_color)8,1590120,,,,,,,,blue,,,null,object_02a.png,object_01c.png,,,,,,,,,,,,,,,,,,,,,
null,,rt_plussign_withcolor8,1590623,,,,,,,,blue,,,null,object_02a.png,object_01c.png,,,,,,,,,,,,,,,,,,,,,
1316.6999999284744,,rt_thecrossant_black8,1591912,,,,,,,,black_plus_sign,,,49,,,,1,,,,,,1,,,,,,,,,,,,,
null,,color_black8,1592016,,,,,,,,black_plus_sign,,,null,,,,,,,,,,,,,,,,,,,,,,,
null,,learn_phase(without_color)8,1595520,,,,,,,,black_plus_sign,,,null,object_04b.png,object_11a.png,,,,,,,,,,,,,,,,,,,,,
null,,black_cross(without_color)8,1596032,,,,,,,,blue,,,null,object_04b.png,object_11a.png,,,,,,,,,,,,,,,,,,,,,
null,,rt_plussign_withcolor8,1596549,,,,,,,,blue,,,null,object_04b.png,object_11a.png,,,,,,,,,,,,,,,,,,,,,
1225.6000000238419,,rt_thecrossant_black8,1598047,,,,,,,,black_plus_sign,,,49,,,,1,,,,,,1,,,,,,,,,,,,,
null,,color_black8,1598150,,,,,,,,black_plus_sign,,,null,,,,,,,,,,,,,,,,,,,,,,,
null,,learn_phase(without_color)8,1601654,,,,,,,,black_plus_sign,,,null,object_11b.png,object_01a.png,,,,,,,,,,,,,,,,,,,,,
null,,black_cross(without_color)8,1602680,,,,,,,,green,,,null,object_11b.png,object_01a.png,,,,,,,,,,,,,,,,,,,,,
null,,rt_plussign_withcolor8,1603182,,,,,,,,green,,,null,object_11b.png,object_01a.png,,,,,,,,,,,,,,,,,,,,,
986.6000000238419,,rt_thecrossant_black8,1604165,,,,,,,,black_plus_sign,,,50,,,,1,,,,,,1,,,,,,,,,,,,,
null,,color_black8,1604268,,,,,,,,black_plus_sign,,,null,,,,,,,,,,,,,,,,,,,,,,,
null,,learn_phase(without_color)8,1607773,,,,,,,,black_plus_sign,,,null,object_03a.png,object_12b.png,,,,,,,,,,,,,,,,,,,,,
null,,black_cross(without_color)8,1608674,,,,,,,,blue,,,null,object_03a.png,object_12b.png,,,,,,,,,,,,,,,,,,,,,
null,,rt_plussign_withcolor8,1609177,,,,,,,,blue,,,null,object_03a.png,object_12b.png,,,,,,,,,,,,,,,,,,,,,
1231.8000000715256,,rt_thecrossant_black8,1610283,,,,,,,,black_plus_sign,,,49,,,,1,,,,,,1,,,,,,,,,,,,,
null,,color_black8,1610387,,,,,,,,black_plus_sign,,,null,,,,,,,,,,,,,,,,,,,,,,,
null,,learn_phase(without_color)8,1613893,,,,,,,,black_plus_sign,,,null,object_12a.png,object_15b.png,,,,,,,,,,,,,,,,,,,,,
null,,black_cross(without_color)8,1614538,,,,,,,,green,,,null,object_12a.png,object_15b.png,,,,,,,,,,,,,,,,,,,,,
null,,rt_plussign_withcolor8,1615046,,,,,,,,green,,,null,object_12a.png,object_15b.png,,,,,,,,,,,,,,,,,,,,,
1323.1999999284744,,rt_thecrossant_black8,1616409,,,,,,,,black_plus_sign,,,50,,,,1,,,,,,1,,,,,,,,,,,,,
null,,color_black8,1616513,,,,,,,,black_plus_sign,,,null,,,,,,,,,,,,,,,,,,,,,,,
null,,learn_phase(without_color)8,1620017,,,,,,,,black_plus_sign,,,null,object_13b.png,object_10c.png,,,,,,,,,,,,,,,,,,,,,
null,,black_cross(without_color)8,1620487,,,,,,,,blue,,,null,object_13b.png,object_10c.png,,,,,,,,,,,,,,,,,,,,,
null,,rt_plussign_withcolor8,1620991,,,,,,,,blue,,,null,object_13b.png,object_10c.png,,,,,,,,,,,,,,,,,,,,,
975.0999999046326,,rt_thecrossant_black8,1622529,,,,,,,,black_plus_sign,,,49,,,,1,,,,,,1,,,,,,,,,,,,,
null,,color_black8,1622631,,,,,,,,black_plus_sign,,,null,,,,,,,,,,,,,,,,,,,,,,,
null,,learn_phase(without_color)8,1626135,,,,,,,,black_plus_sign,,,null,object_12c.png,object_05a.png,,,,,,,,,,,,,,,,,,,,,
null,,black_cross(without_color)8,1627218,,,,,,,,blue,,,null,object_12c.png,object_05a.png,,,,,,,,,,,,,,,,,,,,,
null,,rt_plussign_withcolor8,1627721,,,,,,,,blue,,,null,object_12c.png,object_05a.png,,,,,,,,,,,,,,,,,,,,,
965.6000000238419,,rt_thecrossant_black8,1628643,,,,,,,,black_plus_sign,,,49,,,,1,,,,,,1,,,,,,,,,,,,,
null,,color_black8,1628745,,,,,,,,black_plus_sign,,,null,,,,,,,,,,,,,,,,,,,,,,,
null,,learn_phase(without_color)8,1632248,,,,,,,,black_plus_sign,,,null,object_07a.png,object_15a.png,,,,,,,,,,,,,,,,,,,,,
null,,black_cross(without_color)8,1632661,,,,,,,,blue,,,null,object_07a.png,object_15a.png,,,,,,,,,,,,,,,,,,,,,
null,,rt_plussign_withcolor8,1633164,,,,,,,,blue,,,null,object_07a.png,object_15a.png,,,,,,,,,,,,,,,,,,,,,
1341.8999999761581,,rt_thecrossant_black8,1634759,,,,,,,,black_plus_sign,,,49,,,,1,,,,,,1,,,,,,,,,,,,,
null,,color_black8,1634861,,,,,,,,black_plus_sign,,,null,,,,,,,,,,,,,,,,,,,,,,,
null,,learn_phase(without_color)8,1638367,,,,,,,,black_plus_sign,,,null,object_14b.png,object_11c.png,,,,,,,,,,,,,,,,,,,,,
null,,black_cross(without_color)8,1639150,,,,,,,,green,,,null,object_14b.png,object_11c.png,,,,,,,,,,,,,,,,,,,,,
null,,rt_plussign_withcolor8,1639652,,,,,,,,green,,,null,object_14b.png,object_11c.png,,,,,,,,,,,,,,,,,,,,,
1005.3000000715256,,rt_thecrossant_black8,1640878,,,,,,,,black_plus_sign,,,50,,,,1,,,,,,1,,,,,,,,,,,,,
null,,color_black8,1640982,,,,,,,,black_plus_sign,,,null,,,,,,,,,,,,,,,,,,,,,,,
null,,learn_phase(without_color)8,1644487,,,,,,,,black_plus_sign,,,null,object_07b.png,object_13a.png,,,,,,,,,,,,,,,,,,,,,
null,,black_cross(without_color)8,1645329,,,,,,,,green,,,null,object_07b.png,object_13a.png,,,,,,,,,,,,,,,,,,,,,
null,,rt_plussign_withcolor8,1645832,,,,,,,,green,,,null,object_07b.png,object_13a.png,,,,,,,,,,,,,,,,,,,,,
1246.8999999761581,,rt_thecrossant_black8,1646998,,,,,,,,black_plus_sign,,,50,,,,1,,,,,,1,,,,,,,,,,,,,
null,,color_black8,1647102,,,,,,,,black_plus_sign,,,null,,,,,,,,,,,,,,,,,,,,,,,
null,,learn_phase(without_color)8,1650609,,,,,,,,black_plus_sign,,,null,object_05c.png,object_09a.png,,,,,,,,,,,,,,,,,,,,,
null,,black_cross(without_color)8,1651144,,,,,,,,blue,,,null,object_05c.png,object_09a.png,,,,,,,,,,,,,,,,,,,,,
null,,rt_plussign_withcolor8,1651653,,,,,,,,blue,,,null,object_05c.png,object_09a.png,,,,,,,,,,,,,,,,,,,,,
1957.6999999284744,,rt_thecrossant_black8,1653126,,,,,,,,black_plus_sign,,,49,,,,1,,,,,,1,,,,,,,,,,,,,
null,,color_black8,1653230,,,,,,,,black_plus_sign,,,null,,,,,,,,,,,,,,,,,,,,,,,
null,,learn_phase(without_color)8,1656734,,,,,,,,black_plus_sign,,,null,object_07c.png,object_06a.png,,,,,,,,,,,,,,,,,,,,,
null,,black_cross(without_color)8,1657785,,,,,,,,green,,,null,object_07c.png,object_06a.png,,,,,,,,,,,,,,,,,,,,,
null,,rt_plussign_withcolor8,1658287,,,,,,,,green,,,null,object_07c.png,object_06a.png,,,,,,,,,,,,,,,,,,,,,
null,,rt_thecrossant_black8,1659242,,,,,,,,black_plus_sign,,,null,,,,,,,,,,1,,,,,,,,,,,,,
null,,warning_page,1664245,,,,,,,,warning,,,null,,,,,,,,,,,,,,,,,,,,,,,
null,,color_black8,1664347,,,,,,,,black_plus_sign,,,null,,,,,,,,,,,,,,,,,,,,,,,
null,,learn_phase(without_color)8,1667850,,,,,,,,black_plus_sign,,,null,object_09b.png,object_05b.png,,,,,,,,,,,,,,,,,,,,,
null,,black_cross(without_color)8,1668708,,,,,,,,green,,,null,object_09b.png,object_05b.png,,,,,,,,,,,,,,,,,,,,,
null,,rt_plussign_withcolor8,1669212,,,,,,,,green,,,null,object_09b.png,object_05b.png,,,,,,,,,,,,,,,,,,,,,
1629.2999999523163,,rt_thecrossant_black8,1670361,,,,,,,,black_plus_sign,,,50,,,,1,,,,,,1,,,,,,,,,,,,,
null,,color_black8,1670465,,,,,,,,black_plus_sign,,,null,,,,,,,,,,,,,,,,,,,,,,,
null,,thebreak,1670569,,,,,,,,<p></p>,,,null,,,,,,,,,,,,,,,,,,,,,,,
4111.800000071526,,intro_0,1674684,,,,,,,,instruct,,,32,,,,,,,,,,,,,,,,,,,,,,,
3061.6999999284744,,directmemory_phase8,1677748,,,,,,,,object_13a.png,,,49,,,,1,object_07b.png,object_04b.png,object_03a.png,object_07b.png,,0.6509433962264151,,1,,,,,,,,,,,
1974.5,,directmemory_phase8,1679727,,,,,,,,object_15a.png,,,49,,,,1,object_07a.png,object_08c.png,object_05c.png,object_07a.png,,0.6542056074766355,,1,,,,,,,,,,,
3259.899999976158,,directmemory_phase8,1682993,,,,,,,,object_11a.png,,,51,,,,0,object_04b.png,object_12a.png,object_05c.png,object_04b.png,,0.6481481481481481,,0,,,,,,,,,,,
2607.5,,directmemory_phase8,1685608,,,,,,,,object_05b.png,,,51,,,,1,object_12a.png,object_03a.png,object_09b.png,object_09b.png,,0.6513761467889908,,1,,,,,,,,,,,
3167.8000000715256,,directmemory_phase8,1688781,,,,,,,,object_12b.png,,,51,,,,1,object_09b.png,object_07b.png,object_03a.png,object_03a.png,,0.6545454545454545,,1,,,,,,,,,,,
1833.2999999523163,,directmemory_phase8,1690619,,,,,,,,object_06b.png,,,51,,,,1,object_07a.png,object_12c.png,object_04c.png,object_04c.png,,0.6576576576576577,,1,,,,,,,,,,,
1435.1000000238419,,directmemory_phase8,1692057,,,,,,,,object_11c.png,,,49,,,,1,object_14b.png,object_07a.png,object_04b.png,object_14b.png,,0.6607142857142857,,1,,,,,,,,,,,
3615.7000000476837,,directmemory_phase8,1695676,,,,,,,,object_01a.png,,,49,,,,1,object_11b.png,object_03a.png,object_09b.png,object_11b.png,,0.6637168141592921,,1,,,,,,,,,,,
4872.700000047684,,directmemory_phase8,1700552,,,,,,,,object_01b.png,,,51,,,,1,object_14b.png,object_11b.png,object_08c.png,object_08c.png,,0.6666666666666666,,1,,,,,,,,,,,
2110.2000000476837,,directmemory_phase8,1702668,,,,,,,,object_15b.png,,,51,,,,0,object_12a.png,object_12c.png,object_09b.png,object_12a.png,,0.6608695652173913,,0,,,,,,,,,,,
1840.8999999761581,,directmemory_phase8,1704515,,,,,,,,object_10c.png,,,50,,,,1,object_07b.png,object_13b.png,object_12c.png,object_13b.png,,0.6637931034482759,,1,,,,,,,,,,,
2326.5,,directmemory_phase8,1706848,,,,,,,,object_01c.png,,,51,,,,1,object_11b.png,object_09b.png,object_02a.png,object_02a.png,,0.6666666666666666,,1,,,,,,,,,,,
2221.5,,directmemory_phase8,1709076,,,,,,,,object_05a.png,,,49,,,,1,object_12c.png,object_02a.png,object_07b.png,object_12c.png,,0.6694915254237288,,1,,,,,,,,,,,
2626.899999976158,,directmemory_phase8,1711709,,,,,,,,object_06a.png,,,51,,,,1,object_07b.png,object_09b.png,object_07c.png,object_07c.png,,0.6722689075630253,,1,,,,,,,,,,,
5202.5,,directmemory_phase8,1716915,,,,,,,,object_09a.png,,,51,,,,0,object_07c.png,object_05c.png,object_03a.png,object_05c.png,,0.6666666666666666,,0,,,,,,,,,,,
null,,thebreak,1717022,,,,,,,,<p></p>,,,null,,,,,,,,,,,,,,,,,,,,,,,
7334.899999976158,,intro_0,1724362,,,,,,,,instruct,,,32,,,,,,,,,,,,,,,,,,,,,,,
34572.60000002384,,intro_1,1758937,,,,,,,,instruct,,,32,,,,,,,,,,,,,,,,,,,,,,,
11212.199999928474,,intro_2,1770151,,,,,,,,instruct,,,32,,,,,,,,,,,,,,,,,,,,,,,
,,intro_3,1824329,,,,,,,,instruct,,,,,,,,,,,,,,,,,,,,,,,,,,
8277.600000023842,,intro_4,1832609,,,,,,,,instruct,,,32,,,,,,,,,,,,,,,,,,,,,,,
null,,thebreak,1832712,,,,,,,,<p></p>,,,null,,,,,,,,,,,,,,,,,,,,,,,
2388.100000023842,,intro_0,1835101,,,,,,,,instruct,,,32,,,,,,,,,,,,,,,,,,,,,,,
37159.89999997616,,intro_1,1872263,,,,,,,,instruct,,,32,,,,,,,,,,,,,,,,,,,,,,,
4432,,intro_2,1876697,,,,,,,,instruct,,,32,,,,,,,,,,,,,,,,,,,,,,,
,,intro_3,1894741,,,,,,,,instruct,,,,,,,,,,,,,,,,,,,,,,,,,,
12438.599999904633,,intro_4,1907182,,,,,,,,instruct,,,32,,,,,,,,,,,,,,,,,,,,,,,
3245,,inference_phase,1910430,,,,,,,,object_01c.png,,,50,object_15c.png,object_02c.png,,0,,,,object_15c.png,,0,,,object_14c.png,,,,,,,,,,
2777.7000000476837,,inference_phase,1913216,,,,,,,,object_09a.png,,,49,object_03c.png,object_14c.png,,0,,,,object_14c.png,,0,,,object_15c.png,,,,,,,,,,
3385.0999999046326,,inference_phase,1916606,,,,,,,,object_06a.png,,,51,object_13c.png,object_08b.png,,1,,,,object_08b.png,,0.3333333333333333,,,object_08a.png,,,,,,,,,,
