rt,responses,trial_type,time_elapsed,identifier_a,identifier_b,identifier_c,tasktype,browser_type,local_time,UTC_time,stimulus,button_pressed,response,key_press,stimulus_left,stimulus_right,practice_cumulative_accuracy,accuracy,stimulus_down_left,stimulus_down_mid,stimulus_down_right,stimulus_correct,prac_weighted_accuracy,cumulative_accuracy,weighted_accuracy,stimulus_middle,problems,smooth,distraction,strategies,easier,similar,comments,detectfocus,breakfocus,completion_code
10123.5,{worker_id:67f1c01a138569b5e1b03f05},id_enter,10127,object_06a.png; object_14c.png; object_14b.png; object_02a.png; object_04a.png; object_12c.png; object_02c.png; object_06b.png; object_03b.png; object_06c.png; object_10c.png; object_14a.png; object_03c.png; object_01c.png; object_15c.png,object_09a.png; object_13c.png; object_07c.png; object_11c.png; object_11b.png; object_07a.png; object_04c.png; object_04b.png; object_10b.png; object_09c.png; object_07b.png; object_08c.png; object_15a.png; object_05b.png; object_15b.png,object_08a.png; object_03a.png; object_13b.png; object_09b.png; object_12b.png; object_01b.png; object_05c.png; object_01a.png; object_10a.png; object_08b.png; object_05a.png; object_02b.png; object_12a.png; object_11a.png; object_13a.png,blocked,Mozilla/5.0 (Windows NT 10.0; Win64; x64) AppleWebKit/537.36 (KHTML, like Gecko) Chrome/134.0.0.0 Safari/537.36,5/11/2025, 6:08:10 PM,2025-05-11 22:08:10.706,,,,,,,,,,,,,,,,,,,,,,,,,,
31448.5,,make_fullscreen,41601,,,,,,,,fullscreen,0,,,,,,,,,,,,,,,,,,,,,,,,
8805.5,,instruct_1,50409,,,,,,,,instruct,0,Next,,,,,,,,,,,,,,,,,,,,,,,
21353.80000001192,,instruct_2,71764,,,,,,,,instruct,1,Next,,,,,,,,,,,,,,,,,,,,,,,
15875.699999988079,,instruct_3,87641,,,,,,,,instruct,1,Next,,,,,,,,,,,,,,,,,,,,,,,
40701.19999998808,,instruct_4,128345,,,,,,,,instruct,1,Next,,,,,,,,,,,,,,,,,,,,,,,
38874.30000001192,,instruct_5,167221,,,,,,,,instruct,1,Next,,,,,,,,,,,,,,,,,,,,,,,
8910.800000011921,,instruct_6,176133,,,,,,,,instruct,1,Next,,,,,,,,,,,,,,,,,,,,,,,
61739.10000002384,,instruct_7,237874,,,,,,,,instruct,1,Next,,,,,,,,,,,,,,,,,,,,,,,
null,,prac_atten_color_black,238836,,,,,,,,black_plus_sign,,,null,,,,,,,,,,,,,,,,,,,,,,
null,,prac_atten_color,239305,,,,,,,,<p style='position:absolute;top: 50%;right: 50%;transform: translate(50%, -50%);font-size: 125px;color: blue;'>+</p>,,,null,,,,,,,,,,,,,,,,,,,,,,
894.5,,prac_atten_color_black,241313,,,,,,,,black_plus_sign,,,49,,,,,,,,,,,,,,,,,,,,,,
null,,prac_atten_color_black,242266,,,,,,,,black_plus_sign,,,null,,,,,,,,,,,,,,,,,,,,,,
null,,prac_atten_color,243227,,,,,,,,<p style='position:absolute;top: 50%;right: 50%;transform: translate(50%, -50%);font-size: 125px;color: green;'>+</p>,,,null,,,,,,,,,,,,,,,,,,,,,,
1050.8999999761581,,prac_atten_color_black,245236,,,,,,,,black_plus_sign,,,50,,,,,,,,,,,,,,,,,,,,,,
null,,prac_atten_color_black,245697,,,,,,,,black_plus_sign,,,null,,,,,,,,,,,,,,,,,,,,,,
null,,prac_atten_color,246125,,,,,,,,<p style='position:absolute;top: 50%;right: 50%;transform: translate(50%, -50%);font-size: 125px;color: green;'>+</p>,,,null,,,,,,,,,,,,,,,,,,,,,,
681.8000000119209,,prac_atten_color_black,248138,,,,,,,,black_plus_sign,,,50,,,,,,,,,,,,,,,,,,,,,,
null,,prac_atten_color_black,249132,,,,,,,,black_plus_sign,,,null,,,,,,,,,,,,,,,,,,,,,,
null,,prac_atten_color,249919,,,,,,,,<p style='position:absolute;top: 50%;right: 50%;transform: translate(50%, -50%);font-size: 125px;color: blue;'>+</p>,,,null,,,,,,,,,,,,,,,,,,,,,,
325.19999998807907,,prac_atten_color_black,251931,,,,,,,,black_plus_sign,,,49,,,,,,,,,,,,,,,,,,,,,,
null,,prac_atten_color_black,252552,,,,,,,,black_plus_sign,,,null,,,,,,,,,,,,,,,,,,,,,,
null,,prac_atten_color,253234,,,,,,,,<p style='position:absolute;top: 50%;right: 50%;transform: translate(50%, -50%);font-size: 125px;color: green;'>+</p>,,,null,,,,,,,,,,,,,,,,,,,,,,
817.8000000119209,,prac_atten_color_black,255247,,,,,,,,black_plus_sign,,,50,,,,,,,,,,,,,,,,,,,,,,
null,,prac_atten_color_black,255988,,,,,,,,black_plus_sign,,,null,,,,,,,,,,,,,,,,,,,,,,
null,,prac_atten_color,256912,,,,,,,,<p style='position:absolute;top: 50%;right: 50%;transform: translate(50%, -50%);font-size: 125px;color: green;'>+</p>,,,null,,,,,,,,,,,,,,,,,,,,,,
90.80000001192093,,prac_atten_color_black,258923,,,,,,,,black_plus_sign,,,50,,,,,,,,,,,,,,,,,,,,,,
null,,prac_atten_color_black,259408,,,,,,,,black_plus_sign,,,null,,,,,,,,,,,,,,,,,,,,,,
null,,prac_atten_color,260188,,,,,,,,<p style='position:absolute;top: 50%;right: 50%;transform: translate(50%, -50%);font-size: 125px;color: blue;'>+</p>,,,null,,,,,,,,,,,,,,,,,,,,,,
196.0999999642372,,prac_atten_color_black,262193,,,,,,,,black_plus_sign,,,49,,,,,,,,,,,,,,,,,,,,,,
null,,prac_atten_color_black,262829,,,,,,,,black_plus_sign,,,null,,,,,,,,,,,,,,,,,,,,,,
958.6000000238419,,prac_atten_color,263822,,,,,,,,<p style='position:absolute;top: 50%;right: 50%;transform: translate(50%, -50%);font-size: 125px;color: green;'>+</p>,,,50,,,,,,,,,,,,,,,,,,,,,,
null,,prac_atten_color_black,265836,,,,,,,,black_plus_sign,,,null,,,,,,,,,,,,,,,,,,,,,,
null,,prac_atten_color_black,266258,,,,,,,,black_plus_sign,,,null,,,,,,,,,,,,,,,,,,,,,,
null,,prac_atten_color,266718,,,,,,,,<p style='position:absolute;top: 50%;right: 50%;transform: translate(50%, -50%);font-size: 125px;color: blue;'>+</p>,,,null,,,,,,,,,,,,,,,,,,,,,,
258.19999998807907,,prac_atten_color_black,268719,,,,,,,,black_plus_sign,,,49,,,,,,,,,,,,,,,,,,,,,,
null,,prac_atten_color_black,269679,,,,,,,,black_plus_sign,,,null,,,,,,,,,,,,,,,,,,,,,,
null,,prac_atten_color,270700,,,,,,,,<p style='position:absolute;top: 50%;right: 50%;transform: translate(50%, -50%);font-size: 125px;color: blue;'>+</p>,,,null,,,,,,,,,,,,,,,,,,,,,,
52.5,,prac_atten_color_black,272710,,,,,,,,black_plus_sign,,,49,,,,,,,,,,,,,,,,,,,,,,
15889.5,,attentioncheck_feedback,288601,,,,,,,,cross_check_feedback,0,,,,,,,,,,,,,,,,,,,,,,,,
19866.399999976158,,last_instruct,308469,,,,,,,,instruct,,,32,,,,,,,,,,,,,,,,,,,,,,
null,,prac_learn_phase(without_color),311971,,,,,,,,black_plus_sign,,,null,object_14c.png,object_13c.png,,,,,,,,,,,,,,,,,,,,
null,,prac_black_cross(without_color),312667,,,,,,,,green,,,null,object_14c.png,object_13c.png,,,,,,,,,,,,,,,,,,,,
null,,prac_rt_plussign_withcolor,313183,,,,,,,,green,,,null,object_14c.png,object_13c.png,,,,,,,,,,,,,,,,,,,,
null,,prac_rt_thecrossant_black,314505,,,,,,,,black_plus_sign,,,null,,,NaN,,,,,,,,,,,,,,,,,,,
null,,prac_color_black,314608,,,,,,,,black_plus_sign,,,null,,,,,,,,,,,,,,,,,,,,,,
null,,prac_learn_phase(without_color),318123,,,,,,,,black_plus_sign,,,null,object_12c.png,object_07a.png,,,,,,,,,,,,,,,,,,,,
null,,black_cross(without_color)1,318675,,,,,,,,blue,,,null,object_14c.png,object_13c.png,,,,,,,,,,,,,,,,,,,,
null,,prac_rt_plussign_withcolor,319178,,,,,,,,blue,,,null,object_12c.png,object_07a.png,,,,,,,,,,,,,,,,,,,,
876.8999999761581,,prac_rt_thecrossant_black,320702,,,,,,,,black_plus_sign,,,49,,,1,1,,,,,,,,,,,,,,,,,,
null,,prac_color_black,320804,,,,,,,,black_plus_sign,,,null,,,,,,,,,,,,,,,,,,,,,,
null,,prac_learn_phase(without_color),324315,,,,,,,,black_plus_sign,,,null,object_06b.png,object_04b.png,,,,,,,,,,,,,,,,,,,,
null,,black_cross(without_color)1,324869,,,,,,,,blue,,,null,object_14c.png,object_13c.png,,,,,,,,,,,,,,,,,,,,
null,,prac_rt_plussign_withcolor,325378,,,,,,,,green,,,null,object_06b.png,object_04b.png,,,,,,,,,,,,,,,,,,,,
1514.699999988079,,prac_rt_thecrossant_black,326471,,,,,,,,black_plus_sign,,,50,,,1,1,,,,,,,,,,,,,,,,,,
null,,prac_color_black,326577,,,,,,,,black_plus_sign,,,null,,,,,,,,,,,,,,,,,,,,,,
null,,prac_learn_phase(without_color),330082,,,,,,,,black_plus_sign,,,null,object_03c.png,object_15a.png,,,,,,,,,,,,,,,,,,,,
null,,black_cross(without_color)1,330622,,,,,,,,blue,,,null,object_14c.png,object_13c.png,,,,,,,,,,,,,,,,,,,,
null,,prac_rt_plussign_withcolor,331137,,,,,,,,blue,,,null,object_03c.png,object_15a.png,,,,,,,,,,,,,,,,,,,,
1218.199999988079,,prac_rt_thecrossant_black,332046,,,,,,,,black_plus_sign,,,49,,,1,1,,,,,,,,,,,,,,,,,,
null,,prac_color_black,332162,,,,,,,,black_plus_sign,,,null,,,,,,,,,,,,,,,,,,,,,,
36768.59999996424,,instruct_dir_01,368933,,,,,,,,instruct,0,Next,,,,,,,,,,,,,,,,,,,,,,,
18506.5,,instruct_dir_2,387441,,,,,,,,instruct,1,Next,,,,,,,,,,,,,,,,,,,,,,,
7940.600000023842,,instruct_dir_3,395384,,,,,,,,instruct,1,Next,,,,,,,,,,,,,,,,,,,,,,,
17761.80000001192,,instruct_dir_4,413147,,,,,,,,instruct,1,Start,,,,,,,,,,,,,,,,,,,,,,,
null,,thebreak,413261,,,,,,,,<p></p>,,,null,,,,,,,,,,,,,,,,,,,,,,
2216.599999964237,,intro_0,415479,,,,,,,,instruct,,,32,,,,,,,,,,,,,,,,,,,,,,
7408.199999988079,,prac_directmemory_phase,422889,,,,,,,,practice/object_01b.png,,,49,,,,1,practice/object_01a.png,practice/object_02a.png,practice/object_03a.png,practice/object_01a.png,1,1,,,,,,,,,,,,
6584.699999988079,,prac_directmemory_phase,429476,,,,,,,,practice/object_03b.png,,,49,,,,1,practice/object_03a.png,practice/object_01a.png,practice/object_02a.png,practice/object_03a.png,1,1,,,,,,,,,,,,
4778.699999988079,,prac_directmemory_phase,434257,,,,,,,,practice/object_04b.png,,,49,,,,1,practice/object_04a.png,practice/object_02a.png,practice/object_01a.png,practice/object_04a.png,1,1,,,,,,,,,,,,
6401.800000011921,,prac_directmemory_phase,440661,,,,,,,,practice/object_02b.png,,,50,,,,1,practice/object_04a.png,practice/object_02a.png,practice/object_01a.png,practice/object_02a.png,1,1,,,,,,,,,,,,
21218.299999952316,,practice_feedback,461890,,,,,,,,practice_feedback,1,,,,,,,,,,,,,,,,,,,,,,,,
16242.400000035763,,proceed_actualTask,478134,,,,,,,,proceed_actualTask,1,Continue,,,,,,,,,,,,,,,,,,,,,,,
18982.30000001192,,last_inst,497118,,,,,,,,last_inst,,,32,,,,,,,,,,,,,,,,,,,,,,
null,,learn_phase(without_color)1,500631,,,,,,,,black_plus_sign,,,null,object_14c.png,object_13c.png,,,,,,,,,,,,,,,,,,,,
null,,black_cross(without_color)1,501185,,,,,,,,blue,,,null,object_14c.png,object_13c.png,,,,,,,,,,,,,,,,,,,,
null,,rt_plussign_withcolor1,501696,,,,,,,,blue,,,null,object_14c.png,object_13c.png,,,,,,,,,,,,,,,,,,,,
1598.300000011921,,rt_thecrossant_black1,503166,,,,,,,,black_plus_sign,,,49,,,,1,,,,,,1,,,,,,,,,,,,
null,,color_black1,503284,,,,,,,,black_plus_sign,,,null,,,,,,,,,,,,,,,,,,,,,,
null,,learn_phase(without_color)1,506798,,,,,,,,black_plus_sign,,,null,object_12c.png,object_07a.png,,,,,,,,,,,,,,,,,,,,
null,,black_cross(without_color)1,507290,,,,,,,,blue,,,null,object_12c.png,object_07a.png,,,,,,,,,,,,,,,,,,,,
null,,rt_plussign_withcolor1,507793,,,,,,,,blue,,,null,object_12c.png,object_07a.png,,,,,,,,,,,,,,,,,,,,
1233.1000000238419,,rt_thecrossant_black1,509314,,,,,,,,black_plus_sign,,,49,,,,1,,,,,,1,,,,,,,,,,,,
null,,color_black1,509415,,,,,,,,black_plus_sign,,,null,,,,,,,,,,,,,,,,,,,,,,
null,,learn_phase(without_color)1,512920,,,,,,,,black_plus_sign,,,null,object_06b.png,object_04b.png,,,,,,,,,,,,,,,,,,,,
null,,black_cross(without_color)1,513891,,,,,,,,green,,,null,object_06b.png,object_04b.png,,,,,,,,,,,,,,,,,,,,
null,,rt_plussign_withcolor1,514406,,,,,,,,green,,,null,object_06b.png,object_04b.png,,,,,,,,,,,,,,,,,,,,
599.1999999880791,,rt_thecrossant_black1,515460,,,,,,,,black_plus_sign,,,50,,,,1,,,,,,1,,,,,,,,,,,,
null,,color_black1,515577,,,,,,,,black_plus_sign,,,null,,,,,,,,,,,,,,,,,,,,,,
null,,learn_phase(without_color)1,519092,,,,,,,,black_plus_sign,,,null,object_03c.png,object_15a.png,,,,,,,,,,,,,,,,,,,,
null,,black_cross(without_color)1,520054,,,,,,,,green,,,null,object_03c.png,object_15a.png,,,,,,,,,,,,,,,,,,,,
null,,rt_plussign_withcolor1,520569,,,,,,,,green,,,null,object_03c.png,object_15a.png,,,,,,,,,,,,,,,,,,,,
1474,,rt_thecrossant_black1,521618,,,,,,,,black_plus_sign,,,50,,,,1,,,,,,1,,,,,,,,,,,,
null,,color_black1,521729,,,,,,,,black_plus_sign,,,null,,,,,,,,,,,,,,,,,,,,,,
null,,learn_phase(without_color)1,525232,,,,,,,,black_plus_sign,,,null,object_06c.png,object_09c.png,,,,,,,,,,,,,,,,,,,,
null,,black_cross(without_color)1,525813,,,,,,,,green,,,null,object_06c.png,object_09c.png,,,,,,,,,,,,,,,,,,,,
null,,rt_plussign_withcolor1,526320,,,,,,,,green,,,null,object_06c.png,object_09c.png,,,,,,,,,,,,,,,,,,,,
2150.400000035763,,rt_thecrossant_black1,527757,,,,,,,,black_plus_sign,,,50,,,,1,,,,,,1,,,,,,,,,,,,
null,,color_black1,527861,,,,,,,,black_plus_sign,,,null,,,,,,,,,,,,,,,,,,,,,,
null,,learn_phase(without_color)1,531374,,,,,,,,black_plus_sign,,,null,object_04a.png,object_11b.png,,,,,,,,,,,,,,,,,,,,
null,,black_cross(without_color)1,532305,,,,,,,,blue,,,null,object_04a.png,object_11b.png,,,,,,,,,,,,,,,,,,,,
null,,rt_plussign_withcolor1,532813,,,,,,,,blue,,,null,object_04a.png,object_11b.png,,,,,,,,,,,,,,,,,,,,
1085.5999999642372,,rt_thecrossant_black1,533894,,,,,,,,black_plus_sign,,,49,,,,1,,,,,,1,,,,,,,,,,,,
null,,color_black1,534007,,,,,,,,black_plus_sign,,,null,,,,,,,,,,,,,,,,,,,,,,
null,,learn_phase(without_color)1,537511,,,,,,,,black_plus_sign,,,null,object_01c.png,object_05b.png,,,,,,,,,,,,,,,,,,,,
null,,black_cross(without_color)1,538122,,,,,,,,blue,,,null,object_01c.png,object_05b.png,,,,,,,,,,,,,,,,,,,,
null,,rt_plussign_withcolor1,538628,,,,,,,,blue,,,null,object_01c.png,object_05b.png,,,,,,,,,,,,,,,,,,,,
1839.5,,rt_thecrossant_black1,540029,,,,,,,,black_plus_sign,,,49,,,,1,,,,,,1,,,,,,,,,,,,
null,,color_black1,540133,,,,,,,,black_plus_sign,,,null,,,,,,,,,,,,,,,,,,,,,,
null,,learn_phase(without_color)1,543639,,,,,,,,black_plus_sign,,,null,object_15c.png,object_15b.png,,,,,,,,,,,,,,,,,,,,
null,,black_cross(without_color)1,544503,,,,,,,,green,,,null,object_15c.png,object_15b.png,,,,,,,,,,,,,,,,,,,,
null,,rt_plussign_withcolor1,545009,,,,,,,,green,,,null,object_15c.png,object_15b.png,,,,,,,,,,,,,,,,,,,,
null,,rt_thecrossant_black1,546161,,,,,,,,black_plus_sign,,,null,,,,,,,,,,1,,,,,,,,,,,,
null,,color_black1,546270,,,,,,,,black_plus_sign,,,null,,,,,,,,,,,,,,,,,,,,,,
null,,learn_phase(without_color)1,549782,,,,,,,,black_plus_sign,,,null,object_02a.png,object_11c.png,,,,,,,,,,,,,,,,,,,,
null,,black_cross(without_color)1,550837,,,,,,,,blue,,,null,object_02a.png,object_11c.png,,,,,,,,,,,,,,,,,,,,
null,,rt_plussign_withcolor1,551340,,,,,,,,blue,,,null,object_02a.png,object_11c.png,,,,,,,,,,,,,,,,,,,,
1668.199999988079,,rt_thecrossant_black1,552313,,,,,,,,black_plus_sign,,,49,,,,1,,,,,,1,,,,,,,,,,,,
null,,color_black1,552416,,,,,,,,black_plus_sign,,,null,,,,,,,,,,,,,,,,,,,,,,
null,,learn_phase(without_color)1,555931,,,,,,,,black_plus_sign,,,null,object_14a.png,object_08c.png,,,,,,,,,,,,,,,,,,,,
null,,black_cross(without_color)1,556337,,,,,,,,blue,,,null,object_14a.png,object_08c.png,,,,,,,,,,,,,,,,,,,,
null,,rt_plussign_withcolor1,556838,,,,,,,,blue,,,null,object_14a.png,object_08c.png,,,,,,,,,,,,,,,,,,,,
1593.199999988079,,rt_thecrossant_black1,558448,,,,,,,,black_plus_sign,,,49,,,,1,,,,,,1,,,,,,,,,,,,
null,,color_black1,558564,,,,,,,,black_plus_sign,,,null,,,,,,,,,,,,,,,,,,,,,,
null,,learn_phase(without_color)1,562068,,,,,,,,black_plus_sign,,,null,object_06a.png,object_09a.png,,,,,,,,,,,,,,,,,,,,
null,,black_cross(without_color)1,562926,,,,,,,,green,,,null,object_06a.png,object_09a.png,,,,,,,,,,,,,,,,,,,,
null,,rt_plussign_withcolor1,563435,,,,,,,,green,,,null,object_06a.png,object_09a.png,,,,,,,,,,,,,,,,,,,,
633.5,,rt_thecrossant_black1,564599,,,,,,,,black_plus_sign,,,50,,,,1,,,,,,1,,,,,,,,,,,,
null,,color_black1,564710,,,,,,,,black_plus_sign,,,null,,,,,,,,,,,,,,,,,,,,,,
null,,learn_phase(without_color)1,568218,,,,,,,,black_plus_sign,,,null,object_03b.png,object_10b.png,,,,,,,,,,,,,,,,,,,,
null,,black_cross(without_color)1,569137,,,,,,,,blue,,,null,object_03b.png,object_10b.png,,,,,,,,,,,,,,,,,,,,
null,,rt_plussign_withcolor1,569646,,,,,,,,blue,,,null,object_03b.png,object_10b.png,,,,,,,,,,,,,,,,,,,,
1430.199999988079,,rt_thecrossant_black1,570744,,,,,,,,black_plus_sign,,,49,,,,1,,,,,,1,,,,,,,,,,,,
null,,color_black1,570857,,,,,,,,black_plus_sign,,,null,,,,,,,,,,,,,,,,,,,,,,
null,,learn_phase(without_color)1,574367,,,,,,,,black_plus_sign,,,null,object_02c.png,object_04c.png,,,,,,,,,,,,,,,,,,,,
null,,black_cross(without_color)1,574843,,,,,,,,blue,,,null,object_02c.png,object_04c.png,,,,,,,,,,,,,,,,,,,,
null,,rt_plussign_withcolor1,575345,,,,,,,,blue,,,null,object_02c.png,object_04c.png,,,,,,,,,,,,,,,,,,,,
1455.6000000238419,,rt_thecrossant_black1,576893,,,,,,,,black_plus_sign,,,49,,,,1,,,,,,1,,,,,,,,,,,,
null,,color_black1,577004,,,,,,,,black_plus_sign,,,null,,,,,,,,,,,,,,,,,,,,,,
null,,learn_phase(without_color)1,580518,,,,,,,,black_plus_sign,,,null,object_10c.png,object_07b.png,,,,,,,,,,,,,,,,,,,,
null,,black_cross(without_color)1,581322,,,,,,,,blue,,,null,object_10c.png,object_07b.png,,,,,,,,,,,,,,,,,,,,
null,,rt_plussign_withcolor1,581826,,,,,,,,blue,,,null,object_10c.png,object_07b.png,,,,,,,,,,,,,,,,,,,,
1112.8999999761581,,rt_thecrossant_black1,583040,,,,,,,,black_plus_sign,,,49,,,,1,,,,,,1,,,,,,,,,,,,
null,,color_black1,583152,,,,,,,,black_plus_sign,,,null,,,,,,,,,,,,,,,,,,,,,,
null,,learn_phase(without_color)1,586655,,,,,,,,black_plus_sign,,,null,object_14b.png,object_07c.png,,,,,,,,,,,,,,,,,,,,
null,,black_cross(without_color)1,587180,,,,,,,,blue,,,null,object_14b.png,object_07c.png,,,,,,,,,,,,,,,,,,,,
null,,rt_plussign_withcolor1,587688,,,,,,,,blue,,,null,object_14b.png,object_07c.png,,,,,,,,,,,,,,,,,,,,
1456.8999999761581,,rt_thecrossant_black1,589184,,,,,,,,black_plus_sign,,,49,,,,1,,,,,,1,,,,,,,,,,,,
null,,color_black1,589300,,,,,,,,black_plus_sign,,,null,,,,,,,,,,,,,,,,,,,,,,
null,,thebreak,589407,,,,,,,,<p></p>,,,null,,,,,,,,,,,,,,,,,,,,,,
5401.600000023842,,intro_0,594809,,,,,,,,instruct,,,32,,,,,,,,,,,,,,,,,,,,,,
7253.299999952316,,directmemory_phase1,602064,,,,,,,,object_04c.png,,,49,,,,1,object_02c.png,object_12c.png,object_14a.png,object_02c.png,,1,1,,,,,,,,,,,
9822.899999976158,,directmemory_phase1,611889,,,,,,,,object_04b.png,,,51,,,,1,object_10c.png,object_12c.png,object_06b.png,object_06b.png,,1,1,,,,,,,,,,,
9454.599999964237,,directmemory_phase1,621346,,,,,,,,object_09a.png,,,51,,,,0,object_06a.png,object_14b.png,object_12c.png,object_06a.png,,0.6666666666666666,0,,,,,,,,,,,
9683.800000011921,,directmemory_phase1,631032,,,,,,,,object_07a.png,,,49,,,,0,object_10c.png,object_06b.png,object_12c.png,object_12c.png,,0.5,0,,,,,,,,,,,
null,,directmemory_phase1,646034,,,,,,,,object_13c.png,,,null,,,,0,object_10c.png,object_14c.png,object_01c.png,object_14c.png,,0.4,0,,,,,,,,,,,
null,,warning_page,651051,,,,,,,,warning,,,null,,,,,,,,,,,,,,,,,,,,,,
5859.199999988079,,directmemory_phase1,656911,,,,,,,,object_11c.png,,,50,,,,0,object_06b.png,object_14b.png,object_02a.png,object_02a.png,,0.3333333333333333,0,,,,,,,,,,,
4614.399999976158,,directmemory_phase1,661527,,,,,,,,object_15b.png,,,50,,,,0,object_06b.png,object_10c.png,object_15c.png,object_15c.png,,0.2857142857142857,0,,,,,,,,,,,
4780.100000023842,,directmemory_phase1,666310,,,,,,,,object_11b.png,,,49,,,,1,object_04a.png,object_01c.png,object_02a.png,object_04a.png,,0.375,1,,,,,,,,,,,
5604.899999976158,,directmemory_phase1,671916,,,,,,,,object_07c.png,,,50,,,,0,object_04a.png,object_06c.png,object_14b.png,object_14b.png,,0.3333333333333333,0,,,,,,,,,,,
4267.399999976158,,directmemory_phase1,676186,,,,,,,,object_15a.png,,,50,,,,0,object_12c.png,object_06c.png,object_03c.png,object_03c.png,,0.3,0,,,,,,,,,,,
3698,,directmemory_phase1,679886,,,,,,,,object_09c.png,,,49,,,,0,object_03b.png,object_06c.png,object_12c.png,object_06c.png,,0.2727272727272727,0,,,,,,,,,,,
5039.199999988079,,directmemory_phase1,684927,,,,,,,,object_05b.png,,,51,,,,0,object_01c.png,object_10c.png,object_14b.png,object_01c.png,,0.25,0,,,,,,,,,,,
4315.5,,directmemory_phase1,689244,,,,,,,,object_08c.png,,,51,,,,1,object_02a.png,object_10c.png,object_14a.png,object_14a.png,,0.3076923076923077,1,,,,,,,,,,,
6612.100000023842,,directmemory_phase1,695858,,,,,,,,object_10b.png,,,49,,,,1,object_03b.png,object_06a.png,object_04a.png,object_03b.png,,0.35714285714285715,1,,,,,,,,,,,
5706,,directmemory_phase1,701566,,,,,,,,object_07b.png,,,50,,,,0,object_06c.png,object_02c.png,object_10c.png,object_10c.png,,0.3333333333333333,0,,,,,,,,,,,
null,,thebreak,701682,,,,,,,,<p></p>,,,null,,,,,,,,,,,,,,,,,,,,,,
19613.19999998808,,intro_0,721296,,,,,,,,instruct,,,32,,,,,,,,,,,,,,,,,,,,,,
null,,learn_phase(without_color)2,724806,,,,,,,,black_plus_sign,,,null,object_14a.png,object_08c.png,,,,,,,,,,,,,,,,,,,,
null,,black_cross(without_color)2,725904,,,,,,,,green,,,null,object_14a.png,object_08c.png,,,,,,,,,,,,,,,,,,,,
null,,rt_plussign_withcolor2,726410,,,,,,,,green,,,null,object_14a.png,object_08c.png,,,,,,,,,,,,,,,,,,,,
1914.5999999642372,,rt_thecrossant_black2,727333,,,,,,,,black_plus_sign,,,50,,,,1,,,,,,1,,,,,,,,,,,,
null,,color_black2,727438,,,,,,,,black_plus_sign,,,null,,,,,,,,,,,,,,,,,,,,,,
null,,learn_phase(without_color)2,730946,,,,,,,,black_plus_sign,,,null,object_04a.png,object_11b.png,,,,,,,,,,,,,,,,,,,,
null,,black_cross(without_color)2,731361,,,,,,,,blue,,,null,object_04a.png,object_11b.png,,,,,,,,,,,,,,,,,,,,
null,,rt_plussign_withcolor2,731875,,,,,,,,blue,,,null,object_04a.png,object_11b.png,,,,,,,,,,,,,,,,,,,,
1644.4000000357628,,rt_thecrossant_black2,733482,,,,,,,,black_plus_sign,,,49,,,,1,,,,,,1,,,,,,,,,,,,
null,,color_black2,733600,,,,,,,,black_plus_sign,,,null,,,,,,,,,,,,,,,,,,,,,,
null,,learn_phase(without_color)2,737106,,,,,,,,black_plus_sign,,,null,object_14c.png,object_13c.png,,,,,,,,,,,,,,,,,,,,
null,,black_cross(without_color)2,737997,,,,,,,,green,,,null,object_14c.png,object_13c.png,,,,,,,,,,,,,,,,,,,,
null,,rt_plussign_withcolor2,738503,,,,,,,,green,,,null,object_14c.png,object_13c.png,,,,,,,,,,,,,,,,,,,,
1042.800000011921,,rt_thecrossant_black2,739642,,,,,,,,black_plus_sign,,,50,,,,1,,,,,,1,,,,,,,,,,,,
null,,color_black2,739759,,,,,,,,black_plus_sign,,,null,,,,,,,,,,,,,,,,,,,,,,
null,,learn_phase(without_color)2,743271,,,,,,,,black_plus_sign,,,null,object_03c.png,object_15a.png,,,,,,,,,,,,,,,,,,,,
null,,black_cross(without_color)2,744120,,,,,,,,blue,,,null,object_03c.png,object_15a.png,,,,,,,,,,,,,,,,,,,,
null,,rt_plussign_withcolor2,744622,,,,,,,,blue,,,null,object_03c.png,object_15a.png,,,,,,,,,,,,,,,,,,,,
1407,,rt_thecrossant_black2,745779,,,,,,,,black_plus_sign,,,49,,,,1,,,,,,1,,,,,,,,,,,,
null,,color_black2,745894,,,,,,,,black_plus_sign,,,null,,,,,,,,,,,,,,,,,,,,,,
null,,learn_phase(without_color)2,749406,,,,,,,,black_plus_sign,,,null,object_15c.png,object_15b.png,,,,,,,,,,,,,,,,,,,,
null,,black_cross(without_color)2,750490,,,,,,,,green,,,null,object_15c.png,object_15b.png,,,,,,,,,,,,,,,,,,,,
null,,rt_plussign_withcolor2,750999,,,,,,,,green,,,null,object_15c.png,object_15b.png,,,,,,,,,,,,,,,,,,,,
1567.5,,rt_thecrossant_black2,751921,,,,,,,,black_plus_sign,,,50,,,,1,,,,,,1,,,,,,,,,,,,
null,,color_black2,752023,,,,,,,,black_plus_sign,,,null,,,,,,,,,,,,,,,,,,,,,,
null,,learn_phase(without_color)2,755526,,,,,,,,black_plus_sign,,,null,object_02a.png,object_11c.png,,,,,,,,,,,,,,,,,,,,
null,,black_cross(without_color)2,756030,,,,,,,,green,,,null,object_02a.png,object_11c.png,,,,,,,,,,,,,,,,,,,,
null,,rt_plussign_withcolor2,756547,,,,,,,,green,,,null,object_02a.png,object_11c.png,,,,,,,,,,,,,,,,,,,,
1550.199999988079,,rt_thecrossant_black2,758059,,,,,,,,black_plus_sign,,,50,,,,1,,,,,,1,,,,,,,,,,,,
null,,color_black2,758173,,,,,,,,black_plus_sign,,,null,,,,,,,,,,,,,,,,,,,,,,
null,,learn_phase(without_color)2,761679,,,,,,,,black_plus_sign,,,null,object_06c.png,object_09c.png,,,,,,,,,,,,,,,,,,,,
null,,black_cross(without_color)2,762587,,,,,,,,green,,,null,object_06c.png,object_09c.png,,,,,,,,,,,,,,,,,,,,
null,,rt_plussign_withcolor2,763094,,,,,,,,green,,,null,object_06c.png,object_09c.png,,,,,,,,,,,,,,,,,,,,
942,,rt_thecrossant_black2,764200,,,,,,,,black_plus_sign,,,50,,,,1,,,,,,1,,,,,,,,,,,,
null,,color_black2,764305,,,,,,,,black_plus_sign,,,null,,,,,,,,,,,,,,,,,,,,,,
null,,learn_phase(without_color)2,767814,,,,,,,,black_plus_sign,,,null,object_06b.png,object_04b.png,,,,,,,,,,,,,,,,,,,,
null,,black_cross(without_color)2,768741,,,,,,,,blue,,,null,object_06b.png,object_04b.png,,,,,,,,,,,,,,,,,,,,
null,,rt_plussign_withcolor2,769257,,,,,,,,blue,,,null,object_06b.png,object_04b.png,,,,,,,,,,,,,,,,,,,,
1486.4000000357628,,rt_thecrossant_black2,770357,,,,,,,,black_plus_sign,,,49,,,,1,,,,,,1,,,,,,,,,,,,
null,,color_black2,770468,,,,,,,,black_plus_sign,,,null,,,,,,,,,,,,,,,,,,,,,,
null,,learn_phase(without_color)2,773973,,,,,,,,black_plus_sign,,,null,object_10c.png,object_07b.png,,,,,,,,,,,,,,,,,,,,
null,,black_cross(without_color)2,774871,,,,,,,,green,,,null,object_10c.png,object_07b.png,,,,,,,,,,,,,,,,,,,,
null,,rt_plussign_withcolor2,775387,,,,,,,,green,,,null,object_10c.png,object_07b.png,,,,,,,,,,,,,,,,,,,,
1622,,rt_thecrossant_black2,776507,,,,,,,,black_plus_sign,,,50,,,,1,,,,,,1,,,,,,,,,,,,
null,,color_black2,776609,,,,,,,,black_plus_sign,,,null,,,,,,,,,,,,,,,,,,,,,,
null,,learn_phase(without_color)2,780117,,,,,,,,black_plus_sign,,,null,object_01c.png,object_05b.png,,,,,,,,,,,,,,,,,,,,
null,,black_cross(without_color)2,781147,,,,,,,,green,,,null,object_01c.png,object_05b.png,,,,,,,,,,,,,,,,,,,,
null,,rt_plussign_withcolor2,781654,,,,,,,,green,,,null,object_01c.png,object_05b.png,,,,,,,,,,,,,,,,,,,,
1509.5,,rt_thecrossant_black2,782642,,,,,,,,black_plus_sign,,,50,,,,1,,,,,,1,,,,,,,,,,,,
null,,color_black2,782744,,,,,,,,black_plus_sign,,,null,,,,,,,,,,,,,,,,,,,,,,
null,,learn_phase(without_color)2,786250,,,,,,,,black_plus_sign,,,null,object_02c.png,object_04c.png,,,,,,,,,,,,,,,,,,,,
null,,black_cross(without_color)2,786830,,,,,,,,green,,,null,object_02c.png,object_04c.png,,,,,,,,,,,,,,,,,,,,
null,,rt_plussign_withcolor2,787331,,,,,,,,green,,,null,object_02c.png,object_04c.png,,,,,,,,,,,,,,,,,,,,
1521,,rt_thecrossant_black2,788773,,,,,,,,black_plus_sign,,,50,,,,1,,,,,,1,,,,,,,,,,,,
null,,color_black2,788890,,,,,,,,black_plus_sign,,,null,,,,,,,,,,,,,,,,,,,,,,
null,,learn_phase(without_color)2,792394,,,,,,,,black_plus_sign,,,null,object_06a.png,object_09a.png,,,,,,,,,,,,,,,,,,,,
null,,black_cross(without_color)2,793255,,,,,,,,green,,,null,object_06a.png,object_09a.png,,,,,,,,,,,,,,,,,,,,
null,,rt_plussign_withcolor2,793764,,,,,,,,green,,,null,object_06a.png,object_09a.png,,,,,,,,,,,,,,,,,,,,
1379.2000000476837,,rt_thecrossant_black2,794922,,,,,,,,black_plus_sign,,,50,,,,1,,,,,,1,,,,,,,,,,,,
null,,color_black2,795038,,,,,,,,black_plus_sign,,,null,,,,,,,,,,,,,,,,,,,,,,
null,,learn_phase(without_color)2,798549,,,,,,,,black_plus_sign,,,null,object_03b.png,object_10b.png,,,,,,,,,,,,,,,,,,,,
null,,black_cross(without_color)2,799089,,,,,,,,blue,,,null,object_03b.png,object_10b.png,,,,,,,,,,,,,,,,,,,,
null,,rt_plussign_withcolor2,799596,,,,,,,,blue,,,null,object_03b.png,object_10b.png,,,,,,,,,,,,,,,,,,,,
1417.2000000476837,,rt_thecrossant_black2,801068,,,,,,,,black_plus_sign,,,49,,,,1,,,,,,1,,,,,,,,,,,,
null,,color_black2,801185,,,,,,,,black_plus_sign,,,null,,,,,,,,,,,,,,,,,,,,,,
null,,learn_phase(without_color)2,804699,,,,,,,,black_plus_sign,,,null,object_12c.png,object_07a.png,,,,,,,,,,,,,,,,,,,,
null,,black_cross(without_color)2,805519,,,,,,,,green,,,null,object_12c.png,object_07a.png,,,,,,,,,,,,,,,,,,,,
null,,rt_plussign_withcolor2,806026,,,,,,,,green,,,null,object_12c.png,object_07a.png,,,,,,,,,,,,,,,,,,,,
1248.0999999642372,,rt_thecrossant_black2,807225,,,,,,,,black_plus_sign,,,50,,,,1,,,,,,1,,,,,,,,,,,,
null,,color_black2,807334,,,,,,,,black_plus_sign,,,null,,,,,,,,,,,,,,,,,,,,,,
null,,learn_phase(without_color)2,810845,,,,,,,,black_plus_sign,,,null,object_14b.png,object_07c.png,,,,,,,,,,,,,,,,,,,,
null,,black_cross(without_color)2,811275,,,,,,,,green,,,null,object_14b.png,object_07c.png,,,,,,,,,,,,,,,,,,,,
null,,rt_plussign_withcolor2,811776,,,,,,,,green,,,null,object_14b.png,object_07c.png,,,,,,,,,,,,,,,,,,,,
1531.0999999642372,,rt_thecrossant_black2,813364,,,,,,,,black_plus_sign,,,50,,,,1,,,,,,1,,,,,,,,,,,,
null,,color_black2,813480,,,,,,,,black_plus_sign,,,null,,,,,,,,,,,,,,,,,,,,,,
null,,thebreak,813598,,,,,,,,<p></p>,,,null,,,,,,,,,,,,,,,,,,,,,,
2432.800000011921,,intro_0,816032,,,,,,,,instruct,,,32,,,,,,,,,,,,,,,,,,,,,,
3136.800000011921,,directmemory_phase2,819170,,,,,,,,object_07c.png,,,51,,,,1,object_10c.png,object_02c.png,object_14b.png,object_14b.png,,0.375,1,,,,,,,,,,,
4133.600000023842,,directmemory_phase2,823305,,,,,,,,object_11c.png,,,50,,,,0,object_02a.png,object_01c.png,object_06a.png,object_02a.png,,0.35294117647058826,0,,,,,,,,,,,
5065.099999964237,,directmemory_phase2,828372,,,,,,,,object_10b.png,,,49,,,,0,object_14c.png,object_10c.png,object_03b.png,object_03b.png,,0.3333333333333333,0,,,,,,,,,,,
3530.599999964237,,directmemory_phase2,831904,,,,,,,,object_15b.png,,,49,,,,0,object_14a.png,object_06a.png,object_15c.png,object_15c.png,,0.3157894736842105,0,,,,,,,,,,,
4352.300000011921,,directmemory_phase2,836259,,,,,,,,object_13c.png,,,50,,,,0,object_12c.png,object_14b.png,object_14c.png,object_14c.png,,0.3,0,,,,,,,,,,,
4900,,directmemory_phase2,841161,,,,,,,,object_05b.png,,,49,,,,0,object_14b.png,object_03b.png,object_01c.png,object_01c.png,,0.2857142857142857,0,,,,,,,,,,,
2814.899999976158,,directmemory_phase2,843978,,,,,,,,object_04c.png,,,50,,,,1,object_03c.png,object_02c.png,object_12c.png,object_02c.png,,0.3181818181818182,1,,,,,,,,,,,
3913.199999988079,,directmemory_phase2,847893,,,,,,,,object_11b.png,,,49,,,,1,object_04a.png,object_02a.png,object_02c.png,object_04a.png,,0.34782608695652173,1,,,,,,,,,,,
3913.699999988079,,directmemory_phase2,851808,,,,,,,,object_15a.png,,,49,,,,1,object_03c.png,object_14a.png,object_06b.png,object_03c.png,,0.375,1,,,,,,,,,,,
6107.800000011921,,directmemory_phase2,857918,,,,,,,,object_07b.png,,,50,,,,1,object_06a.png,object_10c.png,object_03c.png,object_10c.png,,0.4,1,,,,,,,,,,,
5068,,directmemory_phase2,862988,,,,,,,,object_08c.png,,,49,,,,0,object_14c.png,object_01c.png,object_14a.png,object_14a.png,,0.38461538461538464,0,,,,,,,,,,,
5540.699999988079,,directmemory_phase2,868531,,,,,,,,object_09a.png,,,49,,,,1,object_06a.png,object_14c.png,object_14b.png,object_06a.png,,0.4074074074074074,1,,,,,,,,,,,
2115.300000011921,,directmemory_phase2,870649,,,,,,,,object_07a.png,,,49,,,,1,object_12c.png,object_14a.png,object_02c.png,object_12c.png,,0.42857142857142855,1,,,,,,,,,,,
2636.800000011921,,directmemory_phase2,873288,,,,,,,,object_09c.png,,,49,,,,1,object_06c.png,object_02a.png,object_10c.png,object_06c.png,,0.4482758620689655,1,,,,,,,,,,,
2077.099999964237,,directmemory_phase2,875367,,,,,,,,object_04b.png,,,49,,,,1,object_06b.png,object_04a.png,object_10c.png,object_06b.png,,0.4666666666666667,1,,,,,,,,,,,
null,,thebreak,875472,,,,,,,,<p></p>,,,null,,,,,,,,,,,,,,,,,,,,,,
4197.899999976158,,intro_0,879671,,,,,,,,instruct,,,32,,,,,,,,,,,,,,,,,,,,,,
null,,learn_phase(without_color)3,883185,,,,,,,,black_plus_sign,,,null,object_02a.png,object_11c.png,,,,,,,,,,,,,,,,,,,,
null,,black_cross(without_color)3,884068,,,,,,,,blue,,,null,object_02a.png,object_11c.png,,,,,,,,,,,,,,,,,,,,
null,,rt_plussign_withcolor3,884572,,,,,,,,blue,,,null,object_02a.png,object_11c.png,,,,,,,,,,,,,,,,,,,,
1263.300000011921,,rt_thecrossant_black3,885708,,,,,,,,black_plus_sign,,,49,,,,1,,,,,,1,,,,,,,,,,,,
null,,color_black3,885810,,,,,,,,black_plus_sign,,,null,,,,,,,,,,,,,,,,,,,,,,
null,,learn_phase(without_color)3,889315,,,,,,,,black_plus_sign,,,null,object_06a.png,object_09a.png,,,,,,,,,,,,,,,,,,,,
null,,black_cross(without_color)3,889759,,,,,,,,blue,,,null,object_06a.png,object_09a.png,,,,,,,,,,,,,,,,,,,,
null,,rt_plussign_withcolor3,890267,,,,,,,,blue,,,null,object_06a.png,object_09a.png,,,,,,,,,,,,,,,,,,,,
1287.699999988079,,rt_thecrossant_black3,891856,,,,,,,,black_plus_sign,,,49,,,,1,,,,,,1,,,,,,,,,,,,
null,,color_black3,891965,,,,,,,,black_plus_sign,,,null,,,,,,,,,,,,,,,,,,,,,,
null,,learn_phase(without_color)3,895471,,,,,,,,black_plus_sign,,,null,object_03c.png,object_15a.png,,,,,,,,,,,,,,,,,,,,
null,,black_cross(without_color)3,896247,,,,,,,,blue,,,null,object_03c.png,object_15a.png,,,,,,,,,,,,,,,,,,,,
null,,rt_plussign_withcolor3,896750,,,,,,,,blue,,,null,object_03c.png,object_15a.png,,,,,,,,,,,,,,,,,,,,
761.4000000357628,,rt_thecrossant_black3,898002,,,,,,,,black_plus_sign,,,49,,,,1,,,,,,1,,,,,,,,,,,,
null,,color_black3,898119,,,,,,,,black_plus_sign,,,null,,,,,,,,,,,,,,,,,,,,,,
null,,learn_phase(without_color)3,901635,,,,,,,,black_plus_sign,,,null,object_14c.png,object_13c.png,,,,,,,,,,,,,,,,,,,,
null,,black_cross(without_color)3,902532,,,,,,,,blue,,,null,object_14c.png,object_13c.png,,,,,,,,,,,,,,,,,,,,
null,,rt_plussign_withcolor3,903047,,,,,,,,blue,,,null,object_14c.png,object_13c.png,,,,,,,,,,,,,,,,,,,,
1175.699999988079,,rt_thecrossant_black3,904166,,,,,,,,black_plus_sign,,,49,,,,1,,,,,,1,,,,,,,,,,,,
null,,color_black3,904283,,,,,,,,black_plus_sign,,,null,,,,,,,,,,,,,,,,,,,,,,
null,,learn_phase(without_color)3,907796,,,,,,,,black_plus_sign,,,null,object_06b.png,object_04b.png,,,,,,,,,,,,,,,,,,,,
null,,black_cross(without_color)3,908273,,,,,,,,green,,,null,object_06b.png,object_04b.png,,,,,,,,,,,,,,,,,,,,
null,,rt_plussign_withcolor3,908778,,,,,,,,green,,,null,object_06b.png,object_04b.png,,,,,,,,,,,,,,,,,,,,
1405.6000000238419,,rt_thecrossant_black3,910312,,,,,,,,black_plus_sign,,,50,,,,1,,,,,,1,,,,,,,,,,,,
null,,color_black3,910429,,,,,,,,black_plus_sign,,,null,,,,,,,,,,,,,,,,,,,,,,
null,,learn_phase(without_color)3,913936,,,,,,,,black_plus_sign,,,null,object_14a.png,object_08c.png,,,,,,,,,,,,,,,,,,,,
null,,black_cross(without_color)3,914491,,,,,,,,green,,,null,object_14a.png,object_08c.png,,,,,,,,,,,,,,,,,,,,
null,,rt_plussign_withcolor3,914992,,,,,,,,green,,,null,object_14a.png,object_08c.png,,,,,,,,,,,,,,,,,,,,
826.1000000238419,,rt_thecrossant_black3,916463,,,,,,,,black_plus_sign,,,50,,,,1,,,,,,1,,,,,,,,,,,,
null,,color_black3,916565,,,,,,,,black_plus_sign,,,null,,,,,,,,,,,,,,,,,,,,,,
null,,learn_phase(without_color)3,920075,,,,,,,,black_plus_sign,,,null,object_10c.png,object_07b.png,,,,,,,,,,,,,,,,,,,,
null,,black_cross(without_color)3,920786,,,,,,,,blue,,,null,object_10c.png,object_07b.png,,,,,,,,,,,,,,,,,,,,
null,,rt_plussign_withcolor3,921290,,,,,,,,blue,,,null,object_10c.png,object_07b.png,,,,,,,,,,,,,,,,,,,,
928.3999999761581,,rt_thecrossant_black3,922594,,,,,,,,black_plus_sign,,,49,,,,1,,,,,,1,,,,,,,,,,,,
null,,color_black3,922711,,,,,,,,black_plus_sign,,,null,,,,,,,,,,,,,,,,,,,,,,
null,,learn_phase(without_color)3,926215,,,,,,,,black_plus_sign,,,null,object_06c.png,object_09c.png,,,,,,,,,,,,,,,,,,,,
null,,black_cross(without_color)3,926923,,,,,,,,blue,,,null,object_06c.png,object_09c.png,,,,,,,,,,,,,,,,,,,,
null,,rt_plussign_withcolor3,927437,,,,,,,,blue,,,null,object_06c.png,object_09c.png,,,,,,,,,,,,,,,,,,,,
1134.3999999761581,,rt_thecrossant_black3,928743,,,,,,,,black_plus_sign,,,49,,,,1,,,,,,1,,,,,,,,,,,,
null,,color_black3,928859,,,,,,,,black_plus_sign,,,null,,,,,,,,,,,,,,,,,,,,,,
null,,learn_phase(without_color)3,932364,,,,,,,,black_plus_sign,,,null,object_14b.png,object_07c.png,,,,,,,,,,,,,,,,,,,,
null,,black_cross(without_color)3,933211,,,,,,,,green,,,null,object_14b.png,object_07c.png,,,,,,,,,,,,,,,,,,,,
null,,rt_plussign_withcolor3,933720,,,,,,,,green,,,null,object_14b.png,object_07c.png,,,,,,,,,,,,,,,,,,,,
1368.5,,rt_thecrossant_black3,934897,,,,,,,,black_plus_sign,,,50,,,,1,,,,,,1,,,,,,,,,,,,
null,,color_black3,935009,,,,,,,,black_plus_sign,,,null,,,,,,,,,,,,,,,,,,,,,,
null,,learn_phase(without_color)3,938523,,,,,,,,black_plus_sign,,,null,object_03b.png,object_10b.png,,,,,,,,,,,,,,,,,,,,
null,,black_cross(without_color)3,939451,,,,,,,,green,,,null,object_03b.png,object_10b.png,,,,,,,,,,,,,,,,,,,,
null,,rt_plussign_withcolor3,939964,,,,,,,,green,,,null,object_03b.png,object_10b.png,,,,,,,,,,,,,,,,,,,,
1363.5999999642372,,rt_thecrossant_black3,941063,,,,,,,,black_plus_sign,,,50,,,,1,,,,,,1,,,,,,,,,,,,
null,,color_black3,941174,,,,,,,,black_plus_sign,,,null,,,,,,,,,,,,,,,,,,,,,,
null,,learn_phase(without_color)3,944688,,,,,,,,black_plus_sign,,,null,object_15c.png,object_15b.png,,,,,,,,,,,,,,,,,,,,
null,,black_cross(without_color)3,945304,,,,,,,,blue,,,null,object_15c.png,object_15b.png,,,,,,,,,,,,,,,,,,,,
null,,rt_plussign_withcolor3,945821,,,,,,,,blue,,,null,object_15c.png,object_15b.png,,,,,,,,,,,,,,,,,,,,
1396.699999988079,,rt_thecrossant_black3,947217,,,,,,,,black_plus_sign,,,49,,,,1,,,,,,1,,,,,,,,,,,,
null,,color_black3,947337,,,,,,,,black_plus_sign,,,null,,,,,,,,,,,,,,,,,,,,,,
null,,learn_phase(without_color)3,950842,,,,,,,,black_plus_sign,,,null,object_04a.png,object_11b.png,,,,,,,,,,,,,,,,,,,,
null,,black_cross(without_color)3,951904,,,,,,,,blue,,,null,object_04a.png,object_11b.png,,,,,,,,,,,,,,,,,,,,
null,,rt_plussign_withcolor3,952409,,,,,,,,blue,,,null,object_04a.png,object_11b.png,,,,,,,,,,,,,,,,,,,,
1075.699999988079,,rt_thecrossant_black3,953359,,,,,,,,black_plus_sign,,,49,,,,1,,,,,,1,,,,,,,,,,,,
null,,color_black3,953469,,,,,,,,black_plus_sign,,,null,,,,,,,,,,,,,,,,,,,,,,
null,,learn_phase(without_color)3,956976,,,,,,,,black_plus_sign,,,null,object_12c.png,object_07a.png,,,,,,,,,,,,,,,,,,,,
null,,black_cross(without_color)3,957563,,,,,,,,green,,,null,object_12c.png,object_07a.png,,,,,,,,,,,,,,,,,,,,
null,,rt_plussign_withcolor3,958073,,,,,,,,green,,,null,object_12c.png,object_07a.png,,,,,,,,,,,,,,,,,,,,
1679.800000011921,,rt_thecrossant_black3,959517,,,,,,,,black_plus_sign,,,50,,,,1,,,,,,1,,,,,,,,,,,,
null,,color_black3,959625,,,,,,,,black_plus_sign,,,null,,,,,,,,,,,,,,,,,,,,,,
null,,learn_phase(without_color)3,963138,,,,,,,,black_plus_sign,,,null,object_01c.png,object_05b.png,,,,,,,,,,,,,,,,,,,,
null,,black_cross(without_color)3,963849,,,,,,,,blue,,,null,object_01c.png,object_05b.png,,,,,,,,,,,,,,,,,,,,
null,,rt_plussign_withcolor3,964351,,,,,,,,blue,,,null,object_01c.png,object_05b.png,,,,,,,,,,,,,,,,,,,,
947.1999999880791,,rt_thecrossant_black3,965661,,,,,,,,black_plus_sign,,,49,,,,1,,,,,,1,,,,,,,,,,,,
null,,color_black3,965763,,,,,,,,black_plus_sign,,,null,,,,,,,,,,,,,,,,,,,,,,
null,,learn_phase(without_color)3,969280,,,,,,,,black_plus_sign,,,null,object_02c.png,object_04c.png,,,,,,,,,,,,,,,,,,,,
null,,black_cross(without_color)3,969707,,,,,,,,blue,,,null,object_02c.png,object_04c.png,,,,,,,,,,,,,,,,,,,,
null,,rt_plussign_withcolor3,970219,,,,,,,,blue,,,null,object_02c.png,object_04c.png,,,,,,,,,,,,,,,,,,,,
1111.5,,rt_thecrossant_black3,971804,,,,,,,,black_plus_sign,,,49,,,,1,,,,,,1,,,,,,,,,,,,
null,,color_black3,971906,,,,,,,,black_plus_sign,,,null,,,,,,,,,,,,,,,,,,,,,,
null,,thebreak,972023,,,,,,,,<p></p>,,,null,,,,,,,,,,,,,,,,,,,,,,
2099.800000011921,,intro_0,974124,,,,,,,,instruct,,,32,,,,,,,,,,,,,,,,,,,,,,
2092.699999988079,,directmemory_phase3,976218,,,,,,,,object_07c.png,,,49,,,,1,object_14b.png,object_12c.png,object_02a.png,object_14b.png,,0.4838709677419355,1,,,,,,,,,,,
3780.600000023842,,directmemory_phase3,980000,,,,,,,,object_08c.png,,,49,,,,1,object_14a.png,object_04a.png,object_03b.png,object_14a.png,,0.5,1,,,,,,,,,,,
2739.699999988079,,directmemory_phase3,982742,,,,,,,,object_04c.png,,,50,,,,1,object_14b.png,object_02c.png,object_04a.png,object_02c.png,,0.5151515151515151,1,,,,,,,,,,,
2265.5,,directmemory_phase3,985009,,,,,,,,object_04b.png,,,51,,,,1,object_14b.png,object_12c.png,object_06b.png,object_06b.png,,0.5294117647058824,1,,,,,,,,,,,
3290.7999999523163,,directmemory_phase3,988302,,,,,,,,object_09a.png,,,50,,,,1,object_10c.png,object_06a.png,object_14b.png,object_06a.png,,0.5428571428571428,1,,,,,,,,,,,
2143.899999976158,,directmemory_phase3,990448,,,,,,,,object_07a.png,,,50,,,,1,object_14a.png,object_12c.png,object_01c.png,object_12c.png,,0.5555555555555556,1,,,,,,,,,,,
5095,,directmemory_phase3,995545,,,,,,,,object_05b.png,,,51,,,,1,object_10c.png,object_04a.png,object_01c.png,object_01c.png,,0.5675675675675675,1,,,,,,,,,,,
4808.899999976158,,directmemory_phase3,1000356,,,,,,,,object_15b.png,,,50,,,,1,object_10c.png,object_15c.png,object_06a.png,object_15c.png,,0.5789473684210527,1,,,,,,,,,,,
3298.199999988079,,directmemory_phase3,1003656,,,,,,,,object_10b.png,,,50,,,,1,object_14c.png,object_03b.png,object_02c.png,object_03b.png,,0.5897435897435898,1,,,,,,,,,,,
4230.899999976158,,directmemory_phase3,1007889,,,,,,,,object_07b.png,,,51,,,,0,object_10c.png,object_06b.png,object_03b.png,object_10c.png,,0.575,0,,,,,,,,,,,
5282.199999988079,,directmemory_phase3,1013173,,,,,,,,object_13c.png,,,51,,,,1,object_01c.png,object_03c.png,object_14c.png,object_14c.png,,0.5853658536585366,1,,,,,,,,,,,
2686.100000023842,,directmemory_phase3,1015860,,,,,,,,object_15a.png,,,51,,,,1,object_04a.png,object_14b.png,object_03c.png,object_03c.png,,0.5952380952380952,1,,,,,,,,,,,
2396.400000035763,,directmemory_phase3,1018258,,,,,,,,object_11b.png,,,50,,,,1,object_12c.png,object_04a.png,object_14a.png,object_04a.png,,0.6046511627906976,1,,,,,,,,,,,
4286.700000047684,,directmemory_phase3,1022547,,,,,,,,object_09c.png,,,50,,,,1,object_06b.png,object_06c.png,object_03c.png,object_06c.png,,0.6136363636363636,1,,,,,,,,,,,
4253.699999988079,,directmemory_phase3,1026802,,,,,,,,object_11c.png,,,50,,,,1,object_02c.png,object_02a.png,object_03c.png,object_02a.png,,0.6222222222222222,1,,,,,,,,,,,
null,,thebreak,1026915,,,,,,,,<p></p>,,,null,,,,,,,,,,,,,,,,,,,,,,
4106.199999988079,,intro_0,1031022,,,,,,,,instruct,,,32,,,,,,,,,,,,,,,,,,,,,,
null,,learn_phase(without_color)4,1034530,,,,,,,,black_plus_sign,,,null,object_15c.png,object_15b.png,,,,,,,,,,,,,,,,,,,,
null,,black_cross(without_color)4,1035617,,,,,,,,green,,,null,object_15c.png,object_15b.png,,,,,,,,,,,,,,,,,,,,
null,,rt_plussign_withcolor4,1036121,,,,,,,,green,,,null,object_15c.png,object_15b.png,,,,,,,,,,,,,,,,,,,,
1621,,rt_thecrossant_black4,1037061,,,,,,,,black_plus_sign,,,50,,,,1,,,,,,1,,,,,,,,,,,,
null,,color_black4,1037163,,,,,,,,black_plus_sign,,,null,,,,,,,,,,,,,,,,,,,,,,
null,,learn_phase(without_color)4,1040665,,,,,,,,black_plus_sign,,,null,object_03c.png,object_15a.png,,,,,,,,,,,,,,,,,,,,
null,,black_cross(without_color)4,1041512,,,,,,,,green,,,null,object_03c.png,object_15a.png,,,,,,,,,,,,,,,,,,,,
null,,rt_plussign_withcolor4,1042020,,,,,,,,green,,,null,object_03c.png,object_15a.png,,,,,,,,,,,,,,,,,,,,
1373.0999999642372,,rt_thecrossant_black4,1043207,,,,,,,,black_plus_sign,,,50,,,,1,,,,,,1,,,,,,,,,,,,
null,,color_black4,1043312,,,,,,,,black_plus_sign,,,null,,,,,,,,,,,,,,,,,,,,,,
null,,learn_phase(without_color)4,1046818,,,,,,,,black_plus_sign,,,null,object_10c.png,object_07b.png,,,,,,,,,,,,,,,,,,,,
null,,black_cross(without_color)4,1047897,,,,,,,,blue,,,null,object_10c.png,object_07b.png,,,,,,,,,,,,,,,,,,,,
null,,rt_plussign_withcolor4,1048399,,,,,,,,blue,,,null,object_10c.png,object_07b.png,,,,,,,,,,,,,,,,,,,,
1227.300000011921,,rt_thecrossant_black4,1049331,,,,,,,,black_plus_sign,,,49,,,,1,,,,,,1,,,,,,,,,,,,
null,,color_black4,1049441,,,,,,,,black_plus_sign,,,null,,,,,,,,,,,,,,,,,,,,,,
null,,learn_phase(without_color)4,1052947,,,,,,,,black_plus_sign,,,null,object_02c.png,object_04c.png,,,,,,,,,,,,,,,,,,,,
null,,black_cross(without_color)4,1053463,,,,,,,,blue,,,null,object_02c.png,object_04c.png,,,,,,,,,,,,,,,,,,,,
null,,rt_plussign_withcolor4,1053971,,,,,,,,blue,,,null,object_02c.png,object_04c.png,,,,,,,,,,,,,,,,,,,,
1383.0999999642372,,rt_thecrossant_black4,1055464,,,,,,,,black_plus_sign,,,49,,,,1,,,,,,1,,,,,,,,,,,,
null,,color_black4,1055566,,,,,,,,black_plus_sign,,,null,,,,,,,,,,,,,,,,,,,,,,
null,,learn_phase(without_color)4,1059075,,,,,,,,black_plus_sign,,,null,object_04a.png,object_11b.png,,,,,,,,,,,,,,,,,,,,
null,,black_cross(without_color)4,1060066,,,,,,,,blue,,,null,object_04a.png,object_11b.png,,,,,,,,,,,,,,,,,,,,
null,,rt_plussign_withcolor4,1060579,,,,,,,,blue,,,null,object_04a.png,object_11b.png,,,,,,,,,,,,,,,,,,,,
982.1000000238419,,rt_thecrossant_black4,1061606,,,,,,,,black_plus_sign,,,49,,,,1,,,,,,1,,,,,,,,,,,,
null,,color_black4,1061718,,,,,,,,black_plus_sign,,,null,,,,,,,,,,,,,,,,,,,,,,
null,,learn_phase(without_color)4,1065226,,,,,,,,black_plus_sign,,,null,object_01c.png,object_05b.png,,,,,,,,,,,,,,,,,,,,
null,,black_cross(without_color)4,1066076,,,,,,,,green,,,null,object_01c.png,object_05b.png,,,,,,,,,,,,,,,,,,,,
null,,rt_plussign_withcolor4,1066591,,,,,,,,green,,,null,object_01c.png,object_05b.png,,,,,,,,,,,,,,,,,,,,
1555.0999999642372,,rt_thecrossant_black4,1067764,,,,,,,,black_plus_sign,,,50,,,,1,,,,,,1,,,,,,,,,,,,
null,,color_black4,1067881,,,,,,,,black_plus_sign,,,null,,,,,,,,,,,,,,,,,,,,,,
null,,learn_phase(without_color)4,1071390,,,,,,,,black_plus_sign,,,null,object_14b.png,object_07c.png,,,,,,,,,,,,,,,,,,,,
null,,black_cross(without_color)4,1072415,,,,,,,,green,,,null,object_14b.png,object_07c.png,,,,,,,,,,,,,,,,,,,,
null,,rt_plussign_withcolor4,1072920,,,,,,,,green,,,null,object_14b.png,object_07c.png,,,,,,,,,,,,,,,,,,,,
1401.199999988079,,rt_thecrossant_black4,1073919,,,,,,,,black_plus_sign,,,50,,,,1,,,,,,1,,,,,,,,,,,,
null,,color_black4,1074029,,,,,,,,black_plus_sign,,,null,,,,,,,,,,,,,,,,,,,,,,
null,,learn_phase(without_color)4,1077534,,,,,,,,black_plus_sign,,,null,object_06c.png,object_09c.png,,,,,,,,,,,,,,,,,,,,
null,,black_cross(without_color)4,1078286,,,,,,,,green,,,null,object_06c.png,object_09c.png,,,,,,,,,,,,,,,,,,,,
null,,rt_plussign_withcolor4,1078799,,,,,,,,green,,,null,object_06c.png,object_09c.png,,,,,,,,,,,,,,,,,,,,
1515.5,,rt_thecrossant_black4,1080071,,,,,,,,black_plus_sign,,,50,,,,1,,,,,,1,,,,,,,,,,,,
null,,color_black4,1080173,,,,,,,,black_plus_sign,,,null,,,,,,,,,,,,,,,,,,,,,,
null,,learn_phase(without_color)4,1083674,,,,,,,,black_plus_sign,,,null,object_14a.png,object_08c.png,,,,,,,,,,,,,,,,,,,,
null,,black_cross(without_color)4,1084759,,,,,,,,green,,,null,object_14a.png,object_08c.png,,,,,,,,,,,,,,,,,,,,
null,,rt_plussign_withcolor4,1085267,,,,,,,,green,,,null,object_14a.png,object_08c.png,,,,,,,,,,,,,,,,,,,,
1431.800000011921,,rt_thecrossant_black4,1086198,,,,,,,,black_plus_sign,,,50,,,,1,,,,,,1,,,,,,,,,,,,
null,,color_black4,1086308,,,,,,,,black_plus_sign,,,null,,,,,,,,,,,,,,,,,,,,,,
null,,learn_phase(without_color)4,1089812,,,,,,,,black_plus_sign,,,null,object_12c.png,object_07a.png,,,,,,,,,,,,,,,,,,,,
null,,black_cross(without_color)4,1090875,,,,,,,,green,,,null,object_12c.png,object_07a.png,,,,,,,,,,,,,,,,,,,,
null,,rt_plussign_withcolor4,1091380,,,,,,,,green,,,null,object_12c.png,object_07a.png,,,,,,,,,,,,,,,,,,,,
1513.8999999761581,,rt_thecrossant_black4,1092334,,,,,,,,black_plus_sign,,,50,,,,1,,,,,,1,,,,,,,,,,,,
null,,color_black4,1092440,,,,,,,,black_plus_sign,,,null,,,,,,,,,,,,,,,,,,,,,,
null,,learn_phase(without_color)4,1095954,,,,,,,,black_plus_sign,,,null,object_02a.png,object_11c.png,,,,,,,,,,,,,,,,,,,,
null,,black_cross(without_color)4,1096679,,,,,,,,blue,,,null,object_02a.png,object_11c.png,,,,,,,,,,,,,,,,,,,,
null,,rt_plussign_withcolor4,1097186,,,,,,,,blue,,,null,object_02a.png,object_11c.png,,,,,,,,,,,,,,,,,,,,
1638.800000011921,,rt_thecrossant_black4,1098475,,,,,,,,black_plus_sign,,,49,,,,1,,,,,,1,,,,,,,,,,,,
null,,color_black4,1098585,,,,,,,,black_plus_sign,,,null,,,,,,,,,,,,,,,,,,,,,,
null,,learn_phase(without_color)4,1102091,,,,,,,,black_plus_sign,,,null,object_06a.png,object_09a.png,,,,,,,,,,,,,,,,,,,,
null,,black_cross(without_color)4,1102779,,,,,,,,green,,,null,object_06a.png,object_09a.png,,,,,,,,,,,,,,,,,,,,
null,,rt_plussign_withcolor4,1103288,,,,,,,,green,,,null,object_06a.png,object_09a.png,,,,,,,,,,,,,,,,,,,,
1151.300000011921,,rt_thecrossant_black4,1104627,,,,,,,,black_plus_sign,,,50,,,,1,,,,,,1,,,,,,,,,,,,
null,,color_black4,1104729,,,,,,,,black_plus_sign,,,null,,,,,,,,,,,,,,,,,,,,,,
null,,learn_phase(without_color)4,1108238,,,,,,,,black_plus_sign,,,null,object_03b.png,object_10b.png,,,,,,,,,,,,,,,,,,,,
null,,black_cross(without_color)4,1109191,,,,,,,,green,,,null,object_03b.png,object_10b.png,,,,,,,,,,,,,,,,,,,,
null,,rt_plussign_withcolor4,1109705,,,,,,,,green,,,null,object_03b.png,object_10b.png,,,,,,,,,,,,,,,,,,,,
1196.2000000476837,,rt_thecrossant_black4,1110766,,,,,,,,black_plus_sign,,,50,,,,1,,,,,,1,,,,,,,,,,,,
null,,color_black4,1110880,,,,,,,,black_plus_sign,,,null,,,,,,,,,,,,,,,,,,,,,,
null,,learn_phase(without_color)4,1114385,,,,,,,,black_plus_sign,,,null,object_06b.png,object_04b.png,,,,,,,,,,,,,,,,,,,,
null,,black_cross(without_color)4,1115245,,,,,,,,blue,,,null,object_06b.png,object_04b.png,,,,,,,,,,,,,,,,,,,,
null,,rt_plussign_withcolor4,1115751,,,,,,,,blue,,,null,object_06b.png,object_04b.png,,,,,,,,,,,,,,,,,,,,
1426.300000011921,,rt_thecrossant_black4,1116909,,,,,,,,black_plus_sign,,,49,,,,1,,,,,,1,,,,,,,,,,,,
null,,color_black4,1117020,,,,,,,,black_plus_sign,,,null,,,,,,,,,,,,,,,,,,,,,,
null,,learn_phase(without_color)4,1120532,,,,,,,,black_plus_sign,,,null,object_14c.png,object_13c.png,,,,,,,,,,,,,,,,,,,,
null,,black_cross(without_color)4,1121181,,,,,,,,green,,,null,object_14c.png,object_13c.png,,,,,,,,,,,,,,,,,,,,
null,,rt_plussign_withcolor4,1121698,,,,,,,,green,,,null,object_14c.png,object_13c.png,,,,,,,,,,,,,,,,,,,,
1388.1000000238419,,rt_thecrossant_black4,1123062,,,,,,,,black_plus_sign,,,50,,,,1,,,,,,1,,,,,,,,,,,,
null,,color_black4,1123174,,,,,,,,black_plus_sign,,,null,,,,,,,,,,,,,,,,,,,,,,
null,,thebreak,1123291,,,,,,,,<p></p>,,,null,,,,,,,,,,,,,,,,,,,,,,
2492.7000000476837,,intro_0,1125785,,,,,,,,instruct,,,32,,,,,,,,,,,,,,,,,,,,,,
3253.699999988079,,directmemory_phase4,1129040,,,,,,,,object_10b.png,,,49,,,,1,object_03b.png,object_02c.png,object_14b.png,object_03b.png,,0.6304347826086957,1,,,,,,,,,,,
3380.599999964237,,directmemory_phase4,1132423,,,,,,,,object_11b.png,,,49,,,,1,object_04a.png,object_14b.png,object_06a.png,object_04a.png,,0.6382978723404256,1,,,,,,,,,,,
3331.600000023842,,directmemory_phase4,1135757,,,,,,,,object_09a.png,,,51,,,,1,object_04a.png,object_01c.png,object_06a.png,object_06a.png,,0.6458333333333334,1,,,,,,,,,,,
2756.099999964237,,directmemory_phase4,1138515,,,,,,,,object_05b.png,,,51,,,,1,object_04a.png,object_12c.png,object_01c.png,object_01c.png,,0.6530612244897959,1,,,,,,,,,,,
2492.599999964237,,directmemory_phase4,1141010,,,,,,,,object_07c.png,,,50,,,,1,object_12c.png,object_14b.png,object_02c.png,object_14b.png,,0.66,1,,,,,,,,,,,
2461,,directmemory_phase4,1143473,,,,,,,,object_07b.png,,,51,,,,1,object_06a.png,object_04a.png,object_10c.png,object_10c.png,,0.6666666666666666,1,,,,,,,,,,,
2560.600000023842,,directmemory_phase4,1146035,,,,,,,,object_09c.png,,,50,,,,1,object_14b.png,object_06c.png,object_03c.png,object_06c.png,,0.6730769230769231,1,,,,,,,,,,,
2543.899999976158,,directmemory_phase4,1148581,,,,,,,,object_04c.png,,,51,,,,1,object_12c.png,object_06a.png,object_02c.png,object_02c.png,,0.6792452830188679,1,,,,,,,,,,,
2792,,directmemory_phase4,1151375,,,,,,,,object_13c.png,,,50,,,,1,object_03b.png,object_14c.png,object_06a.png,object_14c.png,,0.6851851851851852,1,,,,,,,,,,,
1974.5999999642372,,directmemory_phase4,1153352,,,,,,,,object_04b.png,,,49,,,,1,object_06b.png,object_06c.png,object_10c.png,object_06b.png,,0.6909090909090909,1,,,,,,,,,,,
2271.800000011921,,directmemory_phase4,1155626,,,,,,,,object_15a.png,,,49,,,,1,object_03c.png,object_02c.png,object_06c.png,object_03c.png,,0.6964285714285714,1,,,,,,,,,,,
2293.2999999523163,,directmemory_phase4,1157921,,,,,,,,object_07a.png,,,51,,,,1,object_03b.png,object_01c.png,object_12c.png,object_12c.png,,0.7017543859649122,1,,,,,,,,,,,
3223.100000023842,,directmemory_phase4,1161146,,,,,,,,object_15b.png,,,50,,,,1,object_02c.png,object_15c.png,object_06b.png,object_15c.png,,0.7068965517241379,1,,,,,,,,,,,
2179.699999988079,,directmemory_phase4,1163328,,,,,,,,object_11c.png,,,49,,,,0,object_10c.png,object_03c.png,object_02a.png,object_02a.png,,0.6949152542372882,0,,,,,,,,,,,
2903,,directmemory_phase4,1166233,,,,,,,,object_08c.png,,,49,,,,1,object_14a.png,object_04a.png,object_06a.png,object_14a.png,,0.7,1,,,,,,,,,,,
null,,thebreak,1166350,,,,,,,,<p></p>,,,null,,,,,,,,,,,,,,,,,,,,,,
4969.599999964237,,intro_0,1171321,,,,,,,,instruct,,,32,,,,,,,,,,,,,,,,,,,,,,
null,,learn_phase(without_color)5,1174838,,,,,,,,black_plus_sign,,,null,object_04c.png,object_05c.png,,,,,,,,,,,,,,,,,,,,
null,,black_cross(without_color)5,1175512,,,,,,,,green,,,null,object_04c.png,object_05c.png,,,,,,,,,,,,,,,,,,,,
null,,rt_plussign_withcolor5,1176021,,,,,,,,green,,,null,object_04c.png,object_05c.png,,,,,,,,,,,,,,,,,,,,
1282.800000011921,,rt_thecrossant_black5,1177373,,,,,,,,black_plus_sign,,,50,,,,1,,,,,,1,,,,,,,,,,,,
null,,color_black5,1177482,,,,,,,,black_plus_sign,,,null,,,,,,,,,,,,,,,,,,,,,,
null,,learn_phase(without_color)5,1180996,,,,,,,,black_plus_sign,,,null,object_11b.png,object_12b.png,,,,,,,,,,,,,,,,,,,,
null,,black_cross(without_color)5,1182082,,,,,,,,blue,,,null,object_11b.png,object_12b.png,,,,,,,,,,,,,,,,,,,,
null,,rt_plussign_withcolor5,1182588,,,,,,,,blue,,,null,object_11b.png,object_12b.png,,,,,,,,,,,,,,,,,,,,
1203.5,,rt_thecrossant_black5,1183526,,,,,,,,black_plus_sign,,,49,,,,1,,,,,,1,,,,,,,,,,,,
null,,color_black5,1183629,,,,,,,,black_plus_sign,,,null,,,,,,,,,,,,,,,,,,,,,,
null,,learn_phase(without_color)5,1187143,,,,,,,,black_plus_sign,,,null,object_07b.png,object_05a.png,,,,,,,,,,,,,,,,,,,,
null,,black_cross(without_color)5,1187619,,,,,,,,blue,,,null,object_07b.png,object_05a.png,,,,,,,,,,,,,,,,,,,,
null,,rt_plussign_withcolor5,1188134,,,,,,,,blue,,,null,object_07b.png,object_05a.png,,,,,,,,,,,,,,,,,,,,
1408.199999988079,,rt_thecrossant_black5,1189666,,,,,,,,black_plus_sign,,,49,,,,1,,,,,,1,,,,,,,,,,,,
null,,color_black5,1189778,,,,,,,,black_plus_sign,,,null,,,,,,,,,,,,,,,,,,,,,,
null,,learn_phase(without_color)5,1193289,,,,,,,,black_plus_sign,,,null,object_15a.png,object_12a.png,,,,,,,,,,,,,,,,,,,,
null,,black_cross(without_color)5,1193733,,,,,,,,green,,,null,object_15a.png,object_12a.png,,,,,,,,,,,,,,,,,,,,
null,,rt_plussign_withcolor5,1194235,,,,,,,,green,,,null,object_15a.png,object_12a.png,,,,,,,,,,,,,,,,,,,,
893.5,,rt_thecrossant_black5,1195807,,,,,,,,black_plus_sign,,,50,,,,1,,,,,,1,,,,,,,,,,,,
null,,color_black5,1195924,,,,,,,,black_plus_sign,,,null,,,,,,,,,,,,,,,,,,,,,,
null,,learn_phase(without_color)5,1199440,,,,,,,,black_plus_sign,,,null,object_05b.png,object_11a.png,,,,,,,,,,,,,,,,,,,,
null,,black_cross(without_color)5,1199908,,,,,,,,blue,,,null,object_05b.png,object_11a.png,,,,,,,,,,,,,,,,,,,,
null,,rt_plussign_withcolor5,1200414,,,,,,,,blue,,,null,object_05b.png,object_11a.png,,,,,,,,,,,,,,,,,,,,
769,,rt_thecrossant_black5,1201965,,,,,,,,black_plus_sign,,,49,,,,1,,,,,,1,,,,,,,,,,,,
null,,color_black5,1202074,,,,,,,,black_plus_sign,,,null,,,,,,,,,,,,,,,,,,,,,,
null,,learn_phase(without_color)5,1205585,,,,,,,,black_plus_sign,,,null,object_10b.png,object_10a.png,,,,,,,,,,,,,,,,,,,,
null,,black_cross(without_color)5,1206391,,,,,,,,blue,,,null,object_10b.png,object_10a.png,,,,,,,,,,,,,,,,,,,,
null,,rt_plussign_withcolor5,1206893,,,,,,,,blue,,,null,object_10b.png,object_10a.png,,,,,,,,,,,,,,,,,,,,
974.0999999642372,,rt_thecrossant_black5,1208107,,,,,,,,black_plus_sign,,,49,,,,1,,,,,,1,,,,,,,,,,,,
null,,color_black5,1208221,,,,,,,,black_plus_sign,,,null,,,,,,,,,,,,,,,,,,,,,,
null,,learn_phase(without_color)5,1211728,,,,,,,,black_plus_sign,,,null,object_07c.png,object_13b.png,,,,,,,,,,,,,,,,,,,,
null,,black_cross(without_color)5,1212144,,,,,,,,green,,,null,object_07c.png,object_13b.png,,,,,,,,,,,,,,,,,,,,
null,,rt_plussign_withcolor5,1212653,,,,,,,,green,,,null,object_07c.png,object_13b.png,,,,,,,,,,,,,,,,,,,,
1419.6000000238419,,rt_thecrossant_black5,1214261,,,,,,,,black_plus_sign,,,50,,,,1,,,,,,1,,,,,,,,,,,,
null,,color_black5,1214378,,,,,,,,black_plus_sign,,,null,,,,,,,,,,,,,,,,,,,,,,
null,,learn_phase(without_color)5,1217897,,,,,,,,black_plus_sign,,,null,object_15b.png,object_13a.png,,,,,,,,,,,,,,,,,,,,
null,,black_cross(without_color)5,1218450,,,,,,,,blue,,,null,object_15b.png,object_13a.png,,,,,,,,,,,,,,,,,,,,
null,,rt_plussign_withcolor5,1218956,,,,,,,,blue,,,null,object_15b.png,object_13a.png,,,,,,,,,,,,,,,,,,,,
916.5,,rt_thecrossant_black5,1220412,,,,,,,,black_plus_sign,,,49,,,,1,,,,,,1,,,,,,,,,,,,
null,,color_black5,1220529,,,,,,,,black_plus_sign,,,null,,,,,,,,,,,,,,,,,,,,,,
null,,learn_phase(without_color)5,1224042,,,,,,,,black_plus_sign,,,null,object_09a.png,object_08a.png,,,,,,,,,,,,,,,,,,,,
null,,black_cross(without_color)5,1225099,,,,,,,,green,,,null,object_09a.png,object_08a.png,,,,,,,,,,,,,,,,,,,,
null,,rt_plussign_withcolor5,1225602,,,,,,,,green,,,null,object_09a.png,object_08a.png,,,,,,,,,,,,,,,,,,,,
1259.9000000357628,,rt_thecrossant_black5,1226568,,,,,,,,black_plus_sign,,,50,,,,1,,,,,,1,,,,,,,,,,,,
null,,color_black5,1226677,,,,,,,,black_plus_sign,,,null,,,,,,,,,,,,,,,,,,,,,,
null,,learn_phase(without_color)5,1230185,,,,,,,,black_plus_sign,,,null,object_09c.png,object_08b.png,,,,,,,,,,,,,,,,,,,,
null,,black_cross(without_color)5,1231200,,,,,,,,green,,,null,object_09c.png,object_08b.png,,,,,,,,,,,,,,,,,,,,
null,,rt_plussign_withcolor5,1231716,,,,,,,,green,,,null,object_09c.png,object_08b.png,,,,,,,,,,,,,,,,,,,,
1496.3999999761581,,rt_thecrossant_black5,1232725,,,,,,,,black_plus_sign,,,50,,,,1,,,,,,1,,,,,,,,,,,,
null,,color_black5,1232841,,,,,,,,black_plus_sign,,,null,,,,,,,,,,,,,,,,,,,,,,
null,,learn_phase(without_color)5,1236350,,,,,,,,black_plus_sign,,,null,object_07a.png,object_01b.png,,,,,,,,,,,,,,,,,,,,
null,,black_cross(without_color)5,1237289,,,,,,,,green,,,null,object_07a.png,object_01b.png,,,,,,,,,,,,,,,,,,,,
null,,rt_plussign_withcolor5,1237797,,,,,,,,green,,,null,object_07a.png,object_01b.png,,,,,,,,,,,,,,,,,,,,
1480.5,,rt_thecrossant_black5,1238869,,,,,,,,black_plus_sign,,,50,,,,1,,,,,,1,,,,,,,,,,,,
null,,color_black5,1238972,,,,,,,,black_plus_sign,,,null,,,,,,,,,,,,,,,,,,,,,,
null,,learn_phase(without_color)5,1242486,,,,,,,,black_plus_sign,,,null,object_08c.png,object_02b.png,,,,,,,,,,,,,,,,,,,,
null,,black_cross(without_color)5,1243246,,,,,,,,blue,,,null,object_08c.png,object_02b.png,,,,,,,,,,,,,,,,,,,,
null,,rt_plussign_withcolor5,1243756,,,,,,,,blue,,,null,object_08c.png,object_02b.png,,,,,,,,,,,,,,,,,,,,
1265.0999999642372,,rt_thecrossant_black5,1245016,,,,,,,,black_plus_sign,,,49,,,,1,,,,,,1,,,,,,,,,,,,
null,,color_black5,1245118,,,,,,,,black_plus_sign,,,null,,,,,,,,,,,,,,,,,,,,,,
null,,learn_phase(without_color)5,1248631,,,,,,,,black_plus_sign,,,null,object_11c.png,object_09b.png,,,,,,,,,,,,,,,,,,,,
null,,black_cross(without_color)5,1249345,,,,,,,,blue,,,null,object_11c.png,object_09b.png,,,,,,,,,,,,,,,,,,,,
null,,rt_plussign_withcolor5,1249852,,,,,,,,blue,,,null,object_11c.png,object_09b.png,,,,,,,,,,,,,,,,,,,,
1133.199999988079,,rt_thecrossant_black5,1251160,,,,,,,,black_plus_sign,,,49,,,,1,,,,,,1,,,,,,,,,,,,
null,,color_black5,1251277,,,,,,,,black_plus_sign,,,null,,,,,,,,,,,,,,,,,,,,,,
null,,learn_phase(without_color)5,1254788,,,,,,,,black_plus_sign,,,null,object_13c.png,object_03a.png,,,,,,,,,,,,,,,,,,,,
null,,black_cross(without_color)5,1255853,,,,,,,,green,,,null,object_13c.png,object_03a.png,,,,,,,,,,,,,,,,,,,,
null,,rt_plussign_withcolor5,1256356,,,,,,,,green,,,null,object_13c.png,object_03a.png,,,,,,,,,,,,,,,,,,,,
1532.300000011921,,rt_thecrossant_black5,1257300,,,,,,,,black_plus_sign,,,50,,,,1,,,,,,1,,,,,,,,,,,,
null,,color_black5,1257414,,,,,,,,black_plus_sign,,,null,,,,,,,,,,,,,,,,,,,,,,
null,,learn_phase(without_color)5,1260931,,,,,,,,black_plus_sign,,,null,object_04b.png,object_01a.png,,,,,,,,,,,,,,,,,,,,
null,,black_cross(without_color)5,1261515,,,,,,,,blue,,,null,object_04b.png,object_01a.png,,,,,,,,,,,,,,,,,,,,
null,,rt_plussign_withcolor5,1262019,,,,,,,,blue,,,null,object_04b.png,object_01a.png,,,,,,,,,,,,,,,,,,,,
1412.9000000357628,,rt_thecrossant_black5,1263450,,,,,,,,black_plus_sign,,,49,,,,1,,,,,,1,,,,,,,,,,,,
null,,color_black5,1263560,,,,,,,,black_plus_sign,,,null,,,,,,,,,,,,,,,,,,,,,,
null,,thebreak,1263677,,,,,,,,<p></p>,,,null,,,,,,,,,,,,,,,,,,,,,,
2134,,intro_0,1265813,,,,,,,,instruct,,,32,,,,,,,,,,,,,,,,,,,,,,
4363.099999964237,,directmemory_phase5,1270177,,,,,,,,object_10a.png,,,51,,,,1,object_08c.png,object_04b.png,object_10b.png,object_10b.png,,0.7049180327868853,1,,,,,,,,,,,
2720.100000023842,,directmemory_phase5,1272899,,,,,,,,object_13b.png,,,49,,,,1,object_07c.png,object_09c.png,object_08c.png,object_07c.png,,0.7096774193548387,1,,,,,,,,,,,
3930,,directmemory_phase5,1276831,,,,,,,,object_05a.png,,,50,,,,1,object_08c.png,object_07b.png,object_10b.png,object_07b.png,,0.7142857142857143,1,,,,,,,,,,,
5345.699999988079,,directmemory_phase5,1282178,,,,,,,,object_13a.png,,,51,,,,0,object_15b.png,object_15a.png,object_05b.png,object_15b.png,,0.703125,0,,,,,,,,,,,
4754.600000023842,,directmemory_phase5,1286935,,,,,,,,object_05c.png,,,50,,,,1,object_04b.png,object_04c.png,object_11b.png,object_04c.png,,0.7076923076923077,1,,,,,,,,,,,
3303.699999988079,,directmemory_phase5,1290241,,,,,,,,object_08b.png,,,50,,,,1,object_05b.png,object_09c.png,object_09a.png,object_09c.png,,0.7121212121212122,1,,,,,,,,,,,
5869.399999976158,,directmemory_phase5,1296112,,,,,,,,object_11a.png,,,49,,,,0,object_11b.png,object_05b.png,object_04b.png,object_05b.png,,0.7014925373134329,0,,,,,,,,,,,
4871.199999988079,,directmemory_phase5,1300986,,,,,,,,object_03a.png,,,50,,,,1,object_09a.png,object_13c.png,object_04b.png,object_13c.png,,0.7058823529411765,1,,,,,,,,,,,
5587.699999988079,,directmemory_phase5,1306575,,,,,,,,object_12b.png,,,50,,,,1,object_09c.png,object_11b.png,object_13c.png,object_11b.png,,0.7101449275362319,1,,,,,,,,,,,
3400.599999964237,,directmemory_phase5,1309979,,,,,,,,object_01a.png,,,50,,,,1,object_08c.png,object_04b.png,object_07b.png,object_04b.png,,0.7142857142857143,1,,,,,,,,,,,
4683.400000035763,,directmemory_phase5,1314664,,,,,,,,object_02b.png,,,50,,,,1,object_10b.png,object_08c.png,object_11b.png,object_08c.png,,0.7183098591549296,1,,,,,,,,,,,
5032.800000011921,,directmemory_phase5,1319699,,,,,,,,object_01b.png,,,49,,,,1,object_07a.png,object_05b.png,object_11c.png,object_07a.png,,0.7222222222222222,1,,,,,,,,,,,
4389.699999988079,,directmemory_phase5,1324091,,,,,,,,object_08a.png,,,50,,,,1,object_11c.png,object_09a.png,object_09c.png,object_09a.png,,0.726027397260274,1,,,,,,,,,,,
4835.899999976158,,directmemory_phase5,1328929,,,,,,,,object_09b.png,,,49,,,,0,object_10b.png,object_09c.png,object_11c.png,object_11c.png,,0.7162162162162162,0,,,,,,,,,,,
6221.599999964237,,directmemory_phase5,1335152,,,,,,,,object_12a.png,,,51,,,,1,object_07a.png,object_04c.png,object_15a.png,object_15a.png,,0.72,1,,,,,,,,,,,
null,,thebreak,1335265,,,,,,,,<p></p>,,,null,,,,,,,,,,,,,,,,,,,,,,
14718.400000035763,,intro_0,1349984,,,,,,,,instruct,,,32,,,,,,,,,,,,,,,,,,,,,,
null,,learn_phase(without_color)6,1353493,,,,,,,,black_plus_sign,,,null,object_09a.png,object_08a.png,,,,,,,,,,,,,,,,,,,,
null,,black_cross(without_color)6,1354496,,,,,,,,green,,,null,object_09a.png,object_08a.png,,,,,,,,,,,,,,,,,,,,
null,,rt_plussign_withcolor6,1355004,,,,,,,,green,,,null,object_09a.png,object_08a.png,,,,,,,,,,,,,,,,,,,,
1419.0999999642372,,rt_thecrossant_black6,1356018,,,,,,,,black_plus_sign,,,50,,,,1,,,,,,1,,,,,,,,,,,,
null,,color_black6,1356120,,,,,,,,black_plus_sign,,,null,,,,,,,,,,,,,,,,,,,,,,
null,,learn_phase(without_color)6,1359623,,,,,,,,black_plus_sign,,,null,object_07b.png,object_05a.png,,,,,,,,,,,,,,,,,,,,
null,,black_cross(without_color)6,1360124,,,,,,,,blue,,,null,object_07b.png,object_05a.png,,,,,,,,,,,,,,,,,,,,
null,,rt_plussign_withcolor6,1360639,,,,,,,,blue,,,null,object_07b.png,object_05a.png,,,,,,,,,,,,,,,,,,,,
1484.3999999761581,,rt_thecrossant_black6,1362156,,,,,,,,black_plus_sign,,,49,,,,1,,,,,,1,,,,,,,,,,,,
null,,color_black6,1362266,,,,,,,,black_plus_sign,,,null,,,,,,,,,,,,,,,,,,,,,,
null,,learn_phase(without_color)6,1365775,,,,,,,,black_plus_sign,,,null,object_07a.png,object_01b.png,,,,,,,,,,,,,,,,,,,,
null,,black_cross(without_color)6,1366723,,,,,,,,blue,,,null,object_07a.png,object_01b.png,,,,,,,,,,,,,,,,,,,,
null,,rt_plussign_withcolor6,1367230,,,,,,,,blue,,,null,object_07a.png,object_01b.png,,,,,,,,,,,,,,,,,,,,
979,,rt_thecrossant_black6,1368313,,,,,,,,black_plus_sign,,,49,,,,1,,,,,,1,,,,,,,,,,,,
null,,color_black6,1368430,,,,,,,,black_plus_sign,,,null,,,,,,,,,,,,,,,,,,,,,,
null,,learn_phase(without_color)6,1371939,,,,,,,,black_plus_sign,,,null,object_15a.png,object_12a.png,,,,,,,,,,,,,,,,,,,,
null,,black_cross(without_color)6,1372500,,,,,,,,green,,,null,object_15a.png,object_12a.png,,,,,,,,,,,,,,,,,,,,
null,,rt_plussign_withcolor6,1373002,,,,,,,,green,,,null,object_15a.png,object_12a.png,,,,,,,,,,,,,,,,,,,,
1602.3999999761581,,rt_thecrossant_black6,1374466,,,,,,,,black_plus_sign,,,50,,,,1,,,,,,1,,,,,,,,,,,,
null,,color_black6,1374577,,,,,,,,black_plus_sign,,,null,,,,,,,,,,,,,,,,,,,,,,
null,,learn_phase(without_color)6,1378092,,,,,,,,black_plus_sign,,,null,object_04b.png,object_01a.png,,,,,,,,,,,,,,,,,,,,
null,,black_cross(without_color)6,1378521,,,,,,,,blue,,,null,object_04b.png,object_01a.png,,,,,,,,,,,,,,,,,,,,
null,,rt_plussign_withcolor6,1379032,,,,,,,,blue,,,null,object_04b.png,object_01a.png,,,,,,,,,,,,,,,,,,,,
777.2999999523163,,rt_thecrossant_black6,1380612,,,,,,,,black_plus_sign,,,49,,,,1,,,,,,1,,,,,,,,,,,,
null,,color_black6,1380726,,,,,,,,black_plus_sign,,,null,,,,,,,,,,,,,,,,,,,,,,
null,,learn_phase(without_color)6,1384231,,,,,,,,black_plus_sign,,,null,object_11b.png,object_12b.png,,,,,,,,,,,,,,,,,,,,
null,,black_cross(without_color)6,1385044,,,,,,,,blue,,,null,object_11b.png,object_12b.png,,,,,,,,,,,,,,,,,,,,
null,,rt_plussign_withcolor6,1385546,,,,,,,,blue,,,null,object_11b.png,object_12b.png,,,,,,,,,,,,,,,,,,,,
708.6000000238419,,rt_thecrossant_black6,1386747,,,,,,,,black_plus_sign,,,49,,,,1,,,,,,1,,,,,,,,,,,,
null,,color_black6,1386856,,,,,,,,black_plus_sign,,,null,,,,,,,,,,,,,,,,,,,,,,
null,,learn_phase(without_color)6,1390362,,,,,,,,black_plus_sign,,,null,object_08c.png,object_02b.png,,,,,,,,,,,,,,,,,,,,
null,,black_cross(without_color)6,1391342,,,,,,,,green,,,null,object_08c.png,object_02b.png,,,,,,,,,,,,,,,,,,,,
null,,rt_plussign_withcolor6,1391844,,,,,,,,green,,,null,object_08c.png,object_02b.png,,,,,,,,,,,,,,,,,,,,
1303.199999988079,,rt_thecrossant_black6,1392878,,,,,,,,black_plus_sign,,,50,,,,1,,,,,,1,,,,,,,,,,,,
null,,color_black6,1392987,,,,,,,,black_plus_sign,,,null,,,,,,,,,,,,,,,,,,,,,,
null,,learn_phase(without_color)6,1396490,,,,,,,,black_plus_sign,,,null,object_05b.png,object_11a.png,,,,,,,,,,,,,,,,,,,,
null,,black_cross(without_color)6,1397334,,,,,,,,blue,,,null,object_05b.png,object_11a.png,,,,,,,,,,,,,,,,,,,,
null,,rt_plussign_withcolor6,1397841,,,,,,,,blue,,,null,object_05b.png,object_11a.png,,,,,,,,,,,,,,,,,,,,
1336.699999988079,,rt_thecrossant_black6,1399019,,,,,,,,black_plus_sign,,,49,,,,1,,,,,,1,,,,,,,,,,,,
null,,color_black6,1399132,,,,,,,,black_plus_sign,,,null,,,,,,,,,,,,,,,,,,,,,,
null,,learn_phase(without_color)6,1402639,,,,,,,,black_plus_sign,,,null,object_15b.png,object_13a.png,,,,,,,,,,,,,,,,,,,,
null,,black_cross(without_color)6,1403063,,,,,,,,green,,,null,object_15b.png,object_13a.png,,,,,,,,,,,,,,,,,,,,
null,,rt_plussign_withcolor6,1403572,,,,,,,,green,,,null,object_15b.png,object_13a.png,,,,,,,,,,,,,,,,,,,,
1570.5999999642372,,rt_thecrossant_black6,1405165,,,,,,,,black_plus_sign,,,50,,,,1,,,,,,1,,,,,,,,,,,,
null,,color_black6,1405280,,,,,,,,black_plus_sign,,,null,,,,,,,,,,,,,,,,,,,,,,
null,,learn_phase(without_color)6,1408788,,,,,,,,black_plus_sign,,,null,object_10b.png,object_10a.png,,,,,,,,,,,,,,,,,,,,
null,,black_cross(without_color)6,1409898,,,,,,,,green,,,null,object_10b.png,object_10a.png,,,,,,,,,,,,,,,,,,,,
null,,rt_plussign_withcolor6,1410402,,,,,,,,green,,,null,object_10b.png,object_10a.png,,,,,,,,,,,,,,,,,,,,
909.2000000476837,,rt_thecrossant_black6,1411324,,,,,,,,black_plus_sign,,,50,,,,1,,,,,,1,,,,,,,,,,,,
null,,color_black6,1411427,,,,,,,,black_plus_sign,,,null,,,,,,,,,,,,,,,,,,,,,,
null,,learn_phase(without_color)6,1414938,,,,,,,,black_plus_sign,,,null,object_11c.png,object_09b.png,,,,,,,,,,,,,,,,,,,,
null,,black_cross(without_color)6,1415601,,,,,,,,green,,,null,object_11c.png,object_09b.png,,,,,,,,,,,,,,,,,,,,
null,,rt_plussign_withcolor6,1416107,,,,,,,,green,,,null,object_11c.png,object_09b.png,,,,,,,,,,,,,,,,,,,,
1672.2999999523163,,rt_thecrossant_black6,1417457,,,,,,,,black_plus_sign,,,50,,,,1,,,,,,1,,,,,,,,,,,,
null,,color_black6,1417574,,,,,,,,black_plus_sign,,,null,,,,,,,,,,,,,,,,,,,,,,
null,,learn_phase(without_color)6,1421087,,,,,,,,black_plus_sign,,,null,object_07c.png,object_13b.png,,,,,,,,,,,,,,,,,,,,
null,,black_cross(without_color)6,1421690,,,,,,,,blue,,,null,object_07c.png,object_13b.png,,,,,,,,,,,,,,,,,,,,
null,,rt_plussign_withcolor6,1422197,,,,,,,,blue,,,null,object_07c.png,object_13b.png,,,,,,,,,,,,,,,,,,,,
790.9000000357628,,rt_thecrossant_black6,1423607,,,,,,,,black_plus_sign,,,49,,,,1,,,,,,1,,,,,,,,,,,,
null,,color_black6,1423714,,,,,,,,black_plus_sign,,,null,,,,,,,,,,,,,,,,,,,,,,
null,,learn_phase(without_color)6,1427229,,,,,,,,black_plus_sign,,,null,object_09c.png,object_08b.png,,,,,,,,,,,,,,,,,,,,
null,,black_cross(without_color)6,1427980,,,,,,,,green,,,null,object_09c.png,object_08b.png,,,,,,,,,,,,,,,,,,,,
null,,rt_plussign_withcolor6,1428495,,,,,,,,green,,,null,object_09c.png,object_08b.png,,,,,,,,,,,,,,,,,,,,
728.3000000119209,,rt_thecrossant_black6,1429769,,,,,,,,black_plus_sign,,,50,,,,1,,,,,,1,,,,,,,,,,,,
null,,color_black6,1429886,,,,,,,,black_plus_sign,,,null,,,,,,,,,,,,,,,,,,,,,,
null,,learn_phase(without_color)6,1433395,,,,,,,,black_plus_sign,,,null,object_13c.png,object_03a.png,,,,,,,,,,,,,,,,,,,,
null,,black_cross(without_color)6,1434295,,,,,,,,green,,,null,object_13c.png,object_03a.png,,,,,,,,,,,,,,,,,,,,
null,,rt_plussign_withcolor6,1434802,,,,,,,,green,,,null,object_13c.png,object_03a.png,,,,,,,,,,,,,,,,,,,,
1138.5,,rt_thecrossant_black6,1435921,,,,,,,,black_plus_sign,,,50,,,,1,,,,,,1,,,,,,,,,,,,
null,,color_black6,1436033,,,,,,,,black_plus_sign,,,null,,,,,,,,,,,,,,,,,,,,,,
null,,learn_phase(without_color)6,1439548,,,,,,,,black_plus_sign,,,null,object_04c.png,object_05c.png,,,,,,,,,,,,,,,,,,,,
null,,black_cross(without_color)6,1440337,,,,,,,,green,,,null,object_04c.png,object_05c.png,,,,,,,,,,,,,,,,,,,,
null,,rt_plussign_withcolor6,1440840,,,,,,,,green,,,null,object_04c.png,object_05c.png,,,,,,,,,,,,,,,,,,,,
1313.9000000357628,,rt_thecrossant_black6,1442081,,,,,,,,black_plus_sign,,,50,,,,1,,,,,,1,,,,,,,,,,,,
null,,color_black6,1442197,,,,,,,,black_plus_sign,,,null,,,,,,,,,,,,,,,,,,,,,,
null,,thebreak,1442313,,,,,,,,<p></p>,,,null,,,,,,,,,,,,,,,,,,,,,,
4632.599999964237,,intro_0,1446947,,,,,,,,instruct,,,32,,,,,,,,,,,,,,,,,,,,,,
3330,,directmemory_phase6,1450278,,,,,,,,object_03a.png,,,49,,,,1,object_13c.png,object_07b.png,object_10b.png,object_13c.png,,0.7236842105263158,1,,,,,,,,,,,
2830.900000035763,,directmemory_phase6,1453111,,,,,,,,object_01a.png,,,51,,,,1,object_07a.png,object_09a.png,object_04b.png,object_04b.png,,0.7272727272727273,1,,,,,,,,,,,
2715.600000023842,,directmemory_phase6,1455828,,,,,,,,object_08a.png,,,51,,,,1,object_09c.png,object_07a.png,object_09a.png,object_09a.png,,0.7307692307692307,1,,,,,,,,,,,
3957.100000023842,,directmemory_phase6,1459787,,,,,,,,object_10a.png,,,49,,,,0,object_05b.png,object_13c.png,object_10b.png,object_10b.png,,0.7215189873417721,0,,,,,,,,,,,
2439.699999988079,,directmemory_phase6,1462229,,,,,,,,object_05c.png,,,50,,,,1,object_04b.png,object_04c.png,object_10b.png,object_04c.png,,0.725,1,,,,,,,,,,,
4302,,directmemory_phase6,1466533,,,,,,,,object_05a.png,,,51,,,,1,object_07a.png,object_15a.png,object_07b.png,object_07b.png,,0.7283950617283951,1,,,,,,,,,,,
1935.800000011921,,directmemory_phase6,1468472,,,,,,,,object_09b.png,,,49,,,,1,object_11c.png,object_11b.png,object_07b.png,object_11c.png,,0.7317073170731707,1,,,,,,,,,,,
4573.300000011921,,directmemory_phase6,1473047,,,,,,,,object_08b.png,,,51,,,,1,object_11c.png,object_05b.png,object_09c.png,object_09c.png,,0.7349397590361446,1,,,,,,,,,,,
3516.100000023842,,directmemory_phase6,1476565,,,,,,,,object_13b.png,,,51,,,,1,object_13c.png,object_11c.png,object_07c.png,object_07c.png,,0.7380952380952381,1,,,,,,,,,,,
2940.899999976158,,directmemory_phase6,1479508,,,,,,,,object_12a.png,,,49,,,,1,object_15a.png,object_13c.png,object_07c.png,object_15a.png,,0.7411764705882353,1,,,,,,,,,,,
3954.2999999523163,,directmemory_phase6,1483465,,,,,,,,object_11a.png,,,49,,,,1,object_05b.png,object_04b.png,object_04c.png,object_05b.png,,0.7441860465116279,1,,,,,,,,,,,
5479.199999988079,,directmemory_phase6,1488947,,,,,,,,object_02b.png,,,50,,,,1,object_11b.png,object_08c.png,object_11c.png,object_08c.png,,0.7471264367816092,1,,,,,,,,,,,
3439.199999988079,,directmemory_phase6,1492388,,,,,,,,object_01b.png,,,51,,,,1,object_08c.png,object_05b.png,object_07a.png,object_07a.png,,0.75,1,,,,,,,,,,,
5202.399999976158,,directmemory_phase6,1497592,,,,,,,,object_12b.png,,,51,,,,0,object_08c.png,object_11b.png,object_10b.png,object_11b.png,,0.7415730337078652,0,,,,,,,,,,,
4636.199999988079,,directmemory_phase6,1502230,,,,,,,,object_13a.png,,,49,,,,1,object_15b.png,object_11b.png,object_08c.png,object_15b.png,,0.7444444444444445,1,,,,,,,,,,,
null,,thebreak,1502339,,,,,,,,<p></p>,,,null,,,,,,,,,,,,,,,,,,,,,,
19329,,intro_0,1521670,,,,,,,,instruct,,,32,,,,,,,,,,,,,,,,,,,,,,
null,,learn_phase(without_color)7,1525171,,,,,,,,black_plus_sign,,,null,object_15b.png,object_13a.png,,,,,,,,,,,,,,,,,,,,
null,,black_cross(without_color)7,1526194,,,,,,,,blue,,,null,object_15b.png,object_13a.png,,,,,,,,,,,,,,,,,,,,
null,,rt_plussign_withcolor7,1526699,,,,,,,,blue,,,null,object_15b.png,object_13a.png,,,,,,,,,,,,,,,,,,,,
1396.3999999761581,,rt_thecrossant_black7,1527695,,,,,,,,black_plus_sign,,,49,,,,1,,,,,,1,,,,,,,,,,,,
null,,color_black7,1527807,,,,,,,,black_plus_sign,,,null,,,,,,,,,,,,,,,,,,,,,,
null,,learn_phase(without_color)7,1531325,,,,,,,,black_plus_sign,,,null,object_11b.png,object_12b.png,,,,,,,,,,,,,,,,,,,,
null,,black_cross(without_color)7,1531863,,,,,,,,green,,,null,object_11b.png,object_12b.png,,,,,,,,,,,,,,,,,,,,
null,,rt_plussign_withcolor7,1532378,,,,,,,,green,,,null,object_11b.png,object_12b.png,,,,,,,,,,,,,,,,,,,,
1475.3999999761581,,rt_thecrossant_black7,1533858,,,,,,,,black_plus_sign,,,50,,,,1,,,,,,1,,,,,,,,,,,,
null,,color_black7,1533972,,,,,,,,black_plus_sign,,,null,,,,,,,,,,,,,,,,,,,,,,
null,,learn_phase(without_color)7,1537480,,,,,,,,black_plus_sign,,,null,object_07a.png,object_01b.png,,,,,,,,,,,,,,,,,,,,
null,,black_cross(without_color)7,1538322,,,,,,,,green,,,null,object_07a.png,object_01b.png,,,,,,,,,,,,,,,,,,,,
null,,rt_plussign_withcolor7,1538828,,,,,,,,green,,,null,object_07a.png,object_01b.png,,,,,,,,,,,,,,,,,,,,
899,,rt_thecrossant_black7,1540010,,,,,,,,black_plus_sign,,,50,,,,1,,,,,,1,,,,,,,,,,,,
null,,color_black7,1540119,,,,,,,,black_plus_sign,,,null,,,,,,,,,,,,,,,,,,,,,,
null,,learn_phase(without_color)7,1543632,,,,,,,,black_plus_sign,,,null,object_04c.png,object_05c.png,,,,,,,,,,,,,,,,,,,,
null,,black_cross(without_color)7,1544593,,,,,,,,green,,,null,object_04c.png,object_05c.png,,,,,,,,,,,,,,,,,,,,
null,,rt_plussign_withcolor7,1545100,,,,,,,,green,,,null,object_04c.png,object_05c.png,,,,,,,,,,,,,,,,,,,,
1208.5,,rt_thecrossant_black7,1546164,,,,,,,,black_plus_sign,,,50,,,,1,,,,,,1,,,,,,,,,,,,
null,,color_black7,1546266,,,,,,,,black_plus_sign,,,null,,,,,,,,,,,,,,,,,,,,,,
null,,learn_phase(without_color)7,1549782,,,,,,,,black_plus_sign,,,null,object_08c.png,object_02b.png,,,,,,,,,,,,,,,,,,,,
null,,black_cross(without_color)7,1550648,,,,,,,,blue,,,null,object_08c.png,object_02b.png,,,,,,,,,,,,,,,,,,,,
null,,rt_plussign_withcolor7,1551155,,,,,,,,blue,,,null,object_08c.png,object_02b.png,,,,,,,,,,,,,,,,,,,,
1433.5,,rt_thecrossant_black7,1552308,,,,,,,,black_plus_sign,,,49,,,,1,,,,,,1,,,,,,,,,,,,
null,,color_black7,1552426,,,,,,,,black_plus_sign,,,null,,,,,,,,,,,,,,,,,,,,,,
null,,learn_phase(without_color)7,1555944,,,,,,,,black_plus_sign,,,null,object_13c.png,object_03a.png,,,,,,,,,,,,,,,,,,,,
null,,black_cross(without_color)7,1556795,,,,,,,,blue,,,null,object_13c.png,object_03a.png,,,,,,,,,,,,,,,,,,,,
null,,rt_plussign_withcolor7,1557300,,,,,,,,blue,,,null,object_13c.png,object_03a.png,,,,,,,,,,,,,,,,,,,,
1206.5999999642372,,rt_thecrossant_black7,1558476,,,,,,,,black_plus_sign,,,49,,,,1,,,,,,1,,,,,,,,,,,,
null,,color_black7,1558578,,,,,,,,black_plus_sign,,,null,,,,,,,,,,,,,,,,,,,,,,
null,,learn_phase(without_color)7,1562086,,,,,,,,black_plus_sign,,,null,object_15a.png,object_12a.png,,,,,,,,,,,,,,,,,,,,
null,,black_cross(without_color)7,1563134,,,,,,,,green,,,null,object_15a.png,object_12a.png,,,,,,,,,,,,,,,,,,,,
null,,rt_plussign_withcolor7,1563649,,,,,,,,green,,,null,object_15a.png,object_12a.png,,,,,,,,,,,,,,,,,,,,
1369.199999988079,,rt_thecrossant_black7,1564622,,,,,,,,black_plus_sign,,,50,,,,1,,,,,,1,,,,,,,,,,,,
null,,color_black7,1564740,,,,,,,,black_plus_sign,,,null,,,,,,,,,,,,,,,,,,,,,,
null,,learn_phase(without_color)7,1568248,,,,,,,,black_plus_sign,,,null,object_07b.png,object_05a.png,,,,,,,,,,,,,,,,,,,,
null,,black_cross(without_color)7,1568663,,,,,,,,blue,,,null,object_07b.png,object_05a.png,,,,,,,,,,,,,,,,,,,,
null,,rt_plussign_withcolor7,1569180,,,,,,,,blue,,,null,object_07b.png,object_05a.png,,,,,,,,,,,,,,,,,,,,
1483.8999999761581,,rt_thecrossant_black7,1570774,,,,,,,,black_plus_sign,,,49,,,,1,,,,,,1,,,,,,,,,,,,
null,,color_black7,1570888,,,,,,,,black_plus_sign,,,null,,,,,,,,,,,,,,,,,,,,,,
null,,learn_phase(without_color)7,1574396,,,,,,,,black_plus_sign,,,null,object_04b.png,object_01a.png,,,,,,,,,,,,,,,,,,,,
null,,black_cross(without_color)7,1574850,,,,,,,,blue,,,null,object_04b.png,object_01a.png,,,,,,,,,,,,,,,,,,,,
null,,rt_plussign_withcolor7,1575362,,,,,,,,blue,,,null,object_04b.png,object_01a.png,,,,,,,,,,,,,,,,,,,,
823.2000000476837,,rt_thecrossant_black7,1576918,,,,,,,,black_plus_sign,,,49,,,,1,,,,,,1,,,,,,,,,,,,
null,,color_black7,1577034,,,,,,,,black_plus_sign,,,null,,,,,,,,,,,,,,,,,,,,,,
null,,learn_phase(without_color)7,1580543,,,,,,,,black_plus_sign,,,null,object_05b.png,object_11a.png,,,,,,,,,,,,,,,,,,,,
null,,black_cross(without_color)7,1581292,,,,,,,,blue,,,null,object_05b.png,object_11a.png,,,,,,,,,,,,,,,,,,,,
null,,rt_plussign_withcolor7,1581809,,,,,,,,blue,,,null,object_05b.png,object_11a.png,,,,,,,,,,,,,,,,,,,,
613,,rt_thecrossant_black7,1583082,,,,,,,,black_plus_sign,,,49,,,,1,,,,,,1,,,,,,,,,,,,
null,,color_black7,1583200,,,,,,,,black_plus_sign,,,null,,,,,,,,,,,,,,,,,,,,,,
null,,learn_phase(without_color)7,1586703,,,,,,,,black_plus_sign,,,null,object_11c.png,object_09b.png,,,,,,,,,,,,,,,,,,,,
null,,black_cross(without_color)7,1587213,,,,,,,,blue,,,null,object_11c.png,object_09b.png,,,,,,,,,,,,,,,,,,,,
null,,rt_plussign_withcolor7,1587721,,,,,,,,blue,,,null,object_11c.png,object_09b.png,,,,,,,,,,,,,,,,,,,,
1084.4000000357628,,rt_thecrossant_black7,1589243,,,,,,,,black_plus_sign,,,49,,,,1,,,,,,1,,,,,,,,,,,,
null,,color_black7,1589349,,,,,,,,black_plus_sign,,,null,,,,,,,,,,,,,,,,,,,,,,
null,,learn_phase(without_color)7,1592859,,,,,,,,black_plus_sign,,,null,object_07c.png,object_13b.png,,,,,,,,,,,,,,,,,,,,
null,,black_cross(without_color)7,1593959,,,,,,,,blue,,,null,object_07c.png,object_13b.png,,,,,,,,,,,,,,,,,,,,
null,,rt_plussign_withcolor7,1594468,,,,,,,,blue,,,null,object_07c.png,object_13b.png,,,,,,,,,,,,,,,,,,,,
1014.6999999880791,,rt_thecrossant_black7,1595390,,,,,,,,black_plus_sign,,,49,,,,1,,,,,,1,,,,,,,,,,,,
null,,color_black7,1595496,,,,,,,,black_plus_sign,,,null,,,,,,,,,,,,,,,,,,,,,,
null,,learn_phase(without_color)7,1599008,,,,,,,,black_plus_sign,,,null,object_09a.png,object_08a.png,,,,,,,,,,,,,,,,,,,,
null,,black_cross(without_color)7,1599531,,,,,,,,green,,,null,object_09a.png,object_08a.png,,,,,,,,,,,,,,,,,,,,
null,,rt_plussign_withcolor7,1600033,,,,,,,,green,,,null,object_09a.png,object_08a.png,,,,,,,,,,,,,,,,,,,,
1635.699999988079,,rt_thecrossant_black7,1601532,,,,,,,,black_plus_sign,,,50,,,,1,,,,,,1,,,,,,,,,,,,
null,,color_black7,1601641,,,,,,,,black_plus_sign,,,null,,,,,,,,,,,,,,,,,,,,,,
null,,learn_phase(without_color)7,1605150,,,,,,,,black_plus_sign,,,null,object_09c.png,object_08b.png,,,,,,,,,,,,,,,,,,,,
null,,black_cross(without_color)7,1605657,,,,,,,,blue,,,null,object_09c.png,object_08b.png,,,,,,,,,,,,,,,,,,,,
null,,rt_plussign_withcolor7,1606164,,,,,,,,blue,,,null,object_09c.png,object_08b.png,,,,,,,,,,,,,,,,,,,,
775,,rt_thecrossant_black7,1607674,,,,,,,,black_plus_sign,,,49,,,,1,,,,,,1,,,,,,,,,,,,
null,,color_black7,1607788,,,,,,,,black_plus_sign,,,null,,,,,,,,,,,,,,,,,,,,,,
null,,learn_phase(without_color)7,1611304,,,,,,,,black_plus_sign,,,null,object_10b.png,object_10a.png,,,,,,,,,,,,,,,,,,,,
null,,black_cross(without_color)7,1611981,,,,,,,,green,,,null,object_10b.png,object_10a.png,,,,,,,,,,,,,,,,,,,,
null,,rt_plussign_withcolor7,1612489,,,,,,,,green,,,null,object_10b.png,object_10a.png,,,,,,,,,,,,,,,,,,,,
1183.1000000238419,,rt_thecrossant_black7,1613828,,,,,,,,black_plus_sign,,,50,,,,1,,,,,,1,,,,,,,,,,,,
null,,color_black7,1613945,,,,,,,,black_plus_sign,,,null,,,,,,,,,,,,,,,,,,,,,,
null,,thebreak,1614063,,,,,,,,<p></p>,,,null,,,,,,,,,,,,,,,,,,,,,,
1688.199999988079,,intro_0,1615753,,,,,,,,instruct,,,32,,,,,,,,,,,,,,,,,,,,,,
3754,,directmemory_phase7,1619508,,,,,,,,object_13a.png,,,49,,,,0,object_05b.png,object_15b.png,object_04b.png,object_15b.png,,0.7362637362637363,0,,,,,,,,,,,
2446.399999976158,,directmemory_phase7,1621957,,,,,,,,object_08a.png,,,50,,,,1,object_04c.png,object_09a.png,object_11b.png,object_09a.png,,0.7391304347826086,1,,,,,,,,,,,
2113.099999964237,,directmemory_phase7,1624072,,,,,,,,object_09b.png,,,49,,,,1,object_11c.png,object_07c.png,object_07b.png,object_11c.png,,0.7419354838709677,1,,,,,,,,,,,
2327.2999999523163,,directmemory_phase7,1626402,,,,,,,,object_08b.png,,,51,,,,1,object_07a.png,object_10b.png,object_09c.png,object_09c.png,,0.7446808510638298,1,,,,,,,,,,,
5325.199999988079,,directmemory_phase7,1631729,,,,,,,,object_02b.png,,,49,,,,0,object_04c.png,object_11b.png,object_08c.png,object_08c.png,,0.7368421052631579,0,,,,,,,,,,,
2487.7999999523163,,directmemory_phase7,1634219,,,,,,,,object_05c.png,,,50,,,,1,object_10b.png,object_04c.png,object_07a.png,object_04c.png,,0.7395833333333334,1,,,,,,,,,,,
2306.899999976158,,directmemory_phase7,1636528,,,,,,,,object_01b.png,,,51,,,,1,object_09a.png,object_10b.png,object_07a.png,object_07a.png,,0.7422680412371134,1,,,,,,,,,,,
2372.400000035763,,directmemory_phase7,1638903,,,,,,,,object_13b.png,,,51,,,,1,object_07b.png,object_09c.png,object_07c.png,object_07c.png,,0.7448979591836735,1,,,,,,,,,,,
3860.2000000476837,,directmemory_phase7,1642765,,,,,,,,object_11a.png,,,51,,,,1,object_07a.png,object_11c.png,object_05b.png,object_05b.png,,0.7474747474747475,1,,,,,,,,,,,
3749.5,,directmemory_phase7,1646517,,,,,,,,object_10a.png,,,50,,,,1,object_07c.png,object_10b.png,object_11c.png,object_10b.png,,0.75,1,,,,,,,,,,,
4059.800000011921,,directmemory_phase7,1650578,,,,,,,,object_05a.png,,,51,,,,1,object_05b.png,object_11b.png,object_07b.png,object_07b.png,,0.7524752475247525,1,,,,,,,,,,,
2461.400000035763,,directmemory_phase7,1653042,,,,,,,,object_12a.png,,,50,,,,1,object_04c.png,object_15a.png,object_07a.png,object_15a.png,,0.7549019607843137,1,,,,,,,,,,,
2886.599999964237,,directmemory_phase7,1655930,,,,,,,,object_03a.png,,,50,,,,1,object_11b.png,object_13c.png,object_11c.png,object_13c.png,,0.7572815533980582,1,,,,,,,,,,,
3561.600000023842,,directmemory_phase7,1659494,,,,,,,,object_12b.png,,,50,,,,1,object_07a.png,object_11b.png,object_15a.png,object_11b.png,,0.7596153846153846,1,,,,,,,,,,,
2416.400000035763,,directmemory_phase7,1661914,,,,,,,,object_01a.png,,,50,,,,1,object_07b.png,object_04b.png,object_13c.png,object_04b.png,,0.7619047619047619,1,,,,,,,,,,,
null,,thebreak,1662026,,,,,,,,<p></p>,,,null,,,,,,,,,,,,,,,,,,,,,,
9029.100000023842,,intro_0,1671056,,,,,,,,instruct,,,32,,,,,,,,,,,,,,,,,,,,,,
null,,learn_phase(without_color)8,1674559,,,,,,,,black_plus_sign,,,null,object_11b.png,object_12b.png,,,,,,,,,,,,,,,,,,,,
null,,black_cross(without_color)8,1675091,,,,,,,,blue,,,null,object_11b.png,object_12b.png,,,,,,,,,,,,,,,,,,,,
null,,rt_plussign_withcolor8,1675598,,,,,,,,blue,,,null,object_11b.png,object_12b.png,,,,,,,,,,,,,,,,,,,,
1076.9000000357628,,rt_thecrossant_black8,1677083,,,,,,,,black_plus_sign,,,49,,,,1,,,,,,1,,,,,,,,,,,,
null,,color_black8,1677193,,,,,,,,black_plus_sign,,,null,,,,,,,,,,,,,,,,,,,,,,
null,,learn_phase(without_color)8,1680704,,,,,,,,black_plus_sign,,,null,object_11c.png,object_09b.png,,,,,,,,,,,,,,,,,,,,
null,,black_cross(without_color)8,1681338,,,,,,,,blue,,,null,object_11c.png,object_09b.png,,,,,,,,,,,,,,,,,,,,
null,,rt_plussign_withcolor8,1681845,,,,,,,,blue,,,null,object_11c.png,object_09b.png,,,,,,,,,,,,,,,,,,,,
851,,rt_thecrossant_black8,1683239,,,,,,,,black_plus_sign,,,49,,,,1,,,,,,1,,,,,,,,,,,,
null,,color_black8,1683354,,,,,,,,black_plus_sign,,,null,,,,,,,,,,,,,,,,,,,,,,
null,,learn_phase(without_color)8,1686862,,,,,,,,black_plus_sign,,,null,object_08c.png,object_02b.png,,,,,,,,,,,,,,,,,,,,
null,,black_cross(without_color)8,1687932,,,,,,,,blue,,,null,object_08c.png,object_02b.png,,,,,,,,,,,,,,,,,,,,
null,,rt_plussign_withcolor8,1688443,,,,,,,,blue,,,null,object_08c.png,object_02b.png,,,,,,,,,,,,,,,,,,,,
1036.2000000476837,,rt_thecrossant_black8,1689390,,,,,,,,black_plus_sign,,,49,,,,1,,,,,,1,,,,,,,,,,,,
null,,color_black8,1689493,,,,,,,,black_plus_sign,,,null,,,,,,,,,,,,,,,,,,,,,,
null,,learn_phase(without_color)8,1693009,,,,,,,,black_plus_sign,,,null,object_07c.png,object_13b.png,,,,,,,,,,,,,,,,,,,,
null,,black_cross(without_color)8,1693695,,,,,,,,green,,,null,object_07c.png,object_13b.png,,,,,,,,,,,,,,,,,,,,
null,,rt_plussign_withcolor8,1694203,,,,,,,,green,,,null,object_07c.png,object_13b.png,,,,,,,,,,,,,,,,,,,,
1732.8999999761581,,rt_thecrossant_black8,1695526,,,,,,,,black_plus_sign,,,50,,,,1,,,,,,1,,,,,,,,,,,,
null,,color_black8,1695636,,,,,,,,black_plus_sign,,,null,,,,,,,,,,,,,,,,,,,,,,
null,,learn_phase(without_color)8,1699150,,,,,,,,black_plus_sign,,,null,object_07a.png,object_01b.png,,,,,,,,,,,,,,,,,,,,
null,,black_cross(without_color)8,1699718,,,,,,,,blue,,,null,object_07a.png,object_01b.png,,,,,,,,,,,,,,,,,,,,
null,,rt_plussign_withcolor8,1700221,,,,,,,,blue,,,null,object_07a.png,object_01b.png,,,,,,,,,,,,,,,,,,,,
1013.8000000119209,,rt_thecrossant_black8,1701681,,,,,,,,black_plus_sign,,,49,,,,1,,,,,,1,,,,,,,,,,,,
null,,color_black8,1701797,,,,,,,,black_plus_sign,,,null,,,,,,,,,,,,,,,,,,,,,,
null,,learn_phase(without_color)8,1705304,,,,,,,,black_plus_sign,,,null,object_09a.png,object_08a.png,,,,,,,,,,,,,,,,,,,,
null,,black_cross(without_color)8,1705993,,,,,,,,green,,,null,object_09a.png,object_08a.png,,,,,,,,,,,,,,,,,,,,
null,,rt_plussign_withcolor8,1706500,,,,,,,,green,,,null,object_09a.png,object_08a.png,,,,,,,,,,,,,,,,,,,,
1062.699999988079,,rt_thecrossant_black8,1707829,,,,,,,,black_plus_sign,,,50,,,,1,,,,,,1,,,,,,,,,,,,
null,,color_black8,1707943,,,,,,,,black_plus_sign,,,null,,,,,,,,,,,,,,,,,,,,,,
null,,learn_phase(without_color)8,1711449,,,,,,,,black_plus_sign,,,null,object_10b.png,object_10a.png,,,,,,,,,,,,,,,,,,,,
null,,black_cross(without_color)8,1711934,,,,,,,,green,,,null,object_10b.png,object_10a.png,,,,,,,,,,,,,,,,,,,,
null,,rt_plussign_withcolor8,1712450,,,,,,,,green,,,null,object_10b.png,object_10a.png,,,,,,,,,,,,,,,,,,,,
1139.699999988079,,rt_thecrossant_black8,1713990,,,,,,,,black_plus_sign,,,50,,,,1,,,,,,1,,,,,,,,,,,,
null,,color_black8,1714107,,,,,,,,black_plus_sign,,,null,,,,,,,,,,,,,,,,,,,,,,
null,,learn_phase(without_color)8,1717616,,,,,,,,black_plus_sign,,,null,object_07b.png,object_05a.png,,,,,,,,,,,,,,,,,,,,
null,,black_cross(without_color)8,1718639,,,,,,,,blue,,,null,object_07b.png,object_05a.png,,,,,,,,,,,,,,,,,,,,
null,,rt_plussign_withcolor8,1719155,,,,,,,,blue,,,null,object_07b.png,object_05a.png,,,,,,,,,,,,,,,,,,,,
792,,rt_thecrossant_black8,1720162,,,,,,,,black_plus_sign,,,49,,,,1,,,,,,1,,,,,,,,,,,,
null,,color_black8,1720273,,,,,,,,black_plus_sign,,,null,,,,,,,,,,,,,,,,,,,,,,
null,,learn_phase(without_color)8,1723780,,,,,,,,black_plus_sign,,,null,object_15a.png,object_12a.png,,,,,,,,,,,,,,,,,,,,
null,,black_cross(without_color)8,1724461,,,,,,,,green,,,null,object_15a.png,object_12a.png,,,,,,,,,,,,,,,,,,,,
null,,rt_plussign_withcolor8,1724970,,,,,,,,green,,,null,object_15a.png,object_12a.png,,,,,,,,,,,,,,,,,,,,
1556.4000000357628,,rt_thecrossant_black8,1726309,,,,,,,,black_plus_sign,,,50,,,,1,,,,,,1,,,,,,,,,,,,
null,,color_black8,1726418,,,,,,,,black_plus_sign,,,null,,,,,,,,,,,,,,,,,,,,,,
null,,learn_phase(without_color)8,1729927,,,,,,,,black_plus_sign,,,null,object_04b.png,object_01a.png,,,,,,,,,,,,,,,,,,,,
null,,black_cross(without_color)8,1730828,,,,,,,,green,,,null,object_04b.png,object_01a.png,,,,,,,,,,,,,,,,,,,,
null,,rt_plussign_withcolor8,1731335,,,,,,,,green,,,null,object_04b.png,object_01a.png,,,,,,,,,,,,,,,,,,,,
1011.2999999523163,,rt_thecrossant_black8,1732465,,,,,,,,black_plus_sign,,,50,,,,1,,,,,,1,,,,,,,,,,,,
null,,color_black8,1732581,,,,,,,,black_plus_sign,,,null,,,,,,,,,,,,,,,,,,,,,,
null,,learn_phase(without_color)8,1736094,,,,,,,,black_plus_sign,,,null,object_15b.png,object_13a.png,,,,,,,,,,,,,,,,,,,,
null,,black_cross(without_color)8,1736773,,,,,,,,green,,,null,object_15b.png,object_13a.png,,,,,,,,,,,,,,,,,,,,
null,,rt_plussign_withcolor8,1737281,,,,,,,,green,,,null,object_15b.png,object_13a.png,,,,,,,,,,,,,,,,,,,,
1341.300000011921,,rt_thecrossant_black8,1738625,,,,,,,,black_plus_sign,,,50,,,,1,,,,,,1,,,,,,,,,,,,
null,,color_black8,1738727,,,,,,,,black_plus_sign,,,null,,,,,,,,,,,,,,,,,,,,,,
null,,learn_phase(without_color)8,1742238,,,,,,,,black_plus_sign,,,null,object_04c.png,object_05c.png,,,,,,,,,,,,,,,,,,,,
null,,black_cross(without_color)8,1743246,,,,,,,,green,,,null,object_04c.png,object_05c.png,,,,,,,,,,,,,,,,,,,,
null,,rt_plussign_withcolor8,1743751,,,,,,,,green,,,null,object_04c.png,object_05c.png,,,,,,,,,,,,,,,,,,,,
1178.1000000238419,,rt_thecrossant_black8,1744768,,,,,,,,black_plus_sign,,,50,,,,1,,,,,,1,,,,,,,,,,,,
null,,color_black8,1744871,,,,,,,,black_plus_sign,,,null,,,,,,,,,,,,,,,,,,,,,,
null,,learn_phase(without_color)8,1748374,,,,,,,,black_plus_sign,,,null,object_09c.png,object_08b.png,,,,,,,,,,,,,,,,,,,,
null,,black_cross(without_color)8,1749078,,,,,,,,blue,,,null,object_09c.png,object_08b.png,,,,,,,,,,,,,,,,,,,,
null,,rt_plussign_withcolor8,1749581,,,,,,,,blue,,,null,object_09c.png,object_08b.png,,,,,,,,,,,,,,,,,,,,
1286.7000000476837,,rt_thecrossant_black8,1750895,,,,,,,,black_plus_sign,,,49,,,,1,,,,,,1,,,,,,,,,,,,
null,,color_black8,1751008,,,,,,,,black_plus_sign,,,null,,,,,,,,,,,,,,,,,,,,,,
null,,learn_phase(without_color)8,1754524,,,,,,,,black_plus_sign,,,null,object_05b.png,object_11a.png,,,,,,,,,,,,,,,,,,,,
null,,black_cross(without_color)8,1754951,,,,,,,,green,,,null,object_05b.png,object_11a.png,,,,,,,,,,,,,,,,,,,,
null,,rt_plussign_withcolor8,1755461,,,,,,,,green,,,null,object_05b.png,object_11a.png,,,,,,,,,,,,,,,,,,,,
1010.3999999761581,,rt_thecrossant_black8,1757055,,,,,,,,black_plus_sign,,,50,,,,1,,,,,,1,,,,,,,,,,,,
null,,color_black8,1757171,,,,,,,,black_plus_sign,,,null,,,,,,,,,,,,,,,,,,,,,,
null,,learn_phase(without_color)8,1760679,,,,,,,,black_plus_sign,,,null,object_13c.png,object_03a.png,,,,,,,,,,,,,,,,,,,,
null,,black_cross(without_color)8,1761235,,,,,,,,blue,,,null,object_13c.png,object_03a.png,,,,,,,,,,,,,,,,,,,,
null,,rt_plussign_withcolor8,1761743,,,,,,,,blue,,,null,object_13c.png,object_03a.png,,,,,,,,,,,,,,,,,,,,
831.8000000119209,,rt_thecrossant_black8,1763205,,,,,,,,black_plus_sign,,,49,,,,1,,,,,,1,,,,,,,,,,,,
null,,color_black8,1763318,,,,,,,,black_plus_sign,,,null,,,,,,,,,,,,,,,,,,,,,,
null,,thebreak,1763435,,,,,,,,<p></p>,,,null,,,,,,,,,,,,,,,,,,,,,,
1672.8999999761581,,intro_0,1765109,,,,,,,,instruct,,,32,,,,,,,,,,,,,,,,,,,,,,
2677.400000035763,,directmemory_phase8,1767788,,,,,,,,object_05a.png,,,51,,,,1,object_09c.png,object_05b.png,object_07b.png,object_07b.png,,0.7641509433962265,1,,,,,,,,,,,
2203,,directmemory_phase8,1769994,,,,,,,,object_13b.png,,,49,,,,1,object_07c.png,object_04c.png,object_09c.png,object_07c.png,,0.7663551401869159,1,,,,,,,,,,,
4901.600000023842,,directmemory_phase8,1774898,,,,,,,,object_11a.png,,,51,,,,1,object_09c.png,object_08c.png,object_05b.png,object_05b.png,,0.7685185185185185,1,,,,,,,,,,,
3963.400000035763,,directmemory_phase8,1778864,,,,,,,,object_03a.png,,,49,,,,1,object_13c.png,object_11b.png,object_07c.png,object_13c.png,,0.7706422018348624,1,,,,,,,,,,,
4260.5,,directmemory_phase8,1783127,,,,,,,,object_10a.png,,,51,,,,1,object_07c.png,object_11b.png,object_10b.png,object_10b.png,,0.7727272727272727,1,,,,,,,,,,,
2531.5,,directmemory_phase8,1785662,,,,,,,,object_08b.png,,,51,,,,1,object_10b.png,object_11c.png,object_09c.png,object_09c.png,,0.7747747747747747,1,,,,,,,,,,,
1887.5,,directmemory_phase8,1787551,,,,,,,,object_01a.png,,,49,,,,1,object_04b.png,object_04c.png,object_15a.png,object_04b.png,,0.7767857142857143,1,,,,,,,,,,,
4458,,directmemory_phase8,1792012,,,,,,,,object_13a.png,,,50,,,,1,object_08c.png,object_15b.png,object_09c.png,object_15b.png,,0.7787610619469026,1,,,,,,,,,,,
1978.3999999761581,,directmemory_phase8,1793993,,,,,,,,object_05c.png,,,49,,,,1,object_04c.png,object_11c.png,object_07c.png,object_04c.png,,0.7807017543859649,1,,,,,,,,,,,
4748.400000035763,,directmemory_phase8,1798745,,,,,,,,object_02b.png,,,51,,,,0,object_10b.png,object_08c.png,object_04c.png,object_08c.png,,0.7739130434782608,0,,,,,,,,,,,
6211.699999988079,,directmemory_phase8,1804959,,,,,,,,object_12b.png,,,51,,,,1,object_09c.png,object_10b.png,object_11b.png,object_11b.png,,0.7758620689655172,1,,,,,,,,,,,
2727.5,,directmemory_phase8,1807688,,,,,,,,object_08a.png,,,50,,,,1,object_15a.png,object_09a.png,object_11c.png,object_09a.png,,0.7777777777777778,1,,,,,,,,,,,
2503,,directmemory_phase8,1810194,,,,,,,,object_09b.png,,,50,,,,1,object_10b.png,object_11c.png,object_09a.png,object_11c.png,,0.7796610169491526,1,,,,,,,,,,,
5053.899999976158,,directmemory_phase8,1815250,,,,,,,,object_01b.png,,,49,,,,1,object_07a.png,object_09a.png,object_11c.png,object_07a.png,,0.7815126050420168,1,,,,,,,,,,,
2263,,directmemory_phase8,1817515,,,,,,,,object_12a.png,,,50,,,,1,object_05b.png,object_15a.png,object_09a.png,object_15a.png,,0.7833333333333333,1,,,,,,,,,,,
null,,thebreak,1817618,,,,,,,,<p></p>,,,null,,,,,,,,,,,,,,,,,,,,,,
22885.099999964237,,intro_0,1840505,,,,,,,,instruct,,,32,,,,,,,,,,,,,,,,,,,,,,
22373.19999998808,,intro_1,1862880,,,,,,,,instruct,,,32,,,,,,,,,,,,,,,,,,,,,,
10529,,intro_2,1873410,,,,,,,,instruct,,,32,,,,,,,,,,,,,,,,,,,,,,
,,intro_3,1908023,,,,,,,,instruct,,,,,,,,,,,,,,,,,,,,,,,,,
5629.099999964237,,intro_4,1913653,,,,,,,,instruct,,,32,,,,,,,,,,,,,,,,,,,,,,
null,,thebreak,1913767,,,,,,,,<p></p>,,,null,,,,,,,,,,,,,,,,,,,,,,
3778.800000011921,,intro_0,1917548,,,,,,,,instruct,,,32,,,,,,,,,,,,,,,,,,,,,,
2770.099999964237,,intro_1,1920319,,,,,,,,instruct,,,32,,,,,,,,,,,,,,,,,,,,,,
2947.100000023842,,intro_2,1923267,,,,,,,,instruct,,,32,,,,,,,,,,,,,,,,,,,,,,
,,intro_3,1938378,,,,,,,,instruct,,,,,,,,,,,,,,,,,,,,,,,,,
10575.5,,intro_4,1948955,,,,,,,,instruct,,,32,,,,,,,,,,,,,,,,,,,,,,
8017.799999952316,,inference_phase,1956974,,,,,,,,object_08a.png,,,51,object_14b.png,object_06a.png,,1,,,,object_06a.png,,1,,object_03b.png,,,,,,,,,,
4861.700000047684,,inference_phase,1961839,,,,,,,,object_12a.png,,,49,object_03c.png,object_10c.png,,1,,,,object_03c.png,,1,,object_06c.png,,,,,,,,,,
5509.600000023842,,inference_phase,1967351,,,,,,,,object_01b.png,,,51,object_06a.png,object_10c.png,,0,,,,object_12c.png,,0.6666666666666666,,object_12c.png,,,,,,,,,,
6038.800000011921,,inference_phase,1973392,,,,,,,,object_12b.png,,,49,object_12c.png,object_14c.png,,0,,,,object_04a.png,,0.5,,object_04a.png,,,,,,,,,,
5363.100000023842,,inference_phase,1978758,,,,,,,,object_13b.png,,,50,object_02a.png,object_06c.png,,1,,,,object_14b.png,,0.6,,object_14b.png,,,,,,,,,,
5584.099999964237,,inference_phase,1984345,,,,,,,,object_03a.png,,,50,object_10c.png,object_14c.png,,0,,,,object_14c.png,,0.5,,object_02a.png,,,,,,,,,,
6040.599999964237,,inference_phase,1990388,,,,,,,,object_02b.png,,,50,object_14a.png,object_03b.png,,0,,,,object_14a.png,,0.42857142857142855,,object_06c.png,,,,,,,,,,
5821.199999988079,,inference_phase,1996212,,,,,,,,object_05a.png,,,49,object_06c.png,object_04a.png,,0,,,,object_10c.png,,0.375,,object_10c.png,,,,,,,,,,
7805.099999964237,,inference_phase,2004019,,,,,,,,object_11a.png,,,50,object_06a.png,object_03c.png,,1,,,,object_01c.png,,0.4444444444444444,,object_01c.png,,,,,,,,,,
4983.799999952316,,inference_phase,2009005,,,,,,,,object_09b.png,,,51,object_02a.png,object_06a.png,,0,,,,object_02a.png,,0.4,,object_06b.png,,,,,,,,,,
4574.700000047684,,inference_phase,2013583,,,,,,,,object_13a.png,,,50,object_06b.png,object_15c.png,,0,,,,object_15c.png,,0.36363636363636365,,object_04a.png,,,,,,,,,,
5078.600000023842,,inference_phase,2018664,,,,,,,,object_01a.png,,,51,object_06b.png,object_14a.png,,0,,,,object_06b.png,,0.3333333333333333,,object_03b.png,,,,,,,,,,
8310.199999988079,,inference_phase,2026976,,,,,,,,object_05c.png,,,49,object_06a.png,object_06c.png,,0,,,,object_02c.png,,0.3076923076923077,,object_02c.png,,,,,,,,,,
3952.800000011921,,inference_phase,2030931,,,,,,,,object_08b.png,,,49,object_06c.png,object_10c.png,,1,,,,object_06c.png,,0.35714285714285715,,object_06a.png,,,,,,,,,,
4657.599999964237,,inference_phase,2035591,,,,,,,,object_10a.png,,,51,object_06c.png,object_01c.png,,0,,,,object_03b.png,,0.3333333333333333,,object_03b.png,,,,,,,,,,
,,survey,2175856,,,,,,,,survey-questions,,,,,,,,,,,,,,,,none,high,i was concentrating fully on the task,i used colour strategy all through,yes some trials were easier than others,no i have never participated in such a task,none,,,
30631.899999976158,,thank_you,2206540,,,,,,,,<p> Congratulations, you are all done!</p><p> <strong>Please click space on your keyboard to end the experiment!</strong> The secret code to enter at the beginning screen is: <strong>CIMBPENS</strong></p><p> Please make sure to submit the HIT and email uciccnl@gmail.com if you had any issues! </p><br><p>Please remember to submit this data by clicking space after copying the code. Failure of submission will lead to in-complete payment</p>,,,32,,,,,,,,,,,,,,,,,,,,0,0,C78LSMTN
