rt,responses,trial_type,time_elapsed,identifier_a,identifier_b,identifier_c,tasktype,browser_type,local_time,UTC_time,stimulus,button_pressed,response,key_press,stimulus_left,stimulus_right,accuracy,practice_cumulative_accuracy,stimulus_down_left,stimulus_down_mid,stimulus_down_right,stimulus_correct,prac_weighted_accuracy,cumulative_accuracy,weighted_accuracy,tooquick,stimulus_middle,problems,smooth,distraction,strategies,easier,similar,comments,detectfocus,breakfocus,completion_code
42107.299999952316,{worker_id:Qihao Hong},id_enter,42108,object_14a.png; object_07a.png; object_10c.png; object_12a.png; object_02a.png; object_04c.png; object_11a.png; object_07c.png; object_05a.png; object_13c.png; object_05b.png; object_15c.png; object_01c.png; object_10b.png; object_03c.png,object_02b.png; object_08a.png; object_09c.png; object_09a.png; object_07b.png; object_05c.png; object_14c.png; object_13b.png; object_13a.png; object_06b.png; object_11b.png; object_06c.png; object_01b.png; object_04a.png; object_10a.png,object_03a.png; object_08b.png; object_15b.png; object_04b.png; object_12b.png; object_06a.png; object_02c.png; object_08c.png; object_11c.png; object_15a.png; object_09b.png; object_03b.png; object_14b.png; object_12c.png; object_01a.png,blocked,Mozilla/5.0 (Windows NT 10.0; Win64; x64) AppleWebKit/537.36 (KHTML, like Gecko) Chrome/135.0.0.0 Safari/537.36,2025/4/27 20:05:26,2025-04-28 00:05:26.515,,,,,,,,,,,,,,,,,,,,,,,,,,,
16992.699999928474,,make_fullscreen,59103,,,,,,,,fullscreen,0,,,,,,,,,,,,,,,,,,,,,,,,,
3529.5,,instruct_1,62634,,,,,,,,instruct,0,Next,,,,,,,,,,,,,,,,,,,,,,,,
16539,,instruct_2,79174,,,,,,,,instruct,1,Next,,,,,,,,,,,,,,,,,,,,,,,,
8956,,instruct_3,88131,,,,,,,,instruct,1,Next,,,,,,,,,,,,,,,,,,,,,,,,
12483,,instruct_4,100615,,,,,,,,instruct,1,Next,,,,,,,,,,,,,,,,,,,,,,,,
10293.100000023842,,instruct_5,110909,,,,,,,,instruct,1,Next,,,,,,,,,,,,,,,,,,,,,,,,
3416.2000000476837,,instruct_6,114326,,,,,,,,instruct,1,Next,,,,,,,,,,,,,,,,,,,,,,,,
22949.5,,instruct_7,137276,,,,,,,,instruct,1,Next,,,,,,,,,,,,,,,,,,,,,,,,
null,,prac_atten_color_black,137699,,,,,,,,black_plus_sign,,,null,,,,,,,,,,,,,,,,,,,,,,,
701.1000000238419,,prac_atten_color,138680,,,,,,,,<p style='position:absolute;top: 50%;right: 50%;transform: translate(50%, -50%);font-size: 125px;color: blue;'>+</p>,,,49,,,,,,,,,,,,,,,,,,,,,,,
null,,prac_atten_color_black,140681,,,,,,,,black_plus_sign,,,null,,,,,,,,,,,,,,,,,,,,,,,
null,,prac_atten_color_black,141104,,,,,,,,black_plus_sign,,,null,,,,,,,,,,,,,,,,,,,,,,,
335.3000000715256,,prac_atten_color,141869,,,,,,,,<p style='position:absolute;top: 50%;right: 50%;transform: translate(50%, -50%);font-size: 125px;color: green;'>+</p>,,,50,,,,,,,,,,,,,,,,,,,,,,,
null,,prac_atten_color_black,143870,,,,,,,,black_plus_sign,,,null,,,,,,,,,,,,,,,,,,,,,,,
null,,prac_atten_color_black,144509,,,,,,,,black_plus_sign,,,null,,,,,,,,,,,,,,,,,,,,,,,
504.89999997615814,,prac_atten_color,145456,,,,,,,,<p style='position:absolute;top: 50%;right: 50%;transform: translate(50%, -50%);font-size: 125px;color: green;'>+</p>,,,50,,,,,,,,,,,,,,,,,,,,,,,
null,,prac_atten_color_black,147457,,,,,,,,black_plus_sign,,,null,,,,,,,,,,,,,,,,,,,,,,,
null,,prac_atten_color_black,147916,,,,,,,,black_plus_sign,,,null,,,,,,,,,,,,,,,,,,,,,,,
326.89999997615814,,prac_atten_color,148565,,,,,,,,<p style='position:absolute;top: 50%;right: 50%;transform: translate(50%, -50%);font-size: 125px;color: blue;'>+</p>,,,49,,,,,,,,,,,,,,,,,,,,,,,
null,,prac_atten_color_black,150566,,,,,,,,black_plus_sign,,,null,,,,,,,,,,,,,,,,,,,,,,,
null,,prac_atten_color_black,151320,,,,,,,,black_plus_sign,,,null,,,,,,,,,,,,,,,,,,,,,,,
291.1999999284744,,prac_atten_color,151839,,,,,,,,<p style='position:absolute;top: 50%;right: 50%;transform: translate(50%, -50%);font-size: 125px;color: green;'>+</p>,,,50,,,,,,,,,,,,,,,,,,,,,,,
null,,prac_atten_color_black,153840,,,,,,,,black_plus_sign,,,null,,,,,,,,,,,,,,,,,,,,,,,
null,,prac_atten_color_black,154723,,,,,,,,black_plus_sign,,,null,,,,,,,,,,,,,,,,,,,,,,,
380,,prac_atten_color,155167,,,,,,,,<p style='position:absolute;top: 50%;right: 50%;transform: translate(50%, -50%);font-size: 125px;color: green;'>+</p>,,,50,,,,,,,,,,,,,,,,,,,,,,,
null,,prac_atten_color_black,157168,,,,,,,,black_plus_sign,,,null,,,,,,,,,,,,,,,,,,,,,,,
null,,prac_atten_color_black,158128,,,,,,,,black_plus_sign,,,null,,,,,,,,,,,,,,,,,,,,,,,
327.89999997615814,,prac_atten_color,158967,,,,,,,,<p style='position:absolute;top: 50%;right: 50%;transform: translate(50%, -50%);font-size: 125px;color: blue;'>+</p>,,,49,,,,,,,,,,,,,,,,,,,,,,,
null,,prac_atten_color_black,160969,,,,,,,,black_plus_sign,,,null,,,,,,,,,,,,,,,,,,,,,,,
null,,prac_atten_color_black,161549,,,,,,,,black_plus_sign,,,null,,,,,,,,,,,,,,,,,,,,,,,
402.89999997615814,,prac_atten_color,162568,,,,,,,,<p style='position:absolute;top: 50%;right: 50%;transform: translate(50%, -50%);font-size: 125px;color: green;'>+</p>,,,50,,,,,,,,,,,,,,,,,,,,,,,
null,,prac_atten_color_black,164570,,,,,,,,black_plus_sign,,,null,,,,,,,,,,,,,,,,,,,,,,,
null,,prac_atten_color_black,164955,,,,,,,,black_plus_sign,,,null,,,,,,,,,,,,,,,,,,,,,,,
407.89999997615814,,prac_atten_color,165432,,,,,,,,<p style='position:absolute;top: 50%;right: 50%;transform: translate(50%, -50%);font-size: 125px;color: blue;'>+</p>,,,49,,,,,,,,,,,,,,,,,,,,,,,
null,,prac_atten_color_black,167433,,,,,,,,black_plus_sign,,,null,,,,,,,,,,,,,,,,,,,,,,,
null,,prac_atten_color_black,168359,,,,,,,,black_plus_sign,,,null,,,,,,,,,,,,,,,,,,,,,,,
null,,prac_atten_color,168784,,,,,,,,<p style='position:absolute;top: 50%;right: 50%;transform: translate(50%, -50%);font-size: 125px;color: blue;'>+</p>,,,null,,,,,,,,,,,,,,,,,,,,,,,
56,,prac_atten_color_black,170785,,,,,,,,black_plus_sign,,,49,,,,,,,,,,,,,,,,,,,,,,,
5881.700000047684,,attentioncheck_feedback,176668,,,,,,,,cross_check_feedback,0,,,,,,,,,,,,,,,,,,,,,,,,,
9677.899999976158,,last_instruct,186347,,,,,,,,instruct,,,32,,,,,,,,,,,,,,,,,,,,,,,
null,,prac_learn_phase(without_color),189848,,,,,,,,black_plus_sign,,,null,object_10b.png,object_04a.png,,,,,,,,,,,,,,,,,,,,,
null,,prac_black_cross(without_color),190701,,,,,,,,green,,,null,object_10b.png,object_04a.png,,,,,,,,,,,,,,,,,,,,,
490,,prac_rt_plussign_withcolor,191202,,,,,,,,green,,,50,object_10b.png,object_04a.png,,,,,,,,,,,,,,,,,,,,,
null,,prac_rt_thecrossant_black,192352,,,,,,,,black_plus_sign,,,null,,,1,1,,,,,,,,,,,,,,,,,,,
null,,prac_color_black,192454,,,,,,,,black_plus_sign,,,null,,,,,,,,,,,,,,,,,,,,,,,
null,,prac_learn_phase(without_color),195956,,,,,,,,black_plus_sign,,,null,object_07c.png,object_13b.png,,,,,,,,,,,,,,,,,,,,,
null,,black_cross(without_color)1,197000,,,,,,,,green,,,null,object_10b.png,object_04a.png,,,,,,,,,,,,,,,,,,,,,
null,,prac_rt_plussign_withcolor,197501,,,,,,,,blue,,,null,object_07c.png,object_13b.png,,,,,,,,,,,,,,,,,,,,,
727.1999999284744,,prac_rt_thecrossant_black,198530,,,,,,,,black_plus_sign,,,49,,,1,1,,,,,,,,,,,,,,,,,,,
null,,prac_color_black,198632,,,,,,,,black_plus_sign,,,null,,,,,,,,,,,,,,,,,,,,,,,
null,,prac_learn_phase(without_color),202134,,,,,,,,black_plus_sign,,,null,object_12a.png,object_09a.png,,,,,,,,,,,,,,,,,,,,,
null,,black_cross(without_color)1,203177,,,,,,,,green,,,null,object_10b.png,object_04a.png,,,,,,,,,,,,,,,,,,,,,
null,,prac_rt_plussign_withcolor,203679,,,,,,,,blue,,,null,object_12a.png,object_09a.png,,,,,,,,,,,,,,,,,,,,,
1138.8999999761581,,prac_rt_thecrossant_black,205215,,,,,,,,black_plus_sign,,,49,,,1,1,,,,,,,,,,,,,,,,,,,
null,,prac_color_black,205318,,,,,,,,black_plus_sign,,,null,,,,,,,,,,,,,,,,,,,,,,,
null,,prac_learn_phase(without_color),208818,,,,,,,,black_plus_sign,,,null,object_15c.png,object_06c.png,,,,,,,,,,,,,,,,,,,,,
null,,black_cross(without_color)1,209862,,,,,,,,green,,,null,object_10b.png,object_04a.png,,,,,,,,,,,,,,,,,,,,,
null,,prac_rt_plussign_withcolor,210363,,,,,,,,blue,,,null,object_15c.png,object_06c.png,,,,,,,,,,,,,,,,,,,,,
928.3999999761581,,prac_rt_thecrossant_black,211376,,,,,,,,black_plus_sign,,,49,,,1,1,,,,,,,,,,,,,,,,,,,
null,,prac_color_black,211488,,,,,,,,black_plus_sign,,,null,,,,,,,,,,,,,,,,,,,,,,,
6621.300000071526,,instruct_dir_01,218110,,,,,,,,instruct,0,Next,,,,,,,,,,,,,,,,,,,,,,,,
4267.700000047684,,instruct_dir_2,222379,,,,,,,,instruct,1,Next,,,,,,,,,,,,,,,,,,,,,,,,
6081.899999976158,,instruct_dir_3,228461,,,,,,,,instruct,0,Previous,,,,,,,,,,,,,,,,,,,,,,,,
4002.1999999284744,,instruct_dir_2,232464,,,,,,,,instruct,1,Next,,,,,,,,,,,,,,,,,,,,,,,,
2413.7999999523163,,instruct_dir_3,234878,,,,,,,,instruct,1,Next,,,,,,,,,,,,,,,,,,,,,,,,
5056,,instruct_dir_4,239935,,,,,,,,instruct,1,Start,,,,,,,,,,,,,,,,,,,,,,,,
null,,thebreak,240036,,,,,,,,<p></p>,,,null,,,,,,,,,,,,,,,,,,,,,,,
1037.6999999284744,,intro_0,241074,,,,,,,,instruct,,,32,,,,,,,,,,,,,,,,,,,,,,,
3650.399999976158,,prac_directmemory_phase,244725,,,,,,,,practice/object_01b.png,,,50,,,1,,practice/object_02a.png,practice/object_01a.png,practice/object_03a.png,practice/object_01a.png,1,1,,,,,,,,,,,,,
2994.2999999523163,,prac_directmemory_phase,247721,,,,,,,,practice/object_03b.png,,,50,,,1,,practice/object_04a.png,practice/object_03a.png,practice/object_01a.png,practice/object_03a.png,1,1,,,,,,,,,,,,,
1720,,prac_directmemory_phase,249441,,,,,,,,practice/object_04b.png,,,50,,,1,,practice/object_02a.png,practice/object_04a.png,practice/object_01a.png,practice/object_04a.png,1,1,,,,,,,,,,,,,
2017,,prac_directmemory_phase,251459,,,,,,,,practice/object_02b.png,,,50,,,1,,practice/object_01a.png,practice/object_02a.png,practice/object_03a.png,practice/object_02a.png,1,1,,,,,,,,,,,,,
3488.899999976158,,practice_feedback,254949,,,,,,,,practice_feedback,1,,,,,,,,,,,,,,,,,,,,,,,,,
12729.600000023842,,proceed_actualTask,267679,,,,,,,,proceed_actualTask,1,Continue,,,,,,,,,,,,,,,,,,,,,,,,
9865.199999928474,,last_inst,277545,,,,,,,,last_inst,,,32,,,,,,,,,,,,,,,,,,,,,,,
null,,learn_phase(without_color)1,281046,,,,,,,,black_plus_sign,,,null,object_10b.png,object_04a.png,,,,,,,,,,,,,,,,,,,,,
null,,black_cross(without_color)1,282091,,,,,,,,green,,,null,object_10b.png,object_04a.png,,,,,,,,,,,,,,,,,,,,,
null,,rt_plussign_withcolor1,282593,,,,,,,,green,,,null,object_10b.png,object_04a.png,,,,,,,,,,,,,,,,,,,,,
1232.3999999761581,,rt_thecrossant_black1,283555,,,,,,,,black_plus_sign,,,50,,,1,,,,,,,1,,,,,,,,,,,,,
null,,color_black1,283657,,,,,,,,black_plus_sign,,,null,,,,,,,,,,,,,,,,,,,,,,,
null,,learn_phase(without_color)1,287159,,,,,,,,black_plus_sign,,,null,object_07c.png,object_13b.png,,,,,,,,,,,,,,,,,,,,,
null,,black_cross(without_color)1,287814,,,,,,,,blue,,,null,object_07c.png,object_13b.png,,,,,,,,,,,,,,,,,,,,,
null,,rt_plussign_withcolor1,288316,,,,,,,,blue,,,null,object_07c.png,object_13b.png,,,,,,,,,,,,,,,,,,,,,
1051.3000000715256,,rt_thecrossant_black1,289665,,,,,,,,black_plus_sign,,,49,,,1,,,,,,,1,,,,,,,,,,,,,
null,,color_black1,289767,,,,,,,,black_plus_sign,,,null,,,,,,,,,,,,,,,,,,,,,,,
null,,learn_phase(without_color)1,293268,,,,,,,,black_plus_sign,,,null,object_12a.png,object_09a.png,,,,,,,,,,,,,,,,,,,,,
null,,black_cross(without_color)1,294292,,,,,,,,green,,,null,object_12a.png,object_09a.png,,,,,,,,,,,,,,,,,,,,,
null,,rt_plussign_withcolor1,294793,,,,,,,,green,,,null,object_12a.png,object_09a.png,,,,,,,,,,,,,,,,,,,,,
1027.6000000238419,,rt_thecrossant_black1,295774,,,,,,,,black_plus_sign,,,50,,,1,,,,,,,1,,,,,,,,,,,,,
null,,color_black1,295875,,,,,,,,black_plus_sign,,,null,,,,,,,,,,,,,,,,,,,,,,,
null,,learn_phase(without_color)1,299388,,,,,,,,black_plus_sign,,,null,object_15c.png,object_06c.png,,,,,,,,,,,,,,,,,,,,,
null,,black_cross(without_color)1,300437,,,,,,,,green,,,null,object_15c.png,object_06c.png,,,,,,,,,,,,,,,,,,,,,
null,,rt_plussign_withcolor1,300938,,,,,,,,green,,,null,object_15c.png,object_06c.png,,,,,,,,,,,,,,,,,,,,,
1178.1000000238419,,rt_thecrossant_black1,301893,,,,,,,,black_plus_sign,,,50,,,1,,,,,,,1,,,,,,,,,,,,,
null,,color_black1,301995,,,,,,,,black_plus_sign,,,null,,,,,,,,,,,,,,,,,,,,,,,
null,,learn_phase(without_color)1,305497,,,,,,,,black_plus_sign,,,null,object_14a.png,object_02b.png,,,,,,,,,,,,,,,,,,,,,
null,,black_cross(without_color)1,306163,,,,,,,,blue,,,null,object_14a.png,object_02b.png,,,,,,,,,,,,,,,,,,,,,
null,,rt_plussign_withcolor1,306664,,,,,,,,blue,,,null,object_14a.png,object_02b.png,,,,,,,,,,,,,,,,,,,,,
null,,rt_thecrossant_black1,308001,,,,,,,,black_plus_sign,,,null,,,,,,,,,,1,,,,,,,,,,,,,
null,,color_black1,308102,,,,,,,,black_plus_sign,,,null,,,,,,,,,,,,,,,,,,,,,,,
null,,learn_phase(without_color)1,311615,,,,,,,,black_plus_sign,,,null,object_01c.png,object_01b.png,,,,,,,,,,,,,,,,,,,,,
null,,black_cross(without_color)1,312081,,,,,,,,blue,,,null,object_01c.png,object_01b.png,,,,,,,,,,,,,,,,,,,,,
null,,rt_plussign_withcolor1,312594,,,,,,,,blue,,,null,object_01c.png,object_01b.png,,,,,,,,,,,,,,,,,,,,,
981,,rt_thecrossant_black1,314131,,,,,,,,black_plus_sign,,,49,,,1,,,,,,,1,,,,,,,,,,,,,
null,,color_black1,314232,,,,,,,,black_plus_sign,,,null,,,,,,,,,,,,,,,,,,,,,,,
null,,learn_phase(without_color)1,317734,,,,,,,,black_plus_sign,,,null,object_03c.png,object_10a.png,,,,,,,,,,,,,,,,,,,,,
null,,black_cross(without_color)1,318695,,,,,,,,blue,,,null,object_03c.png,object_10a.png,,,,,,,,,,,,,,,,,,,,,
null,,rt_plussign_withcolor1,319196,,,,,,,,blue,,,null,object_03c.png,object_10a.png,,,,,,,,,,,,,,,,,,,,,
587.5,,rt_thecrossant_black1,320239,,,,,,,,black_plus_sign,,,49,,,1,,,,,,,1,,,,,,,,,,,,,
null,,color_black1,320340,,,,,,,,black_plus_sign,,,null,,,,,,,,,,,,,,,,,,,,,,,
null,,learn_phase(without_color)1,323842,,,,,,,,black_plus_sign,,,null,object_13c.png,object_06b.png,,,,,,,,,,,,,,,,,,,,,
null,,black_cross(without_color)1,324810,,,,,,,,green,,,null,object_13c.png,object_06b.png,,,,,,,,,,,,,,,,,,,,,
null,,rt_plussign_withcolor1,325311,,,,,,,,green,,,null,object_13c.png,object_06b.png,,,,,,,,,,,,,,,,,,,,,
1369.3999999761581,,rt_thecrossant_black1,326347,,,,,,,,black_plus_sign,,,50,,,1,,,,,,,1,,,,,,,,,,,,,
null,,color_black1,326448,,,,,,,,black_plus_sign,,,null,,,,,,,,,,,,,,,,,,,,,,,
null,,learn_phase(without_color)1,329949,,,,,,,,black_plus_sign,,,null,object_05b.png,object_11b.png,,,,,,,,,,,,,,,,,,,,,
null,,black_cross(without_color)1,330370,,,,,,,,blue,,,null,object_05b.png,object_11b.png,,,,,,,,,,,,,,,,,,,,,
null,,rt_plussign_withcolor1,330871,,,,,,,,blue,,,null,object_05b.png,object_11b.png,,,,,,,,,,,,,,,,,,,,,
2265.2000000476837,,rt_thecrossant_black1,332454,,,,,,,,black_plus_sign,,,49,,,1,,,,,,,1,,,,,,,,,,,,,
null,,color_black1,332556,,,,,,,,black_plus_sign,,,null,,,,,,,,,,,,,,,,,,,,,,,
null,,learn_phase(without_color)1,336058,,,,,,,,black_plus_sign,,,null,object_10c.png,object_09c.png,,,,,,,,,,,,,,,,,,,,,
null,,black_cross(without_color)1,336881,,,,,,,,blue,,,null,object_10c.png,object_09c.png,,,,,,,,,,,,,,,,,,,,,
null,,rt_plussign_withcolor1,337382,,,,,,,,blue,,,null,object_10c.png,object_09c.png,,,,,,,,,,,,,,,,,,,,,
null,,rt_thecrossant_black1,338562,,,,,,,,black_plus_sign,,,null,,,,,,,,,,1,,,,,,,,,,,,,
null,,color_black1,338663,,,,,,,,black_plus_sign,,,null,,,,,,,,,,,,,,,,,,,,,,,
null,,learn_phase(without_color)1,342165,,,,,,,,black_plus_sign,,,null,object_11a.png,object_14c.png,,,,,,,,,,,,,,,,,,,,,
null,,black_cross(without_color)1,343087,,,,,,,,green,,,null,object_11a.png,object_14c.png,,,,,,,,,,,,,,,,,,,,,
500,,rt_plussign_withcolor1,343597,,,,,,,,green,,,50,object_11a.png,object_14c.png,,,,,,,,,,,,,,,,,,,,,
null,,rt_thecrossant_black1,344678,,,,,,,,black_plus_sign,,,null,,,1,,,,,,,1,,,,,,,,,,,,,
null,,color_black1,344780,,,,,,,,black_plus_sign,,,null,,,,,,,,,,,,,,,,,,,,,,,
null,,learn_phase(without_color)1,348282,,,,,,,,black_plus_sign,,,null,object_02a.png,object_07b.png,,,,,,,,,,,,,,,,,,,,,
null,,black_cross(without_color)1,348812,,,,,,,,green,,,null,object_02a.png,object_07b.png,,,,,,,,,,,,,,,,,,,,,
null,,rt_plussign_withcolor1,349313,,,,,,,,green,,,null,object_02a.png,object_07b.png,,,,,,,,,,,,,,,,,,,,,
1058.3999999761581,,rt_thecrossant_black1,350787,,,,,,,,black_plus_sign,,,50,,,1,,,,,,,1,,,,,,,,,,,,,
null,,color_black1,350890,,,,,,,,black_plus_sign,,,null,,,,,,,,,,,,,,,,,,,,,,,
null,,learn_phase(without_color)1,354391,,,,,,,,black_plus_sign,,,null,object_05a.png,object_13a.png,,,,,,,,,,,,,,,,,,,,,
null,,black_cross(without_color)1,354814,,,,,,,,green,,,null,object_05a.png,object_13a.png,,,,,,,,,,,,,,,,,,,,,
null,,rt_plussign_withcolor1,355315,,,,,,,,green,,,null,object_05a.png,object_13a.png,,,,,,,,,,,,,,,,,,,,,
870.1000000238419,,rt_thecrossant_black1,356895,,,,,,,,black_plus_sign,,,49,,,0,,,,,,,0.9090909090909091,,,,,,,,,,,,,
null,,color_black1,356996,,,,,,,,black_plus_sign,,,null,,,,,,,,,,,,,,,,,,,,,,,
null,,learn_phase(without_color)1,360498,,,,,,,,black_plus_sign,,,null,object_07a.png,object_08a.png,,,,,,,,,,,,,,,,,,,,,
null,,black_cross(without_color)1,361428,,,,,,,,green,,,null,object_07a.png,object_08a.png,,,,,,,,,,,,,,,,,,,,,
null,,rt_plussign_withcolor1,361929,,,,,,,,green,,,null,object_07a.png,object_08a.png,,,,,,,,,,,,,,,,,,,,,
633.2999999523163,,rt_thecrossant_black1,363002,,,,,,,,black_plus_sign,,,50,,,1,,,,,,,0.9166666666666666,,,,,,,,,,,,,
null,,color_black1,363103,,,,,,,,black_plus_sign,,,null,,,,,,,,,,,,,,,,,,,,,,,
null,,learn_phase(without_color)1,366604,,,,,,,,black_plus_sign,,,null,object_04c.png,object_05c.png,,,,,,,,,,,,,,,,,,,,,
null,,black_cross(without_color)1,367592,,,,,,,,green,,,null,object_04c.png,object_05c.png,,,,,,,,,,,,,,,,,,,,,
445,,rt_plussign_withcolor1,368094,,,,,,,,green,,,50,object_04c.png,object_05c.png,,,,,,,,,,,,,,,,,,,,,
null,,rt_thecrossant_black1,369109,,,,,,,,black_plus_sign,,,null,,,1,,,,,,,0.9230769230769231,,,,,,,,,,,,,
null,,color_black1,369210,,,,,,,,black_plus_sign,,,null,,,,,,,,,,,,,,,,,,,,,,,
null,,thebreak,369312,,,,,,,,<p></p>,,,null,,,,,,,,,,,,,,,,,,,,,,,
947.8999999761581,,intro_0,370260,,,,,,,,instruct,,,32,,,,,,,,,,,,,,,,,,,,,,,
8547.099999904633,,directmemory_phase1,378808,,,,,,,,object_06b.png,,,50,,,1,,object_02a.png,object_13c.png,object_05b.png,object_13c.png,,1,1,,,,,,,,,,,,
1963.6999999284744,,directmemory_phase1,380773,,,,,,,,object_08a.png,,,51,,,1,,object_12a.png,object_14a.png,object_07a.png,object_07a.png,,1,1,,,,,,,,,,,,
3976.899999976158,,directmemory_phase1,384751,,,,,,,,object_01b.png,,,49,,,1,,object_01c.png,object_14a.png,object_11a.png,object_01c.png,,1,1,,,,,,,,,,,,
2096.399999976158,,directmemory_phase1,386849,,,,,,,,object_09a.png,,,51,,,1,,object_15c.png,object_01c.png,object_12a.png,object_12a.png,,1,1,,,,,,,,,,,,
3363.6999999284744,,directmemory_phase1,390214,,,,,,,,object_14c.png,,,51,,,1,,object_13c.png,object_07a.png,object_11a.png,object_11a.png,,1,1,,,,,,,,,,,,
1520.7000000476837,,directmemory_phase1,391736,,,,,,,,object_07b.png,,,50,,,0,,object_12a.png,object_04c.png,object_02a.png,object_02a.png,,0.8333333333333334,0,,,,,,,,,,,,
2557.600000023842,,directmemory_phase1,394294,,,,,,,,object_02b.png,,,50,,,1,,object_13c.png,object_14a.png,object_10b.png,object_14a.png,,0.8571428571428571,1,,,,,,,,,,,,
4894.899999976158,,directmemory_phase1,399190,,,,,,,,object_09c.png,,,51,,,0,,object_13c.png,object_10c.png,object_10b.png,object_10c.png,,0.75,0,,,,,,,,,,,,
2337.600000023842,,directmemory_phase1,401529,,,,,,,,object_10a.png,,,49,,,0,,object_07c.png,object_14a.png,object_03c.png,object_03c.png,,0.6666666666666666,0,,,,,,,,,,,,
6309.299999952316,,directmemory_phase1,407839,,,,,,,,object_13a.png,,,50,,,1,,object_11a.png,object_05a.png,object_07c.png,object_05a.png,,0.7,1,,,,,,,,,,,,
123.59999990463257,,directmemory_phase1,407964,,,,,,,,object_06c.png,,,50,,,1,,object_07c.png,object_15c.png,object_11a.png,object_15c.png,,0.7272727272727273,1,,,,,,,,,,,,
7897.700000047684,,directmemory_phase1,415862,,,,,,,,object_13b.png,,,50,,,0,,object_07c.png,object_02a.png,object_05a.png,object_07c.png,,0.6666666666666666,0,,,,,,,,,,,,
6539.099999904633,,directmemory_phase1,422402,,,,,,,,object_04a.png,,,50,,,0,,object_11a.png,object_13c.png,object_10b.png,object_10b.png,,0.6153846153846154,0,,,,,,,,,,,,
4240.799999952316,,directmemory_phase1,426644,,,,,,,,object_05c.png,,,50,,,1,,object_10b.png,object_04c.png,object_14a.png,object_04c.png,,0.6428571428571429,1,,,,,,,,,,,,
4324,,directmemory_phase1,430969,,,,,,,,object_11b.png,,,50,,,0,,object_07a.png,object_15c.png,object_05b.png,object_05b.png,,0.6,0,,,,,,,,,,,,
null,,thebreak,431070,,,,,,,,<p></p>,,,null,,,,,,,,,,,,,,,,,,,,,,,
803.7999999523163,,intro_0,431875,,,,,,,,instruct,,,32,,,,,,,,,,,,,,,,,,,,,,,
null,,learn_phase(without_color)2,435375,,,,,,,,black_plus_sign,,,null,object_11a.png,object_14c.png,,,,,,,,,,,,,,,,,,,,,
null,,black_cross(without_color)2,436454,,,,,,,,green,,,null,object_11a.png,object_14c.png,,,,,,,,,,,,,,,,,,,,,
null,,rt_plussign_withcolor2,436955,,,,,,,,green,,,null,object_11a.png,object_14c.png,,,,,,,,,,,,,,,,,,,,,
1656.5,,rt_thecrossant_black2,437879,,,,,,,,black_plus_sign,,,50,,,1,,,,,,,1,,,,,,,,,,,,,
null,,color_black2,437980,,,,,,,,black_plus_sign,,,null,,,,,,,,,,,,,,,,,,,,,,,
null,,learn_phase(without_color)2,441482,,,,,,,,black_plus_sign,,,null,object_03c.png,object_10a.png,,,,,,,,,,,,,,,,,,,,,
null,,black_cross(without_color)2,442096,,,,,,,,green,,,null,object_03c.png,object_10a.png,,,,,,,,,,,,,,,,,,,,,
null,,rt_plussign_withcolor2,442598,,,,,,,,green,,,null,object_03c.png,object_10a.png,,,,,,,,,,,,,,,,,,,,,
1365.7000000476837,,rt_thecrossant_black2,443987,,,,,,,,black_plus_sign,,,50,,,1,,,,,,,1,,,,,,,,,,,,,
null,,color_black2,444090,,,,,,,,black_plus_sign,,,null,,,,,,,,,,,,,,,,,,,,,,,
null,,learn_phase(without_color)2,447591,,,,,,,,black_plus_sign,,,null,object_14a.png,object_02b.png,,,,,,,,,,,,,,,,,,,,,
null,,black_cross(without_color)2,448501,,,,,,,,blue,,,null,object_14a.png,object_02b.png,,,,,,,,,,,,,,,,,,,,,
null,,rt_plussign_withcolor2,449001,,,,,,,,blue,,,null,object_14a.png,object_02b.png,,,,,,,,,,,,,,,,,,,,,
828.1000000238419,,rt_thecrossant_black2,450095,,,,,,,,black_plus_sign,,,49,,,1,,,,,,,1,,,,,,,,,,,,,
null,,color_black2,450198,,,,,,,,black_plus_sign,,,null,,,,,,,,,,,,,,,,,,,,,,,
null,,learn_phase(without_color)2,453700,,,,,,,,black_plus_sign,,,null,object_07a.png,object_08a.png,,,,,,,,,,,,,,,,,,,,,
null,,black_cross(without_color)2,454209,,,,,,,,green,,,null,object_07a.png,object_08a.png,,,,,,,,,,,,,,,,,,,,,
427.7000000476837,,rt_plussign_withcolor2,454710,,,,,,,,green,,,50,object_07a.png,object_08a.png,,,,,,,,,,,,,,,,,,,,,
null,,rt_thecrossant_black2,456205,,,,,,,,black_plus_sign,,,null,,,1,,,,,,,1,,,,,,,,,,,,,
null,,color_black2,456307,,,,,,,,black_plus_sign,,,null,,,,,,,,,,,,,,,,,,,,,,,
null,,learn_phase(without_color)2,459809,,,,,,,,black_plus_sign,,,null,object_05a.png,object_13a.png,,,,,,,,,,,,,,,,,,,,,
null,,black_cross(without_color)2,460638,,,,,,,,green,,,null,object_05a.png,object_13a.png,,,,,,,,,,,,,,,,,,,,,
null,,rt_plussign_withcolor2,461139,,,,,,,,green,,,null,object_05a.png,object_13a.png,,,,,,,,,,,,,,,,,,,,,
1201.2999999523163,,rt_thecrossant_black2,462314,,,,,,,,black_plus_sign,,,50,,,1,,,,,,,1,,,,,,,,,,,,,
null,,color_black2,462415,,,,,,,,black_plus_sign,,,null,,,,,,,,,,,,,,,,,,,,,,,
null,,learn_phase(without_color)2,465916,,,,,,,,black_plus_sign,,,null,object_01c.png,object_01b.png,,,,,,,,,,,,,,,,,,,,,
null,,black_cross(without_color)2,466690,,,,,,,,green,,,null,object_01c.png,object_01b.png,,,,,,,,,,,,,,,,,,,,,
null,,rt_plussign_withcolor2,467196,,,,,,,,green,,,null,object_01c.png,object_01b.png,,,,,,,,,,,,,,,,,,,,,
1548.1000000238419,,rt_thecrossant_black2,468426,,,,,,,,black_plus_sign,,,50,,,1,,,,,,,1,,,,,,,,,,,,,
null,,color_black2,468536,,,,,,,,black_plus_sign,,,null,,,,,,,,,,,,,,,,,,,,,,,
null,,learn_phase(without_color)2,472038,,,,,,,,black_plus_sign,,,null,object_07c.png,object_13b.png,,,,,,,,,,,,,,,,,,,,,
null,,black_cross(without_color)2,472835,,,,,,,,blue,,,null,object_07c.png,object_13b.png,,,,,,,,,,,,,,,,,,,,,
356.89999997615814,,rt_plussign_withcolor2,473336,,,,,,,,blue,,,49,object_07c.png,object_13b.png,,,,,,,,,,,,,,,,,,,,,
null,,rt_thecrossant_black2,474543,,,,,,,,black_plus_sign,,,null,,,1,,,,,,,1,,,,,,,,,,,,,
null,,color_black2,474644,,,,,,,,black_plus_sign,,,null,,,,,,,,,,,,,,,,,,,,,,,
null,,learn_phase(without_color)2,478146,,,,,,,,black_plus_sign,,,null,object_05b.png,object_11b.png,,,,,,,,,,,,,,,,,,,,,
null,,black_cross(without_color)2,479059,,,,,,,,blue,,,null,object_05b.png,object_11b.png,,,,,,,,,,,,,,,,,,,,,
null,,rt_plussign_withcolor2,479561,,,,,,,,blue,,,null,object_05b.png,object_11b.png,,,,,,,,,,,,,,,,,,,,,
null,,rt_thecrossant_black2,480651,,,,,,,,black_plus_sign,,,null,,,,,,,,,,1,,,,,,,,,,,,,
null,,color_black2,480752,,,,,,,,black_plus_sign,,,null,,,,,,,,,,,,,,,,,,,,,,,
null,,learn_phase(without_color)2,484254,,,,,,,,black_plus_sign,,,null,object_10c.png,object_09c.png,,,,,,,,,,,,,,,,,,,,,
null,,black_cross(without_color)2,484980,,,,,,,,blue,,,null,object_10c.png,object_09c.png,,,,,,,,,,,,,,,,,,,,,
null,,rt_plussign_withcolor2,485481,,,,,,,,blue,,,null,object_10c.png,object_09c.png,,,,,,,,,,,,,,,,,,,,,
1016.1000000238419,,rt_thecrossant_black2,486759,,,,,,,,black_plus_sign,,,49,,,1,,,,,,,1,,,,,,,,,,,,,
null,,color_black2,486860,,,,,,,,black_plus_sign,,,null,,,,,,,,,,,,,,,,,,,,,,,
null,,learn_phase(without_color)2,490366,,,,,,,,black_plus_sign,,,null,object_15c.png,object_06c.png,,,,,,,,,,,,,,,,,,,,,
null,,black_cross(without_color)2,491325,,,,,,,,green,,,null,object_15c.png,object_06c.png,,,,,,,,,,,,,,,,,,,,,
null,,rt_plussign_withcolor2,491826,,,,,,,,green,,,null,object_15c.png,object_06c.png,,,,,,,,,,,,,,,,,,,,,
1756.5999999046326,,rt_thecrossant_black2,492871,,,,,,,,black_plus_sign,,,50,,,1,,,,,,,1,,,,,,,,,,,,,
null,,color_black2,492972,,,,,,,,black_plus_sign,,,null,,,,,,,,,,,,,,,,,,,,,,,
null,,learn_phase(without_color)2,496474,,,,,,,,black_plus_sign,,,null,object_13c.png,object_06b.png,,,,,,,,,,,,,,,,,,,,,
null,,black_cross(without_color)2,497457,,,,,,,,blue,,,null,object_13c.png,object_06b.png,,,,,,,,,,,,,,,,,,,,,
427.89999997615814,,rt_plussign_withcolor2,497959,,,,,,,,blue,,,49,object_13c.png,object_06b.png,,,,,,,,,,,,,,,,,,,,,
null,,rt_thecrossant_black2,498978,,,,,,,,black_plus_sign,,,null,,,1,,,,,,,1,,,,,,,,,,,,,
null,,color_black2,499080,,,,,,,,black_plus_sign,,,null,,,,,,,,,,,,,,,,,,,,,,,
null,,learn_phase(without_color)2,502581,,,,,,,,black_plus_sign,,,null,object_10b.png,object_04a.png,,,,,,,,,,,,,,,,,,,,,
null,,black_cross(without_color)2,503579,,,,,,,,blue,,,null,object_10b.png,object_04a.png,,,,,,,,,,,,,,,,,,,,,
453,,rt_plussign_withcolor2,504081,,,,,,,,blue,,,49,object_10b.png,object_04a.png,,,,,,,,,,,,,,,,,,,,,
null,,rt_thecrossant_black2,505086,,,,,,,,black_plus_sign,,,null,,,1,,,,,,,1,,,,,,,,,,,,,
null,,color_black2,505194,,,,,,,,black_plus_sign,,,null,,,,,,,,,,,,,,,,,,,,,,,
null,,learn_phase(without_color)2,508696,,,,,,,,black_plus_sign,,,null,object_02a.png,object_07b.png,,,,,,,,,,,,,,,,,,,,,
null,,black_cross(without_color)2,509555,,,,,,,,blue,,,null,object_02a.png,object_07b.png,,,,,,,,,,,,,,,,,,,,,
435,,rt_plussign_withcolor2,510056,,,,,,,,blue,,,49,object_02a.png,object_07b.png,,,,,,,,,,,,,,,,,,,,,
null,,rt_thecrossant_black2,511214,,,,,,,,black_plus_sign,,,null,,,1,,,,,,,1,,,,,,,,,,,,,
null,,color_black2,511316,,,,,,,,black_plus_sign,,,null,,,,,,,,,,,,,,,,,,,,,,,
null,,learn_phase(without_color)2,514818,,,,,,,,black_plus_sign,,,null,object_12a.png,object_09a.png,,,,,,,,,,,,,,,,,,,,,
null,,black_cross(without_color)2,515711,,,,,,,,green,,,null,object_12a.png,object_09a.png,,,,,,,,,,,,,,,,,,,,,
null,,rt_plussign_withcolor2,516212,,,,,,,,green,,,null,object_12a.png,object_09a.png,,,,,,,,,,,,,,,,,,,,,
1259.9000000953674,,rt_thecrossant_black2,517324,,,,,,,,black_plus_sign,,,50,,,1,,,,,,,1,,,,,,,,,,,,,
null,,color_black2,517439,,,,,,,,black_plus_sign,,,null,,,,,,,,,,,,,,,,,,,,,,,
null,,learn_phase(without_color)2,520941,,,,,,,,black_plus_sign,,,null,object_04c.png,object_05c.png,,,,,,,,,,,,,,,,,,,,,
null,,black_cross(without_color)2,521454,,,,,,,,green,,,null,object_04c.png,object_05c.png,,,,,,,,,,,,,,,,,,,,,
null,,rt_plussign_withcolor2,521956,,,,,,,,green,,,null,object_04c.png,object_05c.png,,,,,,,,,,,,,,,,,,,,,
1379.8000000715256,,rt_thecrossant_black2,523446,,,,,,,,black_plus_sign,,,50,,,1,,,,,,,1,,,,,,,,,,,,,
null,,color_black2,523548,,,,,,,,black_plus_sign,,,null,,,,,,,,,,,,,,,,,,,,,,,
null,,thebreak,523649,,,,,,,,<p></p>,,,null,,,,,,,,,,,,,,,,,,,,,,,
876.3999999761581,,intro_0,524526,,,,,,,,instruct,,,32,,,,,,,,,,,,,,,,,,,,,,,
8404,,directmemory_phase2,532931,,,,,,,,object_06c.png,,,49,,,1,,object_15c.png,object_10c.png,object_02a.png,object_15c.png,,0.625,1,,,,,,,,,,,,
1992.8999999761581,,directmemory_phase2,534925,,,,,,,,object_04a.png,,,51,,,1,,object_01c.png,object_05b.png,object_10b.png,object_10b.png,,0.6470588235294118,1,,,,,,,,,,,,
2434,,directmemory_phase2,537360,,,,,,,,object_13b.png,,,49,,,1,,object_07c.png,object_05b.png,object_12a.png,object_07c.png,,0.6666666666666666,1,,,,,,,,,,,,
4844.100000023842,,directmemory_phase2,542205,,,,,,,,object_05c.png,,,51,,,1,,object_05b.png,object_14a.png,object_04c.png,object_04c.png,,0.6842105263157895,1,,,,,,,,,,,,
2102.399999976158,,directmemory_phase2,544308,,,,,,,,object_10a.png,,,50,,,1,,object_05b.png,object_03c.png,object_01c.png,object_03c.png,,0.7,1,,,,,,,,,,,,
2729.5999999046326,,directmemory_phase2,547039,,,,,,,,object_01b.png,,,49,,,1,,object_01c.png,object_10b.png,object_04c.png,object_01c.png,,0.7142857142857143,1,,,,,,,,,,,,
1341.6999999284744,,directmemory_phase2,548381,,,,,,,,object_09a.png,,,49,,,1,,object_12a.png,object_11a.png,object_04c.png,object_12a.png,,0.7272727272727273,1,,,,,,,,,,,,
1749.1000000238419,,directmemory_phase2,550132,,,,,,,,object_11b.png,,,50,,,1,,object_14a.png,object_05b.png,object_02a.png,object_05b.png,,0.7391304347826086,1,,,,,,,,,,,,
3471.7999999523163,,directmemory_phase2,553605,,,,,,,,object_14c.png,,,49,,,1,,object_11a.png,object_02a.png,object_07a.png,object_11a.png,,0.75,1,,,,,,,,,,,,
2293,,directmemory_phase2,555899,,,,,,,,object_07b.png,,,49,,,1,,object_02a.png,object_11a.png,object_04c.png,object_02a.png,,0.76,1,,,,,,,,,,,,
1297.3000000715256,,directmemory_phase2,557197,,,,,,,,object_08a.png,,,50,,,1,,object_14a.png,object_07a.png,object_07c.png,object_07a.png,,0.7692307692307693,1,,,,,,,,,,,,
4229.100000023842,,directmemory_phase2,561427,,,,,,,,object_13a.png,,,49,,,1,,object_05a.png,object_10c.png,object_13c.png,object_05a.png,,0.7777777777777778,1,,,,,,,,,,,,
4880,,directmemory_phase2,566308,,,,,,,,object_06b.png,,,49,,,1,,object_13c.png,object_15c.png,object_12a.png,object_13c.png,,0.7857142857142857,1,,,,,,,,,,,,
1206.5,,directmemory_phase2,567516,,,,,,,,object_02b.png,,,50,,,1,,object_05a.png,object_14a.png,object_07c.png,object_14a.png,,0.7931034482758621,1,,,,,,,,,,,,
3748.899999976158,,directmemory_phase2,571265,,,,,,,,object_09c.png,,,50,,,1,,object_11a.png,object_10c.png,object_04c.png,object_10c.png,,0.8,1,,,,,,,,,,,,
null,,thebreak,571367,,,,,,,,<p></p>,,,null,,,,,,,,,,,,,,,,,,,,,,,
669.5,,intro_0,572036,,,,,,,,instruct,,,32,,,,,,,,,,,,,,,,,,,,,,,
null,,learn_phase(without_color)3,575537,,,,,,,,black_plus_sign,,,null,object_07a.png,object_08a.png,,,,,,,,,,,,,,,,,,,,,
null,,black_cross(without_color)3,576099,,,,,,,,blue,,,null,object_07a.png,object_08a.png,,,,,,,,,,,,,,,,,,,,,
null,,rt_plussign_withcolor3,576600,,,,,,,,blue,,,null,object_07a.png,object_08a.png,,,,,,,,,,,,,,,,,,,,,
949.1000000238419,,rt_thecrossant_black3,578041,,,,,,,,black_plus_sign,,,49,,,1,,,,,,,1,,,,,,,,,,,,,
null,,color_black3,578143,,,,,,,,black_plus_sign,,,null,,,,,,,,,,,,,,,,,,,,,,,
null,,learn_phase(without_color)3,581645,,,,,,,,black_plus_sign,,,null,object_10c.png,object_09c.png,,,,,,,,,,,,,,,,,,,,,
null,,black_cross(without_color)3,582274,,,,,,,,blue,,,null,object_10c.png,object_09c.png,,,,,,,,,,,,,,,,,,,,,
null,,rt_plussign_withcolor3,582776,,,,,,,,blue,,,null,object_10c.png,object_09c.png,,,,,,,,,,,,,,,,,,,,,
752.1999999284744,,rt_thecrossant_black3,584156,,,,,,,,black_plus_sign,,,49,,,1,,,,,,,1,,,,,,,,,,,,,
null,,color_black3,584257,,,,,,,,black_plus_sign,,,null,,,,,,,,,,,,,,,,,,,,,,,
null,,learn_phase(without_color)3,587759,,,,,,,,black_plus_sign,,,null,object_10b.png,object_04a.png,,,,,,,,,,,,,,,,,,,,,
null,,black_cross(without_color)3,588400,,,,,,,,green,,,null,object_10b.png,object_04a.png,,,,,,,,,,,,,,,,,,,,,
348.5,,rt_plussign_withcolor3,588901,,,,,,,,green,,,50,object_10b.png,object_04a.png,,,,,,,,,,,,,,,,,,,,,
null,,rt_thecrossant_black3,590262,,,,,,,,black_plus_sign,,,null,,,1,,,,,,,1,,,,,,,,,,,,,
null,,color_black3,590363,,,,,,,,black_plus_sign,,,null,,,,,,,,,,,,,,,,,,,,,,,
null,,learn_phase(without_color)3,593864,,,,,,,,black_plus_sign,,,null,object_15c.png,object_06c.png,,,,,,,,,,,,,,,,,,,,,
null,,black_cross(without_color)3,594348,,,,,,,,green,,,null,object_15c.png,object_06c.png,,,,,,,,,,,,,,,,,,,,,
null,,rt_plussign_withcolor3,594848,,,,,,,,green,,,null,object_15c.png,object_06c.png,,,,,,,,,,,,,,,,,,,,,
1254.0999999046326,,rt_thecrossant_black3,596368,,,,,,,,black_plus_sign,,,50,,,1,,,,,,,1,,,,,,,,,,,,,
null,,color_black3,596469,,,,,,,,black_plus_sign,,,null,,,,,,,,,,,,,,,,,,,,,,,
null,,learn_phase(without_color)3,599971,,,,,,,,black_plus_sign,,,null,object_02a.png,object_07b.png,,,,,,,,,,,,,,,,,,,,,
null,,black_cross(without_color)3,600818,,,,,,,,blue,,,null,object_02a.png,object_07b.png,,,,,,,,,,,,,,,,,,,,,
null,,rt_plussign_withcolor3,601320,,,,,,,,blue,,,null,object_02a.png,object_07b.png,,,,,,,,,,,,,,,,,,,,,
824.5,,rt_thecrossant_black3,602476,,,,,,,,black_plus_sign,,,49,,,1,,,,,,,1,,,,,,,,,,,,,
null,,color_black3,602577,,,,,,,,black_plus_sign,,,null,,,,,,,,,,,,,,,,,,,,,,,
null,,learn_phase(without_color)3,606080,,,,,,,,black_plus_sign,,,null,object_12a.png,object_09a.png,,,,,,,,,,,,,,,,,,,,,
null,,black_cross(without_color)3,606669,,,,,,,,green,,,null,object_12a.png,object_09a.png,,,,,,,,,,,,,,,,,,,,,
null,,rt_plussign_withcolor3,607169,,,,,,,,green,,,null,object_12a.png,object_09a.png,,,,,,,,,,,,,,,,,,,,,
1131,,rt_thecrossant_black3,608582,,,,,,,,black_plus_sign,,,50,,,1,,,,,,,1,,,,,,,,,,,,,
null,,color_black3,608684,,,,,,,,black_plus_sign,,,null,,,,,,,,,,,,,,,,,,,,,,,
null,,learn_phase(without_color)3,612186,,,,,,,,black_plus_sign,,,null,object_03c.png,object_10a.png,,,,,,,,,,,,,,,,,,,,,
null,,black_cross(without_color)3,613267,,,,,,,,green,,,null,object_03c.png,object_10a.png,,,,,,,,,,,,,,,,,,,,,
null,,rt_plussign_withcolor3,613769,,,,,,,,green,,,null,object_03c.png,object_10a.png,,,,,,,,,,,,,,,,,,,,,
751.1000000238419,,rt_thecrossant_black3,614692,,,,,,,,black_plus_sign,,,50,,,1,,,,,,,1,,,,,,,,,,,,,
null,,color_black3,614794,,,,,,,,black_plus_sign,,,null,,,,,,,,,,,,,,,,,,,,,,,
null,,learn_phase(without_color)3,618295,,,,,,,,black_plus_sign,,,null,object_11a.png,object_14c.png,,,,,,,,,,,,,,,,,,,,,
null,,black_cross(without_color)3,618991,,,,,,,,blue,,,null,object_11a.png,object_14c.png,,,,,,,,,,,,,,,,,,,,,
null,,rt_plussign_withcolor3,619493,,,,,,,,blue,,,null,object_11a.png,object_14c.png,,,,,,,,,,,,,,,,,,,,,
1339.5999999046326,,rt_thecrossant_black3,620799,,,,,,,,black_plus_sign,,,49,,,1,,,,,,,1,,,,,,,,,,,,,
null,,color_black3,620901,,,,,,,,black_plus_sign,,,null,,,,,,,,,,,,,,,,,,,,,,,
null,,learn_phase(without_color)3,624403,,,,,,,,black_plus_sign,,,null,object_05b.png,object_11b.png,,,,,,,,,,,,,,,,,,,,,
null,,black_cross(without_color)3,625058,,,,,,,,green,,,null,object_05b.png,object_11b.png,,,,,,,,,,,,,,,,,,,,,
null,,rt_plussign_withcolor3,625559,,,,,,,,green,,,null,object_05b.png,object_11b.png,,,,,,,,,,,,,,,,,,,,,
1328.8999999761581,,rt_thecrossant_black3,626906,,,,,,,,black_plus_sign,,,50,,,1,,,,,,,1,,,,,,,,,,,,,
null,,color_black3,627008,,,,,,,,black_plus_sign,,,null,,,,,,,,,,,,,,,,,,,,,,,
null,,learn_phase(without_color)3,630509,,,,,,,,black_plus_sign,,,null,object_14a.png,object_02b.png,,,,,,,,,,,,,,,,,,,,,
null,,black_cross(without_color)3,631559,,,,,,,,green,,,null,object_14a.png,object_02b.png,,,,,,,,,,,,,,,,,,,,,
null,,rt_plussign_withcolor3,632060,,,,,,,,green,,,null,object_14a.png,object_02b.png,,,,,,,,,,,,,,,,,,,,,
1163.5,,rt_thecrossant_black3,633013,,,,,,,,black_plus_sign,,,50,,,1,,,,,,,1,,,,,,,,,,,,,
null,,color_black3,633115,,,,,,,,black_plus_sign,,,null,,,,,,,,,,,,,,,,,,,,,,,
null,,learn_phase(without_color)3,636617,,,,,,,,black_plus_sign,,,null,object_04c.png,object_05c.png,,,,,,,,,,,,,,,,,,,,,
null,,black_cross(without_color)3,637512,,,,,,,,blue,,,null,object_04c.png,object_05c.png,,,,,,,,,,,,,,,,,,,,,
null,,rt_plussign_withcolor3,638014,,,,,,,,blue,,,null,object_04c.png,object_05c.png,,,,,,,,,,,,,,,,,,,,,
1368,,rt_thecrossant_black3,639123,,,,,,,,black_plus_sign,,,49,,,1,,,,,,,1,,,,,,,,,,,,,
null,,color_black3,639224,,,,,,,,black_plus_sign,,,null,,,,,,,,,,,,,,,,,,,,,,,
null,,learn_phase(without_color)3,642726,,,,,,,,black_plus_sign,,,null,object_13c.png,object_06b.png,,,,,,,,,,,,,,,,,,,,,
null,,black_cross(without_color)3,643657,,,,,,,,green,,,null,object_13c.png,object_06b.png,,,,,,,,,,,,,,,,,,,,,
null,,rt_plussign_withcolor3,644157,,,,,,,,green,,,null,object_13c.png,object_06b.png,,,,,,,,,,,,,,,,,,,,,
1091,,rt_thecrossant_black3,645230,,,,,,,,black_plus_sign,,,50,,,1,,,,,,,1,,,,,,,,,,,,,
null,,color_black3,645331,,,,,,,,black_plus_sign,,,null,,,,,,,,,,,,,,,,,,,,,,,
null,,learn_phase(without_color)3,648832,,,,,,,,black_plus_sign,,,null,object_05a.png,object_13a.png,,,,,,,,,,,,,,,,,,,,,
null,,black_cross(without_color)3,649860,,,,,,,,blue,,,null,object_05a.png,object_13a.png,,,,,,,,,,,,,,,,,,,,,
null,,rt_plussign_withcolor3,650361,,,,,,,,blue,,,null,object_05a.png,object_13a.png,,,,,,,,,,,,,,,,,,,,,
1278.8999999761581,,rt_thecrossant_black3,651336,,,,,,,,black_plus_sign,,,49,,,1,,,,,,,1,,,,,,,,,,,,,
null,,color_black3,651437,,,,,,,,black_plus_sign,,,null,,,,,,,,,,,,,,,,,,,,,,,
null,,learn_phase(without_color)3,654939,,,,,,,,black_plus_sign,,,null,object_01c.png,object_01b.png,,,,,,,,,,,,,,,,,,,,,
null,,black_cross(without_color)3,655629,,,,,,,,blue,,,null,object_01c.png,object_01b.png,,,,,,,,,,,,,,,,,,,,,
null,,rt_plussign_withcolor3,656129,,,,,,,,blue,,,null,object_01c.png,object_01b.png,,,,,,,,,,,,,,,,,,,,,
1155.7000000476837,,rt_thecrossant_black3,657442,,,,,,,,black_plus_sign,,,49,,,1,,,,,,,1,,,,,,,,,,,,,
null,,color_black3,657543,,,,,,,,black_plus_sign,,,null,,,,,,,,,,,,,,,,,,,,,,,
null,,learn_phase(without_color)3,661057,,,,,,,,black_plus_sign,,,null,object_07c.png,object_13b.png,,,,,,,,,,,,,,,,,,,,,
null,,black_cross(without_color)3,662146,,,,,,,,green,,,null,object_07c.png,object_13b.png,,,,,,,,,,,,,,,,,,,,,
null,,rt_plussign_withcolor3,662647,,,,,,,,green,,,null,object_07c.png,object_13b.png,,,,,,,,,,,,,,,,,,,,,
1538.2000000476837,,rt_thecrossant_black3,663561,,,,,,,,black_plus_sign,,,50,,,1,,,,,,,1,,,,,,,,,,,,,
null,,color_black3,663663,,,,,,,,black_plus_sign,,,null,,,,,,,,,,,,,,,,,,,,,,,
null,,thebreak,663764,,,,,,,,<p></p>,,,null,,,,,,,,,,,,,,,,,,,,,,,
979,,intro_0,664744,,,,,,,,instruct,,,32,,,,,,,,,,,,,,,,,,,,,,,
1806.8999999761581,,directmemory_phase3,666551,,,,,,,,object_10a.png,,,50,,,1,,object_15c.png,object_03c.png,object_07a.png,object_03c.png,,0.8064516129032258,1,,,,,,,,,,,,
2119,,directmemory_phase3,668671,,,,,,,,object_09c.png,,,51,,,1,,object_15c.png,object_05b.png,object_10c.png,object_10c.png,,0.8125,1,,,,,,,,,,,,
2686,,directmemory_phase3,671358,,,,,,,,object_08a.png,,,50,,,1,,object_13c.png,object_07a.png,object_14a.png,object_07a.png,,0.8181818181818182,1,,,,,,,,,,,,
2056.0999999046326,,directmemory_phase3,673415,,,,,,,,object_04a.png,,,51,,,1,,object_04c.png,object_11a.png,object_10b.png,object_10b.png,,0.8235294117647058,1,,,,,,,,,,,,
1705.9000000953674,,directmemory_phase3,675122,,,,,,,,object_05c.png,,,51,,,1,,object_05b.png,object_01c.png,object_04c.png,object_04c.png,,0.8285714285714286,1,,,,,,,,,,,,
3008.9000000953674,,directmemory_phase3,678132,,,,,,,,object_14c.png,,,49,,,1,,object_11a.png,object_13c.png,object_15c.png,object_11a.png,,0.8333333333333334,1,,,,,,,,,,,,
2106.5,,directmemory_phase3,680240,,,,,,,,object_06c.png,,,50,,,1,,object_07c.png,object_15c.png,object_04c.png,object_15c.png,,0.8378378378378378,1,,,,,,,,,,,,
2065.3000000715256,,directmemory_phase3,682306,,,,,,,,object_06b.png,,,50,,,1,,object_01c.png,object_13c.png,object_07c.png,object_13c.png,,0.8421052631578947,1,,,,,,,,,,,,
1468.3999999761581,,directmemory_phase3,683776,,,,,,,,object_02b.png,,,49,,,1,,object_14a.png,object_12a.png,object_13c.png,object_14a.png,,0.8461538461538461,1,,,,,,,,,,,,
1812.8999999761581,,directmemory_phase3,685590,,,,,,,,object_11b.png,,,49,,,1,,object_05b.png,object_10b.png,object_15c.png,object_05b.png,,0.85,1,,,,,,,,,,,,
2331.600000023842,,directmemory_phase3,687922,,,,,,,,object_07b.png,,,49,,,1,,object_02a.png,object_05a.png,object_15c.png,object_02a.png,,0.8536585365853658,1,,,,,,,,,,,,
1507.6000000238419,,directmemory_phase3,689431,,,,,,,,object_09a.png,,,50,,,1,,object_01c.png,object_12a.png,object_07c.png,object_12a.png,,0.8571428571428571,1,,,,,,,,,,,,
2258,,directmemory_phase3,691691,,,,,,,,object_13b.png,,,51,,,1,,object_15c.png,object_07a.png,object_07c.png,object_07c.png,,0.8604651162790697,1,,,,,,,,,,,,
1997.5,,directmemory_phase3,693689,,,,,,,,object_13a.png,,,49,,,1,,object_05a.png,object_14a.png,object_01c.png,object_05a.png,,0.8636363636363636,1,,,,,,,,,,,,
1954.3000000715256,,directmemory_phase3,695645,,,,,,,,object_01b.png,,,49,,,1,,object_01c.png,object_05b.png,object_10c.png,object_01c.png,,0.8666666666666667,1,,,,,,,,,,,,
null,,thebreak,695759,,,,,,,,<p></p>,,,null,,,,,,,,,,,,,,,,,,,,,,,
1044.8999999761581,,intro_0,696805,,,,,,,,instruct,,,32,,,,,,,,,,,,,,,,,,,,,,,
null,,learn_phase(without_color)4,700306,,,,,,,,black_plus_sign,,,null,object_11a.png,object_14c.png,,,,,,,,,,,,,,,,,,,,,
null,,black_cross(without_color)4,701172,,,,,,,,blue,,,null,object_11a.png,object_14c.png,,,,,,,,,,,,,,,,,,,,,
null,,rt_plussign_withcolor4,701673,,,,,,,,blue,,,null,object_11a.png,object_14c.png,,,,,,,,,,,,,,,,,,,,,
1337.1000000238419,,rt_thecrossant_black4,702811,,,,,,,,black_plus_sign,,,49,,,1,,,,,,,1,,,,,,,,,,,,,
null,,color_black4,702912,,,,,,,,black_plus_sign,,,null,,,,,,,,,,,,,,,,,,,,,,,
null,,learn_phase(without_color)4,706413,,,,,,,,black_plus_sign,,,null,object_07c.png,object_13b.png,,,,,,,,,,,,,,,,,,,,,
null,,black_cross(without_color)4,706915,,,,,,,,green,,,null,object_07c.png,object_13b.png,,,,,,,,,,,,,,,,,,,,,
null,,rt_plussign_withcolor4,707416,,,,,,,,green,,,null,object_07c.png,object_13b.png,,,,,,,,,,,,,,,,,,,,,
1200.2000000476837,,rt_thecrossant_black4,708917,,,,,,,,black_plus_sign,,,50,,,1,,,,,,,1,,,,,,,,,,,,,
null,,color_black4,709018,,,,,,,,black_plus_sign,,,null,,,,,,,,,,,,,,,,,,,,,,,
null,,learn_phase(without_color)4,712520,,,,,,,,black_plus_sign,,,null,object_01c.png,object_01b.png,,,,,,,,,,,,,,,,,,,,,
null,,black_cross(without_color)4,713311,,,,,,,,blue,,,null,object_01c.png,object_01b.png,,,,,,,,,,,,,,,,,,,,,
null,,rt_plussign_withcolor4,713813,,,,,,,,blue,,,null,object_01c.png,object_01b.png,,,,,,,,,,,,,,,,,,,,,
811.4000000953674,,rt_thecrossant_black4,715025,,,,,,,,black_plus_sign,,,49,,,1,,,,,,,1,,,,,,,,,,,,,
null,,color_black4,715126,,,,,,,,black_plus_sign,,,null,,,,,,,,,,,,,,,,,,,,,,,
null,,learn_phase(without_color)4,718627,,,,,,,,black_plus_sign,,,null,object_10c.png,object_09c.png,,,,,,,,,,,,,,,,,,,,,
null,,black_cross(without_color)4,719147,,,,,,,,blue,,,null,object_10c.png,object_09c.png,,,,,,,,,,,,,,,,,,,,,
null,,rt_plussign_withcolor4,719648,,,,,,,,blue,,,null,object_10c.png,object_09c.png,,,,,,,,,,,,,,,,,,,,,
1123.7999999523163,,rt_thecrossant_black4,721131,,,,,,,,black_plus_sign,,,49,,,1,,,,,,,1,,,,,,,,,,,,,
null,,color_black4,721233,,,,,,,,black_plus_sign,,,null,,,,,,,,,,,,,,,,,,,,,,,
null,,learn_phase(without_color)4,724736,,,,,,,,black_plus_sign,,,null,object_12a.png,object_09a.png,,,,,,,,,,,,,,,,,,,,,
null,,black_cross(without_color)4,725545,,,,,,,,blue,,,null,object_12a.png,object_09a.png,,,,,,,,,,,,,,,,,,,,,
493.7000000476837,,rt_plussign_withcolor4,726049,,,,,,,,blue,,,49,object_12a.png,object_09a.png,,,,,,,,,,,,,,,,,,,,,
null,,rt_thecrossant_black4,727244,,,,,,,,black_plus_sign,,,null,,,1,,,,,,,1,,,,,,,,,,,,,
null,,color_black4,727346,,,,,,,,black_plus_sign,,,null,,,,,,,,,,,,,,,,,,,,,,,
null,,learn_phase(without_color)4,730848,,,,,,,,black_plus_sign,,,null,object_05a.png,object_13a.png,,,,,,,,,,,,,,,,,,,,,
null,,black_cross(without_color)4,731574,,,,,,,,blue,,,null,object_05a.png,object_13a.png,,,,,,,,,,,,,,,,,,,,,
null,,rt_plussign_withcolor4,732075,,,,,,,,blue,,,null,object_05a.png,object_13a.png,,,,,,,,,,,,,,,,,,,,,
1108.7000000476837,,rt_thecrossant_black4,733352,,,,,,,,black_plus_sign,,,49,,,1,,,,,,,1,,,,,,,,,,,,,
null,,color_black4,733453,,,,,,,,black_plus_sign,,,null,,,,,,,,,,,,,,,,,,,,,,,
null,,learn_phase(without_color)4,736954,,,,,,,,black_plus_sign,,,null,object_14a.png,object_02b.png,,,,,,,,,,,,,,,,,,,,,
null,,black_cross(without_color)4,737687,,,,,,,,green,,,null,object_14a.png,object_02b.png,,,,,,,,,,,,,,,,,,,,,
null,,rt_plussign_withcolor4,738188,,,,,,,,green,,,null,object_14a.png,object_02b.png,,,,,,,,,,,,,,,,,,,,,
1363.2000000476837,,rt_thecrossant_black4,739459,,,,,,,,black_plus_sign,,,50,,,1,,,,,,,1,,,,,,,,,,,,,
null,,color_black4,739561,,,,,,,,black_plus_sign,,,null,,,,,,,,,,,,,,,,,,,,,,,
null,,learn_phase(without_color)4,743063,,,,,,,,black_plus_sign,,,null,object_04c.png,object_05c.png,,,,,,,,,,,,,,,,,,,,,
null,,black_cross(without_color)4,744027,,,,,,,,blue,,,null,object_04c.png,object_05c.png,,,,,,,,,,,,,,,,,,,,,
null,,rt_plussign_withcolor4,744529,,,,,,,,blue,,,null,object_04c.png,object_05c.png,,,,,,,,,,,,,,,,,,,,,
836.7999999523163,,rt_thecrossant_black4,745570,,,,,,,,black_plus_sign,,,49,,,1,,,,,,,1,,,,,,,,,,,,,
null,,color_black4,745671,,,,,,,,black_plus_sign,,,null,,,,,,,,,,,,,,,,,,,,,,,
null,,learn_phase(without_color)4,749177,,,,,,,,black_plus_sign,,,null,object_03c.png,object_10a.png,,,,,,,,,,,,,,,,,,,,,
null,,black_cross(without_color)4,749631,,,,,,,,blue,,,null,object_03c.png,object_10a.png,,,,,,,,,,,,,,,,,,,,,
null,,rt_plussign_withcolor4,750133,,,,,,,,blue,,,null,object_03c.png,object_10a.png,,,,,,,,,,,,,,,,,,,,,
1327.6000000238419,,rt_thecrossant_black4,751682,,,,,,,,black_plus_sign,,,49,,,1,,,,,,,1,,,,,,,,,,,,,
null,,color_black4,751784,,,,,,,,black_plus_sign,,,null,,,,,,,,,,,,,,,,,,,,,,,
null,,learn_phase(without_color)4,755286,,,,,,,,black_plus_sign,,,null,object_02a.png,object_07b.png,,,,,,,,,,,,,,,,,,,,,
null,,black_cross(without_color)4,755850,,,,,,,,blue,,,null,object_02a.png,object_07b.png,,,,,,,,,,,,,,,,,,,,,
null,,rt_plussign_withcolor4,756353,,,,,,,,blue,,,null,object_02a.png,object_07b.png,,,,,,,,,,,,,,,,,,,,,
864.8999999761581,,rt_thecrossant_black4,757793,,,,,,,,black_plus_sign,,,49,,,1,,,,,,,1,,,,,,,,,,,,,
null,,color_black4,757896,,,,,,,,black_plus_sign,,,null,,,,,,,,,,,,,,,,,,,,,,,
null,,learn_phase(without_color)4,761397,,,,,,,,black_plus_sign,,,null,object_10b.png,object_04a.png,,,,,,,,,,,,,,,,,,,,,
null,,black_cross(without_color)4,761891,,,,,,,,green,,,null,object_10b.png,object_04a.png,,,,,,,,,,,,,,,,,,,,,
null,,rt_plussign_withcolor4,762393,,,,,,,,green,,,null,object_10b.png,object_04a.png,,,,,,,,,,,,,,,,,,,,,
829.3999999761581,,rt_thecrossant_black4,763902,,,,,,,,black_plus_sign,,,50,,,1,,,,,,,1,,,,,,,,,,,,,
null,,color_black4,764004,,,,,,,,black_plus_sign,,,null,,,,,,,,,,,,,,,,,,,,,,,
null,,learn_phase(without_color)4,767505,,,,,,,,black_plus_sign,,,null,object_15c.png,object_06c.png,,,,,,,,,,,,,,,,,,,,,
null,,black_cross(without_color)4,767980,,,,,,,,green,,,null,object_15c.png,object_06c.png,,,,,,,,,,,,,,,,,,,,,
null,,rt_plussign_withcolor4,768482,,,,,,,,green,,,null,object_15c.png,object_06c.png,,,,,,,,,,,,,,,,,,,,,
744.4000000953674,,rt_thecrossant_black4,770010,,,,,,,,black_plus_sign,,,50,,,1,,,,,,,1,,,,,,,,,,,,,
null,,color_black4,770111,,,,,,,,black_plus_sign,,,null,,,,,,,,,,,,,,,,,,,,,,,
null,,learn_phase(without_color)4,773612,,,,,,,,black_plus_sign,,,null,object_07a.png,object_08a.png,,,,,,,,,,,,,,,,,,,,,
null,,black_cross(without_color)4,774512,,,,,,,,blue,,,null,object_07a.png,object_08a.png,,,,,,,,,,,,,,,,,,,,,
null,,rt_plussign_withcolor4,775024,,,,,,,,blue,,,null,object_07a.png,object_08a.png,,,,,,,,,,,,,,,,,,,,,
973.3999999761581,,rt_thecrossant_black4,776127,,,,,,,,black_plus_sign,,,49,,,1,,,,,,,1,,,,,,,,,,,,,
null,,color_black4,776229,,,,,,,,black_plus_sign,,,null,,,,,,,,,,,,,,,,,,,,,,,
null,,learn_phase(without_color)4,779731,,,,,,,,black_plus_sign,,,null,object_05b.png,object_11b.png,,,,,,,,,,,,,,,,,,,,,
null,,black_cross(without_color)4,780463,,,,,,,,green,,,null,object_05b.png,object_11b.png,,,,,,,,,,,,,,,,,,,,,
null,,rt_plussign_withcolor4,780964,,,,,,,,green,,,null,object_05b.png,object_11b.png,,,,,,,,,,,,,,,,,,,,,
1124,,rt_thecrossant_black4,782245,,,,,,,,black_plus_sign,,,50,,,1,,,,,,,1,,,,,,,,,,,,,
null,,color_black4,782347,,,,,,,,black_plus_sign,,,null,,,,,,,,,,,,,,,,,,,,,,,
null,,learn_phase(without_color)4,785849,,,,,,,,black_plus_sign,,,null,object_13c.png,object_06b.png,,,,,,,,,,,,,,,,,,,,,
null,,black_cross(without_color)4,786795,,,,,,,,blue,,,null,object_13c.png,object_06b.png,,,,,,,,,,,,,,,,,,,,,
null,,rt_plussign_withcolor4,787297,,,,,,,,blue,,,null,object_13c.png,object_06b.png,,,,,,,,,,,,,,,,,,,,,
1177.7999999523163,,rt_thecrossant_black4,788354,,,,,,,,black_plus_sign,,,49,,,1,,,,,,,1,,,,,,,,,,,,,
null,,color_black4,788464,,,,,,,,black_plus_sign,,,null,,,,,,,,,,,,,,,,,,,,,,,
null,,thebreak,788565,,,,,,,,<p></p>,,,null,,,,,,,,,,,,,,,,,,,,,,,
781.7999999523163,,intro_0,789347,,,,,,,,instruct,,,32,,,,,,,,,,,,,,,,,,,,,,,
2454.8000000715256,,directmemory_phase4,791803,,,,,,,,object_09a.png,,,51,,,1,,object_05a.png,object_04c.png,object_12a.png,object_12a.png,,0.8695652173913043,1,,,,,,,,,,,,
2192,,directmemory_phase4,793996,,,,,,,,object_08a.png,,,49,,,1,,object_07a.png,object_05a.png,object_05b.png,object_07a.png,,0.8723404255319149,1,,,,,,,,,,,,
3183.600000023842,,directmemory_phase4,797181,,,,,,,,object_13b.png,,,49,,,1,,object_07c.png,object_02a.png,object_13c.png,object_07c.png,,0.875,1,,,,,,,,,,,,
1369.7999999523163,,directmemory_phase4,798552,,,,,,,,object_14c.png,,,49,,,1,,object_11a.png,object_13c.png,object_12a.png,object_11a.png,,0.8775510204081632,1,,,,,,,,,,,,
1673.2000000476837,,directmemory_phase4,800226,,,,,,,,object_06b.png,,,50,,,1,,object_14a.png,object_13c.png,object_12a.png,object_13c.png,,0.88,1,,,,,,,,,,,,
1237.8999999761581,,directmemory_phase4,801465,,,,,,,,object_09c.png,,,51,,,1,,object_13c.png,object_04c.png,object_10c.png,object_10c.png,,0.8823529411764706,1,,,,,,,,,,,,
2747.6999999284744,,directmemory_phase4,804213,,,,,,,,object_06c.png,,,50,,,1,,object_11a.png,object_15c.png,object_12a.png,object_15c.png,,0.8846153846153846,1,,,,,,,,,,,,
1800.6999999284744,,directmemory_phase4,806015,,,,,,,,object_07b.png,,,50,,,1,,object_14a.png,object_02a.png,object_11a.png,object_02a.png,,0.8867924528301887,1,,,,,,,,,,,,
1290.7999999523163,,directmemory_phase4,807307,,,,,,,,object_11b.png,,,51,,,1,,object_10c.png,object_15c.png,object_05b.png,object_05b.png,,0.8888888888888888,1,,,,,,,,,,,,
1082.5,,directmemory_phase4,808391,,,,,,,,object_10a.png,,,50,,,1,,object_07a.png,object_03c.png,object_10c.png,object_03c.png,,0.8909090909090909,1,,,,,,,,,,,,
1870.8999999761581,,directmemory_phase4,810263,,,,,,,,object_05c.png,,,49,,,1,,object_04c.png,object_10b.png,object_05b.png,object_04c.png,,0.8928571428571429,1,,,,,,,,,,,,
1183.3999999761581,,directmemory_phase4,811448,,,,,,,,object_13a.png,,,50,,,1,,object_02a.png,object_05a.png,object_13c.png,object_05a.png,,0.8947368421052632,1,,,,,,,,,,,,
1675.3999999761581,,directmemory_phase4,813124,,,,,,,,object_04a.png,,,51,,,1,,object_01c.png,object_13c.png,object_10b.png,object_10b.png,,0.896551724137931,1,,,,,,,,,,,,
1518.1000000238419,,directmemory_phase4,814644,,,,,,,,object_01b.png,,,51,,,1,,object_14a.png,object_10b.png,object_01c.png,object_01c.png,,0.8983050847457628,1,,,,,,,,,,,,
1324.1999999284744,,directmemory_phase4,815969,,,,,,,,object_02b.png,,,51,,,1,,object_15c.png,object_11a.png,object_14a.png,object_14a.png,,0.9,1,,,,,,,,,,,,
null,,thebreak,816071,,,,,,,,<p></p>,,,null,,,,,,,,,,,,,,,,,,,,,,,
1162.7999999523163,,intro_0,817234,,,,,,,,instruct,,,32,,,,,,,,,,,,,,,,,,,,,,,
null,,learn_phase(without_color)5,820736,,,,,,,,black_plus_sign,,,null,object_06c.png,object_03b.png,,,,,,,,,,,,,,,,,,,,,
null,,black_cross(without_color)5,821516,,,,,,,,blue,,,null,object_06c.png,object_03b.png,,,,,,,,,,,,,,,,,,,,,
null,,rt_plussign_withcolor5,822018,,,,,,,,blue,,,null,object_06c.png,object_03b.png,,,,,,,,,,,,,,,,,,,,,
1729.3999999761581,,rt_thecrossant_black5,823240,,,,,,,,black_plus_sign,,,49,,,1,,,,,,,1,,,,,,,,,,,,,
null,,color_black5,823342,,,,,,,,black_plus_sign,,,null,,,,,,,,,,,,,,,,,,,,,,,
null,,learn_phase(without_color)5,826851,,,,,,,,black_plus_sign,,,null,object_13a.png,object_11c.png,,,,,,,,,,,,,,,,,,,,,
null,,black_cross(without_color)5,827503,,,,,,,,green,,,null,object_13a.png,object_11c.png,,,,,,,,,,,,,,,,,,,,,
null,,rt_plussign_withcolor5,828005,,,,,,,,green,,,null,object_13a.png,object_11c.png,,,,,,,,,,,,,,,,,,,,,
991.2000000476837,,rt_thecrossant_black5,829357,,,,,,,,black_plus_sign,,,50,,,1,,,,,,,1,,,,,,,,,,,,,
null,,color_black5,829459,,,,,,,,black_plus_sign,,,null,,,,,,,,,,,,,,,,,,,,,,,
null,,learn_phase(without_color)5,832960,,,,,,,,black_plus_sign,,,null,object_04a.png,object_12c.png,,,,,,,,,,,,,,,,,,,,,
null,,black_cross(without_color)5,833671,,,,,,,,green,,,null,object_04a.png,object_12c.png,,,,,,,,,,,,,,,,,,,,,
null,,rt_plussign_withcolor5,834173,,,,,,,,green,,,null,object_04a.png,object_12c.png,,,,,,,,,,,,,,,,,,,,,
1370.8999999761581,,rt_thecrossant_black5,835467,,,,,,,,black_plus_sign,,,50,,,1,,,,,,,1,,,,,,,,,,,,,
null,,color_black5,835568,,,,,,,,black_plus_sign,,,null,,,,,,,,,,,,,,,,,,,,,,,
null,,learn_phase(without_color)5,839070,,,,,,,,black_plus_sign,,,null,object_07b.png,object_12b.png,,,,,,,,,,,,,,,,,,,,,
null,,black_cross(without_color)5,839908,,,,,,,,green,,,null,object_07b.png,object_12b.png,,,,,,,,,,,,,,,,,,,,,
null,,rt_plussign_withcolor5,840410,,,,,,,,green,,,null,object_07b.png,object_12b.png,,,,,,,,,,,,,,,,,,,,,
920.5,,rt_thecrossant_black5,841575,,,,,,,,black_plus_sign,,,50,,,1,,,,,,,1,,,,,,,,,,,,,
null,,color_black5,841687,,,,,,,,black_plus_sign,,,null,,,,,,,,,,,,,,,,,,,,,,,
null,,learn_phase(without_color)5,845189,,,,,,,,black_plus_sign,,,null,object_01b.png,object_14b.png,,,,,,,,,,,,,,,,,,,,,
null,,black_cross(without_color)5,845765,,,,,,,,green,,,null,object_01b.png,object_14b.png,,,,,,,,,,,,,,,,,,,,,
null,,rt_plussign_withcolor5,846279,,,,,,,,green,,,null,object_01b.png,object_14b.png,,,,,,,,,,,,,,,,,,,,,
1405.7000000476837,,rt_thecrossant_black5,847710,,,,,,,,black_plus_sign,,,50,,,1,,,,,,,1,,,,,,,,,,,,,
null,,color_black5,847811,,,,,,,,black_plus_sign,,,null,,,,,,,,,,,,,,,,,,,,,,,
null,,learn_phase(without_color)5,851312,,,,,,,,black_plus_sign,,,null,object_11b.png,object_09b.png,,,,,,,,,,,,,,,,,,,,,
null,,black_cross(without_color)5,851741,,,,,,,,blue,,,null,object_11b.png,object_09b.png,,,,,,,,,,,,,,,,,,,,,
null,,rt_plussign_withcolor5,852257,,,,,,,,blue,,,null,object_11b.png,object_09b.png,,,,,,,,,,,,,,,,,,,,,
1466.5,,rt_thecrossant_black5,853836,,,,,,,,black_plus_sign,,,49,,,1,,,,,,,1,,,,,,,,,,,,,
null,,color_black5,853938,,,,,,,,black_plus_sign,,,null,,,,,,,,,,,,,,,,,,,,,,,
null,,learn_phase(without_color)5,857439,,,,,,,,black_plus_sign,,,null,object_14c.png,object_02c.png,,,,,,,,,,,,,,,,,,,,,
null,,black_cross(without_color)5,857950,,,,,,,,green,,,null,object_14c.png,object_02c.png,,,,,,,,,,,,,,,,,,,,,
null,,rt_plussign_withcolor5,858451,,,,,,,,green,,,null,object_14c.png,object_02c.png,,,,,,,,,,,,,,,,,,,,,
1028.2000000476837,,rt_thecrossant_black5,859944,,,,,,,,black_plus_sign,,,50,,,1,,,,,,,1,,,,,,,,,,,,,
null,,color_black5,860045,,,,,,,,black_plus_sign,,,null,,,,,,,,,,,,,,,,,,,,,,,
null,,learn_phase(without_color)5,863548,,,,,,,,black_plus_sign,,,null,object_09c.png,object_15b.png,,,,,,,,,,,,,,,,,,,,,
null,,black_cross(without_color)5,864517,,,,,,,,green,,,null,object_09c.png,object_15b.png,,,,,,,,,,,,,,,,,,,,,
null,,rt_plussign_withcolor5,865018,,,,,,,,green,,,null,object_09c.png,object_15b.png,,,,,,,,,,,,,,,,,,,,,
609.6000000238419,,rt_thecrossant_black5,866052,,,,,,,,black_plus_sign,,,50,,,1,,,,,,,1,,,,,,,,,,,,,
null,,color_black5,866154,,,,,,,,black_plus_sign,,,null,,,,,,,,,,,,,,,,,,,,,,,
null,,learn_phase(without_color)5,869656,,,,,,,,black_plus_sign,,,null,object_09a.png,object_04b.png,,,,,,,,,,,,,,,,,,,,,
null,,black_cross(without_color)5,870750,,,,,,,,green,,,null,object_09a.png,object_04b.png,,,,,,,,,,,,,,,,,,,,,
null,,rt_plussign_withcolor5,871251,,,,,,,,green,,,null,object_09a.png,object_04b.png,,,,,,,,,,,,,,,,,,,,,
null,,rt_thecrossant_black5,872160,,,,,,,,black_plus_sign,,,null,,,,,,,,,,1,,,,,,,,,,,,,
null,,color_black5,872262,,,,,,,,black_plus_sign,,,null,,,,,,,,,,,,,,,,,,,,,,,
null,,learn_phase(without_color)5,875763,,,,,,,,black_plus_sign,,,null,object_02b.png,object_03a.png,,,,,,,,,,,,,,,,,,,,,
null,,black_cross(without_color)5,876422,,,,,,,,blue,,,null,object_02b.png,object_03a.png,,,,,,,,,,,,,,,,,,,,,
null,,rt_plussign_withcolor5,876924,,,,,,,,blue,,,null,object_02b.png,object_03a.png,,,,,,,,,,,,,,,,,,,,,
1388.5999999046326,,rt_thecrossant_black5,878269,,,,,,,,black_plus_sign,,,49,,,1,,,,,,,1,,,,,,,,,,,,,
null,,color_black5,878370,,,,,,,,black_plus_sign,,,null,,,,,,,,,,,,,,,,,,,,,,,
null,,learn_phase(without_color)5,881871,,,,,,,,black_plus_sign,,,null,object_05c.png,object_06a.png,,,,,,,,,,,,,,,,,,,,,
null,,black_cross(without_color)5,882335,,,,,,,,blue,,,null,object_05c.png,object_06a.png,,,,,,,,,,,,,,,,,,,,,
null,,rt_plussign_withcolor5,882836,,,,,,,,blue,,,null,object_05c.png,object_06a.png,,,,,,,,,,,,,,,,,,,,,
1423.7999999523163,,rt_thecrossant_black5,884374,,,,,,,,black_plus_sign,,,49,,,1,,,,,,,1,,,,,,,,,,,,,
null,,color_black5,884475,,,,,,,,black_plus_sign,,,null,,,,,,,,,,,,,,,,,,,,,,,
null,,learn_phase(without_color)5,887977,,,,,,,,black_plus_sign,,,null,object_13b.png,object_08c.png,,,,,,,,,,,,,,,,,,,,,
null,,black_cross(without_color)5,889024,,,,,,,,blue,,,null,object_13b.png,object_08c.png,,,,,,,,,,,,,,,,,,,,,
null,,rt_plussign_withcolor5,889526,,,,,,,,blue,,,null,object_13b.png,object_08c.png,,,,,,,,,,,,,,,,,,,,,
645.5,,rt_thecrossant_black5,890482,,,,,,,,black_plus_sign,,,49,,,1,,,,,,,1,,,,,,,,,,,,,
null,,color_black5,890584,,,,,,,,black_plus_sign,,,null,,,,,,,,,,,,,,,,,,,,,,,
null,,learn_phase(without_color)5,894085,,,,,,,,black_plus_sign,,,null,object_08a.png,object_08b.png,,,,,,,,,,,,,,,,,,,,,
null,,black_cross(without_color)5,895107,,,,,,,,blue,,,null,object_08a.png,object_08b.png,,,,,,,,,,,,,,,,,,,,,
null,,rt_plussign_withcolor5,895609,,,,,,,,blue,,,null,object_08a.png,object_08b.png,,,,,,,,,,,,,,,,,,,,,
1416,,rt_thecrossant_black5,896589,,,,,,,,black_plus_sign,,,49,,,1,,,,,,,1,,,,,,,,,,,,,
null,,color_black5,896692,,,,,,,,black_plus_sign,,,null,,,,,,,,,,,,,,,,,,,,,,,
null,,learn_phase(without_color)5,900194,,,,,,,,black_plus_sign,,,null,object_10a.png,object_01a.png,,,,,,,,,,,,,,,,,,,,,
null,,black_cross(without_color)5,901121,,,,,,,,blue,,,null,object_10a.png,object_01a.png,,,,,,,,,,,,,,,,,,,,,
null,,rt_plussign_withcolor5,901622,,,,,,,,blue,,,null,object_10a.png,object_01a.png,,,,,,,,,,,,,,,,,,,,,
1455.1000000238419,,rt_thecrossant_black5,902712,,,,,,,,black_plus_sign,,,49,,,1,,,,,,,1,,,,,,,,,,,,,
null,,color_black5,902814,,,,,,,,black_plus_sign,,,null,,,,,,,,,,,,,,,,,,,,,,,
null,,learn_phase(without_color)5,906316,,,,,,,,black_plus_sign,,,null,object_06b.png,object_15a.png,,,,,,,,,,,,,,,,,,,,,
null,,black_cross(without_color)5,906722,,,,,,,,blue,,,null,object_06b.png,object_15a.png,,,,,,,,,,,,,,,,,,,,,
null,,rt_plussign_withcolor5,907223,,,,,,,,blue,,,null,object_06b.png,object_15a.png,,,,,,,,,,,,,,,,,,,,,
1084.8000000715256,,rt_thecrossant_black5,908830,,,,,,,,black_plus_sign,,,49,,,1,,,,,,,1,,,,,,,,,,,,,
null,,color_black5,908932,,,,,,,,black_plus_sign,,,null,,,,,,,,,,,,,,,,,,,,,,,
null,,thebreak,909034,,,,,,,,<p></p>,,,null,,,,,,,,,,,,,,,,,,,,,,,
776.5999999046326,,intro_0,909811,,,,,,,,instruct,,,32,,,,,,,,,,,,,,,,,,,,,,,
5712.799999952316,,directmemory_phase5,915524,,,,,,,,object_14b.png,,,50,,,1,,object_07b.png,object_01b.png,object_11b.png,object_01b.png,,0.9016393442622951,1,,,,,,,,,,,,
13795.699999928474,,directmemory_phase5,929321,,,,,,,,object_03a.png,,,49,,,1,,object_02b.png,object_01b.png,object_09a.png,object_02b.png,,0.9032258064516129,1,,,,,,,,,,,,
2557.899999976158,,directmemory_phase5,931881,,,,,,,,object_12c.png,,,51,,,1,,object_11b.png,object_13b.png,object_04a.png,object_04a.png,,0.9047619047619048,1,,,,,,,,,,,,
1739.8000000715256,,directmemory_phase5,933622,,,,,,,,object_03b.png,,,50,,,1,,object_13a.png,object_06c.png,object_09a.png,object_06c.png,,0.90625,1,,,,,,,,,,,,
5465.199999928474,,directmemory_phase5,939088,,,,,,,,object_02c.png,,,51,,,1,,object_02b.png,object_13b.png,object_14c.png,object_14c.png,,0.9076923076923077,1,,,,,,,,,,,,
7736.399999976158,,directmemory_phase5,946826,,,,,,,,object_08c.png,,,50,,,1,,object_05c.png,object_13b.png,object_04a.png,object_13b.png,,0.9090909090909091,1,,,,,,,,,,,,
2196.600000023842,,directmemory_phase5,949024,,,,,,,,object_11c.png,,,50,,,1,,object_06c.png,object_13a.png,object_09a.png,object_13a.png,,0.9104477611940298,1,,,,,,,,,,,,
3022.2000000476837,,directmemory_phase5,952047,,,,,,,,object_04b.png,,,50,,,1,,object_02b.png,object_09a.png,object_09c.png,object_09a.png,,0.9117647058823529,1,,,,,,,,,,,,
1693.6000000238419,,directmemory_phase5,953741,,,,,,,,object_15a.png,,,51,,,1,,object_11b.png,object_13b.png,object_06b.png,object_06b.png,,0.9130434782608695,1,,,,,,,,,,,,
2620.4000000953674,,directmemory_phase5,956363,,,,,,,,object_08b.png,,,50,,,1,,object_07b.png,object_08a.png,object_01b.png,object_08a.png,,0.9142857142857143,1,,,,,,,,,,,,
4552.300000071526,,directmemory_phase5,960916,,,,,,,,object_12b.png,,,50,,,1,,object_09c.png,object_07b.png,object_04a.png,object_07b.png,,0.9154929577464789,1,,,,,,,,,,,,
1934.3000000715256,,directmemory_phase5,962852,,,,,,,,object_01a.png,,,49,,,1,,object_10a.png,object_04a.png,object_01b.png,object_10a.png,,0.9166666666666666,1,,,,,,,,,,,,
5957.899999976158,,directmemory_phase5,968811,,,,,,,,object_09b.png,,,51,,,1,,object_09c.png,object_13b.png,object_11b.png,object_11b.png,,0.9178082191780822,1,,,,,,,,,,,,
2710.600000023842,,directmemory_phase5,971522,,,,,,,,object_06a.png,,,51,,,1,,object_09c.png,object_08a.png,object_05c.png,object_05c.png,,0.918918918918919,1,,,,,,,,,,,,
5485,,directmemory_phase5,977008,,,,,,,,object_15b.png,,,49,,,1,,object_09c.png,object_04a.png,object_07b.png,object_09c.png,,0.92,1,,,,,,,,,,,,
null,,thebreak,977109,,,,,,,,<p></p>,,,null,,,,,,,,,,,,,,,,,,,,,,,
747.3999999761581,,intro_0,977857,,,,,,,,instruct,,,32,,,,,,,,,,,,,,,,,,,,,,,
null,,learn_phase(without_color)6,981359,,,,,,,,black_plus_sign,,,null,object_09c.png,object_15b.png,,,,,,,,,,,,,,,,,,,,,
null,,black_cross(without_color)6,982436,,,,,,,,blue,,,null,object_09c.png,object_15b.png,,,,,,,,,,,,,,,,,,,,,
null,,rt_plussign_withcolor6,982937,,,,,,,,blue,,,null,object_09c.png,object_15b.png,,,,,,,,,,,,,,,,,,,,,
1895.0999999046326,,rt_thecrossant_black6,983863,,,,,,,,black_plus_sign,,,49,,,1,,,,,,,1,,,,,,,,,,,,,
null,,color_black6,983964,,,,,,,,black_plus_sign,,,null,,,,,,,,,,,,,,,,,,,,,,,
null,,learn_phase(without_color)6,987466,,,,,,,,black_plus_sign,,,null,object_13b.png,object_08c.png,,,,,,,,,,,,,,,,,,,,,
null,,black_cross(without_color)6,988525,,,,,,,,green,,,null,object_13b.png,object_08c.png,,,,,,,,,,,,,,,,,,,,,
null,,rt_plussign_withcolor6,989026,,,,,,,,green,,,null,object_13b.png,object_08c.png,,,,,,,,,,,,,,,,,,,,,
1407.6999999284744,,rt_thecrossant_black6,989980,,,,,,,,black_plus_sign,,,50,,,1,,,,,,,1,,,,,,,,,,,,,
null,,color_black6,990081,,,,,,,,black_plus_sign,,,null,,,,,,,,,,,,,,,,,,,,,,,
null,,learn_phase(without_color)6,993590,,,,,,,,black_plus_sign,,,null,object_09a.png,object_04b.png,,,,,,,,,,,,,,,,,,,,,
null,,black_cross(without_color)6,994461,,,,,,,,blue,,,null,object_09a.png,object_04b.png,,,,,,,,,,,,,,,,,,,,,
null,,rt_plussign_withcolor6,994963,,,,,,,,blue,,,null,object_09a.png,object_04b.png,,,,,,,,,,,,,,,,,,,,,
1779.3999999761581,,rt_thecrossant_black6,996095,,,,,,,,black_plus_sign,,,49,,,1,,,,,,,1,,,,,,,,,,,,,
null,,color_black6,996197,,,,,,,,black_plus_sign,,,null,,,,,,,,,,,,,,,,,,,,,,,
null,,learn_phase(without_color)6,999699,,,,,,,,black_plus_sign,,,null,object_07b.png,object_12b.png,,,,,,,,,,,,,,,,,,,,,
null,,black_cross(without_color)6,1000635,,,,,,,,blue,,,null,object_07b.png,object_12b.png,,,,,,,,,,,,,,,,,,,,,
null,,rt_plussign_withcolor6,1001136,,,,,,,,blue,,,null,object_07b.png,object_12b.png,,,,,,,,,,,,,,,,,,,,,
1233.8999999761581,,rt_thecrossant_black6,1002215,,,,,,,,black_plus_sign,,,49,,,1,,,,,,,1,,,,,,,,,,,,,
null,,color_black6,1002316,,,,,,,,black_plus_sign,,,null,,,,,,,,,,,,,,,,,,,,,,,
null,,learn_phase(without_color)6,1005818,,,,,,,,black_plus_sign,,,null,object_13a.png,object_11c.png,,,,,,,,,,,,,,,,,,,,,
null,,black_cross(without_color)6,1006708,,,,,,,,green,,,null,object_13a.png,object_11c.png,,,,,,,,,,,,,,,,,,,,,
null,,rt_plussign_withcolor6,1007209,,,,,,,,green,,,null,object_13a.png,object_11c.png,,,,,,,,,,,,,,,,,,,,,
1220,,rt_thecrossant_black6,1008327,,,,,,,,black_plus_sign,,,50,,,1,,,,,,,1,,,,,,,,,,,,,
null,,color_black6,1008429,,,,,,,,black_plus_sign,,,null,,,,,,,,,,,,,,,,,,,,,,,
null,,learn_phase(without_color)6,1011930,,,,,,,,black_plus_sign,,,null,object_05c.png,object_06a.png,,,,,,,,,,,,,,,,,,,,,
null,,black_cross(without_color)6,1012370,,,,,,,,blue,,,null,object_05c.png,object_06a.png,,,,,,,,,,,,,,,,,,,,,
null,,rt_plussign_withcolor6,1012871,,,,,,,,blue,,,null,object_05c.png,object_06a.png,,,,,,,,,,,,,,,,,,,,,
1171.1000000238419,,rt_thecrossant_black6,1014435,,,,,,,,black_plus_sign,,,49,,,1,,,,,,,1,,,,,,,,,,,,,
null,,color_black6,1014537,,,,,,,,black_plus_sign,,,null,,,,,,,,,,,,,,,,,,,,,,,
null,,learn_phase(without_color)6,1018039,,,,,,,,black_plus_sign,,,null,object_06c.png,object_03b.png,,,,,,,,,,,,,,,,,,,,,
null,,black_cross(without_color)6,1019101,,,,,,,,green,,,null,object_06c.png,object_03b.png,,,,,,,,,,,,,,,,,,,,,
null,,rt_plussign_withcolor6,1019602,,,,,,,,green,,,null,object_06c.png,object_03b.png,,,,,,,,,,,,,,,,,,,,,
744.2999999523163,,rt_thecrossant_black6,1020544,,,,,,,,black_plus_sign,,,50,,,1,,,,,,,1,,,,,,,,,,,,,
null,,color_black6,1020645,,,,,,,,black_plus_sign,,,null,,,,,,,,,,,,,,,,,,,,,,,
null,,learn_phase(without_color)6,1024147,,,,,,,,black_plus_sign,,,null,object_10a.png,object_01a.png,,,,,,,,,,,,,,,,,,,,,
null,,black_cross(without_color)6,1025106,,,,,,,,blue,,,null,object_10a.png,object_01a.png,,,,,,,,,,,,,,,,,,,,,
null,,rt_plussign_withcolor6,1025608,,,,,,,,blue,,,null,object_10a.png,object_01a.png,,,,,,,,,,,,,,,,,,,,,
1995.2000000476837,,rt_thecrossant_black6,1026652,,,,,,,,black_plus_sign,,,49,,,1,,,,,,,1,,,,,,,,,,,,,
null,,color_black6,1026754,,,,,,,,black_plus_sign,,,null,,,,,,,,,,,,,,,,,,,,,,,
null,,learn_phase(without_color)6,1030257,,,,,,,,black_plus_sign,,,null,object_14c.png,object_02c.png,,,,,,,,,,,,,,,,,,,,,
null,,black_cross(without_color)6,1031017,,,,,,,,blue,,,null,object_14c.png,object_02c.png,,,,,,,,,,,,,,,,,,,,,
null,,rt_plussign_withcolor6,1031518,,,,,,,,blue,,,null,object_14c.png,object_02c.png,,,,,,,,,,,,,,,,,,,,,
1320.1999999284744,,rt_thecrossant_black6,1032762,,,,,,,,black_plus_sign,,,49,,,1,,,,,,,1,,,,,,,,,,,,,
null,,color_black6,1032863,,,,,,,,black_plus_sign,,,null,,,,,,,,,,,,,,,,,,,,,,,
null,,learn_phase(without_color)6,1036365,,,,,,,,black_plus_sign,,,null,object_04a.png,object_12c.png,,,,,,,,,,,,,,,,,,,,,
null,,black_cross(without_color)6,1037026,,,,,,,,green,,,null,object_04a.png,object_12c.png,,,,,,,,,,,,,,,,,,,,,
null,,rt_plussign_withcolor6,1037527,,,,,,,,green,,,null,object_04a.png,object_12c.png,,,,,,,,,,,,,,,,,,,,,
909.3999999761581,,rt_thecrossant_black6,1038870,,,,,,,,black_plus_sign,,,50,,,1,,,,,,,1,,,,,,,,,,,,,
null,,color_black6,1038972,,,,,,,,black_plus_sign,,,null,,,,,,,,,,,,,,,,,,,,,,,
null,,learn_phase(without_color)6,1042475,,,,,,,,black_plus_sign,,,null,object_11b.png,object_09b.png,,,,,,,,,,,,,,,,,,,,,
null,,black_cross(without_color)6,1043554,,,,,,,,green,,,null,object_11b.png,object_09b.png,,,,,,,,,,,,,,,,,,,,,
null,,rt_plussign_withcolor6,1044056,,,,,,,,green,,,null,object_11b.png,object_09b.png,,,,,,,,,,,,,,,,,,,,,
1095.7000000476837,,rt_thecrossant_black6,1044979,,,,,,,,black_plus_sign,,,50,,,1,,,,,,,1,,,,,,,,,,,,,
null,,color_black6,1045081,,,,,,,,black_plus_sign,,,null,,,,,,,,,,,,,,,,,,,,,,,
null,,learn_phase(without_color)6,1048581,,,,,,,,black_plus_sign,,,null,object_02b.png,object_03a.png,,,,,,,,,,,,,,,,,,,,,
null,,black_cross(without_color)6,1049290,,,,,,,,blue,,,null,object_02b.png,object_03a.png,,,,,,,,,,,,,,,,,,,,,
null,,rt_plussign_withcolor6,1049792,,,,,,,,blue,,,null,object_02b.png,object_03a.png,,,,,,,,,,,,,,,,,,,,,
1321,,rt_thecrossant_black6,1051087,,,,,,,,black_plus_sign,,,49,,,1,,,,,,,1,,,,,,,,,,,,,
null,,color_black6,1051188,,,,,,,,black_plus_sign,,,null,,,,,,,,,,,,,,,,,,,,,,,
null,,learn_phase(without_color)6,1054691,,,,,,,,black_plus_sign,,,null,object_08a.png,object_08b.png,,,,,,,,,,,,,,,,,,,,,
null,,black_cross(without_color)6,1055561,,,,,,,,blue,,,null,object_08a.png,object_08b.png,,,,,,,,,,,,,,,,,,,,,
null,,rt_plussign_withcolor6,1056062,,,,,,,,blue,,,null,object_08a.png,object_08b.png,,,,,,,,,,,,,,,,,,,,,
1251.2000000476837,,rt_thecrossant_black6,1057208,,,,,,,,black_plus_sign,,,50,,,0,,,,,,,0.9230769230769231,,,,,,,,,,,,,
null,,color_black6,1057310,,,,,,,,black_plus_sign,,,null,,,,,,,,,,,,,,,,,,,,,,,
null,,learn_phase(without_color)6,1060812,,,,,,,,black_plus_sign,,,null,object_01b.png,object_14b.png,,,,,,,,,,,,,,,,,,,,,
null,,black_cross(without_color)6,1061842,,,,,,,,blue,,,null,object_01b.png,object_14b.png,,,,,,,,,,,,,,,,,,,,,
null,,rt_plussign_withcolor6,1062343,,,,,,,,blue,,,null,object_01b.png,object_14b.png,,,,,,,,,,,,,,,,,,,,,
1085.2000000476837,,rt_thecrossant_black6,1063316,,,,,,,,black_plus_sign,,,49,,,1,,,,,,,0.9285714285714286,,,,,,,,,,,,,
null,,color_black6,1063417,,,,,,,,black_plus_sign,,,null,,,,,,,,,,,,,,,,,,,,,,,
null,,learn_phase(without_color)6,1066931,,,,,,,,black_plus_sign,,,null,object_06b.png,object_15a.png,,,,,,,,,,,,,,,,,,,,,
null,,black_cross(without_color)6,1067542,,,,,,,,blue,,,null,object_06b.png,object_15a.png,,,,,,,,,,,,,,,,,,,,,
null,,rt_plussign_withcolor6,1068043,,,,,,,,blue,,,null,object_06b.png,object_15a.png,,,,,,,,,,,,,,,,,,,,,
1324.5,,rt_thecrossant_black6,1069435,,,,,,,,black_plus_sign,,,49,,,1,,,,,,,0.9333333333333333,,,,,,,,,,,,,
null,,color_black6,1069537,,,,,,,,black_plus_sign,,,null,,,,,,,,,,,,,,,,,,,,,,,
null,,thebreak,1069639,,,,,,,,<p></p>,,,null,,,,,,,,,,,,,,,,,,,,,,,
734.1000000238419,,intro_0,1070374,,,,,,,,instruct,,,32,,,,,,,,,,,,,,,,,,,,,,,
2658.6999999284744,,directmemory_phase6,1073034,,,,,,,,object_09b.png,,,51,,,0,,object_06b.png,object_11b.png,object_14c.png,object_11b.png,,0.9078947368421053,0,,,,,,,,,,,,
3365.100000023842,,directmemory_phase6,1076400,,,,,,,,object_02c.png,,,50,,,1,,object_01b.png,object_14c.png,object_07b.png,object_14c.png,,0.9090909090909091,1,,,,,,,,,,,,
4017.600000023842,,directmemory_phase6,1080419,,,,,,,,object_14b.png,,,50,,,1,,object_02b.png,object_01b.png,object_07b.png,object_01b.png,,0.9102564102564102,1,,,,,,,,,,,,
1178.5,,directmemory_phase6,1081599,,,,,,,,object_12b.png,,,51,,,1,,object_11b.png,object_06b.png,object_07b.png,object_07b.png,,0.9113924050632911,1,,,,,,,,,,,,
4371.700000047684,,directmemory_phase6,1085971,,,,,,,,object_03a.png,,,50,,,1,,object_14c.png,object_02b.png,object_04a.png,object_02b.png,,0.9125,1,,,,,,,,,,,,
1275.7000000476837,,directmemory_phase6,1087248,,,,,,,,object_15a.png,,,49,,,1,,object_06b.png,object_04a.png,object_09a.png,object_06b.png,,0.9135802469135802,1,,,,,,,,,,,,
5505.399999976158,,directmemory_phase6,1092755,,,,,,,,object_15b.png,,,51,,,0,,object_09a.png,object_09c.png,object_13b.png,object_09c.png,,0.9024390243902439,0,,,,,,,,,,,,
2932.600000023842,,directmemory_phase6,1095688,,,,,,,,object_12c.png,,,50,,,1,,object_09c.png,object_04a.png,object_01b.png,object_04a.png,,0.9036144578313253,1,,,,,,,,,,,,
1853.1999999284744,,directmemory_phase6,1097543,,,,,,,,object_08b.png,,,50,,,1,,object_09c.png,object_08a.png,object_07b.png,object_08a.png,,0.9047619047619048,1,,,,,,,,,,,,
4013,,directmemory_phase6,1101557,,,,,,,,object_08c.png,,,51,,,1,,object_06c.png,object_06b.png,object_13b.png,object_13b.png,,0.9058823529411765,1,,,,,,,,,,,,
1560.2999999523163,,directmemory_phase6,1103118,,,,,,,,object_03b.png,,,51,,,1,,object_13b.png,object_01b.png,object_06c.png,object_06c.png,,0.9069767441860465,1,,,,,,,,,,,,
1399.3999999761581,,directmemory_phase6,1104519,,,,,,,,object_11c.png,,,49,,,1,,object_13a.png,object_05c.png,object_11b.png,object_13a.png,,0.9080459770114943,1,,,,,,,,,,,,
2456.8000000715256,,directmemory_phase6,1106977,,,,,,,,object_06a.png,,,50,,,1,,object_06c.png,object_05c.png,object_04a.png,object_05c.png,,0.9090909090909091,1,,,,,,,,,,,,
1093.7999999523163,,directmemory_phase6,1108073,,,,,,,,object_04b.png,,,50,,,1,,object_07b.png,object_09a.png,object_13b.png,object_09a.png,,0.9101123595505618,1,,,,,,,,,,,,
1095.8999999761581,,directmemory_phase6,1109170,,,,,,,,object_01a.png,,,49,,,1,,object_10a.png,object_13a.png,object_13b.png,object_10a.png,,0.9111111111111111,1,,,,,,,,,,,,
null,,thebreak,1109272,,,,,,,,<p></p>,,,null,,,,,,,,,,,,,,,,,,,,,,,
800.7999999523163,,intro_0,1110074,,,,,,,,instruct,,,32,,,,,,,,,,,,,,,,,,,,,,,
null,,learn_phase(without_color)7,1113576,,,,,,,,black_plus_sign,,,null,object_05c.png,object_06a.png,,,,,,,,,,,,,,,,,,,,,
null,,black_cross(without_color)7,1114434,,,,,,,,blue,,,null,object_05c.png,object_06a.png,,,,,,,,,,,,,,,,,,,,,
null,,rt_plussign_withcolor7,1114935,,,,,,,,blue,,,null,object_05c.png,object_06a.png,,,,,,,,,,,,,,,,,,,,,
1193.6000000238419,,rt_thecrossant_black7,1116081,,,,,,,,black_plus_sign,,,49,,,1,,,,,,,1,,,,,,,,,,,,,
null,,color_black7,1116183,,,,,,,,black_plus_sign,,,null,,,,,,,,,,,,,,,,,,,,,,,
null,,learn_phase(without_color)7,1119685,,,,,,,,black_plus_sign,,,null,object_06b.png,object_15a.png,,,,,,,,,,,,,,,,,,,,,
null,,black_cross(without_color)7,1120102,,,,,,,,green,,,null,object_06b.png,object_15a.png,,,,,,,,,,,,,,,,,,,,,
null,,rt_plussign_withcolor7,1120607,,,,,,,,green,,,null,object_06b.png,object_15a.png,,,,,,,,,,,,,,,,,,,,,
1282.2000000476837,,rt_thecrossant_black7,1122193,,,,,,,,black_plus_sign,,,50,,,1,,,,,,,1,,,,,,,,,,,,,
null,,color_black7,1122295,,,,,,,,black_plus_sign,,,null,,,,,,,,,,,,,,,,,,,,,,,
null,,learn_phase(without_color)7,1125797,,,,,,,,black_plus_sign,,,null,object_10a.png,object_01a.png,,,,,,,,,,,,,,,,,,,,,
null,,black_cross(without_color)7,1126848,,,,,,,,green,,,null,object_10a.png,object_01a.png,,,,,,,,,,,,,,,,,,,,,
null,,rt_plussign_withcolor7,1127349,,,,,,,,green,,,null,object_10a.png,object_01a.png,,,,,,,,,,,,,,,,,,,,,
1164.1999999284744,,rt_thecrossant_black7,1128302,,,,,,,,black_plus_sign,,,50,,,1,,,,,,,1,,,,,,,,,,,,,
null,,color_black7,1128403,,,,,,,,black_plus_sign,,,null,,,,,,,,,,,,,,,,,,,,,,,
null,,learn_phase(without_color)7,1131905,,,,,,,,black_plus_sign,,,null,object_13b.png,object_08c.png,,,,,,,,,,,,,,,,,,,,,
null,,black_cross(without_color)7,1132596,,,,,,,,blue,,,null,object_13b.png,object_08c.png,,,,,,,,,,,,,,,,,,,,,
null,,rt_plussign_withcolor7,1133098,,,,,,,,blue,,,null,object_13b.png,object_08c.png,,,,,,,,,,,,,,,,,,,,,
1722,,rt_thecrossant_black7,1134409,,,,,,,,black_plus_sign,,,49,,,1,,,,,,,1,,,,,,,,,,,,,
null,,color_black7,1134511,,,,,,,,black_plus_sign,,,null,,,,,,,,,,,,,,,,,,,,,,,
null,,learn_phase(without_color)7,1138013,,,,,,,,black_plus_sign,,,null,object_11b.png,object_09b.png,,,,,,,,,,,,,,,,,,,,,
null,,black_cross(without_color)7,1138464,,,,,,,,green,,,null,object_11b.png,object_09b.png,,,,,,,,,,,,,,,,,,,,,
null,,rt_plussign_withcolor7,1138965,,,,,,,,green,,,null,object_11b.png,object_09b.png,,,,,,,,,,,,,,,,,,,,,
1074.5,,rt_thecrossant_black7,1140517,,,,,,,,black_plus_sign,,,50,,,1,,,,,,,1,,,,,,,,,,,,,
null,,color_black7,1140618,,,,,,,,black_plus_sign,,,null,,,,,,,,,,,,,,,,,,,,,,,
null,,learn_phase(without_color)7,1144121,,,,,,,,black_plus_sign,,,null,object_13a.png,object_11c.png,,,,,,,,,,,,,,,,,,,,,
null,,black_cross(without_color)7,1145087,,,,,,,,blue,,,null,object_13a.png,object_11c.png,,,,,,,,,,,,,,,,,,,,,
null,,rt_plussign_withcolor7,1145588,,,,,,,,blue,,,null,object_13a.png,object_11c.png,,,,,,,,,,,,,,,,,,,,,
1073.2000000476837,,rt_thecrossant_black7,1146639,,,,,,,,black_plus_sign,,,49,,,1,,,,,,,1,,,,,,,,,,,,,
null,,color_black7,1146741,,,,,,,,black_plus_sign,,,null,,,,,,,,,,,,,,,,,,,,,,,
null,,learn_phase(without_color)7,1150243,,,,,,,,black_plus_sign,,,null,object_01b.png,object_14b.png,,,,,,,,,,,,,,,,,,,,,
null,,black_cross(without_color)7,1150818,,,,,,,,blue,,,null,object_01b.png,object_14b.png,,,,,,,,,,,,,,,,,,,,,
null,,rt_plussign_withcolor7,1151318,,,,,,,,blue,,,null,object_01b.png,object_14b.png,,,,,,,,,,,,,,,,,,,,,
1539.3999999761581,,rt_thecrossant_black7,1152757,,,,,,,,black_plus_sign,,,49,,,1,,,,,,,1,,,,,,,,,,,,,
null,,color_black7,1152859,,,,,,,,black_plus_sign,,,null,,,,,,,,,,,,,,,,,,,,,,,
null,,learn_phase(without_color)7,1156360,,,,,,,,black_plus_sign,,,null,object_09a.png,object_04b.png,,,,,,,,,,,,,,,,,,,,,
null,,black_cross(without_color)7,1157050,,,,,,,,blue,,,null,object_09a.png,object_04b.png,,,,,,,,,,,,,,,,,,,,,
null,,rt_plussign_withcolor7,1157551,,,,,,,,blue,,,null,object_09a.png,object_04b.png,,,,,,,,,,,,,,,,,,,,,
990.7999999523163,,rt_thecrossant_black7,1158865,,,,,,,,black_plus_sign,,,49,,,1,,,,,,,1,,,,,,,,,,,,,
null,,color_black7,1158979,,,,,,,,black_plus_sign,,,null,,,,,,,,,,,,,,,,,,,,,,,
null,,learn_phase(without_color)7,1162482,,,,,,,,black_plus_sign,,,null,object_06c.png,object_03b.png,,,,,,,,,,,,,,,,,,,,,
null,,black_cross(without_color)7,1163006,,,,,,,,green,,,null,object_06c.png,object_03b.png,,,,,,,,,,,,,,,,,,,,,
null,,rt_plussign_withcolor7,1163508,,,,,,,,green,,,null,object_06c.png,object_03b.png,,,,,,,,,,,,,,,,,,,,,
1081.1000000238419,,rt_thecrossant_black7,1164995,,,,,,,,black_plus_sign,,,50,,,1,,,,,,,1,,,,,,,,,,,,,
null,,color_black7,1165096,,,,,,,,black_plus_sign,,,null,,,,,,,,,,,,,,,,,,,,,,,
null,,learn_phase(without_color)7,1168598,,,,,,,,black_plus_sign,,,null,object_09c.png,object_15b.png,,,,,,,,,,,,,,,,,,,,,
null,,black_cross(without_color)7,1169249,,,,,,,,blue,,,null,object_09c.png,object_15b.png,,,,,,,,,,,,,,,,,,,,,
null,,rt_plussign_withcolor7,1169751,,,,,,,,blue,,,null,object_09c.png,object_15b.png,,,,,,,,,,,,,,,,,,,,,
1855.7999999523163,,rt_thecrossant_black7,1171105,,,,,,,,black_plus_sign,,,50,,,0,,,,,,,0.9,,,,,,,,,,,,,
null,,color_black7,1171207,,,,,,,,black_plus_sign,,,null,,,,,,,,,,,,,,,,,,,,,,,
null,,learn_phase(without_color)7,1174708,,,,,,,,black_plus_sign,,,null,object_04a.png,object_12c.png,,,,,,,,,,,,,,,,,,,,,
null,,black_cross(without_color)7,1175722,,,,,,,,green,,,null,object_04a.png,object_12c.png,,,,,,,,,,,,,,,,,,,,,
null,,rt_plussign_withcolor7,1176223,,,,,,,,green,,,null,object_04a.png,object_12c.png,,,,,,,,,,,,,,,,,,,,,
1083.1000000238419,,rt_thecrossant_black7,1177213,,,,,,,,black_plus_sign,,,50,,,1,,,,,,,0.9090909090909091,,,,,,,,,,,,,
null,,color_black7,1177316,,,,,,,,black_plus_sign,,,null,,,,,,,,,,,,,,,,,,,,,,,
null,,learn_phase(without_color)7,1180818,,,,,,,,black_plus_sign,,,null,object_02b.png,object_03a.png,,,,,,,,,,,,,,,,,,,,,
null,,black_cross(without_color)7,1181825,,,,,,,,blue,,,null,object_02b.png,object_03a.png,,,,,,,,,,,,,,,,,,,,,
null,,rt_plussign_withcolor7,1182327,,,,,,,,blue,,,null,object_02b.png,object_03a.png,,,,,,,,,,,,,,,,,,,,,
1487.1000000238419,,rt_thecrossant_black7,1183322,,,,,,,,black_plus_sign,,,49,,,1,,,,,,,0.9166666666666666,,,,,,,,,,,,,
null,,color_black7,1183424,,,,,,,,black_plus_sign,,,null,,,,,,,,,,,,,,,,,,,,,,,
null,,learn_phase(without_color)7,1186926,,,,,,,,black_plus_sign,,,null,object_08a.png,object_08b.png,,,,,,,,,,,,,,,,,,,,,
null,,black_cross(without_color)7,1187934,,,,,,,,green,,,null,object_08a.png,object_08b.png,,,,,,,,,,,,,,,,,,,,,
null,,rt_plussign_withcolor7,1188435,,,,,,,,green,,,null,object_08a.png,object_08b.png,,,,,,,,,,,,,,,,,,,,,
1373.5,,rt_thecrossant_black7,1189432,,,,,,,,black_plus_sign,,,50,,,1,,,,,,,0.9230769230769231,,,,,,,,,,,,,
null,,color_black7,1189533,,,,,,,,black_plus_sign,,,null,,,,,,,,,,,,,,,,,,,,,,,
null,,learn_phase(without_color)7,1193036,,,,,,,,black_plus_sign,,,null,object_07b.png,object_12b.png,,,,,,,,,,,,,,,,,,,,,
null,,black_cross(without_color)7,1193760,,,,,,,,green,,,null,object_07b.png,object_12b.png,,,,,,,,,,,,,,,,,,,,,
null,,rt_plussign_withcolor7,1194262,,,,,,,,green,,,null,object_07b.png,object_12b.png,,,,,,,,,,,,,,,,,,,,,
1228.5,,rt_thecrossant_black7,1195555,,,,,,,,black_plus_sign,,,50,,,1,,,,,,,0.9285714285714286,,,,,,,,,,,,,
null,,color_black7,1195657,,,,,,,,black_plus_sign,,,null,,,,,,,,,,,,,,,,,,,,,,,
null,,learn_phase(without_color)7,1199159,,,,,,,,black_plus_sign,,,null,object_14c.png,object_02c.png,,,,,,,,,,,,,,,,,,,,,
null,,black_cross(without_color)7,1200016,,,,,,,,green,,,null,object_14c.png,object_02c.png,,,,,,,,,,,,,,,,,,,,,
null,,rt_plussign_withcolor7,1200517,,,,,,,,green,,,null,object_14c.png,object_02c.png,,,,,,,,,,,,,,,,,,,,,
1414.3000000715256,,rt_thecrossant_black7,1201663,,,,,,,,black_plus_sign,,,50,,,1,,,,,,,0.9333333333333333,,,,,,,,,,,,,
null,,color_black7,1201765,,,,,,,,black_plus_sign,,,null,,,,,,,,,,,,,,,,,,,,,,,
null,,thebreak,1201867,,,,,,,,<p></p>,,,null,,,,,,,,,,,,,,,,,,,,,,,
608.3999999761581,,intro_0,1202476,,,,,,,,instruct,,,32,,,,,,,,,,,,,,,,,,,,,,,
1869.8999999761581,,directmemory_phase7,1204346,,,,,,,,object_11c.png,,,50,,,1,,object_07b.png,object_13a.png,object_08a.png,object_13a.png,,0.9120879120879121,1,,,,,,,,,,,,
1539.6000000238419,,directmemory_phase7,1205887,,,,,,,,object_01a.png,,,51,,,1,,object_01b.png,object_06c.png,object_10a.png,object_10a.png,,0.9130434782608695,1,,,,,,,,,,,,
1433.2000000476837,,directmemory_phase7,1207322,,,,,,,,object_03a.png,,,51,,,1,,object_13b.png,object_06c.png,object_02b.png,object_02b.png,,0.9139784946236559,1,,,,,,,,,,,,
1299.2000000476837,,directmemory_phase7,1208622,,,,,,,,object_12c.png,,,51,,,1,,object_13a.png,object_08a.png,object_04a.png,object_04a.png,,0.9148936170212766,1,,,,,,,,,,,,
1053.8999999761581,,directmemory_phase7,1209677,,,,,,,,object_12b.png,,,51,,,1,,object_14c.png,object_05c.png,object_07b.png,object_07b.png,,0.9157894736842105,1,1,,,,,,,,,,,
null,,slowdown_page,1219679,,,,,,,,too_quick,,,null,,,,,,,,,,,,,,,,,,,,,,,
5287.600000023842,,directmemory_phase7,1224968,,,,,,,,object_08b.png,,,51,,,1,,object_13a.png,object_09a.png,object_08a.png,object_08a.png,,0.9166666666666666,1,,,,,,,,,,,,
1060,,directmemory_phase7,1226029,,,,,,,,object_04b.png,,,49,,,1,,object_09a.png,object_04a.png,object_05c.png,object_09a.png,,0.9175257731958762,1,,,,,,,,,,,,
1329.5,,directmemory_phase7,1227359,,,,,,,,object_03b.png,,,49,,,1,,object_06c.png,object_14c.png,object_01b.png,object_06c.png,,0.9183673469387755,1,,,,,,,,,,,,
1141,,directmemory_phase7,1228501,,,,,,,,object_15a.png,,,51,,,1,,object_05c.png,object_08a.png,object_06b.png,object_06b.png,,0.9191919191919192,1,1,,,,,,,,,,,
null,,slowdown_page,1238502,,,,,,,,too_quick,,,null,,,,,,,,,,,,,,,,,,,,,,,
3129.2999999523163,,directmemory_phase7,1241632,,,,,,,,object_02c.png,,,50,,,1,,object_04a.png,object_14c.png,object_09c.png,object_14c.png,,0.92,1,,,,,,,,,,,,
3020.1999999284744,,directmemory_phase7,1244654,,,,,,,,object_06a.png,,,50,,,1,,object_11b.png,object_05c.png,object_13a.png,object_05c.png,,0.9207920792079208,1,,,,,,,,,,,,
1254.8000000715256,,directmemory_phase7,1245910,,,,,,,,object_14b.png,,,50,,,1,,object_02b.png,object_01b.png,object_06c.png,object_01b.png,,0.9215686274509803,1,,,,,,,,,,,,
2617.5,,directmemory_phase7,1248529,,,,,,,,object_09b.png,,,51,,,1,,object_05c.png,object_07b.png,object_11b.png,object_11b.png,,0.9223300970873787,1,,,,,,,,,,,,
1922.9000000953674,,directmemory_phase7,1250453,,,,,,,,object_08c.png,,,50,,,1,,object_02b.png,object_13b.png,object_14c.png,object_13b.png,,0.9230769230769231,1,,,,,,,,,,,,
2641.8000000715256,,directmemory_phase7,1253096,,,,,,,,object_15b.png,,,49,,,1,,object_09c.png,object_01b.png,object_05c.png,object_09c.png,,0.9238095238095239,1,,,,,,,,,,,,
null,,thebreak,1253199,,,,,,,,<p></p>,,,null,,,,,,,,,,,,,,,,,,,,,,,
763.7999999523163,,intro_0,1253963,,,,,,,,instruct,,,32,,,,,,,,,,,,,,,,,,,,,,,
null,,learn_phase(without_color)8,1257465,,,,,,,,black_plus_sign,,,null,object_06c.png,object_03b.png,,,,,,,,,,,,,,,,,,,,,
null,,black_cross(without_color)8,1258392,,,,,,,,blue,,,null,object_06c.png,object_03b.png,,,,,,,,,,,,,,,,,,,,,
null,,rt_plussign_withcolor8,1258894,,,,,,,,blue,,,null,object_06c.png,object_03b.png,,,,,,,,,,,,,,,,,,,,,
1745.8000000715256,,rt_thecrossant_black8,1259971,,,,,,,,black_plus_sign,,,49,,,1,,,,,,,1,,,,,,,,,,,,,
null,,color_black8,1260073,,,,,,,,black_plus_sign,,,null,,,,,,,,,,,,,,,,,,,,,,,
null,,learn_phase(without_color)8,1263576,,,,,,,,black_plus_sign,,,null,object_13b.png,object_08c.png,,,,,,,,,,,,,,,,,,,,,
null,,black_cross(without_color)8,1264026,,,,,,,,blue,,,null,object_13b.png,object_08c.png,,,,,,,,,,,,,,,,,,,,,
null,,rt_plussign_withcolor8,1264527,,,,,,,,blue,,,null,object_13b.png,object_08c.png,,,,,,,,,,,,,,,,,,,,,
null,,rt_thecrossant_black8,1266081,,,,,,,,black_plus_sign,,,null,,,,,,,,,,1,,,,,,,,,,,,,
null,,color_black8,1266182,,,,,,,,black_plus_sign,,,null,,,,,,,,,,,,,,,,,,,,,,,
null,,learn_phase(without_color)8,1269684,,,,,,,,black_plus_sign,,,null,object_10a.png,object_01a.png,,,,,,,,,,,,,,,,,,,,,
null,,black_cross(without_color)8,1270325,,,,,,,,green,,,null,object_10a.png,object_01a.png,,,,,,,,,,,,,,,,,,,,,
null,,rt_plussign_withcolor8,1270826,,,,,,,,green,,,null,object_10a.png,object_01a.png,,,,,,,,,,,,,,,,,,,,,
645.6999999284744,,rt_thecrossant_black8,1272190,,,,,,,,black_plus_sign,,,50,,,1,,,,,,,1,,,,,,,,,,,,,
null,,color_black8,1272291,,,,,,,,black_plus_sign,,,null,,,,,,,,,,,,,,,,,,,,,,,
null,,learn_phase(without_color)8,1275793,,,,,,,,black_plus_sign,,,null,object_01b.png,object_14b.png,,,,,,,,,,,,,,,,,,,,,
null,,black_cross(without_color)8,1276728,,,,,,,,green,,,null,object_01b.png,object_14b.png,,,,,,,,,,,,,,,,,,,,,
370.10000002384186,,rt_plussign_withcolor8,1277229,,,,,,,,green,,,50,object_01b.png,object_14b.png,,,,,,,,,,,,,,,,,,,,,
null,,rt_thecrossant_black8,1278298,,,,,,,,black_plus_sign,,,null,,,1,,,,,,,1,,,,,,,,,,,,,
null,,color_black8,1278399,,,,,,,,black_plus_sign,,,null,,,,,,,,,,,,,,,,,,,,,,,
null,,learn_phase(without_color)8,1281900,,,,,,,,black_plus_sign,,,null,object_14c.png,object_02c.png,,,,,,,,,,,,,,,,,,,,,
null,,black_cross(without_color)8,1282579,,,,,,,,blue,,,null,object_14c.png,object_02c.png,,,,,,,,,,,,,,,,,,,,,
null,,rt_plussign_withcolor8,1283081,,,,,,,,blue,,,null,object_14c.png,object_02c.png,,,,,,,,,,,,,,,,,,,,,
1709.8999999761581,,rt_thecrossant_black8,1284405,,,,,,,,black_plus_sign,,,49,,,1,,,,,,,1,,,,,,,,,,,,,
null,,color_black8,1284507,,,,,,,,black_plus_sign,,,null,,,,,,,,,,,,,,,,,,,,,,,
null,,learn_phase(without_color)8,1288010,,,,,,,,black_plus_sign,,,null,object_08a.png,object_08b.png,,,,,,,,,,,,,,,,,,,,,
null,,black_cross(without_color)8,1288781,,,,,,,,blue,,,null,object_08a.png,object_08b.png,,,,,,,,,,,,,,,,,,,,,
null,,rt_plussign_withcolor8,1289282,,,,,,,,blue,,,null,object_08a.png,object_08b.png,,,,,,,,,,,,,,,,,,,,,
948.5,,rt_thecrossant_black8,1290515,,,,,,,,black_plus_sign,,,49,,,1,,,,,,,1,,,,,,,,,,,,,
null,,color_black8,1290617,,,,,,,,black_plus_sign,,,null,,,,,,,,,,,,,,,,,,,,,,,
null,,learn_phase(without_color)8,1294119,,,,,,,,black_plus_sign,,,null,object_07b.png,object_12b.png,,,,,,,,,,,,,,,,,,,,,
null,,black_cross(without_color)8,1294685,,,,,,,,green,,,null,object_07b.png,object_12b.png,,,,,,,,,,,,,,,,,,,,,
480.2000000476837,,rt_plussign_withcolor8,1295187,,,,,,,,green,,,50,object_07b.png,object_12b.png,,,,,,,,,,,,,,,,,,,,,
null,,rt_thecrossant_black8,1296624,,,,,,,,black_plus_sign,,,null,,,1,,,,,,,1,,,,,,,,,,,,,
null,,color_black8,1296725,,,,,,,,black_plus_sign,,,null,,,,,,,,,,,,,,,,,,,,,,,
null,,learn_phase(without_color)8,1300227,,,,,,,,black_plus_sign,,,null,object_05c.png,object_06a.png,,,,,,,,,,,,,,,,,,,,,
null,,black_cross(without_color)8,1301095,,,,,,,,blue,,,null,object_05c.png,object_06a.png,,,,,,,,,,,,,,,,,,,,,
null,,rt_plussign_withcolor8,1301597,,,,,,,,blue,,,null,object_05c.png,object_06a.png,,,,,,,,,,,,,,,,,,,,,
924.3000000715256,,rt_thecrossant_black8,1302737,,,,,,,,black_plus_sign,,,49,,,1,,,,,,,1,,,,,,,,,,,,,
null,,color_black8,1302846,,,,,,,,black_plus_sign,,,null,,,,,,,,,,,,,,,,,,,,,,,
null,,learn_phase(without_color)8,1306349,,,,,,,,black_plus_sign,,,null,object_06b.png,object_15a.png,,,,,,,,,,,,,,,,,,,,,
null,,black_cross(without_color)8,1306831,,,,,,,,green,,,null,object_06b.png,object_15a.png,,,,,,,,,,,,,,,,,,,,,
null,,rt_plussign_withcolor8,1307340,,,,,,,,green,,,null,object_06b.png,object_15a.png,,,,,,,,,,,,,,,,,,,,,
1015,,rt_thecrossant_black8,1308862,,,,,,,,black_plus_sign,,,50,,,1,,,,,,,1,,,,,,,,,,,,,
null,,color_black8,1308964,,,,,,,,black_plus_sign,,,null,,,,,,,,,,,,,,,,,,,,,,,
null,,learn_phase(without_color)8,1312465,,,,,,,,black_plus_sign,,,null,object_02b.png,object_03a.png,,,,,,,,,,,,,,,,,,,,,
null,,black_cross(without_color)8,1312970,,,,,,,,green,,,null,object_02b.png,object_03a.png,,,,,,,,,,,,,,,,,,,,,
null,,rt_plussign_withcolor8,1313472,,,,,,,,green,,,null,object_02b.png,object_03a.png,,,,,,,,,,,,,,,,,,,,,
814.7000000476837,,rt_thecrossant_black8,1314984,,,,,,,,black_plus_sign,,,50,,,1,,,,,,,1,,,,,,,,,,,,,
null,,color_black8,1315085,,,,,,,,black_plus_sign,,,null,,,,,,,,,,,,,,,,,,,,,,,
null,,learn_phase(without_color)8,1318587,,,,,,,,black_plus_sign,,,null,object_13a.png,object_11c.png,,,,,,,,,,,,,,,,,,,,,
null,,black_cross(without_color)8,1319105,,,,,,,,blue,,,null,object_13a.png,object_11c.png,,,,,,,,,,,,,,,,,,,,,
null,,rt_plussign_withcolor8,1319606,,,,,,,,blue,,,null,object_13a.png,object_11c.png,,,,,,,,,,,,,,,,,,,,,
1210.6999999284744,,rt_thecrossant_black8,1321092,,,,,,,,black_plus_sign,,,49,,,1,,,,,,,1,,,,,,,,,,,,,
null,,color_black8,1321194,,,,,,,,black_plus_sign,,,null,,,,,,,,,,,,,,,,,,,,,,,
null,,learn_phase(without_color)8,1324696,,,,,,,,black_plus_sign,,,null,object_04a.png,object_12c.png,,,,,,,,,,,,,,,,,,,,,
null,,black_cross(without_color)8,1325282,,,,,,,,blue,,,null,object_04a.png,object_12c.png,,,,,,,,,,,,,,,,,,,,,
null,,rt_plussign_withcolor8,1325784,,,,,,,,blue,,,null,object_04a.png,object_12c.png,,,,,,,,,,,,,,,,,,,,,
714.7000000476837,,rt_thecrossant_black8,1327202,,,,,,,,black_plus_sign,,,49,,,1,,,,,,,1,,,,,,,,,,,,,
null,,color_black8,1327304,,,,,,,,black_plus_sign,,,null,,,,,,,,,,,,,,,,,,,,,,,
null,,learn_phase(without_color)8,1330814,,,,,,,,black_plus_sign,,,null,object_11b.png,object_09b.png,,,,,,,,,,,,,,,,,,,,,
null,,black_cross(without_color)8,1331659,,,,,,,,green,,,null,object_11b.png,object_09b.png,,,,,,,,,,,,,,,,,,,,,
null,,rt_plussign_withcolor8,1332161,,,,,,,,green,,,null,object_11b.png,object_09b.png,,,,,,,,,,,,,,,,,,,,,
1053.8999999761581,,rt_thecrossant_black8,1333318,,,,,,,,black_plus_sign,,,50,,,1,,,,,,,1,,,,,,,,,,,,,
null,,color_black8,1333421,,,,,,,,black_plus_sign,,,null,,,,,,,,,,,,,,,,,,,,,,,
null,,learn_phase(without_color)8,1336924,,,,,,,,black_plus_sign,,,null,object_09a.png,object_04b.png,,,,,,,,,,,,,,,,,,,,,
null,,black_cross(without_color)8,1337883,,,,,,,,blue,,,null,object_09a.png,object_04b.png,,,,,,,,,,,,,,,,,,,,,
null,,rt_plussign_withcolor8,1338385,,,,,,,,blue,,,null,object_09a.png,object_04b.png,,,,,,,,,,,,,,,,,,,,,
1271,,rt_thecrossant_black8,1339429,,,,,,,,black_plus_sign,,,49,,,1,,,,,,,1,,,,,,,,,,,,,
null,,color_black8,1339530,,,,,,,,black_plus_sign,,,null,,,,,,,,,,,,,,,,,,,,,,,
null,,learn_phase(without_color)8,1343041,,,,,,,,black_plus_sign,,,null,object_09c.png,object_15b.png,,,,,,,,,,,,,,,,,,,,,
null,,black_cross(without_color)8,1343576,,,,,,,,blue,,,null,object_09c.png,object_15b.png,,,,,,,,,,,,,,,,,,,,,
null,,rt_plussign_withcolor8,1344077,,,,,,,,blue,,,null,object_09c.png,object_15b.png,,,,,,,,,,,,,,,,,,,,,
1226.1000000238419,,rt_thecrossant_black8,1345546,,,,,,,,black_plus_sign,,,49,,,1,,,,,,,1,,,,,,,,,,,,,
null,,color_black8,1345653,,,,,,,,black_plus_sign,,,null,,,,,,,,,,,,,,,,,,,,,,,
null,,thebreak,1345755,,,,,,,,<p></p>,,,null,,,,,,,,,,,,,,,,,,,,,,,
940,,intro_0,1346696,,,,,,,,instruct,,,32,,,,,,,,,,,,,,,,,,,,,,,
1503.5,,directmemory_phase8,1348200,,,,,,,,object_12b.png,,,49,,,1,,object_07b.png,object_05c.png,object_06b.png,object_07b.png,,0.9245283018867925,1,,,,,,,,,,,,
1097.3999999761581,,directmemory_phase8,1349299,,,,,,,,object_03b.png,,,50,,,1,,object_08a.png,object_06c.png,object_09c.png,object_06c.png,,0.9252336448598131,1,,,,,,,,,,,,
1701.5999999046326,,directmemory_phase8,1351002,,,,,,,,object_02c.png,,,51,,,1,,object_05c.png,object_06c.png,object_14c.png,object_14c.png,,0.9259259259259259,1,,,,,,,,,,,,
1325.6999999284744,,directmemory_phase8,1352329,,,,,,,,object_15b.png,,,49,,,1,,object_09c.png,object_07b.png,object_14c.png,object_09c.png,,0.926605504587156,1,,,,,,,,,,,,
2768.5,,directmemory_phase8,1355099,,,,,,,,object_09b.png,,,49,,,1,,object_11b.png,object_06c.png,object_14c.png,object_11b.png,,0.9272727272727272,1,,,,,,,,,,,,
1501.1999999284744,,directmemory_phase8,1356602,,,,,,,,object_08c.png,,,50,,,1,,object_14c.png,object_13b.png,object_07b.png,object_13b.png,,0.9279279279279279,1,,,,,,,,,,,,
2918.7000000476837,,directmemory_phase8,1359522,,,,,,,,object_03a.png,,,49,,,1,,object_02b.png,object_06b.png,object_04a.png,object_02b.png,,0.9285714285714286,1,,,,,,,,,,,,
1012.3000000715256,,directmemory_phase8,1360535,,,,,,,,object_04b.png,,,50,,,1,,object_05c.png,object_09a.png,object_07b.png,object_09a.png,,0.9292035398230089,1,,,,,,,,,,,,
1488.7999999523163,,directmemory_phase8,1362025,,,,,,,,object_08b.png,,,50,,,1,,object_05c.png,object_08a.png,object_06c.png,object_08a.png,,0.9298245614035088,1,,,,,,,,,,,,
1081.5999999046326,,directmemory_phase8,1363108,,,,,,,,object_12c.png,,,51,,,1,,object_05c.png,object_09c.png,object_04a.png,object_04a.png,,0.9304347826086956,1,,,,,,,,,,,,
990.1000000238419,,directmemory_phase8,1364099,,,,,,,,object_01a.png,,,51,,,1,,object_13a.png,object_08a.png,object_10a.png,object_10a.png,,0.9310344827586207,1,1,,,,,,,,,,,
null,,slowdown_page,1374101,,,,,,,,too_quick,,,null,,,,,,,,,,,,,,,,,,,,,,,
1511.2000000476837,,directmemory_phase8,1375613,,,,,,,,object_11c.png,,,50,,,1,,object_13b.png,object_13a.png,object_04a.png,object_13a.png,,0.9316239316239316,1,,,,,,,,,,,,
1106.3999999761581,,directmemory_phase8,1376721,,,,,,,,object_14b.png,,,51,,,1,,object_11b.png,object_06c.png,object_01b.png,object_01b.png,,0.9322033898305084,1,,,,,,,,,,,,
2437.8000000715256,,directmemory_phase8,1379160,,,,,,,,object_06a.png,,,51,,,1,,object_11b.png,object_07b.png,object_05c.png,object_05c.png,,0.9327731092436975,1,,,,,,,,,,,,
1057,,directmemory_phase8,1380218,,,,,,,,object_15a.png,,,50,,,1,,object_09c.png,object_06b.png,object_08a.png,object_06b.png,,0.9333333333333333,1,,,,,,,,,,,,
null,,thebreak,1380319,,,,,,,,<p></p>,,,null,,,,,,,,,,,,,,,,,,,,,,,
3736.9000000953674,,intro_0,1384057,,,,,,,,instruct,,,32,,,,,,,,,,,,,,,,,,,,,,,
8752.400000095367,,intro_1,1392810,,,,,,,,instruct,,,32,,,,,,,,,,,,,,,,,,,,,,,
2634.600000023842,,intro_2,1395445,,,,,,,,instruct,,,32,,,,,,,,,,,,,,,,,,,,,,,
,,intro_3,1414543,,,,,,,,instruct,,,,,,,,,,,,,,,,,,,,,,,,,,
3472.600000023842,,intro_4,1418017,,,,,,,,instruct,,,32,,,,,,,,,,,,,,,,,,,,,,,
3624.5,,inference_phase,1421642,,,,,,,,object_08b.png,,,50,object_10c.png,object_13c.png,1,,,,,object_07a.png,,1,,,object_07a.png,,,,,,,,,,
5028,,inference_phase,1426671,,,,,,,,object_15a.png,,,49,object_13c.png,object_12a.png,1,,,,,object_13c.png,,1,,,object_10c.png,,,,,,,,,,
2401.399999976158,,inference_phase,1429074,,,,,,,,object_08c.png,,,51,object_04c.png,object_07c.png,1,,,,,object_07c.png,,1,,,object_05b.png,,,,,,,,,,
7483.200000047684,,inference_phase,1436558,,,,,,,,object_06a.png,,,51,object_15c.png,object_04c.png,1,,,,,object_04c.png,,1,,,object_02a.png,,,,,,,,,,
3251.899999976158,,inference_phase,1439811,,,,,,,,object_09b.png,,,51,object_12a.png,object_05b.png,1,,,,,object_05b.png,,1,,,object_10b.png,,,,,,,,,,
8713.800000071526,,inference_phase,1448526,,,,,,,,object_12c.png,,,50,object_05b.png,object_13c.png,1,,,,,object_10b.png,,1,,,object_10b.png,,,,,,,,,,
3602.6999999284744,,inference_phase,1452130,,,,,,,,object_03a.png,,,49,object_14a.png,object_05a.png,1,,,,,object_14a.png,,1,,,object_04c.png,,,,,,,,,,
3066.7999999523163,,inference_phase,1455198,,,,,,,,object_14b.png,,,49,object_01c.png,object_05a.png,1,,,,,object_01c.png,,1,,,object_04c.png,,,,,,,,,,
2292.0999999046326,,inference_phase,1457491,,,,,,,,object_04b.png,,,51,object_05b.png,object_12a.png,1,,,,,object_12a.png,,1,,,object_07c.png,,,,,,,,,,
2211.600000023842,,inference_phase,1459703,,,,,,,,object_11c.png,,,49,object_05a.png,object_04c.png,1,,,,,object_05a.png,,1,,,object_07c.png,,,,,,,,,,
10399.5,,inference_phase,1470105,,,,,,,,object_03b.png,,,50,object_02a.png,object_13c.png,1,,,,,object_15c.png,,1,,,object_15c.png,,,,,,,,,,
3892.7999999523163,,inference_phase,1473999,,,,,,,,object_02c.png,,,49,object_11a.png,object_02a.png,1,,,,,object_11a.png,,1,,,object_12a.png,,,,,,,,,,
4876.200000047684,,inference_phase,1478876,,,,,,,,object_01a.png,,,49,object_03c.png,object_05b.png,1,,,,,object_03c.png,,1,,,object_10c.png,,,,,,,,,,
2278.3000000715256,,inference_phase,1481156,,,,,,,,object_12b.png,,,50,object_12a.png,object_13c.png,1,,,,,object_02a.png,,1,,,object_02a.png,,,,,,,,,,
4053.100000023842,,inference_phase,1485210,,,,,,,,object_15b.png,,,49,object_10c.png,object_11a.png,1,,,,,object_10c.png,,1,,,object_07c.png,,,,,,,,,,
,,survey,1937835,,,,,,,,survey-questions,,,,,,,,,,,,,,,,,none,high,vaping, when something popped out that was not the familiar pair i didnt even have to remember it it just felt like the friends connection was already there in a flash in my mind,the object with ropes entangled is easy to make connection with the object that looks like a strange dumbell because i could set a scenario of gym where the same textured rope and dumbell could be found; the other rope related object looks like a bow is easily related to a phage-like object as in a biology scenario for some keywords like targeting bacteria as well as the original connection, angrybird game scene like object,never,its kinda funny that i answered some of them without hesitation and you tell me to consider carefully and slow. im just very sure about that so it might seem im doing it too fast as if im just messing with ya,,,
30470.199999928474,,thank_you,1968329,,,,,,,,<p> Congratulations, you are all done!</p><p> <strong>Please click space on your keyboard to end the experiment!</strong> The secret code to enter at the beginning screen is: <strong>CIMBPENS</strong></p><p> Please make sure to submit the HIT and email uciccnl@gmail.com if you had any issues! </p><br><p>Please remember to submit this data by clicking space after copying the code. Failure of submission will lead to in-complete payment</p>,,,32,,,,,,,,,,,,,,,,,,,,,2,1,C78LSMTN
