rt,responses,trial_type,time_elapsed,identifier_a,identifier_b,identifier_c,stimulus,button_pressed,response,key_press,stimulus_left,stimulus_right,practice_cumulative_accuracy,accuracy,stimulus_down_left,stimulus_down_mid,stimulus_down_right,stimulus_correct,prac_weighted_accuracy,cumulative_accuracy,weighted_accuracy,stimulus_middle,problems,smooth,distraction,strategies,easier,similar,comments
5208,{worker_id:66aeea402caf8dc1ab2b56d5},id_enter,5212,object_08a.png; object_03b.png; object_07a.png; object_04a.png; object_05c.png; object_12a.png; object_10c.png; object_05b.png; object_02b.png; object_06b.png; object_15a.png; object_14a.png; object_10b.png; object_15b.png; object_04b.png,object_01c.png; object_15c.png; object_06a.png; object_04c.png; object_08c.png; object_11a.png; object_06c.png; object_03a.png; object_08b.png; object_14c.png; object_14b.png; object_13c.png; object_09a.png; object_13a.png; object_12b.png,object_07b.png; object_11c.png; object_11b.png; object_07c.png; object_09c.png; object_01b.png; object_02c.png; object_10a.png; object_09b.png; object_02a.png; object_01a.png; object_05a.png; object_13b.png; object_03c.png; object_12c.png,,,,,,,,,,,,,,,,,,,,,,,
9881.60000000149,,make_fullscreen,15109,,,,fullscreen,0,,,,,,,,,,,,,,,,,,,,,
3591.39999999851,,instruct_1,18707,,,,instruct,0,Next,,,,,,,,,,,,,,,,,,,,
9105.70000000298,,instruct_2,27818,,,,instruct,1,Next,,,,,,,,,,,,,,,,,,,,
6348.20000000298,,instruct_3,34170,,,,instruct,1,Next,,,,,,,,,,,,,,,,,,,,
19267.80000000447,,instruct_4,53442,,,,instruct,1,Next,,,,,,,,,,,,,,,,,,,,
8340,,instruct_5,61787,,,,instruct,1,Next,,,,,,,,,,,,,,,,,,,,
2940.60000000149,,instruct_6,64731,,,,instruct,1,Next,,,,,,,,,,,,,,,,,,,,
25385.89999999851,,instruct_7,90122,,,,instruct,1,Next,,,,,,,,,,,,,,,,,,,,
null,,prac_atten_color_black,90600,,,,black_plus_sign,,,null,,,,,,,,,,,,,,,,,,,
null,,prac_atten_color,91533,,,,<p style='position:absolute;top: 50%;right: 50%;transform: translate(50%, -50%);font-size: 125px;color: blue;'>+</p>,,,null,,,,,,,,,,,,,,,,,,,
547.4000000059605,,prac_atten_color_black,93537,,,,black_plus_sign,,,49,,,,,,,,,,,,,,,,,,,
null,,prac_atten_color_black,94015,,,,black_plus_sign,,,null,,,,,,,,,,,,,,,,,,,
480.30000000447035,,prac_atten_color,94848,,,,<p style='position:absolute;top: 50%;right: 50%;transform: translate(50%, -50%);font-size: 125px;color: green;'>+</p>,,,50,,,,,,,,,,,,,,,,,,,
null,,prac_atten_color_black,96851,,,,black_plus_sign,,,null,,,,,,,,,,,,,,,,,,,
null,,prac_atten_color_black,97426,,,,black_plus_sign,,,null,,,,,,,,,,,,,,,,,,,
739.3999999985099,,prac_atten_color,98288,,,,<p style='position:absolute;top: 50%;right: 50%;transform: translate(50%, -50%);font-size: 125px;color: green;'>+</p>,,,50,,,,,,,,,,,,,,,,,,,
null,,prac_atten_color_black,100291,,,,black_plus_sign,,,null,,,,,,,,,,,,,,,,,,,
null,,prac_atten_color_black,100839,,,,black_plus_sign,,,null,,,,,,,,,,,,,,,,,,,
561.3999999985099,,prac_atten_color,101755,,,,<p style='position:absolute;top: 50%;right: 50%;transform: translate(50%, -50%);font-size: 125px;color: blue;'>+</p>,,,49,,,,,,,,,,,,,,,,,,,
null,,prac_atten_color_black,103759,,,,black_plus_sign,,,null,,,,,,,,,,,,,,,,,,,
null,,prac_atten_color_black,104253,,,,black_plus_sign,,,null,,,,,,,,,,,,,,,,,,,
null,,prac_atten_color,104805,,,,<p style='position:absolute;top: 50%;right: 50%;transform: translate(50%, -50%);font-size: 125px;color: green;'>+</p>,,,null,,,,,,,,,,,,,,,,,,,
3.399999998509884,,prac_atten_color_black,106809,,,,black_plus_sign,,,50,,,,,,,,,,,,,,,,,,,
null,,prac_atten_color_black,107666,,,,black_plus_sign,,,null,,,,,,,,,,,,,,,,,,,
748,,prac_atten_color,108728,,,,<p style='position:absolute;top: 50%;right: 50%;transform: translate(50%, -50%);font-size: 125px;color: green;'>+</p>,,,50,,,,,,,,,,,,,,,,,,,
null,,prac_atten_color_black,110731,,,,black_plus_sign,,,null,,,,,,,,,,,,,,,,,,,
null,,prac_atten_color_black,111079,,,,black_plus_sign,,,null,,,,,,,,,,,,,,,,,,,
670.8999999985099,,prac_atten_color,111899,,,,<p style='position:absolute;top: 50%;right: 50%;transform: translate(50%, -50%);font-size: 125px;color: blue;'>+</p>,,,49,,,,,,,,,,,,,,,,,,,
null,,prac_atten_color_black,113902,,,,black_plus_sign,,,null,,,,,,,,,,,,,,,,,,,
null,,prac_atten_color_black,114492,,,,black_plus_sign,,,null,,,,,,,,,,,,,,,,,,,
null,,prac_atten_color,115073,,,,<p style='position:absolute;top: 50%;right: 50%;transform: translate(50%, -50%);font-size: 125px;color: green;'>+</p>,,,null,,,,,,,,,,,,,,,,,,,
30,,prac_atten_color_black,117077,,,,black_plus_sign,,,50,,,,,,,,,,,,,,,,,,,
null,,prac_atten_color_black,117907,,,,black_plus_sign,,,null,,,,,,,,,,,,,,,,,,,
609.7999999970198,,prac_atten_color,118988,,,,<p style='position:absolute;top: 50%;right: 50%;transform: translate(50%, -50%);font-size: 125px;color: blue;'>+</p>,,,49,,,,,,,,,,,,,,,,,,,
null,,prac_atten_color_black,120991,,,,black_plus_sign,,,null,,,,,,,,,,,,,,,,,,,
null,,prac_atten_color_black,121320,,,,black_plus_sign,,,null,,,,,,,,,,,,,,,,,,,
558,,prac_atten_color,122399,,,,<p style='position:absolute;top: 50%;right: 50%;transform: translate(50%, -50%);font-size: 125px;color: blue;'>+</p>,,,49,,,,,,,,,,,,,,,,,,,
null,,prac_atten_color_black,124402,,,,black_plus_sign,,,null,,,,,,,,,,,,,,,,,,,
5759.80000000447,,attentioncheck_feedback,130168,,,,cross_check_feedback,0,,,,,,,,,,,,,,,,,,,,,
7136,,last_instruct,137307,,,,instruct,,,32,,,,,,,,,,,,,,,,,,,
null,,prac_learn_phase(without_color),140811,,,,black_plus_sign,,,null,object_12c.png,object_12b.png,,,,,,,,,,,,,,,,,
null,,prac_black_cross(without_color),141914,,,,green,,,null,object_12c.png,object_12b.png,,,,,,,,,,,,,,,,,
null,,prac_rt_plussign_withcolor,142417,,,,green,,,null,object_12c.png,object_12b.png,,,,,,,,,,,,,,,,,
null,,prac_rt_thecrossant_black,143325,,,,black_plus_sign,,,null,,,NaN,,,,,,,,,,,,,,,,
null,,prac_color_black,143430,,,,black_plus_sign,,,null,,,,,,,,,,,,,,,,,,,
null,,prac_learn_phase(without_color),146937,,,,black_plus_sign,,,null,object_04c.png,object_07c.png,,,,,,,,,,,,,,,,,
null,,black_cross(without_color)1,147435,,,,green,,,null,object_12c.png,object_12b.png,,,,,,,,,,,,,,,,,
null,,prac_rt_plussign_withcolor,147939,,,,green,,,null,object_04c.png,object_07c.png,,,,,,,,,,,,,,,,,
null,,prac_rt_thecrossant_black,148870,,,,black_plus_sign,,,null,,,NaN,,,,,,,,,,,,,,,,
null,,warning_page,153876,,,,warning,,,null,,,,,,,,,,,,,,,,,,,
null,,prac_color_black,153989,,,,black_plus_sign,,,null,,,,,,,,,,,,,,,,,,,
null,,prac_learn_phase(without_color),157494,,,,black_plus_sign,,,null,object_10c.png,object_06c.png,,,,,,,,,,,,,,,,,
null,,black_cross(without_color)1,157987,,,,green,,,null,object_12c.png,object_12b.png,,,,,,,,,,,,,,,,,
null,,prac_rt_plussign_withcolor,158490,,,,green,,,null,object_10c.png,object_06c.png,,,,,,,,,,,,,,,,,
null,,prac_rt_thecrossant_black,159623,,,,black_plus_sign,,,null,,,NaN,,,,,,,,,,,,,,,,
null,,warning_page,164630,,,,warning,,,null,,,,,,,,,,,,,,,,,,,
null,,prac_color_black,164739,,,,black_plus_sign,,,null,,,,,,,,,,,,,,,,,,,
null,,prac_learn_phase(without_color),168245,,,,black_plus_sign,,,null,object_06a.png,object_11b.png,,,,,,,,,,,,,,,,,
null,,black_cross(without_color)1,168739,,,,green,,,null,object_12c.png,object_12b.png,,,,,,,,,,,,,,,,,
null,,prac_rt_plussign_withcolor,169241,,,,blue,,,null,object_06a.png,object_11b.png,,,,,,,,,,,,,,,,,
1377.7999999970198,,prac_rt_thecrossant_black,170569,,,,black_plus_sign,,,49,,,1,1,,,,,,,,,,,,,,,
null,,prac_color_black,170673,,,,black_plus_sign,,,null,,,,,,,,,,,,,,,,,,,
7572.20000000298,,instruct_dir_01,178251,,,,instruct,0,Next,,,,,,,,,,,,,,,,,,,,
8083.70000000298,,instruct_dir_2,186339,,,,instruct,1,Next,,,,,,,,,,,,,,,,,,,,
5441.5,,instruct_dir_3,191787,,,,instruct,1,Next,,,,,,,,,,,,,,,,,,,,
7163.19999999553,,instruct_dir_4,198955,,,,instruct,1,Start,,,,,,,,,,,,,,,,,,,,
null,,thebreak,199060,,,,<p></p>,,,null,,,,,,,,,,,,,,,,,,,
2213.1999999955297,,intro_0,201276,,,,instruct,,,32,,,,,,,,,,,,,,,,,,,
4578.79999999702,,prac_directmemory_phase,205859,,,,practice/object_02a.png,,,50,,,,1,practice/object_04a.png,practice/object_02b.png,practice/object_03b.png,practice/object_02b.png,1,1,,,,,,,,,
3711.1999999955297,,prac_directmemory_phase,209578,,,,practice/object_04a.png,,,51,,,,0,practice/object_04b.png,practice/object_01b.png,practice/object_03a.png,practice/object_04b.png,0,0.5,,,,,,,,,
2913.5,,prac_directmemory_phase,212498,,,,practice/object_03a.png,,,49,,,,1,practice/object_03b.png,practice/object_02b.png,practice/object_04a.png,practice/object_03b.png,1,0.6666666666666666,,,,,,,,,
2305.7000000029802,,prac_directmemory_phase,214811,,,,practice/object_01a.png,,,49,,,,1,practice/object_01b.png,practice/object_02b.png,practice/object_03a.png,practice/object_01b.png,1,0.75,,,,,,,,,
9306.79999999702,,practice_feedback,224124,,,,practice_feedback,0,,,,,,,,,,,,,,,,,,,,,
5507.29999999702,,last_instruct,229635,,,,instruct,,,32,,,,,,,,,,,,,,,,,,,
null,,prac_learn_phase(without_color),233139,,,,black_plus_sign,,,null,object_12c.png,object_12b.png,,,,,,,,,,,,,,,,,
null,,prac_black_cross(without_color),234040,,,,green,,,null,object_12c.png,object_12b.png,,,,,,,,,,,,,,,,,
null,,prac_rt_plussign_withcolor,234543,,,,green,,,null,object_12c.png,object_12b.png,,,,,,,,,,,,,,,,,
null,,prac_rt_thecrossant_black,235652,,,,black_plus_sign,,,null,,,1,,,,,,,,,,,,,,,,
null,,prac_color_black,235756,,,,black_plus_sign,,,null,,,,,,,,,,,,,,,,,,,
null,,prac_learn_phase(without_color),239262,,,,black_plus_sign,,,null,object_04c.png,object_07c.png,,,,,,,,,,,,,,,,,
null,,black_cross(without_color)1,239765,,,,green,,,null,object_12c.png,object_12b.png,,,,,,,,,,,,,,,,,
null,,prac_rt_plussign_withcolor,240269,,,,green,,,null,object_04c.png,object_07c.png,,,,,,,,,,,,,,,,,
null,,prac_rt_thecrossant_black,241850,,,,black_plus_sign,,,null,,,1,,,,,,,,,,,,,,,,
null,,warning_page,246855,,,,warning,,,null,,,,,,,,,,,,,,,,,,,
null,,prac_color_black,246967,,,,black_plus_sign,,,null,,,,,,,,,,,,,,,,,,,
null,,prac_learn_phase(without_color),250470,,,,black_plus_sign,,,null,object_10c.png,object_06c.png,,,,,,,,,,,,,,,,,
null,,black_cross(without_color)1,250962,,,,green,,,null,object_12c.png,object_12b.png,,,,,,,,,,,,,,,,,
null,,prac_rt_plussign_withcolor,251465,,,,green,,,null,object_10c.png,object_06c.png,,,,,,,,,,,,,,,,,
null,,prac_rt_thecrossant_black,252775,,,,black_plus_sign,,,null,,,1,,,,,,,,,,,,,,,,
null,,warning_page,257780,,,,warning,,,null,,,,,,,,,,,,,,,,,,,
null,,prac_color_black,257894,,,,black_plus_sign,,,null,,,,,,,,,,,,,,,,,,,
null,,prac_learn_phase(without_color),261399,,,,black_plus_sign,,,null,object_06a.png,object_11b.png,,,,,,,,,,,,,,,,,
null,,black_cross(without_color)1,261891,,,,green,,,null,object_12c.png,object_12b.png,,,,,,,,,,,,,,,,,
null,,prac_rt_plussign_withcolor,262393,,,,blue,,,null,object_06a.png,object_11b.png,,,,,,,,,,,,,,,,,
1134.3000000044703,,prac_rt_thecrossant_black,263424,,,,black_plus_sign,,,49,,,1,1,,,,,,,,,,,,,,,
null,,prac_color_black,263528,,,,black_plus_sign,,,null,,,,,,,,,,,,,,,,,,,
4125.89999999851,,instruct_dir_01,267659,,,,instruct,0,Next,,,,,,,,,,,,,,,,,,,,
2131.5,,instruct_dir_2,269794,,,,instruct,1,Next,,,,,,,,,,,,,,,,,,,,
3197.2000000029802,,instruct_dir_3,272995,,,,instruct,1,Next,,,,,,,,,,,,,,,,,,,,
3306.39999999851,,instruct_dir_4,276308,,,,instruct,1,Start,,,,,,,,,,,,,,,,,,,,
null,,thebreak,276411,,,,<p></p>,,,null,,,,,,,,,,,,,,,,,,,
1740.2999999970198,,intro_0,278154,,,,instruct,,,32,,,,,,,,,,,,,,,,,,,
4301.10000000149,,prac_directmemory_phase,282458,,,,practice/object_02a.png,,,50,,,,1,practice/object_04a.png,practice/object_02b.png,practice/object_03b.png,practice/object_02b.png,1,1,,,,,,,,,
5099.29999999702,,prac_directmemory_phase,287564,,,,practice/object_04a.png,,,49,,,,1,practice/object_04b.png,practice/object_01b.png,practice/object_03a.png,practice/object_04b.png,1,1,,,,,,,,,
4039.2999999970198,,prac_directmemory_phase,291609,,,,practice/object_03a.png,,,49,,,,1,practice/object_03b.png,practice/object_02b.png,practice/object_04a.png,practice/object_03b.png,1,1,,,,,,,,,
2565.2999999970198,,prac_directmemory_phase,294179,,,,practice/object_01a.png,,,50,,,,0,practice/object_01b.png,practice/object_02b.png,practice/object_03a.png,practice/object_01b.png,0,0.75,,,,,,,,,
4730.39999999851,,practice_feedback,298916,,,,practice_feedback,1,,,,,,,,,,,,,,,,,,,,,
9044.5,,proceed_actualTask,307963,,,,proceed_actualTask,1,Continue,,,,,,,,,,,,,,,,,,,,
9539.69999999553,,last_inst,317507,,,,last_inst,,,32,,,,,,,,,,,,,,,,,,,
null,,learn_phase(without_color)1,321011,,,,black_plus_sign,,,null,object_12c.png,object_12b.png,,,,,,,,,,,,,,,,,
null,,black_cross(without_color)1,321504,,,,green,,,null,object_12c.png,object_12b.png,,,,,,,,,,,,,,,,,
null,,rt_plussign_withcolor1,322006,,,,green,,,null,object_12c.png,object_12b.png,,,,,,,,,,,,,,,,,
null,,rt_thecrossant_black1,323523,,,,black_plus_sign,,,null,,,,,,,,,,NaN,,,,,,,,,
null,,color_black1,323628,,,,black_plus_sign,,,null,,,,,,,,,,,,,,,,,,,
null,,learn_phase(without_color)1,327133,,,,black_plus_sign,,,null,object_04c.png,object_07c.png,,,,,,,,,,,,,,,,,
null,,black_cross(without_color)1,328185,,,,blue,,,null,object_04c.png,object_07c.png,,,,,,,,,,,,,,,,,
null,,rt_plussign_withcolor1,328687,,,,blue,,,null,object_04c.png,object_07c.png,,,,,,,,,,,,,,,,,
1319.7999999970198,,rt_thecrossant_black1,329644,,,,black_plus_sign,,,49,,,,1,,,,,,1,,,,,,,,,
null,,color_black1,329749,,,,black_plus_sign,,,null,,,,,,,,,,,,,,,,,,,
null,,learn_phase(without_color)1,333254,,,,black_plus_sign,,,null,object_10c.png,object_06c.png,,,,,,,,,,,,,,,,,
null,,black_cross(without_color)1,333714,,,,green,,,null,object_10c.png,object_06c.png,,,,,,,,,,,,,,,,,
null,,rt_plussign_withcolor1,334216,,,,green,,,null,object_10c.png,object_06c.png,,,,,,,,,,,,,,,,,
2081,,rt_thecrossant_black1,335767,,,,black_plus_sign,,,50,,,,1,,,,,,1,,,,,,,,,
null,,color_black1,335872,,,,black_plus_sign,,,null,,,,,,,,,,,,,,,,,,,
null,,learn_phase(without_color)1,339379,,,,black_plus_sign,,,null,object_06a.png,object_11b.png,,,,,,,,,,,,,,,,,
null,,black_cross(without_color)1,339869,,,,green,,,null,object_06a.png,object_11b.png,,,,,,,,,,,,,,,,,
null,,rt_plussign_withcolor1,340372,,,,green,,,null,object_06a.png,object_11b.png,,,,,,,,,,,,,,,,,
598.5,,rt_thecrossant_black1,341891,,,,black_plus_sign,,,50,,,,1,,,,,,1,,,,,,,,,
null,,color_black1,341996,,,,black_plus_sign,,,null,,,,,,,,,,,,,,,,,,,
null,,learn_phase(without_color)1,345502,,,,black_plus_sign,,,null,object_06b.png,object_14c.png,,,,,,,,,,,,,,,,,
null,,black_cross(without_color)1,346517,,,,green,,,null,object_06b.png,object_14c.png,,,,,,,,,,,,,,,,,
null,,rt_plussign_withcolor1,347019,,,,green,,,null,object_06b.png,object_14c.png,,,,,,,,,,,,,,,,,
700.5,,rt_thecrossant_black1,348014,,,,black_plus_sign,,,50,,,,1,,,,,,1,,,,,,,,,
null,,color_black1,348118,,,,black_plus_sign,,,null,,,,,,,,,,,,,,,,,,,
null,,learn_phase(without_color)1,351623,,,,black_plus_sign,,,null,object_03b.png,object_15c.png,,,,,,,,,,,,,,,,,
null,,black_cross(without_color)1,352545,,,,blue,,,null,object_03b.png,object_15c.png,,,,,,,,,,,,,,,,,
464.1000000014901,,rt_plussign_withcolor1,353047,,,,blue,,,49,object_03b.png,object_15c.png,,,,,,,,,,,,,,,,,
null,,rt_thecrossant_black1,354135,,,,black_plus_sign,,,null,,,,1,,,,,,1,,,,,,,,,
null,,color_black1,354240,,,,black_plus_sign,,,null,,,,,,,,,,,,,,,,,,,
null,,learn_phase(without_color)1,357745,,,,black_plus_sign,,,null,object_09c.png,object_08c.png,,,,,,,,,,,,,,,,,
null,,black_cross(without_color)1,358215,,,,green,,,null,object_09c.png,object_08c.png,,,,,,,,,,,,,,,,,
null,,rt_plussign_withcolor1,358717,,,,green,,,null,object_09c.png,object_08c.png,,,,,,,,,,,,,,,,,
1313.6000000014901,,rt_thecrossant_black1,360255,,,,black_plus_sign,,,50,,,,1,,,,,,1,,,,,,,,,
null,,color_black1,360360,,,,black_plus_sign,,,null,,,,,,,,,,,,,,,,,,,
null,,learn_phase(without_color)1,363865,,,,black_plus_sign,,,null,object_13a.png,object_15b.png,,,,,,,,,,,,,,,,,
null,,black_cross(without_color)1,364912,,,,green,,,null,object_13a.png,object_15b.png,,,,,,,,,,,,,,,,,
497.5,,rt_plussign_withcolor1,365414,,,,green,,,50,object_13a.png,object_15b.png,,,,,,,,,,,,,,,,,
null,,rt_thecrossant_black1,366376,,,,black_plus_sign,,,null,,,,1,,,,,,1,,,,,,,,,
null,,color_black1,366481,,,,black_plus_sign,,,null,,,,,,,,,,,,,,,,,,,
null,,learn_phase(without_color)1,369986,,,,black_plus_sign,,,null,object_11a.png,object_01b.png,,,,,,,,,,,,,,,,,
null,,black_cross(without_color)1,370967,,,,green,,,null,object_11a.png,object_01b.png,,,,,,,,,,,,,,,,,
null,,rt_plussign_withcolor1,371470,,,,green,,,null,object_11a.png,object_01b.png,,,,,,,,,,,,,,,,,
1216.1999999955297,,rt_thecrossant_black1,372500,,,,black_plus_sign,,,50,,,,1,,,,,,1,,,,,,,,,
null,,color_black1,372605,,,,black_plus_sign,,,null,,,,,,,,,,,,,,,,,,,
null,,learn_phase(without_color)1,376108,,,,black_plus_sign,,,null,object_14c.png,object_02a.png,,,,,,,,,,,,,,,,,
null,,black_cross(without_color)1,377032,,,,blue,,,null,object_14c.png,object_02a.png,,,,,,,,,,,,,,,,,
null,,rt_plussign_withcolor1,377536,,,,blue,,,null,object_14c.png,object_02a.png,,,,,,,,,,,,,,,,,
1304.3999999985099,,rt_thecrossant_black1,378621,,,,black_plus_sign,,,49,,,,1,,,,,,1,,,,,,,,,
null,,color_black1,378726,,,,black_plus_sign,,,null,,,,,,,,,,,,,,,,,,,
null,,learn_phase(without_color)1,382231,,,,black_plus_sign,,,null,object_10b.png,object_09a.png,,,,,,,,,,,,,,,,,
null,,black_cross(without_color)1,383114,,,,green,,,null,object_10b.png,object_09a.png,,,,,,,,,,,,,,,,,
null,,rt_plussign_withcolor1,383617,,,,green,,,null,object_10b.png,object_09a.png,,,,,,,,,,,,,,,,,
1186,,rt_thecrossant_black1,384742,,,,black_plus_sign,,,50,,,,1,,,,,,1,,,,,,,,,
null,,color_black1,384846,,,,black_plus_sign,,,null,,,,,,,,,,,,,,,,,,,
null,,learn_phase(without_color)1,388352,,,,black_plus_sign,,,null,object_04a.png,object_04c.png,,,,,,,,,,,,,,,,,
null,,black_cross(without_color)1,389232,,,,green,,,null,object_04a.png,object_04c.png,,,,,,,,,,,,,,,,,
null,,rt_plussign_withcolor1,389734,,,,green,,,null,object_04a.png,object_04c.png,,,,,,,,,,,,,,,,,
1105.8999999985099,,rt_thecrossant_black1,390863,,,,black_plus_sign,,,50,,,,1,,,,,,1,,,,,,,,,
null,,color_black1,390966,,,,black_plus_sign,,,null,,,,,,,,,,,,,,,,,,,
null,,learn_phase(without_color)1,394469,,,,black_plus_sign,,,null,object_13c.png,object_14a.png,,,,,,,,,,,,,,,,,
null,,black_cross(without_color)1,394981,,,,blue,,,null,object_13c.png,object_14a.png,,,,,,,,,,,,,,,,,
null,,rt_plussign_withcolor1,395487,,,,blue,,,null,object_13c.png,object_14a.png,,,,,,,,,,,,,,,,,
1046.5,,rt_thecrossant_black1,396984,,,,black_plus_sign,,,49,,,,1,,,,,,1,,,,,,,,,
null,,color_black1,397089,,,,black_plus_sign,,,null,,,,,,,,,,,,,,,,,,,
null,,learn_phase(without_color)1,400594,,,,black_plus_sign,,,null,object_05b.png,object_03a.png,,,,,,,,,,,,,,,,,
null,,black_cross(without_color)1,401004,,,,blue,,,null,object_05b.png,object_03a.png,,,,,,,,,,,,,,,,,
null,,rt_plussign_withcolor1,401507,,,,blue,,,null,object_05b.png,object_03a.png,,,,,,,,,,,,,,,,,
851.1000000014901,,rt_thecrossant_black1,403105,,,,black_plus_sign,,,49,,,,1,,,,,,1,,,,,,,,,
null,,color_black1,403209,,,,black_plus_sign,,,null,,,,,,,,,,,,,,,,,,,
null,,learn_phase(without_color)1,406715,,,,black_plus_sign,,,null,object_01c.png,object_08a.png,,,,,,,,,,,,,,,,,
null,,black_cross(without_color)1,407616,,,,blue,,,null,object_01c.png,object_08a.png,,,,,,,,,,,,,,,,,
null,,rt_plussign_withcolor1,408119,,,,blue,,,null,object_01c.png,object_08a.png,,,,,,,,,,,,,,,,,
545.3999999985099,,rt_thecrossant_black1,409227,,,,black_plus_sign,,,49,,,,1,,,,,,1,,,,,,,,,
null,,color_black1,409332,,,,black_plus_sign,,,null,,,,,,,,,,,,,,,,,,,
null,,learn_phase(without_color)1,412838,,,,black_plus_sign,,,null,object_07a.png,object_06a.png,,,,,,,,,,,,,,,,,
null,,black_cross(without_color)1,413411,,,,green,,,null,object_07a.png,object_06a.png,,,,,,,,,,,,,,,,,
null,,rt_plussign_withcolor1,413913,,,,green,,,null,object_07a.png,object_06a.png,,,,,,,,,,,,,,,,,
1162.8999999985099,,rt_thecrossant_black1,415349,,,,black_plus_sign,,,50,,,,1,,,,,,1,,,,,,,,,
null,,color_black1,415453,,,,black_plus_sign,,,null,,,,,,,,,,,,,,,,,,,
null,,learn_phase(without_color)1,418959,,,,black_plus_sign,,,null,object_01c.png,object_07b.png,,,,,,,,,,,,,,,,,
null,,black_cross(without_color)1,419458,,,,green,,,null,object_01c.png,object_07b.png,,,,,,,,,,,,,,,,,
null,,rt_plussign_withcolor1,419963,,,,green,,,null,object_01c.png,object_07b.png,,,,,,,,,,,,,,,,,
919.7999999970198,,rt_thecrossant_black1,421473,,,,black_plus_sign,,,50,,,,1,,,,,,1,,,,,,,,,
null,,color_black1,421579,,,,black_plus_sign,,,null,,,,,,,,,,,,,,,,,,,
null,,learn_phase(without_color)1,425084,,,,black_plus_sign,,,null,object_12a.png,object_11a.png,,,,,,,,,,,,,,,,,
null,,black_cross(without_color)1,425563,,,,green,,,null,object_12a.png,object_11a.png,,,,,,,,,,,,,,,,,
null,,rt_plussign_withcolor1,426065,,,,green,,,null,object_12a.png,object_11a.png,,,,,,,,,,,,,,,,,
1223.6999999955297,,rt_thecrossant_black1,427599,,,,black_plus_sign,,,50,,,,1,,,,,,1,,,,,,,,,
null,,color_black1,427703,,,,black_plus_sign,,,null,,,,,,,,,,,,,,,,,,,
null,,learn_phase(without_color)1,431208,,,,black_plus_sign,,,null,object_11c.png,object_15c.png,,,,,,,,,,,,,,,,,
null,,black_cross(without_color)1,431991,,,,green,,,null,object_11c.png,object_15c.png,,,,,,,,,,,,,,,,,
null,,rt_plussign_withcolor1,432494,,,,green,,,null,object_11c.png,object_15c.png,,,,,,,,,,,,,,,,,
780.6000000014901,,rt_thecrossant_black1,433719,,,,black_plus_sign,,,50,,,,1,,,,,,1,,,,,,,,,
null,,color_black1,433824,,,,black_plus_sign,,,null,,,,,,,,,,,,,,,,,,,
null,,learn_phase(without_color)1,437330,,,,black_plus_sign,,,null,object_13a.png,object_03c.png,,,,,,,,,,,,,,,,,
null,,black_cross(without_color)1,438091,,,,green,,,null,object_13a.png,object_03c.png,,,,,,,,,,,,,,,,,
null,,rt_plussign_withcolor1,438593,,,,green,,,null,object_13a.png,object_03c.png,,,,,,,,,,,,,,,,,
979,,rt_thecrossant_black1,439845,,,,black_plus_sign,,,50,,,,1,,,,,,1,,,,,,,,,
null,,color_black1,439950,,,,black_plus_sign,,,null,,,,,,,,,,,,,,,,,,,
null,,learn_phase(without_color)1,443456,,,,black_plus_sign,,,null,object_10a.png,object_03a.png,,,,,,,,,,,,,,,,,
null,,black_cross(without_color)1,444336,,,,blue,,,null,object_10a.png,object_03a.png,,,,,,,,,,,,,,,,,
null,,rt_plussign_withcolor1,444838,,,,blue,,,null,object_10a.png,object_03a.png,,,,,,,,,,,,,,,,,
908.1000000014901,,rt_thecrossant_black1,445967,,,,black_plus_sign,,,49,,,,1,,,,,,1,,,,,,,,,
null,,color_black1,446071,,,,black_plus_sign,,,null,,,,,,,,,,,,,,,,,,,
null,,learn_phase(without_color)1,449575,,,,black_plus_sign,,,null,object_01a.png,object_14b.png,,,,,,,,,,,,,,,,,
null,,black_cross(without_color)1,450070,,,,green,,,null,object_01a.png,object_14b.png,,,,,,,,,,,,,,,,,
null,,rt_plussign_withcolor1,450573,,,,green,,,null,object_01a.png,object_14b.png,,,,,,,,,,,,,,,,,
1219.1000000014901,,rt_thecrossant_black1,452087,,,,black_plus_sign,,,50,,,,1,,,,,,1,,,,,,,,,
null,,color_black1,452193,,,,black_plus_sign,,,null,,,,,,,,,,,,,,,,,,,
null,,learn_phase(without_color)1,455698,,,,black_plus_sign,,,null,object_02b.png,object_08b.png,,,,,,,,,,,,,,,,,
null,,black_cross(without_color)1,456765,,,,blue,,,null,object_02b.png,object_08b.png,,,,,,,,,,,,,,,,,
null,,rt_plussign_withcolor1,457267,,,,blue,,,null,object_02b.png,object_08b.png,,,,,,,,,,,,,,,,,
626.2999999970198,,rt_thecrossant_black1,458213,,,,black_plus_sign,,,49,,,,1,,,,,,1,,,,,,,,,
null,,color_black1,458317,,,,black_plus_sign,,,null,,,,,,,,,,,,,,,,,,,
null,,learn_phase(without_color)1,461822,,,,black_plus_sign,,,null,object_15a.png,object_14b.png,,,,,,,,,,,,,,,,,
null,,black_cross(without_color)1,462860,,,,blue,,,null,object_15a.png,object_14b.png,,,,,,,,,,,,,,,,,
null,,rt_plussign_withcolor1,463362,,,,blue,,,null,object_15a.png,object_14b.png,,,,,,,,,,,,,,,,,
1555.7999999970198,,rt_thecrossant_black1,464334,,,,black_plus_sign,,,49,,,,1,,,,,,1,,,,,,,,,
null,,color_black1,464439,,,,black_plus_sign,,,null,,,,,,,,,,,,,,,,,,,
null,,learn_phase(without_color)1,467944,,,,black_plus_sign,,,null,object_09b.png,object_08b.png,,,,,,,,,,,,,,,,,
null,,black_cross(without_color)1,468624,,,,green,,,null,object_09b.png,object_08b.png,,,,,,,,,,,,,,,,,
null,,rt_plussign_withcolor1,469128,,,,green,,,null,object_09b.png,object_08b.png,,,,,,,,,,,,,,,,,
1363.5,,rt_thecrossant_black1,470460,,,,black_plus_sign,,,50,,,,1,,,,,,1,,,,,,,,,
null,,color_black1,470565,,,,black_plus_sign,,,null,,,,,,,,,,,,,,,,,,,
null,,learn_phase(without_color)1,474071,,,,black_plus_sign,,,null,object_06c.png,object_02c.png,,,,,,,,,,,,,,,,,
null,,black_cross(without_color)1,475069,,,,blue,,,null,object_06c.png,object_02c.png,,,,,,,,,,,,,,,,,
null,,rt_plussign_withcolor1,475571,,,,blue,,,null,object_06c.png,object_02c.png,,,,,,,,,,,,,,,,,
779.3999999985099,,rt_thecrossant_black1,476590,,,,black_plus_sign,,,49,,,,1,,,,,,1,,,,,,,,,
null,,color_black1,476694,,,,black_plus_sign,,,null,,,,,,,,,,,,,,,,,,,
null,,learn_phase(without_color)1,480200,,,,black_plus_sign,,,null,object_04b.png,object_12b.png,,,,,,,,,,,,,,,,,
null,,black_cross(without_color)1,481224,,,,green,,,null,object_04b.png,object_12b.png,,,,,,,,,,,,,,,,,
null,,rt_plussign_withcolor1,481726,,,,green,,,null,object_04b.png,object_12b.png,,,,,,,,,,,,,,,,,
1156.1999999955297,,rt_thecrossant_black1,482713,,,,black_plus_sign,,,50,,,,1,,,,,,1,,,,,,,,,
null,,color_black1,482819,,,,black_plus_sign,,,null,,,,,,,,,,,,,,,,,,,
null,,learn_phase(without_color)1,486324,,,,black_plus_sign,,,null,object_05c.png,object_08c.png,,,,,,,,,,,,,,,,,
null,,black_cross(without_color)1,487065,,,,green,,,null,object_05c.png,object_08c.png,,,,,,,,,,,,,,,,,
null,,rt_plussign_withcolor1,487567,,,,green,,,null,object_05c.png,object_08c.png,,,,,,,,,,,,,,,,,
1398.8999999985099,,rt_thecrossant_black1,488836,,,,black_plus_sign,,,50,,,,1,,,,,,1,,,,,,,,,
null,,color_black1,488940,,,,black_plus_sign,,,null,,,,,,,,,,,,,,,,,,,
null,,learn_phase(without_color)1,492447,,,,black_plus_sign,,,null,object_05a.png,object_13c.png,,,,,,,,,,,,,,,,,
null,,black_cross(without_color)1,492971,,,,blue,,,null,object_05a.png,object_13c.png,,,,,,,,,,,,,,,,,
null,,rt_plussign_withcolor1,493474,,,,blue,,,null,object_05a.png,object_13c.png,,,,,,,,,,,,,,,,,
873,,rt_thecrossant_black1,494959,,,,black_plus_sign,,,49,,,,1,,,,,,1,,,,,,,,,
null,,color_black1,495064,,,,black_plus_sign,,,null,,,,,,,,,,,,,,,,,,,
null,,learn_phase(without_color)1,498570,,,,black_plus_sign,,,null,object_13b.png,object_09a.png,,,,,,,,,,,,,,,,,
null,,black_cross(without_color)1,499098,,,,green,,,null,object_13b.png,object_09a.png,,,,,,,,,,,,,,,,,
null,,rt_plussign_withcolor1,499600,,,,green,,,null,object_13b.png,object_09a.png,,,,,,,,,,,,,,,,,
899.5,,rt_thecrossant_black1,501085,,,,black_plus_sign,,,50,,,,1,,,,,,1,,,,,,,,,
null,,color_black1,501190,,,,black_plus_sign,,,null,,,,,,,,,,,,,,,,,,,
null,,thebreak,501298,,,,<p></p>,,,null,,,,,,,,,,,,,,,,,,,
1989.8999999985099,,intro_0,503291,,,,instruct,,,32,,,,,,,,,,,,,,,,,,,
4339.39999999851,,directmemory_phase1,507634,,,,object_03c.png,,,49,,,,1,object_13a.png,object_09a.png,object_11c.png,object_13a.png,,1,1,,,,,,,,
4726.39999999851,,directmemory_phase1,512365,,,,object_01c.png,,,51,,,,1,object_09b.png,object_13a.png,object_07b.png,object_07b.png,,1,1,,,,,,,,
4189.80000000447,,directmemory_phase1,516562,,,,object_12c.png,,,49,,,,0,object_08b.png,object_02a.png,object_12b.png,object_12b.png,,0.6666666666666666,0,,,,,,,,
3345.5999999940395,,directmemory_phase1,519914,,,,object_08c.png,,,51,,,,1,object_07b.png,object_14c.png,object_09c.png,object_09c.png,,0.75,1,,,,,,,,
1696.6000000014901,,directmemory_phase1,521618,,,,object_15a.png,,,50,,,,1,object_14a.png,object_14b.png,object_13c.png,object_14b.png,,0.8,1,,,,,,,,
4762.0999999940395,,directmemory_phase1,526388,,,,object_03a.png,,,51,,,,1,object_11b.png,object_04c.png,object_10a.png,object_10a.png,,0.8333333333333334,1,,,,,,,,
3384.39999999851,,directmemory_phase1,529779,,,,object_11b.png,,,49,,,,1,object_06a.png,object_04c.png,object_01a.png,object_06a.png,,0.8571428571428571,1,,,,,,,,
2569.6999999955297,,directmemory_phase1,532356,,,,object_03b.png,,,51,,,,1,object_14b.png,object_06b.png,object_15c.png,object_15c.png,,0.875,1,,,,,,,,
3655.2000000029802,,directmemory_phase1,536018,,,,object_05c.png,,,51,,,,0,object_08c.png,object_14b.png,object_15b.png,object_08c.png,,0.7777777777777778,0,,,,,,,,
4633.79999999702,,directmemory_phase1,540660,,,,object_05b.png,,,49,,,,0,object_14c.png,object_06b.png,object_03a.png,object_03a.png,,0.7,0,,,,,,,,
4872.69999999553,,directmemory_phase1,545539,,,,object_13c.png,,,50,,,,0,object_05a.png,object_01b.png,object_09a.png,object_05a.png,,0.6363636363636364,0,,,,,,,,
4192.89999999851,,directmemory_phase1,549740,,,,object_15b.png,,,51,,,,1,object_03a.png,object_10b.png,object_13a.png,object_13a.png,,0.6666666666666666,1,,,,,,,,
4632.5999999940395,,directmemory_phase1,554380,,,,object_06c.png,,,50,,,,1,object_14c.png,object_02c.png,object_01a.png,object_02c.png,,0.6923076923076923,1,,,,,,,,
4512.79999999702,,directmemory_phase1,558900,,,,object_06b.png,,,50,,,,1,object_14a.png,object_14c.png,object_09a.png,object_14c.png,,0.7142857142857143,1,,,,,,,,
4039.7000000029802,,directmemory_phase1,562947,,,,object_04c.png,,,49,,,,0,object_09c.png,object_09a.png,object_07c.png,object_07c.png,,0.6666666666666666,0,,,,,,,,
3809.60000000149,,directmemory_phase1,566763,,,,object_04a.png,,,50,,,,1,object_05b.png,object_04c.png,object_03a.png,object_04c.png,,0.6875,1,,,,,,,,
3624.2999999970198,,directmemory_phase1,570395,,,,object_10c.png,,,49,,,,0,object_14a.png,object_06c.png,object_08b.png,object_06c.png,,0.6470588235294118,0,,,,,,,,
3489.3000000044703,,directmemory_phase1,573891,,,,object_14c.png,,,49,,,,1,object_02a.png,object_01b.png,object_09a.png,object_02a.png,,0.6666666666666666,1,,,,,,,,
3056.10000000149,,directmemory_phase1,576955,,,,object_04b.png,,,49,,,,1,object_12b.png,object_06c.png,object_02b.png,object_12b.png,,0.6842105263157895,1,,,,,,,,
3897.5,,directmemory_phase1,580859,,,,object_15c.png,,,51,,,,0,object_08b.png,object_11c.png,object_09c.png,object_11c.png,,0.65,0,,,,,,,,
3936.89999999851,,directmemory_phase1,584803,,,,object_07a.png,,,49,,,,1,object_06a.png,object_14c.png,object_02b.png,object_06a.png,,0.6666666666666666,1,,,,,,,,
4952.4000000059605,,directmemory_phase1,589763,,,,object_14b.png,,,51,,,,0,object_01a.png,object_13b.png,object_15c.png,object_01a.png,,0.6363636363636364,0,,,,,,,,
3817,,directmemory_phase1,593585,,,,object_12a.png,,,50,,,,0,object_13a.png,object_04a.png,object_11a.png,object_11a.png,,0.6086956521739131,0,,,,,,,,
3901.3000000044703,,directmemory_phase1,597491,,,,object_14a.png,,,51,,,,0,object_15b.png,object_13c.png,object_14b.png,object_13c.png,,0.5833333333333334,0,,,,,,,,
4088.2999999970198,,directmemory_phase1,601586,,,,object_09a.png,,,51,,,,0,object_13b.png,object_03c.png,object_01c.png,object_13b.png,,0.56,0,,,,,,,,
4420.10000000149,,directmemory_phase1,606012,,,,object_02b.png,,,50,,,,1,object_04a.png,object_08b.png,object_06a.png,object_08b.png,,0.5769230769230769,1,,,,,,,,
4439.60000000149,,directmemory_phase1,610458,,,,object_01b.png,,,51,,,,0,object_11a.png,object_06c.png,object_05a.png,object_11a.png,,0.5555555555555556,0,,,,,,,,
6923.5,,directmemory_phase1,617389,,,,object_10b.png,,,51,,,,0,object_09a.png,object_06c.png,object_15a.png,object_09a.png,,0.5357142857142857,0,,,,,,,,
5446.79999999702,,directmemory_phase1,622843,,,,object_08a.png,,,50,,,,0,object_01c.png,object_06c.png,object_10c.png,object_01c.png,,0.5172413793103449,0,,,,,,,,
3280.2000000029802,,directmemory_phase1,626131,,,,object_08b.png,,,49,,,,0,object_03a.png,object_09b.png,object_11c.png,object_09b.png,,0.5,0,,,,,,,,
null,,thebreak,626237,,,,<p></p>,,,null,,,,,,,,,,,,,,,,,,,
2130.8000000044703,,intro_0,628371,,,,instruct,,,32,,,,,,,,,,,,,,,,,,,
null,,learn_phase(without_color)2,631874,,,,black_plus_sign,,,null,object_12c.png,object_12b.png,,,,,,,,,,,,,,,,,
null,,black_cross(without_color)2,632298,,,,blue,,,null,object_12c.png,object_12b.png,,,,,,,,,,,,,,,,,
null,,rt_plussign_withcolor2,632800,,,,blue,,,null,object_12c.png,object_12b.png,,,,,,,,,,,,,,,,,
null,,rt_thecrossant_black2,634386,,,,black_plus_sign,,,null,,,,,,,,,,NaN,,,,,,,,,
null,,color_black2,634490,,,,black_plus_sign,,,null,,,,,,,,,,,,,,,,,,,
null,,learn_phase(without_color)2,637999,,,,black_plus_sign,,,null,object_01c.png,object_08a.png,,,,,,,,,,,,,,,,,
null,,black_cross(without_color)2,638754,,,,green,,,null,object_01c.png,object_08a.png,,,,,,,,,,,,,,,,,
null,,rt_plussign_withcolor2,639257,,,,green,,,null,object_01c.png,object_08a.png,,,,,,,,,,,,,,,,,
1451.6999999955297,,rt_thecrossant_black2,640511,,,,black_plus_sign,,,50,,,,1,,,,,,1,,,,,,,,,
null,,color_black2,640615,,,,black_plus_sign,,,null,,,,,,,,,,,,,,,,,,,
null,,learn_phase(without_color)2,644120,,,,black_plus_sign,,,null,object_08c.png,object_09c.png,,,,,,,,,,,,,,,,,
null,,black_cross(without_color)2,644742,,,,green,,,null,object_08c.png,object_09c.png,,,,,,,,,,,,,,,,,
null,,rt_plussign_withcolor2,645244,,,,green,,,null,object_08c.png,object_09c.png,,,,,,,,,,,,,,,,,
1046,,rt_thecrossant_black2,646637,,,,black_plus_sign,,,50,,,,1,,,,,,1,,,,,,,,,
null,,color_black2,646741,,,,black_plus_sign,,,null,,,,,,,,,,,,,,,,,,,
null,,learn_phase(without_color)2,650247,,,,black_plus_sign,,,null,object_04a.png,object_04c.png,,,,,,,,,,,,,,,,,
null,,black_cross(without_color)2,650708,,,,blue,,,null,object_04a.png,object_04c.png,,,,,,,,,,,,,,,,,
null,,rt_plussign_withcolor2,651209,,,,blue,,,null,object_04a.png,object_04c.png,,,,,,,,,,,,,,,,,
892.2999999970198,,rt_thecrossant_black2,652757,,,,black_plus_sign,,,49,,,,1,,,,,,1,,,,,,,,,
null,,color_black2,652861,,,,black_plus_sign,,,null,,,,,,,,,,,,,,,,,,,
null,,learn_phase(without_color)2,656367,,,,black_plus_sign,,,null,object_14c.png,object_02a.png,,,,,,,,,,,,,,,,,
null,,black_cross(without_color)2,656810,,,,blue,,,null,object_14c.png,object_02a.png,,,,,,,,,,,,,,,,,
null,,rt_plussign_withcolor2,657312,,,,blue,,,null,object_14c.png,object_02a.png,,,,,,,,,,,,,,,,,
827.1000000014901,,rt_thecrossant_black2,658877,,,,black_plus_sign,,,49,,,,1,,,,,,1,,,,,,,,,
null,,color_black2,658981,,,,black_plus_sign,,,null,,,,,,,,,,,,,,,,,,,
null,,learn_phase(without_color)2,662486,,,,black_plus_sign,,,null,object_10b.png,object_09a.png,,,,,,,,,,,,,,,,,
null,,black_cross(without_color)2,663449,,,,green,,,null,object_10b.png,object_09a.png,,,,,,,,,,,,,,,,,
null,,rt_plussign_withcolor2,663951,,,,green,,,null,object_10b.png,object_09a.png,,,,,,,,,,,,,,,,,
619.2999999970198,,rt_thecrossant_black2,664997,,,,black_plus_sign,,,50,,,,1,,,,,,1,,,,,,,,,
null,,color_black2,665101,,,,black_plus_sign,,,null,,,,,,,,,,,,,,,,,,,
null,,learn_phase(without_color)2,668606,,,,black_plus_sign,,,null,object_01a.png,object_14b.png,,,,,,,,,,,,,,,,,
null,,black_cross(without_color)2,669197,,,,green,,,null,object_01a.png,object_14b.png,,,,,,,,,,,,,,,,,
null,,rt_plussign_withcolor2,669699,,,,green,,,null,object_01a.png,object_14b.png,,,,,,,,,,,,,,,,,
1110.6000000014901,,rt_thecrossant_black2,671116,,,,black_plus_sign,,,50,,,,1,,,,,,1,,,,,,,,,
null,,color_black2,671220,,,,black_plus_sign,,,null,,,,,,,,,,,,,,,,,,,
null,,learn_phase(without_color)2,674725,,,,black_plus_sign,,,null,object_15c.png,object_11c.png,,,,,,,,,,,,,,,,,
null,,black_cross(without_color)2,675141,,,,green,,,null,object_15c.png,object_11c.png,,,,,,,,,,,,,,,,,
null,,rt_plussign_withcolor2,675643,,,,green,,,null,object_15c.png,object_11c.png,,,,,,,,,,,,,,,,,
898.6000000014901,,rt_thecrossant_black2,677237,,,,black_plus_sign,,,50,,,,1,,,,,,1,,,,,,,,,
null,,color_black2,677341,,,,black_plus_sign,,,null,,,,,,,,,,,,,,,,,,,
null,,learn_phase(without_color)2,680847,,,,black_plus_sign,,,null,object_06a.png,object_11b.png,,,,,,,,,,,,,,,,,
null,,black_cross(without_color)2,681266,,,,blue,,,null,object_06a.png,object_11b.png,,,,,,,,,,,,,,,,,
null,,rt_plussign_withcolor2,681768,,,,blue,,,null,object_06a.png,object_11b.png,,,,,,,,,,,,,,,,,
613.9000000059605,,rt_thecrossant_black2,683358,,,,black_plus_sign,,,49,,,,1,,,,,,1,,,,,,,,,
null,,color_black2,683462,,,,black_plus_sign,,,null,,,,,,,,,,,,,,,,,,,
null,,learn_phase(without_color)2,686968,,,,black_plus_sign,,,null,object_03b.png,object_15c.png,,,,,,,,,,,,,,,,,
null,,black_cross(without_color)2,687513,,,,blue,,,null,object_03b.png,object_15c.png,,,,,,,,,,,,,,,,,
null,,rt_plussign_withcolor2,688016,,,,blue,,,null,object_03b.png,object_15c.png,,,,,,,,,,,,,,,,,
739.1000000014901,,rt_thecrossant_black2,689477,,,,black_plus_sign,,,49,,,,1,,,,,,1,,,,,,,,,
null,,color_black2,689582,,,,black_plus_sign,,,null,,,,,,,,,,,,,,,,,,,
null,,learn_phase(without_color)2,693087,,,,black_plus_sign,,,null,object_13c.png,object_14a.png,,,,,,,,,,,,,,,,,
null,,black_cross(without_color)2,693925,,,,green,,,null,object_13c.png,object_14a.png,,,,,,,,,,,,,,,,,
236.70000000298023,,rt_plussign_withcolor2,694427,,,,green,,,49,object_13c.png,object_14a.png,,,,,,,,,,,,,,,,,
null,,rt_thecrossant_black2,695598,,,,black_plus_sign,,,50,,,,0,,,,,,0.9,,,,,,,,,
null,,color_black2,695703,,,,black_plus_sign,,,null,,,,,,,,,,,,,,,,,,,
null,,learn_phase(without_color)2,699208,,,,black_plus_sign,,,null,object_11a.png,object_12a.png,,,,,,,,,,,,,,,,,
null,,black_cross(without_color)2,700064,,,,green,,,null,object_11a.png,object_12a.png,,,,,,,,,,,,,,,,,
null,,rt_plussign_withcolor2,700566,,,,green,,,null,object_11a.png,object_12a.png,,,,,,,,,,,,,,,,,
966.1999999955297,,rt_thecrossant_black2,701719,,,,black_plus_sign,,,50,,,,1,,,,,,0.9090909090909091,,,,,,,,,
null,,color_black2,701826,,,,black_plus_sign,,,null,,,,,,,,,,,,,,,,,,,
null,,learn_phase(without_color)2,705335,,,,black_plus_sign,,,null,object_12b.png,object_04b.png,,,,,,,,,,,,,,,,,
null,,black_cross(without_color)2,706107,,,,green,,,null,object_12b.png,object_04b.png,,,,,,,,,,,,,,,,,
null,,rt_plussign_withcolor2,706609,,,,green,,,null,object_12b.png,object_04b.png,,,,,,,,,,,,,,,,,
972.7999999970198,,rt_thecrossant_black2,707845,,,,black_plus_sign,,,50,,,,1,,,,,,0.9166666666666666,,,,,,,,,
null,,color_black2,707949,,,,black_plus_sign,,,null,,,,,,,,,,,,,,,,,,,
null,,learn_phase(without_color)2,711455,,,,black_plus_sign,,,null,object_03c.png,object_13a.png,,,,,,,,,,,,,,,,,
null,,black_cross(without_color)2,712056,,,,blue,,,null,object_03c.png,object_13a.png,,,,,,,,,,,,,,,,,
null,,rt_plussign_withcolor2,712558,,,,blue,,,null,object_03c.png,object_13a.png,,,,,,,,,,,,,,,,,
868.2000000029802,,rt_thecrossant_black2,713966,,,,black_plus_sign,,,49,,,,1,,,,,,0.9230769230769231,,,,,,,,,
null,,color_black2,714071,,,,black_plus_sign,,,null,,,,,,,,,,,,,,,,,,,
null,,learn_phase(without_color)2,717577,,,,black_plus_sign,,,null,object_01c.png,object_07b.png,,,,,,,,,,,,,,,,,
null,,black_cross(without_color)2,718657,,,,green,,,null,object_01c.png,object_07b.png,,,,,,,,,,,,,,,,,
null,,rt_plussign_withcolor2,719158,,,,green,,,null,object_01c.png,object_07b.png,,,,,,,,,,,,,,,,,
800.8999999985099,,rt_thecrossant_black2,720087,,,,black_plus_sign,,,50,,,,1,,,,,,0.9285714285714286,,,,,,,,,
null,,color_black2,720192,,,,black_plus_sign,,,null,,,,,,,,,,,,,,,,,,,
null,,learn_phase(without_color)2,723698,,,,black_plus_sign,,,null,object_07a.png,object_06a.png,,,,,,,,,,,,,,,,,
null,,black_cross(without_color)2,724782,,,,blue,,,null,object_07a.png,object_06a.png,,,,,,,,,,,,,,,,,
null,,rt_plussign_withcolor2,725284,,,,blue,,,null,object_07a.png,object_06a.png,,,,,,,,,,,,,,,,,
1697.6000000014901,,rt_thecrossant_black2,726207,,,,black_plus_sign,,,49,,,,1,,,,,,0.9333333333333333,,,,,,,,,
null,,color_black2,726311,,,,black_plus_sign,,,null,,,,,,,,,,,,,,,,,,,
null,,learn_phase(without_color)2,729817,,,,black_plus_sign,,,null,object_13a.png,object_15b.png,,,,,,,,,,,,,,,,,
null,,black_cross(without_color)2,730734,,,,blue,,,null,object_13a.png,object_15b.png,,,,,,,,,,,,,,,,,
null,,rt_plussign_withcolor2,731236,,,,blue,,,null,object_13a.png,object_15b.png,,,,,,,,,,,,,,,,,
1408.1000000014901,,rt_thecrossant_black2,732328,,,,black_plus_sign,,,49,,,,1,,,,,,0.9375,,,,,,,,,
null,,color_black2,732431,,,,black_plus_sign,,,null,,,,,,,,,,,,,,,,,,,
null,,learn_phase(without_color)2,735935,,,,black_plus_sign,,,null,object_02c.png,object_06c.png,,,,,,,,,,,,,,,,,
null,,black_cross(without_color)2,736377,,,,green,,,null,object_02c.png,object_06c.png,,,,,,,,,,,,,,,,,
null,,rt_plussign_withcolor2,736882,,,,green,,,null,object_02c.png,object_06c.png,,,,,,,,,,,,,,,,,
1346.6999999955297,,rt_thecrossant_black2,738448,,,,black_plus_sign,,,50,,,,1,,,,,,0.9411764705882353,,,,,,,,,
null,,color_black2,738552,,,,black_plus_sign,,,null,,,,,,,,,,,,,,,,,,,
null,,learn_phase(without_color)2,742059,,,,black_plus_sign,,,null,object_14c.png,object_06b.png,,,,,,,,,,,,,,,,,
null,,black_cross(without_color)2,742796,,,,green,,,null,object_14c.png,object_06b.png,,,,,,,,,,,,,,,,,
null,,rt_plussign_withcolor2,743298,,,,green,,,null,object_14c.png,object_06b.png,,,,,,,,,,,,,,,,,
702.5,,rt_thecrossant_black2,744570,,,,black_plus_sign,,,50,,,,1,,,,,,0.9444444444444444,,,,,,,,,
null,,color_black2,744674,,,,black_plus_sign,,,null,,,,,,,,,,,,,,,,,,,
null,,learn_phase(without_color)2,748180,,,,black_plus_sign,,,null,object_13b.png,object_09a.png,,,,,,,,,,,,,,,,,
null,,black_cross(without_color)2,748707,,,,blue,,,null,object_13b.png,object_09a.png,,,,,,,,,,,,,,,,,
null,,rt_plussign_withcolor2,749209,,,,blue,,,null,object_13b.png,object_09a.png,,,,,,,,,,,,,,,,,
950.2999999970198,,rt_thecrossant_black2,750692,,,,black_plus_sign,,,49,,,,1,,,,,,0.9473684210526315,,,,,,,,,
null,,color_black2,750795,,,,black_plus_sign,,,null,,,,,,,,,,,,,,,,,,,
null,,learn_phase(without_color)2,754301,,,,black_plus_sign,,,null,object_09b.png,object_08b.png,,,,,,,,,,,,,,,,,
null,,black_cross(without_color)2,754817,,,,blue,,,null,object_09b.png,object_08b.png,,,,,,,,,,,,,,,,,
null,,rt_plussign_withcolor2,755319,,,,blue,,,null,object_09b.png,object_08b.png,,,,,,,,,,,,,,,,,
null,,rt_thecrossant_black2,756811,,,,black_plus_sign,,,null,,,,,,,,,,0.9473684210526315,,,,,,,,,
null,,color_black2,756915,,,,black_plus_sign,,,null,,,,,,,,,,,,,,,,,,,
null,,learn_phase(without_color)2,760421,,,,black_plus_sign,,,null,object_10a.png,object_03a.png,,,,,,,,,,,,,,,,,
null,,black_cross(without_color)2,761410,,,,green,,,null,object_10a.png,object_03a.png,,,,,,,,,,,,,,,,,
495.5,,rt_plussign_withcolor2,761912,,,,green,,,50,object_10a.png,object_03a.png,,,,,,,,,,,,,,,,,
null,,rt_thecrossant_black2,762932,,,,black_plus_sign,,,null,,,,1,,,,,,0.95,,,,,,,,,
null,,color_black2,763036,,,,black_plus_sign,,,null,,,,,,,,,,,,,,,,,,,
null,,learn_phase(without_color)2,766541,,,,black_plus_sign,,,null,object_05b.png,object_03a.png,,,,,,,,,,,,,,,,,
null,,black_cross(without_color)2,767139,,,,blue,,,null,object_05b.png,object_03a.png,,,,,,,,,,,,,,,,,
null,,rt_plussign_withcolor2,767641,,,,blue,,,null,object_05b.png,object_03a.png,,,,,,,,,,,,,,,,,
1720.5999999940395,,rt_thecrossant_black2,769053,,,,black_plus_sign,,,49,,,,1,,,,,,0.9523809523809523,,,,,,,,,
null,,color_black2,769157,,,,black_plus_sign,,,null,,,,,,,,,,,,,,,,,,,
null,,learn_phase(without_color)2,772667,,,,black_plus_sign,,,null,object_15a.png,object_14b.png,,,,,,,,,,,,,,,,,
null,,black_cross(without_color)2,773306,,,,green,,,null,object_15a.png,object_14b.png,,,,,,,,,,,,,,,,,
null,,rt_plussign_withcolor2,773808,,,,green,,,null,object_15a.png,object_14b.png,,,,,,,,,,,,,,,,,
932.9000000059605,,rt_thecrossant_black2,775176,,,,black_plus_sign,,,50,,,,1,,,,,,0.9545454545454546,,,,,,,,,
null,,color_black2,775280,,,,black_plus_sign,,,null,,,,,,,,,,,,,,,,,,,
null,,learn_phase(without_color)2,778785,,,,black_plus_sign,,,null,object_13c.png,object_05a.png,,,,,,,,,,,,,,,,,
null,,black_cross(without_color)2,779287,,,,green,,,null,object_13c.png,object_05a.png,,,,,,,,,,,,,,,,,
null,,rt_plussign_withcolor2,779789,,,,green,,,null,object_13c.png,object_05a.png,,,,,,,,,,,,,,,,,
897.4000000059605,,rt_thecrossant_black2,781296,,,,black_plus_sign,,,50,,,,1,,,,,,0.9565217391304348,,,,,,,,,
null,,color_black2,781400,,,,black_plus_sign,,,null,,,,,,,,,,,,,,,,,,,
null,,learn_phase(without_color)2,784906,,,,black_plus_sign,,,null,object_11a.png,object_01b.png,,,,,,,,,,,,,,,,,
null,,black_cross(without_color)2,785760,,,,blue,,,null,object_11a.png,object_01b.png,,,,,,,,,,,,,,,,,
433.30000000447035,,rt_plussign_withcolor2,786262,,,,blue,,,49,object_11a.png,object_01b.png,,,,,,,,,,,,,,,,,
null,,rt_thecrossant_black2,787418,,,,black_plus_sign,,,null,,,,1,,,,,,0.9583333333333334,,,,,,,,,
null,,color_black2,787522,,,,black_plus_sign,,,null,,,,,,,,,,,,,,,,,,,
null,,learn_phase(without_color)2,791027,,,,black_plus_sign,,,null,object_07c.png,object_04c.png,,,,,,,,,,,,,,,,,
null,,black_cross(without_color)2,791470,,,,green,,,null,object_07c.png,object_04c.png,,,,,,,,,,,,,,,,,
null,,rt_plussign_withcolor2,791972,,,,green,,,null,object_07c.png,object_04c.png,,,,,,,,,,,,,,,,,
1295.8999999985099,,rt_thecrossant_black2,793539,,,,black_plus_sign,,,50,,,,1,,,,,,0.96,,,,,,,,,
null,,color_black2,793643,,,,black_plus_sign,,,null,,,,,,,,,,,,,,,,,,,
null,,learn_phase(without_color)2,797149,,,,black_plus_sign,,,null,object_10c.png,object_06c.png,,,,,,,,,,,,,,,,,
null,,black_cross(without_color)2,797935,,,,blue,,,null,object_10c.png,object_06c.png,,,,,,,,,,,,,,,,,
null,,rt_plussign_withcolor2,798437,,,,blue,,,null,object_10c.png,object_06c.png,,,,,,,,,,,,,,,,,
555.5999999940395,,rt_thecrossant_black2,799659,,,,black_plus_sign,,,49,,,,1,,,,,,0.9615384615384616,,,,,,,,,
null,,color_black2,799764,,,,black_plus_sign,,,null,,,,,,,,,,,,,,,,,,,
null,,learn_phase(without_color)2,803270,,,,black_plus_sign,,,null,object_02b.png,object_08b.png,,,,,,,,,,,,,,,,,
null,,black_cross(without_color)2,804296,,,,blue,,,null,object_02b.png,object_08b.png,,,,,,,,,,,,,,,,,
null,,rt_plussign_withcolor2,804798,,,,blue,,,null,object_02b.png,object_08b.png,,,,,,,,,,,,,,,,,
1074.1000000014901,,rt_thecrossant_black2,805781,,,,black_plus_sign,,,49,,,,1,,,,,,0.9629629629629629,,,,,,,,,
null,,color_black2,805886,,,,black_plus_sign,,,null,,,,,,,,,,,,,,,,,,,
null,,learn_phase(without_color)2,809392,,,,black_plus_sign,,,null,object_05c.png,object_08c.png,,,,,,,,,,,,,,,,,
null,,black_cross(without_color)2,810080,,,,green,,,null,object_05c.png,object_08c.png,,,,,,,,,,,,,,,,,
null,,rt_plussign_withcolor2,810582,,,,green,,,null,object_05c.png,object_08c.png,,,,,,,,,,,,,,,,,
1346.5,,rt_thecrossant_black2,811904,,,,black_plus_sign,,,50,,,,1,,,,,,0.9642857142857143,,,,,,,,,
null,,color_black2,812008,,,,black_plus_sign,,,null,,,,,,,,,,,,,,,,,,,
null,,thebreak,812116,,,,<p></p>,,,null,,,,,,,,,,,,,,,,,,,
2233.7000000029802,,intro_0,814354,,,,instruct,,,32,,,,,,,,,,,,,,,,,,,
2935.2000000029802,,directmemory_phase2,817291,,,,object_07c.png,,,49,,,,0,object_08b.png,object_11b.png,object_04c.png,object_04c.png,,0.4838709677419355,0,,,,,,,,
2775.3000000044703,,directmemory_phase2,820076,,,,object_10b.png,,,49,,,,0,object_12a.png,object_09a.png,object_01c.png,object_09a.png,,0.46875,0,,,,,,,,
2897,,directmemory_phase2,822981,,,,object_11a.png,,,49,,,,1,object_01b.png,object_07b.png,object_06c.png,object_01b.png,,0.48484848484848486,1,,,,,,,,
3806.5,,directmemory_phase2,826795,,,,object_02b.png,,,50,,,,0,object_08b.png,object_03a.png,object_12a.png,object_08b.png,,0.47058823529411764,0,,,,,,,,
4151.5,,directmemory_phase2,830954,,,,object_06a.png,,,51,,,,1,object_01b.png,object_04c.png,object_11b.png,object_11b.png,,0.4857142857142857,1,,,,,,,,
4592.5,,directmemory_phase2,835555,,,,object_03a.png,,,49,,,,0,object_03c.png,object_06c.png,object_10a.png,object_10a.png,,0.4722222222222222,0,,,,,,,,
3856.0999999940395,,directmemory_phase2,839419,,,,object_14a.png,,,49,,,,1,object_13c.png,object_09a.png,object_02b.png,object_13c.png,,0.4864864864864865,1,,,,,,,,
5016.89999999851,,directmemory_phase2,844443,,,,object_01c.png,,,51,,,,0,object_06c.png,object_07b.png,object_02a.png,object_07b.png,,0.47368421052631576,0,,,,,,,,
5664,,directmemory_phase2,850116,,,,object_06c.png,,,50,,,,1,object_13a.png,object_02c.png,object_03c.png,object_02c.png,,0.48717948717948717,1,,,,,,,,
6255,,directmemory_phase2,856379,,,,object_04b.png,,,50,,,,0,object_12b.png,object_04c.png,object_10c.png,object_12b.png,,0.475,0,,,,,,,,
6313.10000000149,,directmemory_phase2,862699,,,,object_07a.png,,,50,,,,1,object_12a.png,object_06a.png,object_09a.png,object_06a.png,,0.4878048780487805,1,,,,,,,,
4680.79999999702,,directmemory_phase2,867387,,,,object_12a.png,,,51,,,,1,object_15c.png,object_05c.png,object_11a.png,object_11a.png,,0.5,1,,,,,,,,
3792.7000000029802,,directmemory_phase2,871187,,,,object_06b.png,,,50,,,,1,object_03b.png,object_14c.png,object_06c.png,object_14c.png,,0.5116279069767442,1,,,,,,,,
3112,,directmemory_phase2,874307,,,,object_14b.png,,,50,,,,1,object_08c.png,object_01a.png,object_09b.png,object_01a.png,,0.5227272727272727,1,,,,,,,,
7496.20000000298,,directmemory_phase2,881811,,,,object_15b.png,,,51,,,,0,object_13a.png,object_01c.png,object_05c.png,object_13a.png,,0.5111111111111111,0,,,,,,,,
5490.20000000298,,directmemory_phase2,887308,,,,object_15c.png,,,49,,,,1,object_11c.png,object_05a.png,object_14c.png,object_11c.png,,0.5217391304347826,1,,,,,,,,
3479.5,,directmemory_phase2,890796,,,,object_03b.png,,,50,,,,1,object_05b.png,object_15c.png,object_14c.png,object_15c.png,,0.5319148936170213,1,,,,,,,,
4807.69999999553,,directmemory_phase2,895611,,,,object_08c.png,,,49,,,,1,object_09c.png,object_10a.png,object_14c.png,object_09c.png,,0.5416666666666666,1,,,,,,,,
4555.70000000298,,directmemory_phase2,900171,,,,object_12b.png,,,50,,,,0,object_12c.png,object_07c.png,object_13a.png,object_12c.png,,0.5306122448979592,0,,,,,,,,
2297.5999999940395,,directmemory_phase2,902475,,,,object_08b.png,,,51,,,,1,object_03c.png,object_06a.png,object_09b.png,object_09b.png,,0.54,1,,,,,,,,
2831.60000000149,,directmemory_phase2,905315,,,,object_10c.png,,,50,,,,1,object_07a.png,object_06c.png,object_13a.png,object_06c.png,,0.5490196078431373,1,,,,,,,,
4673.5,,directmemory_phase2,909995,,,,object_08a.png,,,51,,,,0,object_01c.png,object_13c.png,object_12a.png,object_01c.png,,0.5384615384615384,0,,,,,,,,
2881.5,,directmemory_phase2,912883,,,,object_15a.png,,,50,,,,1,object_03b.png,object_14b.png,object_14c.png,object_14b.png,,0.5471698113207547,1,,,,,,,,
2249.5,,directmemory_phase2,915140,,,,object_03c.png,,,51,,,,0,object_13b.png,object_13a.png,object_06c.png,object_13a.png,,0.5370370370370371,0,,,,,,,,
3318.8000000044703,,directmemory_phase2,918466,,,,object_05c.png,,,50,,,,0,object_08c.png,object_13a.png,object_04a.png,object_08c.png,,0.5272727272727272,0,,,,,,,,
2931,,directmemory_phase2,921403,,,,object_05a.png,,,50,,,,1,object_02c.png,object_13c.png,object_01c.png,object_13c.png,,0.5357142857142857,1,,,,,,,,
2881,,directmemory_phase2,924291,,,,object_14c.png,,,51,,,,1,object_02c.png,object_15c.png,object_02a.png,object_02a.png,,0.543859649122807,1,,,,,,,,
3112.10000000149,,directmemory_phase2,927410,,,,object_09a.png,,,49,,,,0,object_01a.png,object_13a.png,object_13b.png,object_13b.png,,0.5344827586206896,0,,,,,,,,
3008.60000000149,,directmemory_phase2,930427,,,,object_05b.png,,,50,,,,1,object_07a.png,object_03a.png,object_06a.png,object_03a.png,,0.5423728813559322,1,,,,,,,,
4121.30000000447,,directmemory_phase2,934556,,,,object_04a.png,,,50,,,,0,object_04c.png,object_15c.png,object_03b.png,object_04c.png,,0.5333333333333333,0,,,,,,,,
null,,thebreak,934661,,,,<p></p>,,,null,,,,,,,,,,,,,,,,,,,
2392.89999999851,,intro_0,937058,,,,instruct,,,32,,,,,,,,,,,,,,,,,,,
null,,learn_phase(without_color)3,940561,,,,black_plus_sign,,,null,object_07c.png,object_04c.png,,,,,,,,,,,,,,,,,
null,,black_cross(without_color)3,941435,,,,blue,,,null,object_07c.png,object_04c.png,,,,,,,,,,,,,,,,,
null,,rt_plussign_withcolor3,941938,,,,blue,,,null,object_07c.png,object_04c.png,,,,,,,,,,,,,,,,,
1557.7000000029802,,rt_thecrossant_black3,943073,,,,black_plus_sign,,,49,,,,1,,,,,,1,,,,,,,,,
null,,color_black3,943178,,,,black_plus_sign,,,null,,,,,,,,,,,,,,,,,,,
null,,learn_phase(without_color)3,946682,,,,black_plus_sign,,,null,object_14c.png,object_02a.png,,,,,,,,,,,,,,,,,
null,,black_cross(without_color)3,947185,,,,green,,,null,object_14c.png,object_02a.png,,,,,,,,,,,,,,,,,
null,,rt_plussign_withcolor3,947688,,,,green,,,null,object_14c.png,object_02a.png,,,,,,,,,,,,,,,,,
1593.2999999970198,,rt_thecrossant_black3,949193,,,,black_plus_sign,,,50,,,,1,,,,,,1,,,,,,,,,
null,,color_black3,949297,,,,black_plus_sign,,,null,,,,,,,,,,,,,,,,,,,
null,,learn_phase(without_color)3,952803,,,,black_plus_sign,,,null,object_03c.png,object_13a.png,,,,,,,,,,,,,,,,,
null,,black_cross(without_color)3,953701,,,,green,,,null,object_03c.png,object_13a.png,,,,,,,,,,,,,,,,,
null,,rt_plussign_withcolor3,954204,,,,green,,,null,object_03c.png,object_13a.png,,,,,,,,,,,,,,,,,
611.2000000029802,,rt_thecrossant_black3,955314,,,,black_plus_sign,,,50,,,,1,,,,,,1,,,,,,,,,
null,,color_black3,955418,,,,black_plus_sign,,,null,,,,,,,,,,,,,,,,,,,
null,,learn_phase(without_color)3,958924,,,,black_plus_sign,,,null,object_07b.png,object_01c.png,,,,,,,,,,,,,,,,,
null,,black_cross(without_color)3,959763,,,,green,,,null,object_07b.png,object_01c.png,,,,,,,,,,,,,,,,,
null,,rt_plussign_withcolor3,960265,,,,green,,,null,object_07b.png,object_01c.png,,,,,,,,,,,,,,,,,
1536.6000000014901,,rt_thecrossant_black3,961438,,,,black_plus_sign,,,50,,,,1,,,,,,1,,,,,,,,,
null,,color_black3,961542,,,,black_plus_sign,,,null,,,,,,,,,,,,,,,,,,,
null,,learn_phase(without_color)3,965048,,,,black_plus_sign,,,null,object_06a.png,object_11b.png,,,,,,,,,,,,,,,,,
null,,black_cross(without_color)3,965475,,,,green,,,null,object_06a.png,object_11b.png,,,,,,,,,,,,,,,,,
470.70000000298023,,rt_plussign_withcolor3,965977,,,,green,,,50,object_06a.png,object_11b.png,,,,,,,,,,,,,,,,,
null,,rt_thecrossant_black3,967560,,,,black_plus_sign,,,null,,,,1,,,,,,1,,,,,,,,,
null,,color_black3,967666,,,,black_plus_sign,,,null,,,,,,,,,,,,,,,,,,,
null,,learn_phase(without_color)3,971171,,,,black_plus_sign,,,null,object_06c.png,object_02c.png,,,,,,,,,,,,,,,,,
null,,black_cross(without_color)3,971634,,,,green,,,null,object_06c.png,object_02c.png,,,,,,,,,,,,,,,,,
null,,rt_plussign_withcolor3,972136,,,,green,,,null,object_06c.png,object_02c.png,,,,,,,,,,,,,,,,,
785.1000000014901,,rt_thecrossant_black3,973683,,,,black_plus_sign,,,50,,,,1,,,,,,1,,,,,,,,,
null,,color_black3,973789,,,,black_plus_sign,,,null,,,,,,,,,,,,,,,,,,,
null,,learn_phase(without_color)3,977295,,,,black_plus_sign,,,null,object_09a.png,object_10b.png,,,,,,,,,,,,,,,,,
null,,black_cross(without_color)3,978128,,,,green,,,null,object_09a.png,object_10b.png,,,,,,,,,,,,,,,,,
null,,rt_plussign_withcolor3,978631,,,,green,,,null,object_09a.png,object_10b.png,,,,,,,,,,,,,,,,,
590.2000000029802,,rt_thecrossant_black3,979808,,,,black_plus_sign,,,50,,,,1,,,,,,1,,,,,,,,,
null,,color_black3,979913,,,,black_plus_sign,,,null,,,,,,,,,,,,,,,,,,,
null,,learn_phase(without_color)3,983421,,,,black_plus_sign,,,null,object_12b.png,object_04b.png,,,,,,,,,,,,,,,,,
null,,black_cross(without_color)3,984499,,,,blue,,,null,object_12b.png,object_04b.png,,,,,,,,,,,,,,,,,
447.1000000014901,,rt_plussign_withcolor3,985002,,,,blue,,,49,object_12b.png,object_04b.png,,,,,,,,,,,,,,,,,
null,,rt_thecrossant_black3,985935,,,,black_plus_sign,,,null,,,,1,,,,,,1,,,,,,,,,
null,,color_black3,986040,,,,black_plus_sign,,,null,,,,,,,,,,,,,,,,,,,
null,,learn_phase(without_color)3,989548,,,,black_plus_sign,,,null,object_11c.png,object_15c.png,,,,,,,,,,,,,,,,,
null,,black_cross(without_color)3,990151,,,,blue,,,null,object_11c.png,object_15c.png,,,,,,,,,,,,,,,,,
472.20000000298023,,rt_plussign_withcolor3,990654,,,,blue,,,49,object_11c.png,object_15c.png,,,,,,,,,,,,,,,,,
null,,rt_thecrossant_black3,992063,,,,black_plus_sign,,,null,,,,1,,,,,,1,,,,,,,,,
null,,color_black3,992168,,,,black_plus_sign,,,null,,,,,,,,,,,,,,,,,,,
null,,learn_phase(without_color)3,995674,,,,black_plus_sign,,,null,object_13a.png,object_15b.png,,,,,,,,,,,,,,,,,
null,,black_cross(without_color)3,996309,,,,blue,,,null,object_13a.png,object_15b.png,,,,,,,,,,,,,,,,,
null,,rt_plussign_withcolor3,996811,,,,blue,,,null,object_13a.png,object_15b.png,,,,,,,,,,,,,,,,,
null,,rt_thecrossant_black3,998185,,,,black_plus_sign,,,null,,,,,,,,,,1,,,,,,,,,
null,,color_black3,998289,,,,black_plus_sign,,,null,,,,,,,,,,,,,,,,,,,
null,,learn_phase(without_color)3,1001795,,,,black_plus_sign,,,null,object_13b.png,object_09a.png,,,,,,,,,,,,,,,,,
null,,black_cross(without_color)3,1002544,,,,green,,,null,object_13b.png,object_09a.png,,,,,,,,,,,,,,,,,
null,,rt_plussign_withcolor3,1003047,,,,green,,,null,object_13b.png,object_09a.png,,,,,,,,,,,,,,,,,
867,,rt_thecrossant_black3,1004306,,,,black_plus_sign,,,50,,,,1,,,,,,1,,,,,,,,,
null,,color_black3,1004411,,,,black_plus_sign,,,null,,,,,,,,,,,,,,,,,,,
null,,learn_phase(without_color)3,1007917,,,,black_plus_sign,,,null,object_06b.png,object_14c.png,,,,,,,,,,,,,,,,,
null,,black_cross(without_color)3,1008679,,,,blue,,,null,object_06b.png,object_14c.png,,,,,,,,,,,,,,,,,
null,,rt_plussign_withcolor3,1009182,,,,blue,,,null,object_06b.png,object_14c.png,,,,,,,,,,,,,,,,,
null,,rt_thecrossant_black3,1010432,,,,black_plus_sign,,,null,,,,,,,,,,1,,,,,,,,,
null,,color_black3,1010537,,,,black_plus_sign,,,null,,,,,,,,,,,,,,,,,,,
null,,learn_phase(without_color)3,1014043,,,,black_plus_sign,,,null,object_03a.png,object_10a.png,,,,,,,,,,,,,,,,,
null,,black_cross(without_color)3,1014705,,,,blue,,,null,object_03a.png,object_10a.png,,,,,,,,,,,,,,,,,
null,,rt_plussign_withcolor3,1015207,,,,blue,,,null,object_03a.png,object_10a.png,,,,,,,,,,,,,,,,,
942.6000000014901,,rt_thecrossant_black3,1016556,,,,black_plus_sign,,,49,,,,1,,,,,,1,,,,,,,,,
null,,color_black3,1016660,,,,black_plus_sign,,,null,,,,,,,,,,,,,,,,,,,
null,,learn_phase(without_color)3,1020167,,,,black_plus_sign,,,null,object_08c.png,object_09c.png,,,,,,,,,,,,,,,,,
null,,black_cross(without_color)3,1021267,,,,green,,,null,object_08c.png,object_09c.png,,,,,,,,,,,,,,,,,
null,,rt_plussign_withcolor3,1021769,,,,green,,,null,object_08c.png,object_09c.png,,,,,,,,,,,,,,,,,
810.0999999940395,,rt_thecrossant_black3,1022678,,,,black_plus_sign,,,50,,,,1,,,,,,1,,,,,,,,,
null,,color_black3,1022783,,,,black_plus_sign,,,null,,,,,,,,,,,,,,,,,,,
null,,learn_phase(without_color)3,1026289,,,,black_plus_sign,,,null,object_05c.png,object_08c.png,,,,,,,,,,,,,,,,,
null,,black_cross(without_color)3,1026719,,,,green,,,null,object_05c.png,object_08c.png,,,,,,,,,,,,,,,,,
null,,rt_plussign_withcolor3,1027222,,,,green,,,null,object_05c.png,object_08c.png,,,,,,,,,,,,,,,,,
1492.5,,rt_thecrossant_black3,1028801,,,,black_plus_sign,,,50,,,,1,,,,,,1,,,,,,,,,
null,,color_black3,1028906,,,,black_plus_sign,,,null,,,,,,,,,,,,,,,,,,,
null,,learn_phase(without_color)3,1032416,,,,black_plus_sign,,,null,object_11a.png,object_12a.png,,,,,,,,,,,,,,,,,
null,,black_cross(without_color)3,1032915,,,,green,,,null,object_11a.png,object_12a.png,,,,,,,,,,,,,,,,,
null,,rt_plussign_withcolor3,1033418,,,,green,,,null,object_11a.png,object_12a.png,,,,,,,,,,,,,,,,,
890.8000000044703,,rt_thecrossant_black3,1034927,,,,black_plus_sign,,,50,,,,1,,,,,,1,,,,,,,,,
null,,color_black3,1035032,,,,black_plus_sign,,,null,,,,,,,,,,,,,,,,,,,
null,,learn_phase(without_color)3,1038538,,,,black_plus_sign,,,null,object_14b.png,object_01a.png,,,,,,,,,,,,,,,,,
null,,black_cross(without_color)3,1039058,,,,green,,,null,object_14b.png,object_01a.png,,,,,,,,,,,,,,,,,
null,,rt_plussign_withcolor3,1039561,,,,green,,,null,object_14b.png,object_01a.png,,,,,,,,,,,,,,,,,
1192.5,,rt_thecrossant_black3,1041052,,,,black_plus_sign,,,50,,,,1,,,,,,1,,,,,,,,,
null,,color_black3,1041157,,,,black_plus_sign,,,null,,,,,,,,,,,,,,,,,,,
null,,learn_phase(without_color)3,1044664,,,,black_plus_sign,,,null,object_04c.png,object_04a.png,,,,,,,,,,,,,,,,,
null,,black_cross(without_color)3,1045659,,,,green,,,null,object_04c.png,object_04a.png,,,,,,,,,,,,,,,,,
null,,rt_plussign_withcolor3,1046165,,,,green,,,null,object_04c.png,object_04a.png,,,,,,,,,,,,,,,,,
673.2999999970198,,rt_thecrossant_black3,1047178,,,,black_plus_sign,,,50,,,,1,,,,,,1,,,,,,,,,
null,,color_black3,1047283,,,,black_plus_sign,,,null,,,,,,,,,,,,,,,,,,,
null,,learn_phase(without_color)3,1050789,,,,black_plus_sign,,,null,object_12b.png,object_12c.png,,,,,,,,,,,,,,,,,
null,,black_cross(without_color)3,1051382,,,,blue,,,null,object_12b.png,object_12c.png,,,,,,,,,,,,,,,,,
null,,rt_plussign_withcolor3,1051884,,,,blue,,,null,object_12b.png,object_12c.png,,,,,,,,,,,,,,,,,
1276.8999999985099,,rt_thecrossant_black3,1053303,,,,black_plus_sign,,,49,,,,1,,,,,,1,,,,,,,,,
null,,color_black3,1053408,,,,black_plus_sign,,,null,,,,,,,,,,,,,,,,,,,
null,,learn_phase(without_color)3,1056914,,,,black_plus_sign,,,null,object_02b.png,object_08b.png,,,,,,,,,,,,,,,,,
null,,black_cross(without_color)3,1057430,,,,green,,,null,object_02b.png,object_08b.png,,,,,,,,,,,,,,,,,
null,,rt_plussign_withcolor3,1057933,,,,green,,,null,object_02b.png,object_08b.png,,,,,,,,,,,,,,,,,
1151.1999999955297,,rt_thecrossant_black3,1059427,,,,black_plus_sign,,,50,,,,1,,,,,,1,,,,,,,,,
null,,color_black3,1059532,,,,black_plus_sign,,,null,,,,,,,,,,,,,,,,,,,
null,,learn_phase(without_color)3,1063038,,,,black_plus_sign,,,null,object_14a.png,object_13c.png,,,,,,,,,,,,,,,,,
null,,black_cross(without_color)3,1063934,,,,green,,,null,object_14a.png,object_13c.png,,,,,,,,,,,,,,,,,
null,,rt_plussign_withcolor3,1064436,,,,green,,,null,object_14a.png,object_13c.png,,,,,,,,,,,,,,,,,
654.8999999985099,,rt_thecrossant_black3,1065550,,,,black_plus_sign,,,50,,,,1,,,,,,1,,,,,,,,,
null,,color_black3,1065654,,,,black_plus_sign,,,null,,,,,,,,,,,,,,,,,,,
null,,learn_phase(without_color)3,1069160,,,,black_plus_sign,,,null,object_06a.png,object_07a.png,,,,,,,,,,,,,,,,,
null,,black_cross(without_color)3,1070044,,,,green,,,null,object_06a.png,object_07a.png,,,,,,,,,,,,,,,,,
500.5,,rt_plussign_withcolor3,1070547,,,,green,,,50,object_06a.png,object_07a.png,,,,,,,,,,,,,,,,,
null,,rt_thecrossant_black3,1071676,,,,black_plus_sign,,,null,,,,1,,,,,,1,,,,,,,,,
null,,color_black3,1071781,,,,black_plus_sign,,,null,,,,,,,,,,,,,,,,,,,
null,,learn_phase(without_color)3,1075289,,,,black_plus_sign,,,null,object_03a.png,object_05b.png,,,,,,,,,,,,,,,,,
null,,black_cross(without_color)3,1076201,,,,green,,,null,object_03a.png,object_05b.png,,,,,,,,,,,,,,,,,
null,,rt_plussign_withcolor3,1076703,,,,green,,,null,object_03a.png,object_05b.png,,,,,,,,,,,,,,,,,
1055.3000000044703,,rt_thecrossant_black3,1077802,,,,black_plus_sign,,,50,,,,1,,,,,,1,,,,,,,,,
null,,color_black3,1077906,,,,black_plus_sign,,,null,,,,,,,,,,,,,,,,,,,
null,,learn_phase(without_color)3,1081412,,,,black_plus_sign,,,null,object_01c.png,object_08a.png,,,,,,,,,,,,,,,,,
null,,black_cross(without_color)3,1082079,,,,green,,,null,object_01c.png,object_08a.png,,,,,,,,,,,,,,,,,
null,,rt_plussign_withcolor3,1082581,,,,green,,,null,object_01c.png,object_08a.png,,,,,,,,,,,,,,,,,
1753.2999999970198,,rt_thecrossant_black3,1083923,,,,black_plus_sign,,,50,,,,1,,,,,,1,,,,,,,,,
null,,color_black3,1084028,,,,black_plus_sign,,,null,,,,,,,,,,,,,,,,,,,
null,,learn_phase(without_color)3,1087534,,,,black_plus_sign,,,null,object_15a.png,object_14b.png,,,,,,,,,,,,,,,,,
null,,black_cross(without_color)3,1088390,,,,blue,,,null,object_15a.png,object_14b.png,,,,,,,,,,,,,,,,,
null,,rt_plussign_withcolor3,1088893,,,,blue,,,null,object_15a.png,object_14b.png,,,,,,,,,,,,,,,,,
null,,rt_thecrossant_black3,1090046,,,,black_plus_sign,,,null,,,,,,,,,,1,,,,,,,,,
null,,color_black3,1090151,,,,black_plus_sign,,,null,,,,,,,,,,,,,,,,,,,
null,,learn_phase(without_color)3,1093658,,,,black_plus_sign,,,null,object_10c.png,object_06c.png,,,,,,,,,,,,,,,,,
null,,black_cross(without_color)3,1094617,,,,green,,,null,object_10c.png,object_06c.png,,,,,,,,,,,,,,,,,
463.69999999552965,,rt_plussign_withcolor3,1095120,,,,green,,,50,object_10c.png,object_06c.png,,,,,,,,,,,,,,,,,
null,,rt_thecrossant_black3,1096173,,,,black_plus_sign,,,null,,,,1,,,,,,1,,,,,,,,,
null,,color_black3,1096278,,,,black_plus_sign,,,null,,,,,,,,,,,,,,,,,,,
null,,learn_phase(without_color)3,1099785,,,,black_plus_sign,,,null,object_08b.png,object_09b.png,,,,,,,,,,,,,,,,,
null,,black_cross(without_color)3,1100658,,,,green,,,null,object_08b.png,object_09b.png,,,,,,,,,,,,,,,,,
null,,rt_plussign_withcolor3,1101160,,,,green,,,null,object_08b.png,object_09b.png,,,,,,,,,,,,,,,,,
1377.7000000029802,,rt_thecrossant_black3,1102302,,,,black_plus_sign,,,50,,,,1,,,,,,1,,,,,,,,,
null,,color_black3,1102407,,,,black_plus_sign,,,null,,,,,,,,,,,,,,,,,,,
null,,learn_phase(without_color)3,1105913,,,,black_plus_sign,,,null,object_13c.png,object_05a.png,,,,,,,,,,,,,,,,,
null,,black_cross(without_color)3,1106708,,,,green,,,null,object_13c.png,object_05a.png,,,,,,,,,,,,,,,,,
null,,rt_plussign_withcolor3,1107210,,,,green,,,null,object_13c.png,object_05a.png,,,,,,,,,,,,,,,,,
1436.6000000014901,,rt_thecrossant_black3,1108426,,,,black_plus_sign,,,50,,,,1,,,,,,1,,,,,,,,,
null,,color_black3,1108531,,,,black_plus_sign,,,null,,,,,,,,,,,,,,,,,,,
null,,learn_phase(without_color)3,1112038,,,,black_plus_sign,,,null,object_11a.png,object_01b.png,,,,,,,,,,,,,,,,,
null,,black_cross(without_color)3,1112525,,,,blue,,,null,object_11a.png,object_01b.png,,,,,,,,,,,,,,,,,
null,,rt_plussign_withcolor3,1113028,,,,blue,,,null,object_11a.png,object_01b.png,,,,,,,,,,,,,,,,,
932.5,,rt_thecrossant_black3,1114550,,,,black_plus_sign,,,49,,,,1,,,,,,1,,,,,,,,,
null,,color_black3,1114656,,,,black_plus_sign,,,null,,,,,,,,,,,,,,,,,,,
null,,learn_phase(without_color)3,1118163,,,,black_plus_sign,,,null,object_03b.png,object_15c.png,,,,,,,,,,,,,,,,,
null,,black_cross(without_color)3,1118848,,,,green,,,null,object_03b.png,object_15c.png,,,,,,,,,,,,,,,,,
497.59999999403954,,rt_plussign_withcolor3,1119350,,,,green,,,50,object_03b.png,object_15c.png,,,,,,,,,,,,,,,,,
null,,rt_thecrossant_black3,1120676,,,,black_plus_sign,,,null,,,,1,,,,,,1,,,,,,,,,
null,,color_black3,1120781,,,,black_plus_sign,,,null,,,,,,,,,,,,,,,,,,,
null,,thebreak,1120887,,,,<p></p>,,,null,,,,,,,,,,,,,,,,,,,
3935.60000000149,,intro_0,1124828,,,,instruct,,,32,,,,,,,,,,,,,,,,,,,
5396.0999999940395,,directmemory_phase3,1130228,,,,object_05a.png,,,51,,,,0,object_09c.png,object_13c.png,object_06c.png,object_13c.png,,0.5245901639344263,0,,,,,,,,
2455.5,,directmemory_phase3,1132691,,,,object_08a.png,,,50,,,,1,object_10c.png,object_01c.png,object_08b.png,object_01c.png,,0.532258064516129,1,,,,,,,,
3273.3000000044703,,directmemory_phase3,1135972,,,,object_13a.png,,,50,,,,0,object_01b.png,object_03a.png,object_03c.png,object_03c.png,,0.5238095238095238,0,,,,,,,,
2102.89999999851,,directmemory_phase3,1138083,,,,object_06c.png,,,50,,,,1,object_15c.png,object_02c.png,object_07b.png,object_02c.png,,0.53125,1,,,,,,,,
4120.89999999851,,directmemory_phase3,1142211,,,,object_14a.png,,,50,,,,1,object_03b.png,object_13c.png,object_14b.png,object_13c.png,,0.5384615384615384,1,,,,,,,,
2495.5,,directmemory_phase3,1144716,,,,object_07a.png,,,51,,,,1,object_13a.png,object_03b.png,object_06a.png,object_06a.png,,0.5454545454545454,1,,,,,,,,
2439.5,,directmemory_phase3,1147163,,,,object_10b.png,,,51,,,,0,object_09a.png,object_15c.png,object_15b.png,object_09a.png,,0.5373134328358209,0,,,,,,,,
3345.60000000149,,directmemory_phase3,1150516,,,,object_09a.png,,,49,,,,1,object_13b.png,object_09c.png,object_01c.png,object_13b.png,,0.5441176470588235,1,,,,,,,,
3401.2999999970198,,directmemory_phase3,1153923,,,,object_06b.png,,,50,,,,0,object_14c.png,object_15c.png,object_02b.png,object_14c.png,,0.5362318840579711,0,,,,,,,,
2742.89999999851,,directmemory_phase3,1156675,,,,object_03b.png,,,50,,,,1,object_04a.png,object_15c.png,object_03a.png,object_15c.png,,0.5428571428571428,1,,,,,,,,
2832.10000000149,,directmemory_phase3,1159515,,,,object_15c.png,,,49,,,,0,object_10a.png,object_14b.png,object_11c.png,object_11c.png,,0.5352112676056338,0,,,,,,,,
3848.1999999955297,,directmemory_phase3,1163372,,,,object_11b.png,,,49,,,,1,object_06a.png,object_14c.png,object_01b.png,object_06a.png,,0.5416666666666666,1,,,,,,,,
3759.3000000044703,,directmemory_phase3,1167139,,,,object_07c.png,,,49,,,,1,object_04c.png,object_03a.png,object_11b.png,object_04c.png,,0.547945205479452,1,,,,,,,,
3713.8000000044703,,directmemory_phase3,1170861,,,,object_02a.png,,,49,,,,0,object_03c.png,object_14c.png,object_06c.png,object_14c.png,,0.5405405405405406,0,,,,,,,,
4414.89999999851,,directmemory_phase3,1175283,,,,object_02b.png,,,50,,,,0,object_08b.png,object_03a.png,object_05b.png,object_08b.png,,0.5333333333333333,0,,,,,,,,
2258.5,,directmemory_phase3,1177547,,,,object_03a.png,,,50,,,,1,object_01c.png,object_10a.png,object_11c.png,object_10a.png,,0.5394736842105263,1,,,,,,,,
2823.5,,directmemory_phase3,1180378,,,,object_04b.png,,,49,,,,0,object_14c.png,object_07a.png,object_12b.png,object_12b.png,,0.5324675324675324,0,,,,,,,,
4234.19999999553,,directmemory_phase3,1184620,,,,object_12c.png,,,51,,,,0,object_09c.png,object_12b.png,object_06a.png,object_12b.png,,0.5256410256410257,0,,,,,,,,
2695,,directmemory_phase3,1187323,,,,object_10c.png,,,49,,,,0,object_08a.png,object_06c.png,object_09a.png,object_06c.png,,0.5189873417721519,0,,,,,,,,
4319,,directmemory_phase3,1191651,,,,object_05c.png,,,50,,,,0,object_03a.png,object_10b.png,object_08c.png,object_08c.png,,0.5125,0,,,,,,,,
3657,,directmemory_phase3,1195315,,,,object_05b.png,,,51,,,,0,object_03a.png,object_06a.png,object_12a.png,object_03a.png,,0.5061728395061729,0,,,,,,,,
3166.89999999851,,directmemory_phase3,1198490,,,,object_11a.png,,,49,,,,1,object_01b.png,object_03c.png,object_14b.png,object_01b.png,,0.5121951219512195,1,,,,,,,,
3297.5,,directmemory_phase3,1201795,,,,object_15a.png,,,51,,,,1,object_13a.png,object_10c.png,object_14b.png,object_14b.png,,0.5180722891566265,1,,,,,,,,
4991.79999999702,,directmemory_phase3,1206796,,,,object_01c.png,,,49,,,,1,object_07b.png,object_11b.png,object_09a.png,object_07b.png,,0.5238095238095238,1,,,,,,,,
2319.2000000029802,,directmemory_phase3,1209123,,,,object_12a.png,,,50,,,,1,object_06b.png,object_11a.png,object_15c.png,object_11a.png,,0.5294117647058824,1,,,,,,,,
2673.10000000149,,directmemory_phase3,1211803,,,,object_14b.png,,,51,,,,1,object_03c.png,object_13a.png,object_01a.png,object_01a.png,,0.5348837209302325,1,,,,,,,,
2576.2999999970198,,directmemory_phase3,1214387,,,,object_04a.png,,,49,,,,1,object_04c.png,object_14b.png,object_06b.png,object_04c.png,,0.5402298850574713,1,,,,,,,,
1736.4000000059605,,directmemory_phase3,1216131,,,,object_08b.png,,,50,,,,1,object_13c.png,object_09b.png,object_10a.png,object_09b.png,,0.5454545454545454,1,,,,,,,,
3593.3000000044703,,directmemory_phase3,1219732,,,,object_15b.png,,,51,,,,0,object_02b.png,object_13a.png,object_08b.png,object_13a.png,,0.5393258426966292,0,,,,,,,,
3689,,directmemory_phase3,1223427,,,,object_09c.png,,,50,,,,1,object_01a.png,object_08c.png,object_06c.png,object_08c.png,,0.5444444444444444,1,,,,,,,,
null,,thebreak,1223534,,,,<p></p>,,,null,,,,,,,,,,,,,,,,,,,
4000.2999999970198,,intro_0,1227539,,,,instruct,,,32,,,,,,,,,,,,,,,,,,,
null,,learn_phase(without_color)4,1231041,,,,black_plus_sign,,,null,object_12c.png,object_12b.png,,,,,,,,,,,,,,,,,
null,,black_cross(without_color)4,1231617,,,,green,,,null,object_12c.png,object_12b.png,,,,,,,,,,,,,,,,,
null,,rt_plussign_withcolor4,1232120,,,,green,,,null,object_12c.png,object_12b.png,,,,,,,,,,,,,,,,,
1094.6000000014901,,rt_thecrossant_black4,1233554,,,,black_plus_sign,,,50,,,,1,,,,,,1,,,,,,,,,
null,,color_black4,1233658,,,,black_plus_sign,,,null,,,,,,,,,,,,,,,,,,,
null,,learn_phase(without_color)4,1237165,,,,black_plus_sign,,,null,object_13c.png,object_05a.png,,,,,,,,,,,,,,,,,
null,,black_cross(without_color)4,1237746,,,,green,,,null,object_13c.png,object_05a.png,,,,,,,,,,,,,,,,,
431.70000000298023,,rt_plussign_withcolor4,1238248,,,,green,,,50,object_13c.png,object_05a.png,,,,,,,,,,,,,,,,,
null,,rt_thecrossant_black4,1239675,,,,black_plus_sign,,,null,,,,1,,,,,,1,,,,,,,,,
null,,color_black4,1239781,,,,black_plus_sign,,,null,,,,,,,,,,,,,,,,,,,
null,,learn_phase(without_color)4,1243287,,,,black_plus_sign,,,null,object_06c.png,object_02c.png,,,,,,,,,,,,,,,,,
null,,black_cross(without_color)4,1243749,,,,blue,,,null,object_06c.png,object_02c.png,,,,,,,,,,,,,,,,,
null,,rt_plussign_withcolor4,1244252,,,,blue,,,null,object_06c.png,object_02c.png,,,,,,,,,,,,,,,,,
1023.6999999955297,,rt_thecrossant_black4,1245798,,,,black_plus_sign,,,49,,,,1,,,,,,1,,,,,,,,,
null,,color_black4,1245903,,,,black_plus_sign,,,null,,,,,,,,,,,,,,,,,,,
null,,learn_phase(without_color)4,1249409,,,,black_plus_sign,,,null,object_14b.png,object_01a.png,,,,,,,,,,,,,,,,,
null,,black_cross(without_color)4,1250323,,,,green,,,null,object_14b.png,object_01a.png,,,,,,,,,,,,,,,,,
null,,rt_plussign_withcolor4,1250826,,,,green,,,null,object_14b.png,object_01a.png,,,,,,,,,,,,,,,,,
730.6000000014901,,rt_thecrossant_black4,1251926,,,,black_plus_sign,,,50,,,,1,,,,,,1,,,,,,,,,
null,,color_black4,1252031,,,,black_plus_sign,,,null,,,,,,,,,,,,,,,,,,,
null,,learn_phase(without_color)4,1255540,,,,black_plus_sign,,,null,object_13c.png,object_14a.png,,,,,,,,,,,,,,,,,
null,,black_cross(without_color)4,1256584,,,,green,,,null,object_13c.png,object_14a.png,,,,,,,,,,,,,,,,,
null,,rt_plussign_withcolor4,1257089,,,,green,,,null,object_13c.png,object_14a.png,,,,,,,,,,,,,,,,,
1022.5999999940395,,rt_thecrossant_black4,1258054,,,,black_plus_sign,,,50,,,,1,,,,,,1,,,,,,,,,
null,,color_black4,1258158,,,,black_plus_sign,,,null,,,,,,,,,,,,,,,,,,,
null,,learn_phase(without_color)4,1261662,,,,black_plus_sign,,,null,object_06a.png,object_07a.png,,,,,,,,,,,,,,,,,
null,,black_cross(without_color)4,1262534,,,,blue,,,null,object_06a.png,object_07a.png,,,,,,,,,,,,,,,,,
483.20000000298023,,rt_plussign_withcolor4,1263036,,,,blue,,,49,object_06a.png,object_07a.png,,,,,,,,,,,,,,,,,
null,,rt_thecrossant_black4,1264172,,,,black_plus_sign,,,null,,,,1,,,,,,1,,,,,,,,,
null,,color_black4,1264276,,,,black_plus_sign,,,null,,,,,,,,,,,,,,,,,,,
null,,learn_phase(without_color)4,1267783,,,,black_plus_sign,,,null,object_15c.png,object_03b.png,,,,,,,,,,,,,,,,,
null,,black_cross(without_color)4,1268797,,,,blue,,,null,object_15c.png,object_03b.png,,,,,,,,,,,,,,,,,
null,,rt_plussign_withcolor4,1269299,,,,blue,,,null,object_15c.png,object_03b.png,,,,,,,,,,,,,,,,,
1116,,rt_thecrossant_black4,1270295,,,,black_plus_sign,,,49,,,,1,,,,,,1,,,,,,,,,
null,,color_black4,1270400,,,,black_plus_sign,,,null,,,,,,,,,,,,,,,,,,,
null,,learn_phase(without_color)4,1273907,,,,black_plus_sign,,,null,object_11a.png,object_01b.png,,,,,,,,,,,,,,,,,
null,,black_cross(without_color)4,1274842,,,,green,,,null,object_11a.png,object_01b.png,,,,,,,,,,,,,,,,,
null,,rt_plussign_withcolor4,1275345,,,,green,,,null,object_11a.png,object_01b.png,,,,,,,,,,,,,,,,,
1579.6999999955297,,rt_thecrossant_black4,1276421,,,,black_plus_sign,,,50,,,,1,,,,,,1,,,,,,,,,
null,,color_black4,1276525,,,,black_plus_sign,,,null,,,,,,,,,,,,,,,,,,,
null,,learn_phase(without_color)4,1280032,,,,black_plus_sign,,,null,object_08c.png,object_05c.png,,,,,,,,,,,,,,,,,
null,,black_cross(without_color)4,1280633,,,,green,,,null,object_08c.png,object_05c.png,,,,,,,,,,,,,,,,,
null,,rt_plussign_withcolor4,1281136,,,,green,,,null,object_08c.png,object_05c.png,,,,,,,,,,,,,,,,,
1238,,rt_thecrossant_black4,1282544,,,,black_plus_sign,,,50,,,,1,,,,,,1,,,,,,,,,
null,,color_black4,1282649,,,,black_plus_sign,,,null,,,,,,,,,,,,,,,,,,,
null,,learn_phase(without_color)4,1286155,,,,black_plus_sign,,,null,object_15a.png,object_14b.png,,,,,,,,,,,,,,,,,
null,,black_cross(without_color)4,1286803,,,,blue,,,null,object_15a.png,object_14b.png,,,,,,,,,,,,,,,,,
null,,rt_plussign_withcolor4,1287306,,,,blue,,,null,object_15a.png,object_14b.png,,,,,,,,,,,,,,,,,
1229.5,,rt_thecrossant_black4,1288667,,,,black_plus_sign,,,49,,,,1,,,,,,1,,,,,,,,,
null,,color_black4,1288771,,,,black_plus_sign,,,null,,,,,,,,,,,,,,,,,,,
null,,learn_phase(without_color)4,1292279,,,,black_plus_sign,,,null,object_01c.png,object_07b.png,,,,,,,,,,,,,,,,,
null,,black_cross(without_color)4,1292902,,,,green,,,null,object_01c.png,object_07b.png,,,,,,,,,,,,,,,,,
null,,rt_plussign_withcolor4,1293405,,,,green,,,null,object_01c.png,object_07b.png,,,,,,,,,,,,,,,,,
763.1000000014901,,rt_thecrossant_black4,1294790,,,,black_plus_sign,,,50,,,,1,,,,,,1,,,,,,,,,
null,,color_black4,1294895,,,,black_plus_sign,,,null,,,,,,,,,,,,,,,,,,,
null,,learn_phase(without_color)4,1298402,,,,black_plus_sign,,,null,object_10a.png,object_03a.png,,,,,,,,,,,,,,,,,
null,,black_cross(without_color)4,1299085,,,,blue,,,null,object_10a.png,object_03a.png,,,,,,,,,,,,,,,,,
null,,rt_plussign_withcolor4,1299587,,,,blue,,,null,object_10a.png,object_03a.png,,,,,,,,,,,,,,,,,
753.7999999970198,,rt_thecrossant_black4,1300913,,,,black_plus_sign,,,49,,,,1,,,,,,1,,,,,,,,,
null,,color_black4,1301018,,,,black_plus_sign,,,null,,,,,,,,,,,,,,,,,,,
null,,learn_phase(without_color)4,1304525,,,,black_plus_sign,,,null,object_04b.png,object_12b.png,,,,,,,,,,,,,,,,,
null,,black_cross(without_color)4,1305419,,,,blue,,,null,object_04b.png,object_12b.png,,,,,,,,,,,,,,,,,
null,,rt_plussign_withcolor4,1305922,,,,blue,,,null,object_04b.png,object_12b.png,,,,,,,,,,,,,,,,,
799.3999999985099,,rt_thecrossant_black4,1307039,,,,black_plus_sign,,,49,,,,1,,,,,,1,,,,,,,,,
null,,color_black4,1307143,,,,black_plus_sign,,,null,,,,,,,,,,,,,,,,,,,
null,,learn_phase(without_color)4,1310650,,,,black_plus_sign,,,null,object_08b.png,object_02b.png,,,,,,,,,,,,,,,,,
null,,black_cross(without_color)4,1311161,,,,blue,,,null,object_08b.png,object_02b.png,,,,,,,,,,,,,,,,,
null,,rt_plussign_withcolor4,1311663,,,,blue,,,null,object_08b.png,object_02b.png,,,,,,,,,,,,,,,,,
1268.3000000044703,,rt_thecrossant_black4,1313163,,,,black_plus_sign,,,49,,,,1,,,,,,1,,,,,,,,,
null,,color_black4,1313268,,,,black_plus_sign,,,null,,,,,,,,,,,,,,,,,,,
null,,learn_phase(without_color)4,1316775,,,,black_plus_sign,,,null,object_01c.png,object_08a.png,,,,,,,,,,,,,,,,,
null,,black_cross(without_color)4,1317537,,,,green,,,null,object_01c.png,object_08a.png,,,,,,,,,,,,,,,,,
null,,rt_plussign_withcolor4,1318040,,,,green,,,null,object_01c.png,object_08a.png,,,,,,,,,,,,,,,,,
1043.7999999970198,,rt_thecrossant_black4,1319288,,,,black_plus_sign,,,50,,,,1,,,,,,1,,,,,,,,,
null,,color_black4,1319394,,,,black_plus_sign,,,null,,,,,,,,,,,,,,,,,,,
null,,learn_phase(without_color)4,1322902,,,,black_plus_sign,,,null,object_09b.png,object_08b.png,,,,,,,,,,,,,,,,,
null,,black_cross(without_color)4,1323927,,,,green,,,null,object_09b.png,object_08b.png,,,,,,,,,,,,,,,,,
null,,rt_plussign_withcolor4,1324430,,,,green,,,null,object_09b.png,object_08b.png,,,,,,,,,,,,,,,,,
1282.2999999970198,,rt_thecrossant_black4,1325414,,,,black_plus_sign,,,50,,,,1,,,,,,1,,,,,,,,,
null,,color_black4,1325519,,,,black_plus_sign,,,null,,,,,,,,,,,,,,,,,,,
null,,learn_phase(without_color)4,1329026,,,,black_plus_sign,,,null,object_03a.png,object_05b.png,,,,,,,,,,,,,,,,,
null,,black_cross(without_color)4,1330052,,,,green,,,null,object_03a.png,object_05b.png,,,,,,,,,,,,,,,,,
null,,rt_plussign_withcolor4,1330554,,,,green,,,null,object_03a.png,object_05b.png,,,,,,,,,,,,,,,,,
1710.2999999970198,,rt_thecrossant_black4,1331538,,,,black_plus_sign,,,50,,,,1,,,,,,1,,,,,,,,,
null,,color_black4,1331643,,,,black_plus_sign,,,null,,,,,,,,,,,,,,,,,,,
null,,learn_phase(without_color)4,1335150,,,,black_plus_sign,,,null,object_15b.png,object_13a.png,,,,,,,,,,,,,,,,,
null,,black_cross(without_color)4,1336044,,,,green,,,null,object_15b.png,object_13a.png,,,,,,,,,,,,,,,,,
null,,rt_plussign_withcolor4,1336547,,,,green,,,null,object_15b.png,object_13a.png,,,,,,,,,,,,,,,,,
1324.8000000044703,,rt_thecrossant_black4,1337662,,,,black_plus_sign,,,50,,,,1,,,,,,1,,,,,,,,,
null,,color_black4,1337767,,,,black_plus_sign,,,null,,,,,,,,,,,,,,,,,,,
null,,learn_phase(without_color)4,1341274,,,,black_plus_sign,,,null,object_10c.png,object_06c.png,,,,,,,,,,,,,,,,,
null,,black_cross(without_color)4,1341696,,,,blue,,,null,object_10c.png,object_06c.png,,,,,,,,,,,,,,,,,
null,,rt_plussign_withcolor4,1342199,,,,blue,,,null,object_10c.png,object_06c.png,,,,,,,,,,,,,,,,,
1070.3000000044703,,rt_thecrossant_black4,1343787,,,,black_plus_sign,,,49,,,,1,,,,,,1,,,,,,,,,
null,,color_black4,1343893,,,,black_plus_sign,,,null,,,,,,,,,,,,,,,,,,,
null,,learn_phase(without_color)4,1347401,,,,black_plus_sign,,,null,object_11b.png,object_06a.png,,,,,,,,,,,,,,,,,
null,,black_cross(without_color)4,1348325,,,,blue,,,null,object_11b.png,object_06a.png,,,,,,,,,,,,,,,,,
null,,rt_plussign_withcolor4,1348827,,,,blue,,,null,object_11b.png,object_06a.png,,,,,,,,,,,,,,,,,
775.6999999955297,,rt_thecrossant_black4,1349913,,,,black_plus_sign,,,49,,,,1,,,,,,1,,,,,,,,,
null,,color_black4,1350017,,,,black_plus_sign,,,null,,,,,,,,,,,,,,,,,,,
null,,learn_phase(without_color)4,1353525,,,,black_plus_sign,,,null,object_12a.png,object_11a.png,,,,,,,,,,,,,,,,,
null,,black_cross(without_color)4,1354508,,,,blue,,,null,object_12a.png,object_11a.png,,,,,,,,,,,,,,,,,
null,,rt_plussign_withcolor4,1355010,,,,blue,,,null,object_12a.png,object_11a.png,,,,,,,,,,,,,,,,,
1472.7000000029802,,rt_thecrossant_black4,1356037,,,,black_plus_sign,,,49,,,,1,,,,,,1,,,,,,,,,
null,,color_black4,1356141,,,,black_plus_sign,,,null,,,,,,,,,,,,,,,,,,,
null,,learn_phase(without_color)4,1359648,,,,black_plus_sign,,,null,object_07c.png,object_04c.png,,,,,,,,,,,,,,,,,
null,,black_cross(without_color)4,1360459,,,,blue,,,null,object_07c.png,object_04c.png,,,,,,,,,,,,,,,,,
null,,rt_plussign_withcolor4,1360962,,,,blue,,,null,object_07c.png,object_04c.png,,,,,,,,,,,,,,,,,
1139.7999999970198,,rt_thecrossant_black4,1362160,,,,black_plus_sign,,,49,,,,1,,,,,,1,,,,,,,,,
null,,color_black4,1362265,,,,black_plus_sign,,,null,,,,,,,,,,,,,,,,,,,
null,,learn_phase(without_color)4,1365772,,,,black_plus_sign,,,null,object_09c.png,object_08c.png,,,,,,,,,,,,,,,,,
null,,black_cross(without_color)4,1366477,,,,blue,,,null,object_09c.png,object_08c.png,,,,,,,,,,,,,,,,,
null,,rt_plussign_withcolor4,1366980,,,,blue,,,null,object_09c.png,object_08c.png,,,,,,,,,,,,,,,,,
983.5,,rt_thecrossant_black4,1368283,,,,black_plus_sign,,,49,,,,1,,,,,,1,,,,,,,,,
null,,color_black4,1368388,,,,black_plus_sign,,,null,,,,,,,,,,,,,,,,,,,
null,,learn_phase(without_color)4,1371896,,,,black_plus_sign,,,null,object_15c.png,object_11c.png,,,,,,,,,,,,,,,,,
null,,black_cross(without_color)4,1372859,,,,blue,,,null,object_15c.png,object_11c.png,,,,,,,,,,,,,,,,,
null,,rt_plussign_withcolor4,1373361,,,,blue,,,null,object_15c.png,object_11c.png,,,,,,,,,,,,,,,,,
1038.8000000044703,,rt_thecrossant_black4,1374409,,,,black_plus_sign,,,49,,,,1,,,,,,1,,,,,,,,,
null,,color_black4,1374513,,,,black_plus_sign,,,null,,,,,,,,,,,,,,,,,,,
null,,learn_phase(without_color)4,1378021,,,,black_plus_sign,,,null,object_14c.png,object_06b.png,,,,,,,,,,,,,,,,,
null,,black_cross(without_color)4,1378598,,,,green,,,null,object_14c.png,object_06b.png,,,,,,,,,,,,,,,,,
null,,rt_plussign_withcolor4,1379101,,,,green,,,null,object_14c.png,object_06b.png,,,,,,,,,,,,,,,,,
1355.2999999970198,,rt_thecrossant_black4,1380533,,,,black_plus_sign,,,50,,,,1,,,,,,1,,,,,,,,,
null,,color_black4,1380638,,,,black_plus_sign,,,null,,,,,,,,,,,,,,,,,,,
null,,learn_phase(without_color)4,1384146,,,,black_plus_sign,,,null,object_04c.png,object_04a.png,,,,,,,,,,,,,,,,,
null,,black_cross(without_color)4,1384589,,,,green,,,null,object_04c.png,object_04a.png,,,,,,,,,,,,,,,,,
null,,rt_plussign_withcolor4,1385092,,,,green,,,null,object_04c.png,object_04a.png,,,,,,,,,,,,,,,,,
1571.3999999985099,,rt_thecrossant_black4,1386658,,,,black_plus_sign,,,50,,,,1,,,,,,1,,,,,,,,,
null,,color_black4,1386763,,,,black_plus_sign,,,null,,,,,,,,,,,,,,,,,,,
null,,learn_phase(without_color)4,1390272,,,,black_plus_sign,,,null,object_09a.png,object_10b.png,,,,,,,,,,,,,,,,,
null,,black_cross(without_color)4,1390953,,,,green,,,null,object_09a.png,object_10b.png,,,,,,,,,,,,,,,,,
null,,rt_plussign_withcolor4,1391458,,,,green,,,null,object_09a.png,object_10b.png,,,,,,,,,,,,,,,,,
713.6999999955297,,rt_thecrossant_black4,1392790,,,,black_plus_sign,,,50,,,,1,,,,,,1,,,,,,,,,
null,,color_black4,1392895,,,,black_plus_sign,,,null,,,,,,,,,,,,,,,,,,,
null,,learn_phase(without_color)4,1396402,,,,black_plus_sign,,,null,object_13a.png,object_03c.png,,,,,,,,,,,,,,,,,
null,,black_cross(without_color)4,1397309,,,,green,,,null,object_13a.png,object_03c.png,,,,,,,,,,,,,,,,,
null,,rt_plussign_withcolor4,1397816,,,,green,,,null,object_13a.png,object_03c.png,,,,,,,,,,,,,,,,,
927.8999999985099,,rt_thecrossant_black4,1398921,,,,black_plus_sign,,,50,,,,1,,,,,,1,,,,,,,,,
null,,color_black4,1399026,,,,black_plus_sign,,,null,,,,,,,,,,,,,,,,,,,
null,,learn_phase(without_color)4,1402533,,,,black_plus_sign,,,null,object_09a.png,object_13b.png,,,,,,,,,,,,,,,,,
null,,black_cross(without_color)4,1403577,,,,blue,,,null,object_09a.png,object_13b.png,,,,,,,,,,,,,,,,,
null,,rt_plussign_withcolor4,1404079,,,,blue,,,null,object_09a.png,object_13b.png,,,,,,,,,,,,,,,,,
null,,rt_thecrossant_black4,1405046,,,,black_plus_sign,,,null,,,,,,,,,,1,,,,,,,,,
null,,color_black4,1405151,,,,black_plus_sign,,,null,,,,,,,,,,,,,,,,,,,
null,,learn_phase(without_color)4,1408658,,,,black_plus_sign,,,null,object_02a.png,object_14c.png,,,,,,,,,,,,,,,,,
null,,black_cross(without_color)4,1409084,,,,blue,,,null,object_02a.png,object_14c.png,,,,,,,,,,,,,,,,,
null,,rt_plussign_withcolor4,1409587,,,,blue,,,null,object_02a.png,object_14c.png,,,,,,,,,,,,,,,,,
1335.1000000014901,,rt_thecrossant_black4,1411170,,,,black_plus_sign,,,49,,,,1,,,,,,1,,,,,,,,,
null,,color_black4,1411275,,,,black_plus_sign,,,null,,,,,,,,,,,,,,,,,,,
null,,thebreak,1411382,,,,<p></p>,,,null,,,,,,,,,,,,,,,,,,,
2275.2999999970198,,intro_0,1413668,,,,instruct,,,32,,,,,,,,,,,,,,,,,,,
3212.7999999970198,,directmemory_phase4,1416884,,,,object_03b.png,,,49,,,,1,object_15c.png,object_11a.png,object_07a.png,object_15c.png,,0.5494505494505495,1,,,,,,,,
1726.1000000014901,,directmemory_phase4,1418619,,,,object_02b.png,,,49,,,,1,object_08b.png,object_06c.png,object_05b.png,object_08b.png,,0.5543478260869565,1,,,,,,,,
2071.5,,directmemory_phase4,1420700,,,,object_09b.png,,,49,,,,1,object_08b.png,object_13a.png,object_02a.png,object_08b.png,,0.5591397849462365,1,,,,,,,,
2399.89999999851,,directmemory_phase4,1423107,,,,object_02c.png,,,49,,,,1,object_06c.png,object_13c.png,object_10a.png,object_06c.png,,0.5638297872340425,1,,,,,,,,
3312.0999999940395,,directmemory_phase4,1426428,,,,object_09a.png,,,50,,,,0,object_07c.png,object_14c.png,object_13b.png,object_13b.png,,0.5578947368421052,0,,,,,,,,
2655.89999999851,,directmemory_phase4,1429092,,,,object_04c.png,,,51,,,,0,object_07c.png,object_11b.png,object_06c.png,object_07c.png,,0.5520833333333334,0,,,,,,,,
2005.3999999985099,,directmemory_phase4,1431107,,,,object_10b.png,,,51,,,,1,object_06a.png,object_05c.png,object_09a.png,object_09a.png,,0.5567010309278351,1,,,,,,,,
2431.39999999851,,directmemory_phase4,1433548,,,,object_07a.png,,,49,,,,0,object_01c.png,object_15b.png,object_06a.png,object_06a.png,,0.5510204081632653,0,,,,,,,,
1694.7000000029802,,directmemory_phase4,1435251,,,,object_03a.png,,,50,,,,1,object_14b.png,object_10a.png,object_03c.png,object_10a.png,,0.5555555555555556,1,,,,,,,,
3480.10000000149,,directmemory_phase4,1438740,,,,object_11c.png,,,49,,,,1,object_15c.png,object_08c.png,object_01a.png,object_15c.png,,0.56,1,,,,,,,,
2703.39999999851,,directmemory_phase4,1441451,,,,object_07b.png,,,49,,,,1,object_01c.png,object_14c.png,object_07c.png,object_01c.png,,0.5643564356435643,1,,,,,,,,
2711.39999999851,,directmemory_phase4,1444171,,,,object_05a.png,,,50,,,,0,object_13c.png,object_01c.png,object_02a.png,object_13c.png,,0.5588235294117647,0,,,,,,,,
2159.39999999851,,directmemory_phase4,1446339,,,,object_04b.png,,,51,,,,1,object_09a.png,object_02b.png,object_12b.png,object_12b.png,,0.5631067961165048,1,,,,,,,,
2702.3000000044703,,directmemory_phase4,1449051,,,,object_05b.png,,,50,,,,0,object_03a.png,object_11a.png,object_10c.png,object_03a.png,,0.5576923076923077,0,,,,,,,,
2864,,directmemory_phase4,1451924,,,,object_04a.png,,,51,,,,1,object_15c.png,object_08a.png,object_04c.png,object_04c.png,,0.5619047619047619,1,,,,,,,,
2462.1999999955297,,directmemory_phase4,1454396,,,,object_12a.png,,,50,,,,0,object_11a.png,object_08c.png,object_07a.png,object_11a.png,,0.5566037735849056,0,,,,,,,,
2007.3000000044703,,directmemory_phase4,1456412,,,,object_08a.png,,,50,,,,1,object_02b.png,object_01c.png,object_03a.png,object_01c.png,,0.5607476635514018,1,,,,,,,,
3167.2000000029802,,directmemory_phase4,1459587,,,,object_06a.png,,,51,,,,1,object_02c.png,object_13a.png,object_11b.png,object_11b.png,,0.5648148148148148,1,,,,,,,,
1578.4000000059605,,directmemory_phase4,1461172,,,,object_13a.png,,,50,,,,0,object_03c.png,object_10a.png,object_13c.png,object_03c.png,,0.5596330275229358,0,,,,,,,,
2583.10000000149,,directmemory_phase4,1463763,,,,object_12c.png,,,49,,,,0,object_03c.png,object_12b.png,object_14b.png,object_12b.png,,0.5545454545454546,0,,,,,,,,
2200.1999999955297,,directmemory_phase4,1465971,,,,object_14b.png,,,50,,,,1,object_01c.png,object_01a.png,object_11b.png,object_01a.png,,0.5585585585585585,1,,,,,,,,
5289.4000000059605,,directmemory_phase4,1471268,,,,object_14a.png,,,51,,,,1,object_09a.png,object_05b.png,object_13c.png,object_13c.png,,0.5625,1,,,,,,,,
3182.60000000149,,directmemory_phase4,1474460,,,,object_08c.png,,,51,,,,1,object_11c.png,object_15c.png,object_09c.png,object_09c.png,,0.5663716814159292,1,,,,,,,,
4038.39999999851,,directmemory_phase4,1478508,,,,object_06b.png,,,49,,,,1,object_14c.png,object_03a.png,object_14a.png,object_14c.png,,0.5701754385964912,1,,,,,,,,
5445.5,,directmemory_phase4,1483964,,,,object_15b.png,,,51,,,,0,object_13a.png,object_14c.png,object_15a.png,object_13a.png,,0.5652173913043478,0,,,,,,,,
1656.6000000014901,,directmemory_phase4,1485628,,,,object_15a.png,,,51,,,,1,object_04c.png,object_05c.png,object_14b.png,object_14b.png,,0.5689655172413793,1,,,,,,,,
5350.19999999553,,directmemory_phase4,1490988,,,,object_10c.png,,,49,,,,0,object_14c.png,object_02b.png,object_06c.png,object_06c.png,,0.5641025641025641,0,,,,,,,,
6199.29999999702,,directmemory_phase4,1497195,,,,object_05c.png,,,50,,,,0,object_09a.png,object_14a.png,object_08c.png,object_08c.png,,0.559322033898305,0,,,,,,,,
4751.70000000298,,directmemory_phase4,1501957,,,,object_11a.png,,,50,,,,0,object_01b.png,object_02c.png,object_15c.png,object_01b.png,,0.5546218487394958,0,,,,,,,,
7438.5,,directmemory_phase4,1509405,,,,object_14c.png,,,51,,,,1,object_09c.png,object_09a.png,object_02a.png,object_02a.png,,0.5583333333333333,1,,,,,,,,
null,,thebreak,1509511,,,,<p></p>,,,null,,,,,,,,,,,,,,,,,,,
3399.10000000149,,intro_0,1512916,,,,instruct,,,32,,,,,,,,,,,,,,,,,,,
9917.10000000149,,intro_1,1522836,,,,instruct,,,32,,,,,,,,,,,,,,,,,,,
10166.39999999851,,intro_2,1533005,,,,instruct,,,32,,,,,,,,,,,,,,,,,,,
,,intro_3,1556947,,,,instruct,,,,,,,,,,,,,,,,,,,,,,
5509.10000000149,,intro_4,1562461,,,,instruct,,,32,,,,,,,,,,,,,,,,,,,
null,,thebreak,1562564,,,,<p></p>,,,null,,,,,,,,,,,,,,,,,,,
2234.10000000149,,intro_0,1564805,,,,instruct,,,32,,,,,,,,,,,,,,,,,,,
22172.60000000149,,intro_1,1586981,,,,instruct,,,32,,,,,,,,,,,,,,,,,,,
2771.7000000029802,,intro_2,1589756,,,,instruct,,,32,,,,,,,,,,,,,,,,,,,
,,intro_3,1597731,,,,instruct,,,,,,,,,,,,,,,,,,,,,,
3484.39999999851,,intro_4,1601220,,,,instruct,,,32,,,,,,,,,,,,,,,,,,,
3476,,inference_phase,1604700,,,,object_02b.png,,,50,object_08c.png,object_09b.png,,0,,,,object_09b.png,,0,,object_09c.png,,,,,,,
3647.7999999970198,,inference_phase,1608356,,,,object_05a.png,,,51,object_07a.png,object_14a.png,,1,,,,object_14a.png,,0.5,,object_14b.png,,,,,,,
3406.9000000059605,,inference_phase,1611771,,,,object_07a.png,,,49,object_15c.png,object_11b.png,,0,,,,object_11b.png,,0.3333333333333333,,object_09b.png,,,,,,,
1656.9000000059605,,inference_phase,1613436,,,,object_15b.png,,,50,object_03c.png,object_13b.png,,0,,,,object_03c.png,,0.25,,object_03a.png,,,,,,,
3136.60000000149,,inference_phase,1616580,,,,object_04a.png,,,51,object_13a.png,object_02a.png,,0,,,,object_07c.png,,0.2,,object_07c.png,,,,,,,
2720,,inference_phase,1619308,,,,object_02c.png,,,49,object_08a.png,object_10c.png,,0,,,,object_10c.png,,0.16666666666666666,,object_04c.png,,,,,,,
2463.2999999970198,,inference_phase,1621779,,,,object_05b.png,,,49,object_06c.png,object_10a.png,,0,,,,object_10a.png,,0.14285714285714285,,object_01b.png,,,,,,,
2871.6999999955297,,inference_phase,1624660,,,,object_06b.png,,,50,object_08b.png,object_09b.png,,1,,,,object_02a.png,,0.25,,object_02a.png,,,,,,,
2326.89999999851,,inference_phase,1626995,,,,object_13b.png,,,51,object_15a.png,object_10b.png,,1,,,,object_10b.png,,0.3333333333333333,,object_13c.png,,,,,,,
2304.2000000029802,,inference_phase,1629307,,,,object_15a.png,,,49,object_01c.png,object_01a.png,,0,,,,object_01a.png,,0.3,,object_07c.png,,,,,,,
3432.89999999851,,inference_phase,1632747,,,,object_07b.png,,,49,object_06b.png,object_08a.png,,0,,,,object_08a.png,,0.2727272727272727,,object_13c.png,,,,,,,
5328.10000000149,,inference_phase,1638084,,,,object_05c.png,,,49,object_11a.png,object_09c.png,,0,,,,object_09c.png,,0.25,,object_02a.png,,,,,,,
2887.2000000029802,,inference_phase,1640979,,,,object_01b.png,,,50,object_07a.png,object_13a.png,,1,,,,object_12a.png,,0.3076923076923077,,object_12a.png,,,,,,,
3448.5,,inference_phase,1644436,,,,object_04b.png,,,50,object_03a.png,object_09c.png,,1,,,,object_12c.png,,0.35714285714285715,,object_12c.png,,,,,,,
6135.10000000149,,inference_phase,1650580,,,,object_11c.png,,,49,object_15b.png,object_03b.png,,0,,,,object_03b.png,,0.3333333333333333,,object_06c.png,,,,,,,
,,survey,1782628,,,,survey-questions,,,,,,,,,,,,,,,,none,high,No.,I tried to memorize colors; it didn't work.,Only a few were a little easier, if they had a shape I could name, or if they resembled something,none,Frustrating, Very Difficult, became boring
