rt,responses,trial_type,time_elapsed,identifier_a,identifier_b,identifier_c,stimulus,button_pressed,response,key_press,stimulus_left,stimulus_right,accuracy,practice_cumulative_accuracy,stimulus_down_left,stimulus_down_mid,stimulus_down_right,stimulus_correct,prac_weighted_accuracy,cumulative_accuracy,weighted_accuracy,stimulus_middle,problems,smooth,distraction,strategies,easier,similar,comments
15001.29999999702,{worker_id:5b6f49b7d60bdd0001ade437},id_enter,15003,object_04b.png; object_02b.png; object_10a.png; object_15c.png; object_01c.png; object_12c.png; object_15b.png; object_09a.png; object_02a.png; object_11c.png; object_09c.png; object_06a.png; object_07c.png; object_12a.png; object_10c.png,object_12b.png; object_03b.png; object_09b.png; object_05a.png; object_14a.png; object_04a.png; object_06b.png; object_04c.png; object_03a.png; object_01b.png; object_14c.png; object_13c.png; object_01a.png; object_08b.png; object_11b.png,object_14b.png; object_06c.png; object_05b.png; object_05c.png; object_07a.png; object_07b.png; object_08a.png; object_13a.png; object_11a.png; object_08c.png; object_10b.png; object_03c.png; object_02c.png; object_13b.png; object_15a.png,,,,,,,,,,,,,,,,,,,,,,,
6005.60000000149,,make_fullscreen,21010,,,,fullscreen,0,,,,,,,,,,,,,,,,,,,,,
3199,,instruct_1,24210,,,,instruct,0,Next,,,,,,,,,,,,,,,,,,,,
5423,,instruct_2,29634,,,,instruct,1,Next,,,,,,,,,,,,,,,,,,,,
4343.19999999553,,instruct_3,33978,,,,instruct,1,Next,,,,,,,,,,,,,,,,,,,,
10126.90000000596,,instruct_4,44106,,,,instruct,1,Next,,,,,,,,,,,,,,,,,,,,
5590.5,,instruct_5,49698,,,,instruct,1,Next,,,,,,,,,,,,,,,,,,,,
2543.39999999851,,instruct_6,52242,,,,instruct,1,Next,,,,,,,,,,,,,,,,,,,,
15231.89999999851,,instruct_7,67474,,,,instruct,1,Next,,,,,,,,,,,,,,,,,,,,
null,,prac_atten_color_black,68411,,,,black_plus_sign,,,null,,,,,,,,,,,,,,,,,,,
null,,prac_atten_color,68880,,,,<p style='position:absolute;top: 50%;right: 50%;transform: translate(50%, -50%);font-size: 125px;color: blue;'>+</p>,,,null,,,,,,,,,,,,,,,,,,,
305.6000000014901,,prac_atten_color_black,70881,,,,black_plus_sign,,,49,,,,,,,,,,,,,,,,,,,
null,,prac_atten_color_black,71819,,,,black_plus_sign,,,null,,,,,,,,,,,,,,,,,,,
480.70000000298023,,prac_atten_color,72423,,,,<p style='position:absolute;top: 50%;right: 50%;transform: translate(50%, -50%);font-size: 125px;color: green;'>+</p>,,,50,,,,,,,,,,,,,,,,,,,
null,,prac_atten_color_black,74427,,,,black_plus_sign,,,null,,,,,,,,,,,,,,,,,,,
null,,prac_atten_color_black,75238,,,,black_plus_sign,,,null,,,,,,,,,,,,,,,,,,,
469.19999999552965,,prac_atten_color,76137,,,,<p style='position:absolute;top: 50%;right: 50%;transform: translate(50%, -50%);font-size: 125px;color: green;'>+</p>,,,50,,,,,,,,,,,,,,,,,,,
null,,prac_atten_color_black,78140,,,,black_plus_sign,,,null,,,,,,,,,,,,,,,,,,,
null,,prac_atten_color_black,78647,,,,black_plus_sign,,,null,,,,,,,,,,,,,,,,,,,
null,,prac_atten_color,79159,,,,<p style='position:absolute;top: 50%;right: 50%;transform: translate(50%, -50%);font-size: 125px;color: blue;'>+</p>,,,null,,,,,,,,,,,,,,,,,,,
4.699999995529652,,prac_atten_color_black,81161,,,,black_plus_sign,,,49,,,,,,,,,,,,,,,,,,,
null,,prac_atten_color_black,82054,,,,black_plus_sign,,,null,,,,,,,,,,,,,,,,,,,
390,,prac_atten_color,82613,,,,<p style='position:absolute;top: 50%;right: 50%;transform: translate(50%, -50%);font-size: 125px;color: green;'>+</p>,,,49,,,,,,,,,,,,,,,,,,,
null,,prac_atten_color_black,84616,,,,black_plus_sign,,,null,,,,,,,,,,,,,,,,,,,
4035,,attentioncheck_help,88654,,,,instruct,,,32,,,,,,,,,,,,,,,,,,,
null,,prac_atten_color_black,89498,,,,black_plus_sign,,,null,,,,,,,,,,,,,,,,,,,
null,,prac_atten_color,90155,,,,<p style='position:absolute;top: 50%;right: 50%;transform: translate(50%, -50%);font-size: 125px;color: green;'>+</p>,,,null,,,,,,,,,,,,,,,,,,,
72.40000000596046,,prac_atten_color_black,92158,,,,black_plus_sign,,,50,,,,,,,,,,,,,,,,,,,
null,,prac_atten_color_black,92905,,,,black_plus_sign,,,null,,,,,,,,,,,,,,,,,,,
null,,prac_atten_color,93407,,,,<p style='position:absolute;top: 50%;right: 50%;transform: translate(50%, -50%);font-size: 125px;color: blue;'>+</p>,,,null,,,,,,,,,,,,,,,,,,,
180.40000000596046,,prac_atten_color_black,95409,,,,black_plus_sign,,,49,,,,,,,,,,,,,,,,,,,
null,,prac_atten_color_black,96312,,,,black_plus_sign,,,null,,,,,,,,,,,,,,,,,,,
611.3999999985099,,prac_atten_color,97245,,,,<p style='position:absolute;top: 50%;right: 50%;transform: translate(50%, -50%);font-size: 125px;color: green;'>+</p>,,,50,,,,,,,,,,,,,,,,,,,
null,,prac_atten_color_black,99248,,,,black_plus_sign,,,null,,,,,,,,,,,,,,,,,,,
null,,prac_atten_color_black,99722,,,,black_plus_sign,,,null,,,,,,,,,,,,,,,,,,,
722.6000000014901,,prac_atten_color,100685,,,,<p style='position:absolute;top: 50%;right: 50%;transform: translate(50%, -50%);font-size: 125px;color: blue;'>+</p>,,,49,,,,,,,,,,,,,,,,,,,
null,,prac_atten_color_black,102688,,,,black_plus_sign,,,null,,,,,,,,,,,,,,,,,,,
null,,prac_atten_color_black,103130,,,,black_plus_sign,,,null,,,,,,,,,,,,,,,,,,,
602,,prac_atten_color,104192,,,,<p style='position:absolute;top: 50%;right: 50%;transform: translate(50%, -50%);font-size: 125px;color: blue;'>+</p>,,,49,,,,,,,,,,,,,,,,,,,
null,,prac_atten_color_black,106195,,,,black_plus_sign,,,null,,,,,,,,,,,,,,,,,,,
6997.70000000298,,attentioncheck_feedback,113195,,,,cross_check_feedback,0,,,,,,,,,,,,,,,,,,,,,
6450.19999999553,,last_instruct,119645,,,,instruct,,,32,,,,,,,,,,,,,,,,,,,
null,,prac_learn_phase(without_color),123147,,,,black_plus_sign,,,null,object_14c.png,object_10b.png,,,,,,,,,,,,,,,,,
null,,prac_black_cross(without_color),123988,,,,blue,,,null,object_14c.png,object_10b.png,,,,,,,,,,,,,,,,,
null,,prac_rt_plussign_withcolor,124490,,,,blue,,,null,object_14c.png,object_10b.png,,,,,,,,,,,,,,,,,
1427,,prac_rt_thecrossant_black,125656,,,,black_plus_sign,,,49,,,1,1,,,,,,,,,,,,,,,
null,,prac_color_black,125759,,,,black_plus_sign,,,null,,,,,,,,,,,,,,,,,,,
null,,prac_learn_phase(without_color),129261,,,,black_plus_sign,,,null,object_10c.png,object_11b.png,,,,,,,,,,,,,,,,,
null,,black_cross(without_color)1,130125,,,,green,,,null,object_14c.png,object_10b.png,,,,,,,,,,,,,,,,,
null,,prac_rt_plussign_withcolor,130627,,,,green,,,null,object_10c.png,object_11b.png,,,,,,,,,,,,,,,,,
1340.9000000059605,,prac_rt_thecrossant_black,131682,,,,black_plus_sign,,,50,,,1,1,,,,,,,,,,,,,,,
null,,prac_color_black,131784,,,,black_plus_sign,,,null,,,,,,,,,,,,,,,,,,,
null,,prac_learn_phase(without_color),135286,,,,black_plus_sign,,,null,object_04a.png,object_12c.png,,,,,,,,,,,,,,,,,
null,,black_cross(without_color)1,136151,,,,green,,,null,object_14c.png,object_10b.png,,,,,,,,,,,,,,,,,
null,,prac_rt_plussign_withcolor,136652,,,,blue,,,null,object_04a.png,object_12c.png,,,,,,,,,,,,,,,,,
1375.8999999985099,,prac_rt_thecrossant_black,137609,,,,black_plus_sign,,,49,,,1,1,,,,,,,,,,,,,,,
null,,prac_color_black,137711,,,,black_plus_sign,,,null,,,,,,,,,,,,,,,,,,,
null,,prac_learn_phase(without_color),141215,,,,black_plus_sign,,,null,object_02c.png,object_01a.png,,,,,,,,,,,,,,,,,
null,,black_cross(without_color)1,142079,,,,green,,,null,object_14c.png,object_10b.png,,,,,,,,,,,,,,,,,
null,,prac_rt_plussign_withcolor,142593,,,,green,,,null,object_02c.png,object_01a.png,,,,,,,,,,,,,,,,,
2197.60000000149,,prac_rt_thecrossant_black,143897,,,,black_plus_sign,,,50,,,1,1,,,,,,,,,,,,,,,
null,,prac_color_black,143999,,,,black_plus_sign,,,null,,,,,,,,,,,,,,,,,,,
5210.5,,instruct_dir_01,149210,,,,instruct,0,Next,,,,,,,,,,,,,,,,,,,,
6495.60000000149,,instruct_dir_2,155706,,,,instruct,1,Next,,,,,,,,,,,,,,,,,,,,
4927,,instruct_dir_3,160634,,,,instruct,1,Next,,,,,,,,,,,,,,,,,,,,
4191,,instruct_dir_4,164826,,,,instruct,1,Start,,,,,,,,,,,,,,,,,,,,
null,,thebreak,164927,,,,<p></p>,,,null,,,,,,,,,,,,,,,,,,,
2362.10000000149,,intro_0,167290,,,,instruct,,,32,,,,,,,,,,,,,,,,,,,
4887.20000000298,,prac_directmemory_phase,172178,,,,practice/object_01a.png,,,51,,,1,,practice/object_03b.png,practice/object_03a.png,practice/object_01b.png,practice/object_01b.png,1,1,,,,,,,,,
3687.0999999940395,,prac_directmemory_phase,175866,,,,practice/object_02a.png,,,51,,,1,,practice/object_01b.png,practice/object_04a.png,practice/object_02b.png,practice/object_02b.png,1,1,,,,,,,,,
2995,,prac_directmemory_phase,178862,,,,practice/object_04a.png,,,49,,,1,,practice/object_04b.png,practice/object_01b.png,practice/object_01a.png,practice/object_04b.png,1,1,,,,,,,,,
3852,,prac_directmemory_phase,182717,,,,practice/object_03a.png,,,50,,,1,,practice/object_02a.png,practice/object_03b.png,practice/object_01b.png,practice/object_03b.png,1,1,,,,,,,,,
4954.29999999702,,practice_feedback,187674,,,,practice_feedback,1,,,,,,,,,,,,,,,,,,,,,
8255.29999999702,,proceed_actualTask,195930,,,,proceed_actualTask,1,Continue,,,,,,,,,,,,,,,,,,,,
6946.39999999851,,last_inst,202877,,,,last_inst,,,32,,,,,,,,,,,,,,,,,,,
null,,learn_phase(without_color)1,206380,,,,black_plus_sign,,,null,object_14c.png,object_10b.png,,,,,,,,,,,,,,,,,
null,,black_cross(without_color)1,207245,,,,green,,,null,object_14c.png,object_10b.png,,,,,,,,,,,,,,,,,
null,,rt_plussign_withcolor1,207746,,,,green,,,null,object_14c.png,object_10b.png,,,,,,,,,,,,,,,,,
null,,rt_thecrossant_black1,208889,,,,black_plus_sign,,,null,,,,,,,,,,NaN,,,,,,,,,
null,,color_black1,208993,,,,black_plus_sign,,,null,,,,,,,,,,,,,,,,,,,
null,,learn_phase(without_color)1,212495,,,,black_plus_sign,,,null,object_10c.png,object_11b.png,,,,,,,,,,,,,,,,,
null,,black_cross(without_color)1,213491,,,,blue,,,null,object_10c.png,object_11b.png,,,,,,,,,,,,,,,,,
null,,rt_plussign_withcolor1,213992,,,,blue,,,null,object_10c.png,object_11b.png,,,,,,,,,,,,,,,,,
1409.3999999985099,,rt_thecrossant_black1,215003,,,,black_plus_sign,,,49,,,1,,,,,,,1,,,,,,,,,
null,,color_black1,215106,,,,black_plus_sign,,,null,,,,,,,,,,,,,,,,,,,
null,,learn_phase(without_color)1,218610,,,,black_plus_sign,,,null,object_04a.png,object_12c.png,,,,,,,,,,,,,,,,,
null,,black_cross(without_color)1,219087,,,,blue,,,null,object_04a.png,object_12c.png,,,,,,,,,,,,,,,,,
null,,rt_plussign_withcolor1,219599,,,,blue,,,null,object_04a.png,object_12c.png,,,,,,,,,,,,,,,,,
1986.1000000014901,,rt_thecrossant_black1,221126,,,,black_plus_sign,,,49,,,1,,,,,,,1,,,,,,,,,
null,,color_black1,221230,,,,black_plus_sign,,,null,,,,,,,,,,,,,,,,,,,
null,,learn_phase(without_color)1,224733,,,,black_plus_sign,,,null,object_02c.png,object_01a.png,,,,,,,,,,,,,,,,,
null,,black_cross(without_color)1,225417,,,,blue,,,null,object_02c.png,object_01a.png,,,,,,,,,,,,,,,,,
null,,rt_plussign_withcolor1,225918,,,,blue,,,null,object_02c.png,object_01a.png,,,,,,,,,,,,,,,,,
null,,rt_thecrossant_black1,227241,,,,black_plus_sign,,,null,,,,,,,,,,1,,,,,,,,,
null,,color_black1,227345,,,,black_plus_sign,,,null,,,,,,,,,,,,,,,,,,,
null,,learn_phase(without_color)1,230848,,,,black_plus_sign,,,null,object_12b.png,object_14b.png,,,,,,,,,,,,,,,,,
null,,black_cross(without_color)1,231596,,,,blue,,,null,object_12b.png,object_14b.png,,,,,,,,,,,,,,,,,
null,,rt_plussign_withcolor1,232100,,,,blue,,,null,object_12b.png,object_14b.png,,,,,,,,,,,,,,,,,
919.7999999970198,,rt_thecrossant_black1,233360,,,,black_plus_sign,,,49,,,1,,,,,,,1,,,,,,,,,
null,,color_black1,233475,,,,black_plus_sign,,,null,,,,,,,,,,,,,,,,,,,
null,,learn_phase(without_color)1,236977,,,,black_plus_sign,,,null,object_08b.png,object_13b.png,,,,,,,,,,,,,,,,,
null,,black_cross(without_color)1,237674,,,,green,,,null,object_08b.png,object_13b.png,,,,,,,,,,,,,,,,,
null,,rt_plussign_withcolor1,238176,,,,green,,,null,object_08b.png,object_13b.png,,,,,,,,,,,,,,,,,
1153,,rt_thecrossant_black1,239485,,,,black_plus_sign,,,50,,,1,,,,,,,1,,,,,,,,,
null,,color_black1,239589,,,,black_plus_sign,,,null,,,,,,,,,,,,,,,,,,,
null,,learn_phase(without_color)1,243092,,,,black_plus_sign,,,null,object_09a.png,object_04c.png,,,,,,,,,,,,,,,,,
null,,black_cross(without_color)1,243766,,,,green,,,null,object_09a.png,object_04c.png,,,,,,,,,,,,,,,,,
null,,rt_plussign_withcolor1,244268,,,,green,,,null,object_09a.png,object_04c.png,,,,,,,,,,,,,,,,,
1025,,rt_thecrossant_black1,245602,,,,black_plus_sign,,,50,,,1,,,,,,,1,,,,,,,,,
null,,color_black1,245705,,,,black_plus_sign,,,null,,,,,,,,,,,,,,,,,,,
null,,learn_phase(without_color)1,249208,,,,black_plus_sign,,,null,object_03a.png,object_02a.png,,,,,,,,,,,,,,,,,
null,,black_cross(without_color)1,250256,,,,green,,,null,object_03a.png,object_02a.png,,,,,,,,,,,,,,,,,
null,,rt_plussign_withcolor1,250759,,,,green,,,null,object_03a.png,object_02a.png,,,,,,,,,,,,,,,,,
1303.9000000059605,,rt_thecrossant_black1,251717,,,,black_plus_sign,,,50,,,1,,,,,,,1,,,,,,,,,
null,,color_black1,251820,,,,black_plus_sign,,,null,,,,,,,,,,,,,,,,,,,
null,,learn_phase(without_color)1,255323,,,,black_plus_sign,,,null,object_06b.png,object_15b.png,,,,,,,,,,,,,,,,,
null,,black_cross(without_color)1,255992,,,,green,,,null,object_06b.png,object_15b.png,,,,,,,,,,,,,,,,,
null,,rt_plussign_withcolor1,256493,,,,green,,,null,object_06b.png,object_15b.png,,,,,,,,,,,,,,,,,
1355.7000000029802,,rt_thecrossant_black1,257831,,,,black_plus_sign,,,50,,,1,,,,,,,1,,,,,,,,,
null,,color_black1,257936,,,,black_plus_sign,,,null,,,,,,,,,,,,,,,,,,,
null,,learn_phase(without_color)1,261439,,,,black_plus_sign,,,null,object_05c.png,object_05a.png,,,,,,,,,,,,,,,,,
null,,black_cross(without_color)1,262317,,,,green,,,null,object_05c.png,object_05a.png,,,,,,,,,,,,,,,,,
null,,rt_plussign_withcolor1,262819,,,,green,,,null,object_05c.png,object_05a.png,,,,,,,,,,,,,,,,,
893.7999999970198,,rt_thecrossant_black1,263948,,,,black_plus_sign,,,50,,,1,,,,,,,1,,,,,,,,,
null,,color_black1,264051,,,,black_plus_sign,,,null,,,,,,,,,,,,,,,,,,,
null,,learn_phase(without_color)1,267555,,,,black_plus_sign,,,null,object_13a.png,object_04c.png,,,,,,,,,,,,,,,,,
null,,black_cross(without_color)1,268555,,,,green,,,null,object_13a.png,object_04c.png,,,,,,,,,,,,,,,,,
null,,rt_plussign_withcolor1,269066,,,,green,,,null,object_13a.png,object_04c.png,,,,,,,,,,,,,,,,,
1423.8999999985099,,rt_thecrossant_black1,270072,,,,black_plus_sign,,,50,,,1,,,,,,,1,,,,,,,,,
null,,color_black1,270175,,,,black_plus_sign,,,null,,,,,,,,,,,,,,,,,,,
null,,learn_phase(without_color)1,273678,,,,black_plus_sign,,,null,object_01b.png,object_08c.png,,,,,,,,,,,,,,,,,
null,,black_cross(without_color)1,274332,,,,green,,,null,object_01b.png,object_08c.png,,,,,,,,,,,,,,,,,
null,,rt_plussign_withcolor1,274835,,,,green,,,null,object_01b.png,object_08c.png,,,,,,,,,,,,,,,,,
1416.8999999985099,,rt_thecrossant_black1,276187,,,,black_plus_sign,,,50,,,1,,,,,,,1,,,,,,,,,
null,,color_black1,276290,,,,black_plus_sign,,,null,,,,,,,,,,,,,,,,,,,
null,,learn_phase(without_color)1,279793,,,,black_plus_sign,,,null,object_12b.png,object_04b.png,,,,,,,,,,,,,,,,,
null,,black_cross(without_color)1,280465,,,,blue,,,null,object_12b.png,object_04b.png,,,,,,,,,,,,,,,,,
null,,rt_plussign_withcolor1,280967,,,,blue,,,null,object_12b.png,object_04b.png,,,,,,,,,,,,,,,,,
1044,,rt_thecrossant_black1,282302,,,,black_plus_sign,,,49,,,1,,,,,,,1,,,,,,,,,
null,,color_black1,282406,,,,black_plus_sign,,,null,,,,,,,,,,,,,,,,,,,
null,,learn_phase(without_color)1,285909,,,,black_plus_sign,,,null,object_11c.png,object_01b.png,,,,,,,,,,,,,,,,,
null,,black_cross(without_color)1,286691,,,,blue,,,null,object_11c.png,object_01b.png,,,,,,,,,,,,,,,,,
null,,rt_plussign_withcolor1,287193,,,,blue,,,null,object_11c.png,object_01b.png,,,,,,,,,,,,,,,,,
1097.3999999985099,,rt_thecrossant_black1,288418,,,,black_plus_sign,,,49,,,1,,,,,,,1,,,,,,,,,
null,,color_black1,288521,,,,black_plus_sign,,,null,,,,,,,,,,,,,,,,,,,
null,,learn_phase(without_color)1,292025,,,,black_plus_sign,,,null,object_15c.png,object_05a.png,,,,,,,,,,,,,,,,,
null,,black_cross(without_color)1,292913,,,,blue,,,null,object_15c.png,object_05a.png,,,,,,,,,,,,,,,,,
null,,rt_plussign_withcolor1,293415,,,,blue,,,null,object_15c.png,object_05a.png,,,,,,,,,,,,,,,,,
1531.2000000029802,,rt_thecrossant_black1,294535,,,,black_plus_sign,,,49,,,1,,,,,,,1,,,,,,,,,
null,,color_black1,294638,,,,black_plus_sign,,,null,,,,,,,,,,,,,,,,,,,
null,,learn_phase(without_color)1,298142,,,,black_plus_sign,,,null,object_09b.png,object_05b.png,,,,,,,,,,,,,,,,,
null,,black_cross(without_color)1,298664,,,,blue,,,null,object_09b.png,object_05b.png,,,,,,,,,,,,,,,,,
null,,rt_plussign_withcolor1,299166,,,,blue,,,null,object_09b.png,object_05b.png,,,,,,,,,,,,,,,,,
1174.1000000014901,,rt_thecrossant_black1,300649,,,,black_plus_sign,,,49,,,1,,,,,,,1,,,,,,,,,
null,,color_black1,300751,,,,black_plus_sign,,,null,,,,,,,,,,,,,,,,,,,
null,,learn_phase(without_color)1,304255,,,,black_plus_sign,,,null,object_03a.png,object_11a.png,,,,,,,,,,,,,,,,,
null,,black_cross(without_color)1,305041,,,,green,,,null,object_03a.png,object_11a.png,,,,,,,,,,,,,,,,,
null,,rt_plussign_withcolor1,305542,,,,green,,,null,object_03a.png,object_11a.png,,,,,,,,,,,,,,,,,
936,,rt_thecrossant_black1,306762,,,,black_plus_sign,,,50,,,1,,,,,,,1,,,,,,,,,
null,,color_black1,306866,,,,black_plus_sign,,,null,,,,,,,,,,,,,,,,,,,
null,,learn_phase(without_color)1,310368,,,,black_plus_sign,,,null,object_06a.png,object_13c.png,,,,,,,,,,,,,,,,,
null,,black_cross(without_color)1,310893,,,,green,,,null,object_06a.png,object_13c.png,,,,,,,,,,,,,,,,,
null,,rt_plussign_withcolor1,311396,,,,green,,,null,object_06a.png,object_13c.png,,,,,,,,,,,,,,,,,
1938.8000000044703,,rt_thecrossant_black1,312877,,,,black_plus_sign,,,50,,,1,,,,,,,1,,,,,,,,,
null,,color_black1,312979,,,,black_plus_sign,,,null,,,,,,,,,,,,,,,,,,,
null,,learn_phase(without_color)1,316482,,,,black_plus_sign,,,null,object_14c.png,object_09c.png,,,,,,,,,,,,,,,,,
null,,black_cross(without_color)1,317567,,,,green,,,null,object_14c.png,object_09c.png,,,,,,,,,,,,,,,,,
null,,rt_plussign_withcolor1,318069,,,,green,,,null,object_14c.png,object_09c.png,,,,,,,,,,,,,,,,,
876.6000000014901,,rt_thecrossant_black1,318992,,,,black_plus_sign,,,50,,,1,,,,,,,1,,,,,,,,,
null,,color_black1,319098,,,,black_plus_sign,,,null,,,,,,,,,,,,,,,,,,,
null,,learn_phase(without_color)1,322601,,,,black_plus_sign,,,null,object_07c.png,object_01a.png,,,,,,,,,,,,,,,,,
null,,black_cross(without_color)1,323395,,,,blue,,,null,object_07c.png,object_01a.png,,,,,,,,,,,,,,,,,
null,,rt_plussign_withcolor1,323897,,,,blue,,,null,object_07c.png,object_01a.png,,,,,,,,,,,,,,,,,
2019.3000000044703,,rt_thecrossant_black1,325109,,,,black_plus_sign,,,49,,,1,,,,,,,1,,,,,,,,,
null,,color_black1,325212,,,,black_plus_sign,,,null,,,,,,,,,,,,,,,,,,,
null,,learn_phase(without_color)1,328715,,,,black_plus_sign,,,null,object_07b.png,object_04a.png,,,,,,,,,,,,,,,,,
null,,black_cross(without_color)1,329435,,,,blue,,,null,object_07b.png,object_04a.png,,,,,,,,,,,,,,,,,
null,,rt_plussign_withcolor1,329937,,,,blue,,,null,object_07b.png,object_04a.png,,,,,,,,,,,,,,,,,
1460.6999999955297,,rt_thecrossant_black1,331222,,,,black_plus_sign,,,49,,,1,,,,,,,1,,,,,,,,,
null,,color_black1,331325,,,,black_plus_sign,,,null,,,,,,,,,,,,,,,,,,,
null,,learn_phase(without_color)1,334828,,,,black_plus_sign,,,null,object_13c.png,object_03c.png,,,,,,,,,,,,,,,,,
null,,black_cross(without_color)1,335442,,,,green,,,null,object_13c.png,object_03c.png,,,,,,,,,,,,,,,,,
null,,rt_plussign_withcolor1,335943,,,,green,,,null,object_13c.png,object_03c.png,,,,,,,,,,,,,,,,,
1188.6999999955297,,rt_thecrossant_black1,337335,,,,black_plus_sign,,,50,,,1,,,,,,,1,,,,,,,,,
null,,color_black1,337438,,,,black_plus_sign,,,null,,,,,,,,,,,,,,,,,,,
null,,learn_phase(without_color)1,340941,,,,black_plus_sign,,,null,object_01c.png,object_14a.png,,,,,,,,,,,,,,,,,
null,,black_cross(without_color)1,341355,,,,blue,,,null,object_01c.png,object_14a.png,,,,,,,,,,,,,,,,,
null,,rt_plussign_withcolor1,341856,,,,blue,,,null,object_01c.png,object_14a.png,,,,,,,,,,,,,,,,,
1176.5999999940395,,rt_thecrossant_black1,343451,,,,black_plus_sign,,,49,,,1,,,,,,,1,,,,,,,,,
null,,color_black1,343555,,,,black_plus_sign,,,null,,,,,,,,,,,,,,,,,,,
null,,learn_phase(without_color)1,347058,,,,black_plus_sign,,,null,object_08a.png,object_06b.png,,,,,,,,,,,,,,,,,
null,,black_cross(without_color)1,347609,,,,blue,,,null,object_08a.png,object_06b.png,,,,,,,,,,,,,,,,,
null,,rt_plussign_withcolor1,348111,,,,blue,,,null,object_08a.png,object_06b.png,,,,,,,,,,,,,,,,,
1376.5,,rt_thecrossant_black1,349567,,,,black_plus_sign,,,49,,,1,,,,,,,1,,,,,,,,,
null,,color_black1,349670,,,,black_plus_sign,,,null,,,,,,,,,,,,,,,,,,,
null,,learn_phase(without_color)1,353173,,,,black_plus_sign,,,null,object_15a.png,object_11b.png,,,,,,,,,,,,,,,,,
null,,black_cross(without_color)1,354192,,,,green,,,null,object_15a.png,object_11b.png,,,,,,,,,,,,,,,,,
null,,rt_plussign_withcolor1,354694,,,,green,,,null,object_15a.png,object_11b.png,,,,,,,,,,,,,,,,,
873.7000000029802,,rt_thecrossant_black1,355681,,,,black_plus_sign,,,50,,,1,,,,,,,1,,,,,,,,,
null,,color_black1,355785,,,,black_plus_sign,,,null,,,,,,,,,,,,,,,,,,,
null,,learn_phase(without_color)1,359288,,,,black_plus_sign,,,null,object_06c.png,object_03b.png,,,,,,,,,,,,,,,,,
null,,black_cross(without_color)1,359891,,,,green,,,null,object_06c.png,object_03b.png,,,,,,,,,,,,,,,,,
null,,rt_plussign_withcolor1,360393,,,,green,,,null,object_06c.png,object_03b.png,,,,,,,,,,,,,,,,,
1776.8000000044703,,rt_thecrossant_black1,361793,,,,black_plus_sign,,,50,,,1,,,,,,,1,,,,,,,,,
null,,color_black1,361896,,,,black_plus_sign,,,null,,,,,,,,,,,,,,,,,,,
null,,learn_phase(without_color)1,365399,,,,black_plus_sign,,,null,object_10a.png,object_09b.png,,,,,,,,,,,,,,,,,
null,,black_cross(without_color)1,365890,,,,green,,,null,object_10a.png,object_09b.png,,,,,,,,,,,,,,,,,
null,,rt_plussign_withcolor1,366392,,,,green,,,null,object_10a.png,object_09b.png,,,,,,,,,,,,,,,,,
1030.7999999970198,,rt_thecrossant_black1,367908,,,,black_plus_sign,,,50,,,1,,,,,,,1,,,,,,,,,
null,,color_black1,368010,,,,black_plus_sign,,,null,,,,,,,,,,,,,,,,,,,
null,,learn_phase(without_color)1,371514,,,,black_plus_sign,,,null,object_07a.png,object_14a.png,,,,,,,,,,,,,,,,,
null,,black_cross(without_color)1,372172,,,,green,,,null,object_07a.png,object_14a.png,,,,,,,,,,,,,,,,,
null,,rt_plussign_withcolor1,372675,,,,green,,,null,object_07a.png,object_14a.png,,,,,,,,,,,,,,,,,
785.3999999985099,,rt_thecrossant_black1,374024,,,,black_plus_sign,,,50,,,1,,,,,,,1,,,,,,,,,
null,,color_black1,374128,,,,black_plus_sign,,,null,,,,,,,,,,,,,,,,,,,
null,,learn_phase(without_color)1,377631,,,,black_plus_sign,,,null,object_03b.png,object_02b.png,,,,,,,,,,,,,,,,,
null,,black_cross(without_color)1,378197,,,,green,,,null,object_03b.png,object_02b.png,,,,,,,,,,,,,,,,,
null,,rt_plussign_withcolor1,378699,,,,green,,,null,object_03b.png,object_02b.png,,,,,,,,,,,,,,,,,
946.5,,rt_thecrossant_black1,380140,,,,black_plus_sign,,,50,,,1,,,,,,,1,,,,,,,,,
null,,color_black1,380244,,,,black_plus_sign,,,null,,,,,,,,,,,,,,,,,,,
null,,learn_phase(without_color)1,383745,,,,black_plus_sign,,,null,object_08b.png,object_12a.png,,,,,,,,,,,,,,,,,
null,,black_cross(without_color)1,384558,,,,green,,,null,object_08b.png,object_12a.png,,,,,,,,,,,,,,,,,
null,,rt_plussign_withcolor1,385060,,,,green,,,null,object_08b.png,object_12a.png,,,,,,,,,,,,,,,,,
789.2000000029802,,rt_thecrossant_black1,386255,,,,black_plus_sign,,,50,,,1,,,,,,,1,,,,,,,,,
null,,color_black1,386358,,,,black_plus_sign,,,null,,,,,,,,,,,,,,,,,,,
null,,thebreak,386464,,,,<p></p>,,,null,,,,,,,,,,,,,,,,,,,
2164.2000000029802,,intro_0,388629,,,,instruct,,,32,,,,,,,,,,,,,,,,,,,
4917.79999999702,,directmemory_phase1,393550,,,,object_08b.png,,,51,,,0,,object_03b.png,object_13b.png,object_13a.png,object_13b.png,,0,0,,,,,,,,
3717.4000000059605,,directmemory_phase1,397270,,,,object_14c.png,,,50,,,1,,object_06b.png,object_10b.png,object_11a.png,object_10b.png,,0.5,1,,,,,,,,
4507.10000000149,,directmemory_phase1,401779,,,,object_03c.png,,,49,,,1,,object_13c.png,object_03a.png,object_13a.png,object_13c.png,,0.6666666666666666,1,,,,,,,,
2497.89999999851,,directmemory_phase1,404278,,,,object_10a.png,,,51,,,1,,object_01b.png,object_04b.png,object_09b.png,object_09b.png,,0.75,1,,,,,,,,
2637.2000000029802,,directmemory_phase1,406918,,,,object_11c.png,,,50,,,1,,object_09a.png,object_01b.png,object_13c.png,object_01b.png,,0.8,1,,,,,,,,
4653.70000000298,,directmemory_phase1,411574,,,,object_01b.png,,,51,,,0,,object_08c.png,object_13b.png,object_12b.png,object_08c.png,,0.6666666666666666,0,,,,,,,,
4134.80000000447,,directmemory_phase1,415711,,,,object_14b.png,,,51,,,0,,object_12b.png,object_08b.png,object_06c.png,object_12b.png,,0.5714285714285714,0,,,,,,,,
5794.5,,directmemory_phase1,421510,,,,object_04b.png,,,51,,,0,,object_12b.png,object_13c.png,object_12c.png,object_12b.png,,0.5,0,,,,,,,,
2331.5999999940395,,directmemory_phase1,423843,,,,object_01c.png,,,50,,,1,,object_11c.png,object_14a.png,object_01b.png,object_14a.png,,0.5555555555555556,1,,,,,,,,
3864.3000000044703,,directmemory_phase1,427710,,,,object_02a.png,,,49,,,1,,object_03a.png,object_08b.png,object_15b.png,object_03a.png,,0.6,1,,,,,,,,
4715.5,,directmemory_phase1,432430,,,,object_06a.png,,,49,,,0,,object_01c.png,object_13c.png,object_03a.png,object_13c.png,,0.5454545454545454,0,,,,,,,,
4700.39999999851,,directmemory_phase1,437134,,,,object_07b.png,,,51,,,1,,object_13c.png,object_02c.png,object_04a.png,object_04a.png,,0.5833333333333334,1,,,,,,,,
3897.6999999955297,,directmemory_phase1,441034,,,,object_15a.png,,,49,,,1,,object_11b.png,object_14c.png,object_11a.png,object_11b.png,,0.6153846153846154,1,,,,,,,,
4158.79999999702,,directmemory_phase1,445194,,,,object_09b.png,,,51,,,0,,object_05b.png,object_08c.png,object_03b.png,object_05b.png,,0.5714285714285714,0,,,,,,,,
5463.29999999702,,directmemory_phase1,450658,,,,object_09c.png,,,50,,,0,,object_14c.png,object_04a.png,object_15c.png,object_14c.png,,0.5333333333333333,0,,,,,,,,
4465.9000000059605,,directmemory_phase1,455126,,,,object_14a.png,,,50,,,1,,object_13c.png,object_07a.png,object_11a.png,object_07a.png,,0.5625,1,,,,,,,,
4429.20000000298,,directmemory_phase1,459558,,,,object_07c.png,,,49,,,0,,object_12b.png,object_12c.png,object_01a.png,object_01a.png,,0.5294117647058824,0,,,,,,,,
4802.79999999702,,directmemory_phase1,464363,,,,object_02b.png,,,49,,,0,,object_01c.png,object_03b.png,object_08b.png,object_03b.png,,0.5,0,,,,,,,,
5936,,directmemory_phase1,470302,,,,object_09a.png,,,49,,,1,,object_04c.png,object_04a.png,object_15b.png,object_04c.png,,0.5263157894736842,1,,,,,,,,
4485.60000000149,,directmemory_phase1,474790,,,,object_12a.png,,,49,,,0,,object_01c.png,object_08b.png,object_01b.png,object_08b.png,,0.5,0,,,,,,,,
5789.39999999851,,directmemory_phase1,480582,,,,object_12c.png,,,49,,,1,,object_04a.png,object_03b.png,object_02a.png,object_04a.png,,0.5238095238095238,1,,,,,,,,
5837.70000000298,,directmemory_phase1,486422,,,,object_05a.png,,,49,,,0,,object_06b.png,object_05c.png,object_03c.png,object_05c.png,,0.5,0,,,,,,,,
4136.30000000447,,directmemory_phase1,490562,,,,object_11a.png,,,50,,,0,,object_03a.png,object_14c.png,object_06c.png,object_03a.png,,0.4782608695652174,0,,,,,,,,
2186.2999999970198,,directmemory_phase1,492750,,,,object_02c.png,,,50,,,1,,object_03c.png,object_01a.png,object_14c.png,object_01a.png,,0.5,1,,,,,,,,
2781.60000000149,,directmemory_phase1,495534,,,,object_06b.png,,,51,,,1,,object_13b.png,object_13c.png,object_08a.png,object_08a.png,,0.52,1,,,,,,,,
5062.10000000149,,directmemory_phase1,500598,,,,object_15b.png,,,51,,,0,,object_06b.png,object_13c.png,object_04b.png,object_06b.png,,0.5,0,,,,,,,,
3390.7999999970198,,directmemory_phase1,503991,,,,object_15c.png,,,50,,,1,,object_01c.png,object_05a.png,object_06b.png,object_05a.png,,0.5185185185185185,1,,,,,,,,
3620.6999999955297,,directmemory_phase1,507613,,,,object_06c.png,,,51,,,0,,object_03b.png,object_14c.png,object_14b.png,object_03b.png,,0.5,0,,,,,,,,
4534.30000000447,,directmemory_phase1,512150,,,,object_10c.png,,,49,,,0,,object_13c.png,object_02a.png,object_11b.png,object_11b.png,,0.4827586206896552,0,,,,,,,,
5013.19999999553,,directmemory_phase1,517166,,,,object_04c.png,,,51,,,0,,object_13a.png,object_11a.png,object_08b.png,object_13a.png,,0.4666666666666667,0,,,,,,,,
null,,thebreak,517268,,,,<p></p>,,,null,,,,,,,,,,,,,,,,,,,
9624.59999999404,,intro_0,526894,,,,instruct,,,32,,,,,,,,,,,,,,,,,,,
null,,learn_phase(without_color)2,530396,,,,black_plus_sign,,,null,object_13c.png,object_03c.png,,,,,,,,,,,,,,,,,
null,,black_cross(without_color)2,531097,,,,blue,,,null,object_13c.png,object_03c.png,,,,,,,,,,,,,,,,,
null,,rt_plussign_withcolor2,531599,,,,blue,,,null,object_13c.png,object_03c.png,,,,,,,,,,,,,,,,,
1722.6000000014901,,rt_thecrossant_black2,532904,,,,black_plus_sign,,,49,,,1,,,,,,,1,,,,,,,,,
null,,color_black2,533006,,,,black_plus_sign,,,null,,,,,,,,,,,,,,,,,,,
null,,learn_phase(without_color)2,536508,,,,black_plus_sign,,,null,object_13c.png,object_06a.png,,,,,,,,,,,,,,,,,
null,,black_cross(without_color)2,537031,,,,green,,,null,object_13c.png,object_06a.png,,,,,,,,,,,,,,,,,
null,,rt_plussign_withcolor2,537532,,,,green,,,null,object_13c.png,object_06a.png,,,,,,,,,,,,,,,,,
1191.7000000029802,,rt_thecrossant_black2,539013,,,,black_plus_sign,,,50,,,1,,,,,,,1,,,,,,,,,
null,,color_black2,539117,,,,black_plus_sign,,,null,,,,,,,,,,,,,,,,,,,
null,,learn_phase(without_color)2,542621,,,,black_plus_sign,,,null,object_04c.png,object_13a.png,,,,,,,,,,,,,,,,,
null,,black_cross(without_color)2,543172,,,,green,,,null,object_04c.png,object_13a.png,,,,,,,,,,,,,,,,,
null,,rt_plussign_withcolor2,543674,,,,green,,,null,object_04c.png,object_13a.png,,,,,,,,,,,,,,,,,
879.2000000029802,,rt_thecrossant_black2,545128,,,,black_plus_sign,,,50,,,1,,,,,,,1,,,,,,,,,
null,,color_black2,545232,,,,black_plus_sign,,,null,,,,,,,,,,,,,,,,,,,
null,,learn_phase(without_color)2,548735,,,,black_plus_sign,,,null,object_08a.png,object_06b.png,,,,,,,,,,,,,,,,,
null,,black_cross(without_color)2,549289,,,,blue,,,null,object_08a.png,object_06b.png,,,,,,,,,,,,,,,,,
null,,rt_plussign_withcolor2,549790,,,,blue,,,null,object_08a.png,object_06b.png,,,,,,,,,,,,,,,,,
1403.8999999985099,,rt_thecrossant_black2,551243,,,,black_plus_sign,,,49,,,1,,,,,,,1,,,,,,,,,
null,,color_black2,551345,,,,black_plus_sign,,,null,,,,,,,,,,,,,,,,,,,
null,,learn_phase(without_color)2,554848,,,,black_plus_sign,,,null,object_03a.png,object_11a.png,,,,,,,,,,,,,,,,,
null,,black_cross(without_color)2,555598,,,,green,,,null,object_03a.png,object_11a.png,,,,,,,,,,,,,,,,,
null,,rt_plussign_withcolor2,556101,,,,green,,,null,object_03a.png,object_11a.png,,,,,,,,,,,,,,,,,
1329.2999999970198,,rt_thecrossant_black2,557356,,,,black_plus_sign,,,50,,,1,,,,,,,1,,,,,,,,,
null,,color_black2,557461,,,,black_plus_sign,,,null,,,,,,,,,,,,,,,,,,,
null,,learn_phase(without_color)2,560964,,,,black_plus_sign,,,null,object_06b.png,object_15b.png,,,,,,,,,,,,,,,,,
null,,black_cross(without_color)2,561522,,,,green,,,null,object_06b.png,object_15b.png,,,,,,,,,,,,,,,,,
null,,rt_plussign_withcolor2,562024,,,,green,,,null,object_06b.png,object_15b.png,,,,,,,,,,,,,,,,,
1331.1000000014901,,rt_thecrossant_black2,563471,,,,black_plus_sign,,,50,,,1,,,,,,,1,,,,,,,,,
null,,color_black2,563575,,,,black_plus_sign,,,null,,,,,,,,,,,,,,,,,,,
null,,learn_phase(without_color)2,567078,,,,black_plus_sign,,,null,object_02b.png,object_03b.png,,,,,,,,,,,,,,,,,
null,,black_cross(without_color)2,567585,,,,green,,,null,object_02b.png,object_03b.png,,,,,,,,,,,,,,,,,
null,,rt_plussign_withcolor2,568086,,,,green,,,null,object_02b.png,object_03b.png,,,,,,,,,,,,,,,,,
1110.1000000014901,,rt_thecrossant_black2,569587,,,,black_plus_sign,,,50,,,1,,,,,,,1,,,,,,,,,
null,,color_black2,569691,,,,black_plus_sign,,,null,,,,,,,,,,,,,,,,,,,
null,,learn_phase(without_color)2,573195,,,,black_plus_sign,,,null,object_13b.png,object_08b.png,,,,,,,,,,,,,,,,,
null,,black_cross(without_color)2,573887,,,,blue,,,null,object_13b.png,object_08b.png,,,,,,,,,,,,,,,,,
null,,rt_plussign_withcolor2,574391,,,,blue,,,null,object_13b.png,object_08b.png,,,,,,,,,,,,,,,,,
1254.8999999985099,,rt_thecrossant_black2,575706,,,,black_plus_sign,,,49,,,1,,,,,,,1,,,,,,,,,
null,,color_black2,575809,,,,black_plus_sign,,,null,,,,,,,,,,,,,,,,,,,
null,,learn_phase(without_color)2,579312,,,,black_plus_sign,,,null,object_09b.png,object_10a.png,,,,,,,,,,,,,,,,,
null,,black_cross(without_color)2,579749,,,,blue,,,null,object_09b.png,object_10a.png,,,,,,,,,,,,,,,,,
null,,rt_plussign_withcolor2,580250,,,,blue,,,null,object_09b.png,object_10a.png,,,,,,,,,,,,,,,,,
1173.2000000029802,,rt_thecrossant_black2,581822,,,,black_plus_sign,,,49,,,1,,,,,,,1,,,,,,,,,
null,,color_black2,581925,,,,black_plus_sign,,,null,,,,,,,,,,,,,,,,,,,
null,,learn_phase(without_color)2,585429,,,,black_plus_sign,,,null,object_02c.png,object_01a.png,,,,,,,,,,,,,,,,,
null,,black_cross(without_color)2,586080,,,,blue,,,null,object_02c.png,object_01a.png,,,,,,,,,,,,,,,,,
null,,rt_plussign_withcolor2,586582,,,,blue,,,null,object_02c.png,object_01a.png,,,,,,,,,,,,,,,,,
982.5999999940395,,rt_thecrossant_black2,587935,,,,black_plus_sign,,,49,,,1,,,,,,,1,,,,,,,,,
null,,color_black2,588037,,,,black_plus_sign,,,null,,,,,,,,,,,,,,,,,,,
null,,learn_phase(without_color)2,591541,,,,black_plus_sign,,,null,object_05a.png,object_15c.png,,,,,,,,,,,,,,,,,
null,,black_cross(without_color)2,592473,,,,green,,,null,object_05a.png,object_15c.png,,,,,,,,,,,,,,,,,
null,,rt_plussign_withcolor2,592975,,,,green,,,null,object_05a.png,object_15c.png,,,,,,,,,,,,,,,,,
1417.2000000029802,,rt_thecrossant_black2,594049,,,,black_plus_sign,,,50,,,1,,,,,,,1,,,,,,,,,
null,,color_black2,594152,,,,black_plus_sign,,,null,,,,,,,,,,,,,,,,,,,
null,,learn_phase(without_color)2,597656,,,,black_plus_sign,,,null,object_07b.png,object_04a.png,,,,,,,,,,,,,,,,,
null,,black_cross(without_color)2,598647,,,,blue,,,null,object_07b.png,object_04a.png,,,,,,,,,,,,,,,,,
null,,rt_plussign_withcolor2,599148,,,,blue,,,null,object_07b.png,object_04a.png,,,,,,,,,,,,,,,,,
1596.6999999955297,,rt_thecrossant_black2,600165,,,,black_plus_sign,,,49,,,1,,,,,,,1,,,,,,,,,
null,,color_black2,600268,,,,black_plus_sign,,,null,,,,,,,,,,,,,,,,,,,
null,,learn_phase(without_color)2,603771,,,,black_plus_sign,,,null,object_11b.png,object_10c.png,,,,,,,,,,,,,,,,,
null,,black_cross(without_color)2,604517,,,,blue,,,null,object_11b.png,object_10c.png,,,,,,,,,,,,,,,,,
null,,rt_plussign_withcolor2,605018,,,,blue,,,null,object_11b.png,object_10c.png,,,,,,,,,,,,,,,,,
1440.5,,rt_thecrossant_black2,606279,,,,black_plus_sign,,,49,,,1,,,,,,,1,,,,,,,,,
null,,color_black2,606397,,,,black_plus_sign,,,null,,,,,,,,,,,,,,,,,,,
null,,learn_phase(without_color)2,609900,,,,black_plus_sign,,,null,object_04b.png,object_12b.png,,,,,,,,,,,,,,,,,
null,,black_cross(without_color)2,610341,,,,green,,,null,object_04b.png,object_12b.png,,,,,,,,,,,,,,,,,
null,,rt_plussign_withcolor2,610845,,,,green,,,null,object_04b.png,object_12b.png,,,,,,,,,,,,,,,,,
1413.2000000029802,,rt_thecrossant_black2,612411,,,,black_plus_sign,,,50,,,1,,,,,,,1,,,,,,,,,
null,,color_black2,612515,,,,black_plus_sign,,,null,,,,,,,,,,,,,,,,,,,
null,,learn_phase(without_color)2,616019,,,,black_plus_sign,,,null,object_02a.png,object_03a.png,,,,,,,,,,,,,,,,,
null,,black_cross(without_color)2,617030,,,,blue,,,null,object_02a.png,object_03a.png,,,,,,,,,,,,,,,,,
null,,rt_plussign_withcolor2,617531,,,,blue,,,null,object_02a.png,object_03a.png,,,,,,,,,,,,,,,,,
null,,rt_thecrossant_black2,618526,,,,black_plus_sign,,,null,,,,,,,,,,1,,,,,,,,,
null,,color_black2,618629,,,,black_plus_sign,,,null,,,,,,,,,,,,,,,,,,,
null,,learn_phase(without_color)2,622131,,,,black_plus_sign,,,null,object_11c.png,object_01b.png,,,,,,,,,,,,,,,,,
null,,black_cross(without_color)2,623111,,,,green,,,null,object_11c.png,object_01b.png,,,,,,,,,,,,,,,,,
null,,rt_plussign_withcolor2,623613,,,,green,,,null,object_11c.png,object_01b.png,,,,,,,,,,,,,,,,,
1379,,rt_thecrossant_black2,624639,,,,black_plus_sign,,,50,,,1,,,,,,,1,,,,,,,,,
null,,color_black2,624752,,,,black_plus_sign,,,null,,,,,,,,,,,,,,,,,,,
null,,learn_phase(without_color)2,628255,,,,black_plus_sign,,,null,object_11b.png,object_15a.png,,,,,,,,,,,,,,,,,
null,,black_cross(without_color)2,629005,,,,blue,,,null,object_11b.png,object_15a.png,,,,,,,,,,,,,,,,,
null,,rt_plussign_withcolor2,629507,,,,blue,,,null,object_11b.png,object_15a.png,,,,,,,,,,,,,,,,,
1549.8999999985099,,rt_thecrossant_black2,630764,,,,black_plus_sign,,,49,,,1,,,,,,,1,,,,,,,,,
null,,color_black2,630866,,,,black_plus_sign,,,null,,,,,,,,,,,,,,,,,,,
null,,learn_phase(without_color)2,634369,,,,black_plus_sign,,,null,object_12b.png,object_14b.png,,,,,,,,,,,,,,,,,
null,,black_cross(without_color)2,635065,,,,green,,,null,object_12b.png,object_14b.png,,,,,,,,,,,,,,,,,
null,,rt_plussign_withcolor2,635568,,,,green,,,null,object_12b.png,object_14b.png,,,,,,,,,,,,,,,,,
1217.7000000029802,,rt_thecrossant_black2,636878,,,,black_plus_sign,,,50,,,1,,,,,,,1,,,,,,,,,
null,,color_black2,636981,,,,black_plus_sign,,,null,,,,,,,,,,,,,,,,,,,
null,,learn_phase(without_color)2,640485,,,,black_plus_sign,,,null,object_03b.png,object_06c.png,,,,,,,,,,,,,,,,,
null,,black_cross(without_color)2,641169,,,,green,,,null,object_03b.png,object_06c.png,,,,,,,,,,,,,,,,,
null,,rt_plussign_withcolor2,641672,,,,green,,,null,object_03b.png,object_06c.png,,,,,,,,,,,,,,,,,
1083.8000000044703,,rt_thecrossant_black2,642996,,,,black_plus_sign,,,49,,,0,,,,,,,0.9444444444444444,,,,,,,,,
null,,color_black2,643099,,,,black_plus_sign,,,null,,,,,,,,,,,,,,,,,,,
null,,learn_phase(without_color)2,646602,,,,black_plus_sign,,,null,object_04c.png,object_09a.png,,,,,,,,,,,,,,,,,
null,,black_cross(without_color)2,647566,,,,green,,,null,object_04c.png,object_09a.png,,,,,,,,,,,,,,,,,
null,,rt_plussign_withcolor2,648069,,,,green,,,null,object_04c.png,object_09a.png,,,,,,,,,,,,,,,,,
1234.8999999985099,,rt_thecrossant_black2,649112,,,,black_plus_sign,,,50,,,1,,,,,,,0.9473684210526315,,,,,,,,,
null,,color_black2,649216,,,,black_plus_sign,,,null,,,,,,,,,,,,,,,,,,,
null,,learn_phase(without_color)2,652720,,,,black_plus_sign,,,null,object_01a.png,object_07c.png,,,,,,,,,,,,,,,,,
null,,black_cross(without_color)2,653501,,,,green,,,null,object_01a.png,object_07c.png,,,,,,,,,,,,,,,,,
null,,rt_plussign_withcolor2,654002,,,,green,,,null,object_01a.png,object_07c.png,,,,,,,,,,,,,,,,,
null,,rt_thecrossant_black2,655227,,,,black_plus_sign,,,null,,,,,,,,,,0.9473684210526315,,,,,,,,,
null,,color_black2,655329,,,,black_plus_sign,,,null,,,,,,,,,,,,,,,,,,,
null,,learn_phase(without_color)2,658831,,,,black_plus_sign,,,null,object_07a.png,object_14a.png,,,,,,,,,,,,,,,,,
null,,black_cross(without_color)2,659612,,,,blue,,,null,object_07a.png,object_14a.png,,,,,,,,,,,,,,,,,
null,,rt_plussign_withcolor2,660115,,,,blue,,,null,object_07a.png,object_14a.png,,,,,,,,,,,,,,,,,
1175.2000000029802,,rt_thecrossant_black2,661343,,,,black_plus_sign,,,49,,,1,,,,,,,0.95,,,,,,,,,
null,,color_black2,661447,,,,black_plus_sign,,,null,,,,,,,,,,,,,,,,,,,
null,,learn_phase(without_color)2,664950,,,,black_plus_sign,,,null,object_12c.png,object_04a.png,,,,,,,,,,,,,,,,,
null,,black_cross(without_color)2,665884,,,,green,,,null,object_12c.png,object_04a.png,,,,,,,,,,,,,,,,,
null,,rt_plussign_withcolor2,666386,,,,green,,,null,object_12c.png,object_04a.png,,,,,,,,,,,,,,,,,
1343.5,,rt_thecrossant_black2,667459,,,,black_plus_sign,,,50,,,1,,,,,,,0.9523809523809523,,,,,,,,,
null,,color_black2,667562,,,,black_plus_sign,,,null,,,,,,,,,,,,,,,,,,,
null,,learn_phase(without_color)2,671065,,,,black_plus_sign,,,null,object_10b.png,object_14c.png,,,,,,,,,,,,,,,,,
null,,black_cross(without_color)2,671785,,,,blue,,,null,object_10b.png,object_14c.png,,,,,,,,,,,,,,,,,
null,,rt_plussign_withcolor2,672286,,,,blue,,,null,object_10b.png,object_14c.png,,,,,,,,,,,,,,,,,
1677.1000000014901,,rt_thecrossant_black2,673572,,,,black_plus_sign,,,49,,,1,,,,,,,0.9545454545454546,,,,,,,,,
null,,color_black2,673679,,,,black_plus_sign,,,null,,,,,,,,,,,,,,,,,,,
null,,learn_phase(without_color)2,677183,,,,black_plus_sign,,,null,object_01c.png,object_14a.png,,,,,,,,,,,,,,,,,
null,,black_cross(without_color)2,677833,,,,green,,,null,object_01c.png,object_14a.png,,,,,,,,,,,,,,,,,
null,,rt_plussign_withcolor2,678335,,,,green,,,null,object_01c.png,object_14a.png,,,,,,,,,,,,,,,,,
1371.2000000029802,,rt_thecrossant_black2,679691,,,,black_plus_sign,,,50,,,1,,,,,,,0.9565217391304348,,,,,,,,,
null,,color_black2,679795,,,,black_plus_sign,,,null,,,,,,,,,,,,,,,,,,,
null,,learn_phase(without_color)2,683299,,,,black_plus_sign,,,null,object_09c.png,object_14c.png,,,,,,,,,,,,,,,,,
null,,black_cross(without_color)2,683780,,,,green,,,null,object_09c.png,object_14c.png,,,,,,,,,,,,,,,,,
null,,rt_plussign_withcolor2,684282,,,,green,,,null,object_09c.png,object_14c.png,,,,,,,,,,,,,,,,,
1571.5,,rt_thecrossant_black2,685808,,,,black_plus_sign,,,50,,,1,,,,,,,0.9583333333333334,,,,,,,,,
null,,color_black2,685911,,,,black_plus_sign,,,null,,,,,,,,,,,,,,,,,,,
null,,learn_phase(without_color)2,689415,,,,black_plus_sign,,,null,object_09b.png,object_05b.png,,,,,,,,,,,,,,,,,
null,,black_cross(without_color)2,690060,,,,blue,,,null,object_09b.png,object_05b.png,,,,,,,,,,,,,,,,,
null,,rt_plussign_withcolor2,690562,,,,blue,,,null,object_09b.png,object_05b.png,,,,,,,,,,,,,,,,,
1186.3000000044703,,rt_thecrossant_black2,691923,,,,black_plus_sign,,,49,,,1,,,,,,,0.96,,,,,,,,,
null,,color_black2,692026,,,,black_plus_sign,,,null,,,,,,,,,,,,,,,,,,,
null,,learn_phase(without_color)2,695530,,,,black_plus_sign,,,null,object_05a.png,object_05c.png,,,,,,,,,,,,,,,,,
null,,black_cross(without_color)2,696312,,,,green,,,null,object_05a.png,object_05c.png,,,,,,,,,,,,,,,,,
null,,rt_plussign_withcolor2,696815,,,,green,,,null,object_05a.png,object_05c.png,,,,,,,,,,,,,,,,,
1154.1000000014901,,rt_thecrossant_black2,698039,,,,black_plus_sign,,,50,,,1,,,,,,,0.9615384615384616,,,,,,,,,
null,,color_black2,698147,,,,black_plus_sign,,,null,,,,,,,,,,,,,,,,,,,
null,,learn_phase(without_color)2,701651,,,,black_plus_sign,,,null,object_12a.png,object_08b.png,,,,,,,,,,,,,,,,,
null,,black_cross(without_color)2,702699,,,,green,,,null,object_12a.png,object_08b.png,,,,,,,,,,,,,,,,,
null,,rt_plussign_withcolor2,703210,,,,green,,,null,object_12a.png,object_08b.png,,,,,,,,,,,,,,,,,
1349.7000000029802,,rt_thecrossant_black2,704169,,,,black_plus_sign,,,50,,,1,,,,,,,0.9629629629629629,,,,,,,,,
null,,color_black2,704275,,,,black_plus_sign,,,null,,,,,,,,,,,,,,,,,,,
null,,learn_phase(without_color)2,707779,,,,black_plus_sign,,,null,object_01b.png,object_08c.png,,,,,,,,,,,,,,,,,
null,,black_cross(without_color)2,708221,,,,blue,,,null,object_01b.png,object_08c.png,,,,,,,,,,,,,,,,,
null,,rt_plussign_withcolor2,708723,,,,blue,,,null,object_01b.png,object_08c.png,,,,,,,,,,,,,,,,,
2592.5,,rt_thecrossant_black2,710289,,,,black_plus_sign,,,49,,,1,,,,,,,0.9642857142857143,,,,,,,,,
null,,color_black2,710393,,,,black_plus_sign,,,null,,,,,,,,,,,,,,,,,,,
null,,thebreak,710496,,,,<p></p>,,,null,,,,,,,,,,,,,,,,,,,
3371.5999999940395,,intro_0,713870,,,,instruct,,,32,,,,,,,,,,,,,,,,,,,
2572.2999999970198,,directmemory_phase2,716446,,,,object_06b.png,,,49,,,1,,object_08a.png,object_05c.png,object_12b.png,object_08a.png,,0.4838709677419355,1,,,,,,,,
4853.70000000298,,directmemory_phase2,721302,,,,object_12c.png,,,50,,,0,,object_05a.png,object_15b.png,object_04a.png,object_04a.png,,0.46875,0,,,,,,,,
2165.0999999940395,,directmemory_phase2,723470,,,,object_12a.png,,,50,,,1,,object_01c.png,object_08b.png,object_14a.png,object_08b.png,,0.48484848484848486,1,,,,,,,,
5663.79999999702,,directmemory_phase2,729138,,,,object_04c.png,,,51,,,1,,object_14b.png,object_04a.png,object_13a.png,object_13a.png,,0.5,1,,,,,,,,
1898.7999999970198,,directmemory_phase2,731038,,,,object_02c.png,,,49,,,1,,object_01a.png,object_03b.png,object_13a.png,object_01a.png,,0.5142857142857142,1,,,,,,,,
4926.29999999702,,directmemory_phase2,735966,,,,object_07a.png,,,51,,,1,,object_05a.png,object_13b.png,object_14a.png,object_14a.png,,0.5277777777777778,1,,,,,,,,
3413.10000000149,,directmemory_phase2,739382,,,,object_11c.png,,,49,,,1,,object_01b.png,object_08b.png,object_07c.png,object_01b.png,,0.5405405405405406,1,,,,,,,,
5189.20000000298,,directmemory_phase2,744574,,,,object_07b.png,,,49,,,1,,object_04a.png,object_03a.png,object_14b.png,object_04a.png,,0.5526315789473685,1,,,,,,,,
5213.79999999702,,directmemory_phase2,749792,,,,object_09a.png,,,49,,,1,,object_04c.png,object_03a.png,object_02a.png,object_04c.png,,0.5641025641025641,1,,,,,,,,
4259.20000000298,,directmemory_phase2,754054,,,,object_06c.png,,,49,,,1,,object_03b.png,object_05a.png,object_13a.png,object_03b.png,,0.575,1,,,,,,,,
4836.5,,directmemory_phase2,758894,,,,object_10b.png,,,49,,,0,,object_03c.png,object_14c.png,object_01a.png,object_14c.png,,0.5609756097560976,0,,,,,,,,
3874.3000000044703,,directmemory_phase2,762771,,,,object_02b.png,,,49,,,1,,object_03b.png,object_08b.png,object_11c.png,object_03b.png,,0.5714285714285714,1,,,,,,,,
5097.30000000447,,directmemory_phase2,767870,,,,object_15b.png,,,51,,,1,,object_05a.png,object_12a.png,object_06b.png,object_06b.png,,0.5813953488372093,1,,,,,,,,
5077.69999999553,,directmemory_phase2,772950,,,,object_13b.png,,,50,,,0,,object_04a.png,object_05c.png,object_08b.png,object_08b.png,,0.5681818181818182,0,,,,,,,,
2029.2999999970198,,directmemory_phase2,774982,,,,object_02a.png,,,50,,,1,,object_04b.png,object_03a.png,object_14c.png,object_03a.png,,0.5777777777777777,1,,,,,,,,
5059.60000000149,,directmemory_phase2,780046,,,,object_11a.png,,,50,,,1,,object_06c.png,object_03a.png,object_14a.png,object_03a.png,,0.5869565217391305,1,,,,,,,,
5885.89999999851,,directmemory_phase2,785935,,,,object_06a.png,,,51,,,1,,object_05a.png,object_04b.png,object_13c.png,object_13c.png,,0.5957446808510638,1,,,,,,,,
4395.29999999702,,directmemory_phase2,790334,,,,object_09b.png,,,50,,,1,,object_01a.png,object_05b.png,object_08c.png,object_05b.png,,0.6041666666666666,1,,,,,,,,
2524,,directmemory_phase2,792862,,,,object_12b.png,,,49,,,1,,object_14b.png,object_03c.png,object_13c.png,object_14b.png,,0.6122448979591837,1,,,,,,,,
6046.10000000149,,directmemory_phase2,798910,,,,object_04b.png,,,51,,,0,,object_01c.png,object_12b.png,object_13c.png,object_12b.png,,0.6,0,,,,,,,,
1805.2000000029802,,directmemory_phase2,800718,,,,object_10a.png,,,49,,,1,,object_09b.png,object_01a.png,object_12a.png,object_09b.png,,0.6078431372549019,1,,,,,,,,
8487.70000000298,,directmemory_phase2,809207,,,,object_10c.png,,,49,,,1,,object_11b.png,object_14a.png,object_12a.png,object_11b.png,,0.6153846153846154,1,,,,,,,,
3757.2999999970198,,directmemory_phase2,812966,,,,object_15c.png,,,51,,,1,,object_03b.png,object_10a.png,object_05a.png,object_05a.png,,0.6226415094339622,1,,,,,,,,
1773.5,,directmemory_phase2,814742,,,,object_01c.png,,,50,,,1,,object_12a.png,object_14a.png,object_09b.png,object_14a.png,,0.6296296296296297,1,,,,,,,,
6050.4000000059605,,directmemory_phase2,820795,,,,object_01b.png,,,49,,,1,,object_08c.png,object_03c.png,object_03b.png,object_08c.png,,0.6363636363636364,1,,,,,,,,
5705.29999999702,,directmemory_phase2,826502,,,,object_07c.png,,,51,,,0,,object_01c.png,object_01a.png,object_03a.png,object_01a.png,,0.625,0,,,,,,,,
5702.4000000059605,,directmemory_phase2,832206,,,,object_05a.png,,,51,,,0,,object_04a.png,object_05c.png,object_11a.png,object_05c.png,,0.6140350877192983,0,,,,,,,,
2019.2999999970198,,directmemory_phase2,834230,,,,object_09c.png,,,49,,,1,,object_14c.png,object_01b.png,object_06a.png,object_14c.png,,0.6206896551724138,1,,,,,,,,
5726.5,,directmemory_phase2,839958,,,,object_15a.png,,,51,,,1,,object_06b.png,object_13a.png,object_11b.png,object_11b.png,,0.6271186440677966,1,,,,,,,,
5980.10000000149,,directmemory_phase2,845943,,,,object_03c.png,,,49,,,1,,object_13c.png,object_04c.png,object_13a.png,object_13c.png,,0.6333333333333333,1,,,,,,,,
null,,thebreak,846045,,,,<p></p>,,,null,,,,,,,,,,,,,,,,,,,
10415.89999999851,,intro_0,856463,,,,instruct,,,32,,,,,,,,,,,,,,,,,,,
null,,learn_phase(without_color)3,859965,,,,black_plus_sign,,,null,object_04a.png,object_12c.png,,,,,,,,,,,,,,,,,
null,,black_cross(without_color)3,860791,,,,blue,,,null,object_04a.png,object_12c.png,,,,,,,,,,,,,,,,,
null,,rt_plussign_withcolor3,861293,,,,blue,,,null,object_04a.png,object_12c.png,,,,,,,,,,,,,,,,,
1171,,rt_thecrossant_black3,862472,,,,black_plus_sign,,,49,,,1,,,,,,,1,,,,,,,,,
null,,color_black3,862575,,,,black_plus_sign,,,null,,,,,,,,,,,,,,,,,,,
null,,learn_phase(without_color)3,866079,,,,black_plus_sign,,,null,object_05a.png,object_15c.png,,,,,,,,,,,,,,,,,
null,,black_cross(without_color)3,866888,,,,blue,,,null,object_05a.png,object_15c.png,,,,,,,,,,,,,,,,,
null,,rt_plussign_withcolor3,867391,,,,blue,,,null,object_05a.png,object_15c.png,,,,,,,,,,,,,,,,,
1120.6999999955297,,rt_thecrossant_black3,868588,,,,black_plus_sign,,,49,,,1,,,,,,,1,,,,,,,,,
null,,color_black3,868692,,,,black_plus_sign,,,null,,,,,,,,,,,,,,,,,,,
null,,learn_phase(without_color)3,872195,,,,black_plus_sign,,,null,object_07c.png,object_01a.png,,,,,,,,,,,,,,,,,
null,,black_cross(without_color)3,873082,,,,blue,,,null,object_07c.png,object_01a.png,,,,,,,,,,,,,,,,,
null,,rt_plussign_withcolor3,873586,,,,blue,,,null,object_07c.png,object_01a.png,,,,,,,,,,,,,,,,,
1380,,rt_thecrossant_black3,874705,,,,black_plus_sign,,,49,,,1,,,,,,,1,,,,,,,,,
null,,color_black3,874809,,,,black_plus_sign,,,null,,,,,,,,,,,,,,,,,,,
null,,learn_phase(without_color)3,878312,,,,black_plus_sign,,,null,object_14a.png,object_07a.png,,,,,,,,,,,,,,,,,
null,,black_cross(without_color)3,879301,,,,blue,,,null,object_14a.png,object_07a.png,,,,,,,,,,,,,,,,,
null,,rt_plussign_withcolor3,879803,,,,blue,,,null,object_14a.png,object_07a.png,,,,,,,,,,,,,,,,,
1151.5999999940395,,rt_thecrossant_black3,880818,,,,black_plus_sign,,,49,,,1,,,,,,,1,,,,,,,,,
null,,color_black3,880921,,,,black_plus_sign,,,null,,,,,,,,,,,,,,,,,,,
null,,learn_phase(without_color)3,884439,,,,black_plus_sign,,,null,object_06b.png,object_15b.png,,,,,,,,,,,,,,,,,
null,,black_cross(without_color)3,885086,,,,blue,,,null,object_06b.png,object_15b.png,,,,,,,,,,,,,,,,,
null,,rt_plussign_withcolor3,885587,,,,blue,,,null,object_06b.png,object_15b.png,,,,,,,,,,,,,,,,,
1494.3999999985099,,rt_thecrossant_black3,886948,,,,black_plus_sign,,,49,,,1,,,,,,,1,,,,,,,,,
null,,color_black3,887051,,,,black_plus_sign,,,null,,,,,,,,,,,,,,,,,,,
null,,learn_phase(without_color)3,890556,,,,black_plus_sign,,,null,object_11a.png,object_03a.png,,,,,,,,,,,,,,,,,
null,,black_cross(without_color)3,891112,,,,blue,,,null,object_11a.png,object_03a.png,,,,,,,,,,,,,,,,,
null,,rt_plussign_withcolor3,891615,,,,blue,,,null,object_11a.png,object_03a.png,,,,,,,,,,,,,,,,,
1598.1000000014901,,rt_thecrossant_black3,893063,,,,black_plus_sign,,,49,,,1,,,,,,,1,,,,,,,,,
null,,color_black3,893166,,,,black_plus_sign,,,null,,,,,,,,,,,,,,,,,,,
null,,learn_phase(without_color)3,896681,,,,black_plus_sign,,,null,object_10b.png,object_14c.png,,,,,,,,,,,,,,,,,
null,,black_cross(without_color)3,897775,,,,green,,,null,object_10b.png,object_14c.png,,,,,,,,,,,,,,,,,
null,,rt_plussign_withcolor3,898276,,,,green,,,null,object_10b.png,object_14c.png,,,,,,,,,,,,,,,,,
null,,rt_thecrossant_black3,899188,,,,black_plus_sign,,,null,,,,,,,,,,1,,,,,,,,,
null,,color_black3,899292,,,,black_plus_sign,,,null,,,,,,,,,,,,,,,,,,,
null,,learn_phase(without_color)3,902796,,,,black_plus_sign,,,null,object_06b.png,object_08a.png,,,,,,,,,,,,,,,,,
null,,black_cross(without_color)3,903266,,,,green,,,null,object_06b.png,object_08a.png,,,,,,,,,,,,,,,,,
null,,rt_plussign_withcolor3,903781,,,,green,,,null,object_06b.png,object_08a.png,,,,,,,,,,,,,,,,,
1861.5,,rt_thecrossant_black3,905318,,,,black_plus_sign,,,50,,,1,,,,,,,1,,,,,,,,,
null,,color_black3,905422,,,,black_plus_sign,,,null,,,,,,,,,,,,,,,,,,,
null,,learn_phase(without_color)3,908926,,,,black_plus_sign,,,null,object_06c.png,object_03b.png,,,,,,,,,,,,,,,,,
null,,black_cross(without_color)3,909834,,,,green,,,null,object_06c.png,object_03b.png,,,,,,,,,,,,,,,,,
null,,rt_plussign_withcolor3,910337,,,,green,,,null,object_06c.png,object_03b.png,,,,,,,,,,,,,,,,,
1033.3999999985099,,rt_thecrossant_black3,911434,,,,black_plus_sign,,,50,,,1,,,,,,,1,,,,,,,,,
null,,color_black3,911537,,,,black_plus_sign,,,null,,,,,,,,,,,,,,,,,,,
null,,learn_phase(without_color)3,915041,,,,black_plus_sign,,,null,object_12b.png,object_14b.png,,,,,,,,,,,,,,,,,
null,,black_cross(without_color)3,915593,,,,blue,,,null,object_12b.png,object_14b.png,,,,,,,,,,,,,,,,,
null,,rt_plussign_withcolor3,916096,,,,blue,,,null,object_12b.png,object_14b.png,,,,,,,,,,,,,,,,,
1274.7999999970198,,rt_thecrossant_black3,917550,,,,black_plus_sign,,,49,,,1,,,,,,,1,,,,,,,,,
null,,color_black3,917652,,,,black_plus_sign,,,null,,,,,,,,,,,,,,,,,,,
null,,learn_phase(without_color)3,921155,,,,black_plus_sign,,,null,object_08b.png,object_12a.png,,,,,,,,,,,,,,,,,
null,,black_cross(without_color)3,921741,,,,green,,,null,object_08b.png,object_12a.png,,,,,,,,,,,,,,,,,
null,,rt_plussign_withcolor3,922243,,,,green,,,null,object_08b.png,object_12a.png,,,,,,,,,,,,,,,,,
976.6000000014901,,rt_thecrossant_black3,923664,,,,black_plus_sign,,,50,,,1,,,,,,,1,,,,,,,,,
null,,color_black3,923767,,,,black_plus_sign,,,null,,,,,,,,,,,,,,,,,,,
null,,learn_phase(without_color)3,927271,,,,black_plus_sign,,,null,object_13a.png,object_04c.png,,,,,,,,,,,,,,,,,
null,,black_cross(without_color)3,927962,,,,green,,,null,object_13a.png,object_04c.png,,,,,,,,,,,,,,,,,
null,,rt_plussign_withcolor3,928464,,,,green,,,null,object_13a.png,object_04c.png,,,,,,,,,,,,,,,,,
1103.2999999970198,,rt_thecrossant_black3,929779,,,,black_plus_sign,,,50,,,1,,,,,,,1,,,,,,,,,
null,,color_black3,929881,,,,black_plus_sign,,,null,,,,,,,,,,,,,,,,,,,
null,,learn_phase(without_color)3,933385,,,,black_plus_sign,,,null,object_06a.png,object_13c.png,,,,,,,,,,,,,,,,,
null,,black_cross(without_color)3,934299,,,,green,,,null,object_06a.png,object_13c.png,,,,,,,,,,,,,,,,,
null,,rt_plussign_withcolor3,934802,,,,green,,,null,object_06a.png,object_13c.png,,,,,,,,,,,,,,,,,
949.6999999955297,,rt_thecrossant_black3,935896,,,,black_plus_sign,,,50,,,1,,,,,,,1,,,,,,,,,
null,,color_black3,935999,,,,black_plus_sign,,,null,,,,,,,,,,,,,,,,,,,
null,,learn_phase(without_color)3,939503,,,,black_plus_sign,,,null,object_14a.png,object_01c.png,,,,,,,,,,,,,,,,,
null,,black_cross(without_color)3,940001,,,,blue,,,null,object_14a.png,object_01c.png,,,,,,,,,,,,,,,,,
null,,rt_plussign_withcolor3,940504,,,,blue,,,null,object_14a.png,object_01c.png,,,,,,,,,,,,,,,,,
1323.5,,rt_thecrossant_black3,942013,,,,black_plus_sign,,,49,,,1,,,,,,,1,,,,,,,,,
null,,color_black3,942116,,,,black_plus_sign,,,null,,,,,,,,,,,,,,,,,,,
null,,learn_phase(without_color)3,945621,,,,black_plus_sign,,,null,object_14c.png,object_09c.png,,,,,,,,,,,,,,,,,
null,,black_cross(without_color)3,946240,,,,green,,,null,object_14c.png,object_09c.png,,,,,,,,,,,,,,,,,
null,,rt_plussign_withcolor3,946742,,,,green,,,null,object_14c.png,object_09c.png,,,,,,,,,,,,,,,,,
1049.3000000044703,,rt_thecrossant_black3,948130,,,,black_plus_sign,,,50,,,1,,,,,,,1,,,,,,,,,
null,,color_black3,948234,,,,black_plus_sign,,,null,,,,,,,,,,,,,,,,,,,
null,,learn_phase(without_color)3,951738,,,,black_plus_sign,,,null,object_11b.png,object_10c.png,,,,,,,,,,,,,,,,,
null,,black_cross(without_color)3,952638,,,,green,,,null,object_11b.png,object_10c.png,,,,,,,,,,,,,,,,,
null,,rt_plussign_withcolor3,953140,,,,green,,,null,object_11b.png,object_10c.png,,,,,,,,,,,,,,,,,
1361.3000000044703,,rt_thecrossant_black3,954245,,,,black_plus_sign,,,50,,,1,,,,,,,1,,,,,,,,,
null,,color_black3,954349,,,,black_plus_sign,,,null,,,,,,,,,,,,,,,,,,,
null,,learn_phase(without_color)3,957852,,,,black_plus_sign,,,null,object_13b.png,object_08b.png,,,,,,,,,,,,,,,,,
null,,black_cross(without_color)3,958430,,,,green,,,null,object_13b.png,object_08b.png,,,,,,,,,,,,,,,,,
null,,rt_plussign_withcolor3,958933,,,,green,,,null,object_13b.png,object_08b.png,,,,,,,,,,,,,,,,,
1548.1000000014901,,rt_thecrossant_black3,960361,,,,black_plus_sign,,,50,,,1,,,,,,,1,,,,,,,,,
null,,color_black3,960466,,,,black_plus_sign,,,null,,,,,,,,,,,,,,,,,,,
null,,learn_phase(without_color)3,963969,,,,black_plus_sign,,,null,object_09b.png,object_05b.png,,,,,,,,,,,,,,,,,
null,,black_cross(without_color)3,964658,,,,blue,,,null,object_09b.png,object_05b.png,,,,,,,,,,,,,,,,,
null,,rt_plussign_withcolor3,965160,,,,blue,,,null,object_09b.png,object_05b.png,,,,,,,,,,,,,,,,,
1158.5999999940395,,rt_thecrossant_black3,966478,,,,black_plus_sign,,,49,,,1,,,,,,,1,,,,,,,,,
null,,color_black3,966582,,,,black_plus_sign,,,null,,,,,,,,,,,,,,,,,,,
null,,learn_phase(without_color)3,970086,,,,black_plus_sign,,,null,object_05c.png,object_05a.png,,,,,,,,,,,,,,,,,
null,,black_cross(without_color)3,970554,,,,blue,,,null,object_05c.png,object_05a.png,,,,,,,,,,,,,,,,,
null,,rt_plussign_withcolor3,971057,,,,blue,,,null,object_05c.png,object_05a.png,,,,,,,,,,,,,,,,,
null,,rt_thecrossant_black3,972609,,,,black_plus_sign,,,null,,,,,,,,,,1,,,,,,,,,
null,,color_black3,972718,,,,black_plus_sign,,,null,,,,,,,,,,,,,,,,,,,
null,,learn_phase(without_color)3,976223,,,,black_plus_sign,,,null,object_04c.png,object_09a.png,,,,,,,,,,,,,,,,,
null,,black_cross(without_color)3,976729,,,,green,,,null,object_04c.png,object_09a.png,,,,,,,,,,,,,,,,,
null,,rt_plussign_withcolor3,977231,,,,green,,,null,object_04c.png,object_09a.png,,,,,,,,,,,,,,,,,
897.7000000029802,,rt_thecrossant_black3,978732,,,,black_plus_sign,,,50,,,1,,,,,,,1,,,,,,,,,
null,,color_black3,978836,,,,black_plus_sign,,,null,,,,,,,,,,,,,,,,,,,
null,,learn_phase(without_color)3,982339,,,,black_plus_sign,,,null,object_11c.png,object_01b.png,,,,,,,,,,,,,,,,,
null,,black_cross(without_color)3,983260,,,,blue,,,null,object_11c.png,object_01b.png,,,,,,,,,,,,,,,,,
null,,rt_plussign_withcolor3,983762,,,,blue,,,null,object_11c.png,object_01b.png,,,,,,,,,,,,,,,,,
875.6999999955297,,rt_thecrossant_black3,984859,,,,black_plus_sign,,,49,,,1,,,,,,,1,,,,,,,,,
null,,color_black3,984962,,,,black_plus_sign,,,null,,,,,,,,,,,,,,,,,,,
null,,learn_phase(without_color)3,988466,,,,black_plus_sign,,,null,object_09b.png,object_10a.png,,,,,,,,,,,,,,,,,
null,,black_cross(without_color)3,989439,,,,green,,,null,object_09b.png,object_10a.png,,,,,,,,,,,,,,,,,
null,,rt_plussign_withcolor3,989941,,,,green,,,null,object_09b.png,object_10a.png,,,,,,,,,,,,,,,,,
1381.5,,rt_thecrossant_black3,990975,,,,black_plus_sign,,,50,,,1,,,,,,,1,,,,,,,,,
null,,color_black3,991077,,,,black_plus_sign,,,null,,,,,,,,,,,,,,,,,,,
null,,learn_phase(without_color)3,994581,,,,black_plus_sign,,,null,object_07b.png,object_04a.png,,,,,,,,,,,,,,,,,
null,,black_cross(without_color)3,995471,,,,blue,,,null,object_07b.png,object_04a.png,,,,,,,,,,,,,,,,,
null,,rt_plussign_withcolor3,995973,,,,blue,,,null,object_07b.png,object_04a.png,,,,,,,,,,,,,,,,,
1332.7000000029802,,rt_thecrossant_black3,997090,,,,black_plus_sign,,,49,,,1,,,,,,,1,,,,,,,,,
null,,color_black3,997194,,,,black_plus_sign,,,null,,,,,,,,,,,,,,,,,,,
null,,learn_phase(without_color)3,1000696,,,,black_plus_sign,,,null,object_15a.png,object_11b.png,,,,,,,,,,,,,,,,,
null,,black_cross(without_color)3,1001410,,,,green,,,null,object_15a.png,object_11b.png,,,,,,,,,,,,,,,,,
null,,rt_plussign_withcolor3,1001912,,,,green,,,null,object_15a.png,object_11b.png,,,,,,,,,,,,,,,,,
1238.2000000029802,,rt_thecrossant_black3,1003205,,,,black_plus_sign,,,50,,,1,,,,,,,1,,,,,,,,,
null,,color_black3,1003309,,,,black_plus_sign,,,null,,,,,,,,,,,,,,,,,,,
null,,learn_phase(without_color)3,1006814,,,,black_plus_sign,,,null,object_01a.png,object_02c.png,,,,,,,,,,,,,,,,,
null,,black_cross(without_color)3,1007898,,,,green,,,null,object_01a.png,object_02c.png,,,,,,,,,,,,,,,,,
null,,rt_plussign_withcolor3,1008401,,,,green,,,null,object_01a.png,object_02c.png,,,,,,,,,,,,,,,,,
null,,rt_thecrossant_black3,1009324,,,,black_plus_sign,,,null,,,,,,,,,,1,,,,,,,,,
null,,color_black3,1009427,,,,black_plus_sign,,,null,,,,,,,,,,,,,,,,,,,
null,,learn_phase(without_color)3,1012930,,,,black_plus_sign,,,null,object_01b.png,object_08c.png,,,,,,,,,,,,,,,,,
null,,black_cross(without_color)3,1014018,,,,blue,,,null,object_01b.png,object_08c.png,,,,,,,,,,,,,,,,,
null,,rt_plussign_withcolor3,1014520,,,,blue,,,null,object_01b.png,object_08c.png,,,,,,,,,,,,,,,,,
1425.7000000029802,,rt_thecrossant_black3,1015438,,,,black_plus_sign,,,50,,,0,,,,,,,0.9565217391304348,,,,,,,,,
null,,warning_page,1020441,,,,warning,,,null,,,,,,,,,,,,,,,,,,,
null,,color_black3,1020560,,,,black_plus_sign,,,null,,,,,,,,,,,,,,,,,,,
null,,learn_phase(without_color)3,1024063,,,,black_plus_sign,,,null,object_02b.png,object_03b.png,,,,,,,,,,,,,,,,,
null,,black_cross(without_color)3,1024668,,,,green,,,null,object_02b.png,object_03b.png,,,,,,,,,,,,,,,,,
null,,rt_plussign_withcolor3,1025171,,,,green,,,null,object_02b.png,object_03b.png,,,,,,,,,,,,,,,,,
1722.1000000014901,,rt_thecrossant_black3,1026574,,,,black_plus_sign,,,50,,,1,,,,,,,0.9583333333333334,,,,,,,,,
null,,color_black3,1026676,,,,black_plus_sign,,,null,,,,,,,,,,,,,,,,,,,
null,,learn_phase(without_color)3,1030180,,,,black_plus_sign,,,null,object_13c.png,object_03c.png,,,,,,,,,,,,,,,,,
null,,black_cross(without_color)3,1030676,,,,green,,,null,object_13c.png,object_03c.png,,,,,,,,,,,,,,,,,
null,,rt_plussign_withcolor3,1031179,,,,green,,,null,object_13c.png,object_03c.png,,,,,,,,,,,,,,,,,
925.5,,rt_thecrossant_black3,1032689,,,,black_plus_sign,,,50,,,1,,,,,,,0.96,,,,,,,,,
null,,color_black3,1032793,,,,black_plus_sign,,,null,,,,,,,,,,,,,,,,,,,
null,,learn_phase(without_color)3,1036297,,,,black_plus_sign,,,null,object_04b.png,object_12b.png,,,,,,,,,,,,,,,,,
null,,black_cross(without_color)3,1037181,,,,blue,,,null,object_04b.png,object_12b.png,,,,,,,,,,,,,,,,,
null,,rt_plussign_withcolor3,1037683,,,,blue,,,null,object_04b.png,object_12b.png,,,,,,,,,,,,,,,,,
814.5,,rt_thecrossant_black3,1038806,,,,black_plus_sign,,,49,,,1,,,,,,,0.9615384615384616,,,,,,,,,
null,,color_black3,1038910,,,,black_plus_sign,,,null,,,,,,,,,,,,,,,,,,,
null,,learn_phase(without_color)3,1042413,,,,black_plus_sign,,,null,object_02a.png,object_03a.png,,,,,,,,,,,,,,,,,
null,,black_cross(without_color)3,1043218,,,,blue,,,null,object_02a.png,object_03a.png,,,,,,,,,,,,,,,,,
null,,rt_plussign_withcolor3,1043720,,,,blue,,,null,object_02a.png,object_03a.png,,,,,,,,,,,,,,,,,
1287.5,,rt_thecrossant_black3,1044921,,,,black_plus_sign,,,49,,,1,,,,,,,0.9629629629629629,,,,,,,,,
null,,color_black3,1045024,,,,black_plus_sign,,,null,,,,,,,,,,,,,,,,,,,
null,,thebreak,1045128,,,,<p></p>,,,null,,,,,,,,,,,,,,,,,,,
2572.60000000149,,intro_0,1047702,,,,instruct,,,32,,,,,,,,,,,,,,,,,,,
3365.39999999851,,directmemory_phase3,1051071,,,,object_15b.png,,,50,,,1,,object_11c.png,object_06b.png,object_14c.png,object_06b.png,,0.639344262295082,1,,,,,,,,
3539.1999999955297,,directmemory_phase3,1054615,,,,object_07a.png,,,49,,,1,,object_14a.png,object_04a.png,object_13a.png,object_14a.png,,0.6451612903225806,1,,,,,,,,
4690.89999999851,,directmemory_phase3,1059310,,,,object_15c.png,,,51,,,1,,object_04a.png,object_12c.png,object_05a.png,object_05a.png,,0.6507936507936508,1,,,,,,,,
2084.2000000029802,,directmemory_phase3,1061399,,,,object_01c.png,,,50,,,1,,object_02b.png,object_14a.png,object_05a.png,object_14a.png,,0.65625,1,,,,,,,,
6764.29999999702,,directmemory_phase3,1068168,,,,object_09a.png,,,50,,,1,,object_15c.png,object_04c.png,object_05a.png,object_04c.png,,0.6615384615384615,1,,,,,,,,
5692.5,,directmemory_phase3,1073862,,,,object_05b.png,,,51,,,0,,object_09b.png,object_08b.png,object_13a.png,object_09b.png,,0.6515151515151515,0,,,,,,,,
2299.60000000149,,directmemory_phase3,1076166,,,,object_09c.png,,,51,,,1,,object_03a.png,object_07c.png,object_14c.png,object_14c.png,,0.6567164179104478,1,,,,,,,,
4798,,directmemory_phase3,1080966,,,,object_07c.png,,,51,,,1,,object_09b.png,object_06a.png,object_01a.png,object_01a.png,,0.6617647058823529,1,,,,,,,,
2531.5,,directmemory_phase3,1083503,,,,object_12b.png,,,49,,,1,,object_14b.png,object_05c.png,object_01b.png,object_14b.png,,0.6666666666666666,1,,,,,,,,
4723.5,,directmemory_phase3,1088231,,,,object_13b.png,,,51,,,1,,object_03b.png,object_06c.png,object_08b.png,object_08b.png,,0.6714285714285714,1,,,,,,,,
3403.2999999970198,,directmemory_phase3,1091639,,,,object_10a.png,,,50,,,1,,object_01c.png,object_09b.png,object_04c.png,object_09b.png,,0.676056338028169,1,,,,,,,,
1838.2999999970198,,directmemory_phase3,1093480,,,,object_02c.png,,,49,,,1,,object_01a.png,object_05a.png,object_06c.png,object_01a.png,,0.6805555555555556,1,,,,,,,,
3338.2999999970198,,directmemory_phase3,1096823,,,,object_12c.png,,,50,,,0,,object_01a.png,object_04b.png,object_04a.png,object_04a.png,,0.6712328767123288,0,,,,,,,,
8170.5,,directmemory_phase3,1104999,,,,object_01b.png,,,49,,,1,,object_08c.png,object_07a.png,object_03a.png,object_08c.png,,0.6756756756756757,1,,,,,,,,
3027.10000000149,,directmemory_phase3,1108030,,,,object_08a.png,,,50,,,1,,object_05c.png,object_06b.png,object_03a.png,object_06b.png,,0.68,1,,,,,,,,
3413.2999999970198,,directmemory_phase3,1111447,,,,object_12a.png,,,49,,,1,,object_08b.png,object_04a.png,object_07c.png,object_08b.png,,0.6842105263157895,1,,,,,,,,
4750.5,,directmemory_phase3,1116199,,,,object_04a.png,,,49,,,1,,object_07b.png,object_08a.png,object_08b.png,object_07b.png,,0.6883116883116883,1,,,,,,,,
7427.39999999851,,directmemory_phase3,1123630,,,,object_04b.png,,,51,,,1,,object_08b.png,object_07c.png,object_12b.png,object_12b.png,,0.6923076923076923,1,,,,,,,,
7380,,directmemory_phase3,1131015,,,,object_05a.png,,,51,,,0,,object_12b.png,object_05c.png,object_13a.png,object_05c.png,,0.6835443037974683,0,,,,,,,,
6836.60000000149,,directmemory_phase3,1137855,,,,object_03a.png,,,50,,,0,,object_14b.png,object_08b.png,object_11a.png,object_11a.png,,0.675,0,,,,,,,,
3973.39999999851,,directmemory_phase3,1141831,,,,object_02b.png,,,51,,,1,,object_04c.png,object_02a.png,object_03b.png,object_03b.png,,0.6790123456790124,1,,,,,,,,
10389.5,,directmemory_phase3,1152223,,,,object_11c.png,,,50,,,0,,object_06b.png,object_02b.png,object_01b.png,object_01b.png,,0.6707317073170732,0,,,,,,,,
2810.6999999955297,,directmemory_phase3,1155038,,,,object_11b.png,,,50,,,1,,object_03a.png,object_15a.png,object_06c.png,object_15a.png,,0.6746987951807228,1,,,,,,,,
6047.5,,directmemory_phase3,1161091,,,,object_03c.png,,,49,,,1,,object_13c.png,object_08b.png,object_13a.png,object_13c.png,,0.6785714285714286,1,,,,,,,,
5938,,directmemory_phase3,1167031,,,,object_13a.png,,,50,,,1,,object_06c.png,object_04c.png,object_03b.png,object_04c.png,,0.6823529411764706,1,,,,,,,,
2315,,directmemory_phase3,1169351,,,,object_02a.png,,,51,,,1,,object_04c.png,object_02b.png,object_03a.png,object_03a.png,,0.686046511627907,1,,,,,,,,
7715.80000000447,,directmemory_phase3,1177071,,,,object_06c.png,,,49,,,0,,object_13a.png,object_03b.png,object_06b.png,object_03b.png,,0.6781609195402298,0,,,,,,,,
4930.70000000298,,directmemory_phase3,1182007,,,,object_06a.png,,,49,,,1,,object_13c.png,object_12b.png,object_11c.png,object_13c.png,,0.6818181818181818,1,,,,,,,,
4909.20000000298,,directmemory_phase3,1186919,,,,object_14c.png,,,49,,,1,,object_10b.png,object_14b.png,object_09b.png,object_10b.png,,0.6853932584269663,1,,,,,,,,
3635.39999999851,,directmemory_phase3,1190559,,,,object_10c.png,,,51,,,1,,object_05a.png,object_01c.png,object_11b.png,object_11b.png,,0.6888888888888889,1,,,,,,,,
null,,thebreak,1190662,,,,<p></p>,,,null,,,,,,,,,,,,,,,,,,,
105206,,intro_0,1295871,,,,instruct,,,32,,,,,,,,,,,,,,,,,,,
null,,learn_phase(without_color)4,1299373,,,,black_plus_sign,,,null,object_01a.png,object_02c.png,,,,,,,,,,,,,,,,,
null,,black_cross(without_color)4,1299782,,,,blue,,,null,object_01a.png,object_02c.png,,,,,,,,,,,,,,,,,
null,,rt_plussign_withcolor4,1300285,,,,blue,,,null,object_01a.png,object_02c.png,,,,,,,,,,,,,,,,,
767.7000000029802,,rt_thecrossant_black4,1301884,,,,black_plus_sign,,,49,,,1,,,,,,,1,,,,,,,,,
null,,color_black4,1301989,,,,black_plus_sign,,,null,,,,,,,,,,,,,,,,,,,
null,,learn_phase(without_color)4,1305493,,,,black_plus_sign,,,null,object_11b.png,object_15a.png,,,,,,,,,,,,,,,,,
null,,black_cross(without_color)4,1306535,,,,blue,,,null,object_11b.png,object_15a.png,,,,,,,,,,,,,,,,,
null,,rt_plussign_withcolor4,1307038,,,,blue,,,null,object_11b.png,object_15a.png,,,,,,,,,,,,,,,,,
646.5999999940395,,rt_thecrossant_black4,1308003,,,,black_plus_sign,,,49,,,1,,,,,,,1,,,,,,,,,
null,,color_black4,1308106,,,,black_plus_sign,,,null,,,,,,,,,,,,,,,,,,,
null,,learn_phase(without_color)4,1311610,,,,black_plus_sign,,,null,object_04a.png,object_12c.png,,,,,,,,,,,,,,,,,
null,,black_cross(without_color)4,1312218,,,,green,,,null,object_04a.png,object_12c.png,,,,,,,,,,,,,,,,,
null,,rt_plussign_withcolor4,1312720,,,,green,,,null,object_04a.png,object_12c.png,,,,,,,,,,,,,,,,,
1589.5,,rt_thecrossant_black4,1314118,,,,black_plus_sign,,,50,,,1,,,,,,,1,,,,,,,,,
null,,color_black4,1314223,,,,black_plus_sign,,,null,,,,,,,,,,,,,,,,,,,
null,,learn_phase(without_color)4,1317726,,,,black_plus_sign,,,null,object_05a.png,object_05c.png,,,,,,,,,,,,,,,,,
null,,black_cross(without_color)4,1318702,,,,green,,,null,object_05a.png,object_05c.png,,,,,,,,,,,,,,,,,
null,,rt_plussign_withcolor4,1319206,,,,green,,,null,object_05a.png,object_05c.png,,,,,,,,,,,,,,,,,
1031.7000000029802,,rt_thecrossant_black4,1320238,,,,black_plus_sign,,,50,,,1,,,,,,,1,,,,,,,,,
null,,color_black4,1320342,,,,black_plus_sign,,,null,,,,,,,,,,,,,,,,,,,
null,,learn_phase(without_color)4,1323846,,,,black_plus_sign,,,null,object_05b.png,object_09b.png,,,,,,,,,,,,,,,,,
null,,black_cross(without_color)4,1324863,,,,green,,,null,object_05b.png,object_09b.png,,,,,,,,,,,,,,,,,
null,,rt_plussign_withcolor4,1325366,,,,green,,,null,object_05b.png,object_09b.png,,,,,,,,,,,,,,,,,
1268.6000000014901,,rt_thecrossant_black4,1326357,,,,black_plus_sign,,,50,,,1,,,,,,,1,,,,,,,,,
null,,color_black4,1326461,,,,black_plus_sign,,,null,,,,,,,,,,,,,,,,,,,
null,,learn_phase(without_color)4,1329966,,,,black_plus_sign,,,null,object_10a.png,object_09b.png,,,,,,,,,,,,,,,,,
null,,black_cross(without_color)4,1330627,,,,green,,,null,object_10a.png,object_09b.png,,,,,,,,,,,,,,,,,
null,,rt_plussign_withcolor4,1331129,,,,green,,,null,object_10a.png,object_09b.png,,,,,,,,,,,,,,,,,
1412,,rt_thecrossant_black4,1332475,,,,black_plus_sign,,,50,,,1,,,,,,,1,,,,,,,,,
null,,color_black4,1332579,,,,black_plus_sign,,,null,,,,,,,,,,,,,,,,,,,
null,,learn_phase(without_color)4,1336082,,,,black_plus_sign,,,null,object_14a.png,object_07a.png,,,,,,,,,,,,,,,,,
null,,black_cross(without_color)4,1336806,,,,blue,,,null,object_14a.png,object_07a.png,,,,,,,,,,,,,,,,,
null,,rt_plussign_withcolor4,1337309,,,,blue,,,null,object_14a.png,object_07a.png,,,,,,,,,,,,,,,,,
834.7000000029802,,rt_thecrossant_black4,1338592,,,,black_plus_sign,,,49,,,1,,,,,,,1,,,,,,,,,
null,,color_black4,1338696,,,,black_plus_sign,,,null,,,,,,,,,,,,,,,,,,,
null,,learn_phase(without_color)4,1342200,,,,black_plus_sign,,,null,object_05a.png,object_15c.png,,,,,,,,,,,,,,,,,
null,,black_cross(without_color)4,1342882,,,,green,,,null,object_05a.png,object_15c.png,,,,,,,,,,,,,,,,,
null,,rt_plussign_withcolor4,1343385,,,,green,,,null,object_05a.png,object_15c.png,,,,,,,,,,,,,,,,,
1352.3000000044703,,rt_thecrossant_black4,1344711,,,,black_plus_sign,,,50,,,1,,,,,,,1,,,,,,,,,
null,,color_black4,1344816,,,,black_plus_sign,,,null,,,,,,,,,,,,,,,,,,,
null,,learn_phase(without_color)4,1348320,,,,black_plus_sign,,,null,object_12b.png,object_04b.png,,,,,,,,,,,,,,,,,
null,,black_cross(without_color)4,1349033,,,,blue,,,null,object_12b.png,object_04b.png,,,,,,,,,,,,,,,,,
null,,rt_plussign_withcolor4,1349536,,,,blue,,,null,object_12b.png,object_04b.png,,,,,,,,,,,,,,,,,
1958.5,,rt_thecrossant_black4,1350830,,,,black_plus_sign,,,49,,,1,,,,,,,1,,,,,,,,,
null,,color_black4,1350935,,,,black_plus_sign,,,null,,,,,,,,,,,,,,,,,,,
null,,learn_phase(without_color)4,1354437,,,,black_plus_sign,,,null,object_06a.png,object_13c.png,,,,,,,,,,,,,,,,,
null,,black_cross(without_color)4,1355197,,,,blue,,,null,object_06a.png,object_13c.png,,,,,,,,,,,,,,,,,
null,,rt_plussign_withcolor4,1355700,,,,blue,,,null,object_06a.png,object_13c.png,,,,,,,,,,,,,,,,,
1400.8999999985099,,rt_thecrossant_black4,1356948,,,,black_plus_sign,,,49,,,1,,,,,,,1,,,,,,,,,
null,,color_black4,1357050,,,,black_plus_sign,,,null,,,,,,,,,,,,,,,,,,,
null,,learn_phase(without_color)4,1360555,,,,black_plus_sign,,,null,object_03b.png,object_06c.png,,,,,,,,,,,,,,,,,
null,,black_cross(without_color)4,1361183,,,,blue,,,null,object_03b.png,object_06c.png,,,,,,,,,,,,,,,,,
null,,rt_plussign_withcolor4,1361686,,,,blue,,,null,object_03b.png,object_06c.png,,,,,,,,,,,,,,,,,
1115.6000000014901,,rt_thecrossant_black4,1363066,,,,black_plus_sign,,,49,,,1,,,,,,,1,,,,,,,,,
null,,color_black4,1363169,,,,black_plus_sign,,,null,,,,,,,,,,,,,,,,,,,
null,,learn_phase(without_color)4,1366675,,,,black_plus_sign,,,null,object_14c.png,object_09c.png,,,,,,,,,,,,,,,,,
null,,black_cross(without_color)4,1367541,,,,green,,,null,object_14c.png,object_09c.png,,,,,,,,,,,,,,,,,
null,,rt_plussign_withcolor4,1368043,,,,green,,,null,object_14c.png,object_09c.png,,,,,,,,,,,,,,,,,
829.1000000014901,,rt_thecrossant_black4,1369185,,,,black_plus_sign,,,50,,,1,,,,,,,1,,,,,,,,,
null,,color_black4,1369289,,,,black_plus_sign,,,null,,,,,,,,,,,,,,,,,,,
null,,learn_phase(without_color)4,1372800,,,,black_plus_sign,,,null,object_08b.png,object_13b.png,,,,,,,,,,,,,,,,,
null,,black_cross(without_color)4,1373480,,,,green,,,null,object_08b.png,object_13b.png,,,,,,,,,,,,,,,,,
null,,rt_plussign_withcolor4,1373983,,,,green,,,null,object_08b.png,object_13b.png,,,,,,,,,,,,,,,,,
1105.3000000044703,,rt_thecrossant_black4,1375308,,,,black_plus_sign,,,50,,,1,,,,,,,1,,,,,,,,,
null,,color_black4,1375412,,,,black_plus_sign,,,null,,,,,,,,,,,,,,,,,,,
null,,learn_phase(without_color)4,1378916,,,,black_plus_sign,,,null,object_02a.png,object_03a.png,,,,,,,,,,,,,,,,,
null,,black_cross(without_color)4,1379567,,,,blue,,,null,object_02a.png,object_03a.png,,,,,,,,,,,,,,,,,
null,,rt_plussign_withcolor4,1380070,,,,blue,,,null,object_02a.png,object_03a.png,,,,,,,,,,,,,,,,,
1391.1999999955297,,rt_thecrossant_black4,1381425,,,,black_plus_sign,,,49,,,1,,,,,,,1,,,,,,,,,
null,,color_black4,1381530,,,,black_plus_sign,,,null,,,,,,,,,,,,,,,,,,,
null,,learn_phase(without_color)4,1385034,,,,black_plus_sign,,,null,object_10c.png,object_11b.png,,,,,,,,,,,,,,,,,
null,,black_cross(without_color)4,1386126,,,,green,,,null,object_10c.png,object_11b.png,,,,,,,,,,,,,,,,,
null,,rt_plussign_withcolor4,1386629,,,,green,,,null,object_10c.png,object_11b.png,,,,,,,,,,,,,,,,,
null,,rt_thecrossant_black4,1387544,,,,black_plus_sign,,,null,,,,,,,,,,1,,,,,,,,,
null,,warning_page,1392548,,,,warning,,,null,,,,,,,,,,,,,,,,,,,
null,,color_black4,1392667,,,,black_plus_sign,,,null,,,,,,,,,,,,,,,,,,,
null,,learn_phase(without_color)4,1396171,,,,black_plus_sign,,,null,object_12b.png,object_14b.png,,,,,,,,,,,,,,,,,
null,,black_cross(without_color)4,1396700,,,,green,,,null,object_12b.png,object_14b.png,,,,,,,,,,,,,,,,,
null,,rt_plussign_withcolor4,1397209,,,,green,,,null,object_12b.png,object_14b.png,,,,,,,,,,,,,,,,,
1343.1000000014901,,rt_thecrossant_black4,1398687,,,,black_plus_sign,,,50,,,1,,,,,,,1,,,,,,,,,
null,,color_black4,1398791,,,,black_plus_sign,,,null,,,,,,,,,,,,,,,,,,,
null,,learn_phase(without_color)4,1402296,,,,black_plus_sign,,,null,object_10b.png,object_14c.png,,,,,,,,,,,,,,,,,
null,,black_cross(without_color)4,1403118,,,,blue,,,null,object_10b.png,object_14c.png,,,,,,,,,,,,,,,,,
null,,rt_plussign_withcolor4,1403630,,,,blue,,,null,object_10b.png,object_14c.png,,,,,,,,,,,,,,,,,
894.8000000044703,,rt_thecrossant_black4,1404816,,,,black_plus_sign,,,49,,,1,,,,,,,1,,,,,,,,,
null,,color_black4,1404932,,,,black_plus_sign,,,null,,,,,,,,,,,,,,,,,,,
null,,learn_phase(without_color)4,1408433,,,,black_plus_sign,,,null,object_11a.png,object_03a.png,,,,,,,,,,,,,,,,,
null,,black_cross(without_color)4,1409336,,,,blue,,,null,object_11a.png,object_03a.png,,,,,,,,,,,,,,,,,
null,,rt_plussign_withcolor4,1409839,,,,blue,,,null,object_11a.png,object_03a.png,,,,,,,,,,,,,,,,,
1040.9000000059605,,rt_thecrossant_black4,1410941,,,,black_plus_sign,,,49,,,1,,,,,,,1,,,,,,,,,
null,,color_black4,1411044,,,,black_plus_sign,,,null,,,,,,,,,,,,,,,,,,,
null,,learn_phase(without_color)4,1414548,,,,black_plus_sign,,,null,object_08c.png,object_01b.png,,,,,,,,,,,,,,,,,
null,,black_cross(without_color)4,1415480,,,,blue,,,null,object_08c.png,object_01b.png,,,,,,,,,,,,,,,,,
null,,rt_plussign_withcolor4,1415982,,,,blue,,,null,object_08c.png,object_01b.png,,,,,,,,,,,,,,,,,
1078.7999999970198,,rt_thecrossant_black4,1417060,,,,black_plus_sign,,,49,,,1,,,,,,,1,,,,,,,,,
null,,color_black4,1417166,,,,black_plus_sign,,,null,,,,,,,,,,,,,,,,,,,
null,,learn_phase(without_color)4,1420670,,,,black_plus_sign,,,null,object_07b.png,object_04a.png,,,,,,,,,,,,,,,,,
null,,black_cross(without_color)4,1421201,,,,blue,,,null,object_07b.png,object_04a.png,,,,,,,,,,,,,,,,,
null,,rt_plussign_withcolor4,1421703,,,,blue,,,null,object_07b.png,object_04a.png,,,,,,,,,,,,,,,,,
1326.8000000044703,,rt_thecrossant_black4,1423180,,,,black_plus_sign,,,49,,,1,,,,,,,1,,,,,,,,,
null,,color_black4,1423296,,,,black_plus_sign,,,null,,,,,,,,,,,,,,,,,,,
null,,learn_phase(without_color)4,1426800,,,,black_plus_sign,,,null,object_01b.png,object_11c.png,,,,,,,,,,,,,,,,,
null,,black_cross(without_color)4,1427355,,,,green,,,null,object_01b.png,object_11c.png,,,,,,,,,,,,,,,,,
null,,rt_plussign_withcolor4,1427858,,,,green,,,null,object_01b.png,object_11c.png,,,,,,,,,,,,,,,,,
933.5,,rt_thecrossant_black4,1429310,,,,black_plus_sign,,,50,,,1,,,,,,,1,,,,,,,,,
null,,color_black4,1429414,,,,black_plus_sign,,,null,,,,,,,,,,,,,,,,,,,
null,,learn_phase(without_color)4,1432918,,,,black_plus_sign,,,null,object_04c.png,object_09a.png,,,,,,,,,,,,,,,,,
null,,black_cross(without_color)4,1433824,,,,blue,,,null,object_04c.png,object_09a.png,,,,,,,,,,,,,,,,,
null,,rt_plussign_withcolor4,1434326,,,,blue,,,null,object_04c.png,object_09a.png,,,,,,,,,,,,,,,,,
792.2999999970198,,rt_thecrossant_black4,1435427,,,,black_plus_sign,,,49,,,1,,,,,,,1,,,,,,,,,
null,,color_black4,1435530,,,,black_plus_sign,,,null,,,,,,,,,,,,,,,,,,,
null,,learn_phase(without_color)4,1439036,,,,black_plus_sign,,,null,object_01a.png,object_07c.png,,,,,,,,,,,,,,,,,
null,,black_cross(without_color)4,1439670,,,,green,,,null,object_01a.png,object_07c.png,,,,,,,,,,,,,,,,,
null,,rt_plussign_withcolor4,1440173,,,,green,,,null,object_01a.png,object_07c.png,,,,,,,,,,,,,,,,,
1170.9000000059605,,rt_thecrossant_black4,1441552,,,,black_plus_sign,,,50,,,1,,,,,,,1,,,,,,,,,
null,,color_black4,1441655,,,,black_plus_sign,,,null,,,,,,,,,,,,,,,,,,,
null,,learn_phase(without_color)4,1445158,,,,black_plus_sign,,,null,object_02b.png,object_03b.png,,,,,,,,,,,,,,,,,
null,,black_cross(without_color)4,1446166,,,,green,,,null,object_02b.png,object_03b.png,,,,,,,,,,,,,,,,,
null,,rt_plussign_withcolor4,1446673,,,,green,,,null,object_02b.png,object_03b.png,,,,,,,,,,,,,,,,,
1351.2999999970198,,rt_thecrossant_black4,1447671,,,,black_plus_sign,,,50,,,1,,,,,,,1,,,,,,,,,
null,,color_black4,1447776,,,,black_plus_sign,,,null,,,,,,,,,,,,,,,,,,,
null,,learn_phase(without_color)4,1451280,,,,black_plus_sign,,,null,object_03c.png,object_13c.png,,,,,,,,,,,,,,,,,
null,,black_cross(without_color)4,1451991,,,,green,,,null,object_03c.png,object_13c.png,,,,,,,,,,,,,,,,,
null,,rt_plussign_withcolor4,1452494,,,,green,,,null,object_03c.png,object_13c.png,,,,,,,,,,,,,,,,,
1406.1999999955297,,rt_thecrossant_black4,1453790,,,,black_plus_sign,,,50,,,1,,,,,,,1,,,,,,,,,
null,,color_black4,1453905,,,,black_plus_sign,,,null,,,,,,,,,,,,,,,,,,,
null,,learn_phase(without_color)4,1457407,,,,black_plus_sign,,,null,object_06b.png,object_15b.png,,,,,,,,,,,,,,,,,
null,,black_cross(without_color)4,1457981,,,,blue,,,null,object_06b.png,object_15b.png,,,,,,,,,,,,,,,,,
null,,rt_plussign_withcolor4,1458483,,,,blue,,,null,object_06b.png,object_15b.png,,,,,,,,,,,,,,,,,
862.6000000014901,,rt_thecrossant_black4,1459916,,,,black_plus_sign,,,49,,,1,,,,,,,1,,,,,,,,,
null,,color_black4,1460018,,,,black_plus_sign,,,null,,,,,,,,,,,,,,,,,,,
null,,learn_phase(without_color)4,1463538,,,,black_plus_sign,,,null,object_06b.png,object_08a.png,,,,,,,,,,,,,,,,,
null,,black_cross(without_color)4,1464307,,,,green,,,null,object_06b.png,object_08a.png,,,,,,,,,,,,,,,,,
null,,rt_plussign_withcolor4,1464809,,,,green,,,null,object_06b.png,object_08a.png,,,,,,,,,,,,,,,,,
994.1000000014901,,rt_thecrossant_black4,1466047,,,,black_plus_sign,,,50,,,1,,,,,,,1,,,,,,,,,
null,,color_black4,1466151,,,,black_plus_sign,,,null,,,,,,,,,,,,,,,,,,,
null,,learn_phase(without_color)4,1469655,,,,black_plus_sign,,,null,object_04c.png,object_13a.png,,,,,,,,,,,,,,,,,
null,,black_cross(without_color)4,1470484,,,,green,,,null,object_04c.png,object_13a.png,,,,,,,,,,,,,,,,,
null,,rt_plussign_withcolor4,1470988,,,,green,,,null,object_04c.png,object_13a.png,,,,,,,,,,,,,,,,,
1179.7999999970198,,rt_thecrossant_black4,1472163,,,,black_plus_sign,,,50,,,1,,,,,,,1,,,,,,,,,
null,,color_black4,1472266,,,,black_plus_sign,,,null,,,,,,,,,,,,,,,,,,,
null,,learn_phase(without_color)4,1475769,,,,black_plus_sign,,,null,object_01c.png,object_14a.png,,,,,,,,,,,,,,,,,
null,,black_cross(without_color)4,1476232,,,,green,,,null,object_01c.png,object_14a.png,,,,,,,,,,,,,,,,,
null,,rt_plussign_withcolor4,1476734,,,,green,,,null,object_01c.png,object_14a.png,,,,,,,,,,,,,,,,,
1256.7999999970198,,rt_thecrossant_black4,1478279,,,,black_plus_sign,,,50,,,1,,,,,,,1,,,,,,,,,
null,,color_black4,1478388,,,,black_plus_sign,,,null,,,,,,,,,,,,,,,,,,,
null,,learn_phase(without_color)4,1481892,,,,black_plus_sign,,,null,object_12a.png,object_08b.png,,,,,,,,,,,,,,,,,
null,,black_cross(without_color)4,1482817,,,,blue,,,null,object_12a.png,object_08b.png,,,,,,,,,,,,,,,,,
null,,rt_plussign_withcolor4,1483319,,,,blue,,,null,object_12a.png,object_08b.png,,,,,,,,,,,,,,,,,
853.1000000014901,,rt_thecrossant_black4,1484401,,,,black_plus_sign,,,49,,,1,,,,,,,1,,,,,,,,,
null,,color_black4,1484504,,,,black_plus_sign,,,null,,,,,,,,,,,,,,,,,,,
null,,thebreak,1484609,,,,<p></p>,,,null,,,,,,,,,,,,,,,,,,,
2171.2000000029802,,intro_0,1486783,,,,instruct,,,32,,,,,,,,,,,,,,,,,,,
6562.79999999702,,directmemory_phase4,1493347,,,,object_01b.png,,,51,,,1,,object_08a.png,object_09b.png,object_08c.png,object_08c.png,,0.6923076923076923,1,,,,,,,,
4522,,directmemory_phase4,1497871,,,,object_13c.png,,,51,,,1,,object_06c.png,object_05a.png,object_03c.png,object_03c.png,,0.6956521739130435,1,,,,,,,,
2530.5,,directmemory_phase4,1500407,,,,object_10a.png,,,49,,,1,,object_09b.png,object_01a.png,object_09c.png,object_09b.png,,0.6989247311827957,1,,,,,,,,
2306.39999999851,,directmemory_phase4,1502715,,,,object_12a.png,,,50,,,1,,object_11c.png,object_08b.png,object_06b.png,object_08b.png,,0.7021276595744681,1,,,,,,,,
5935.29999999702,,directmemory_phase4,1508651,,,,object_05c.png,,,49,,,0,,object_04c.png,object_02c.png,object_05a.png,object_05a.png,,0.6947368421052632,0,,,,,,,,
3042.3000000044703,,directmemory_phase4,1511696,,,,object_15b.png,,,51,,,1,,object_01b.png,object_07c.png,object_06b.png,object_06b.png,,0.6979166666666666,1,,,,,,,,
1861.1000000014901,,directmemory_phase4,1513559,,,,object_04a.png,,,49,,,1,,object_07b.png,object_13b.png,object_04c.png,object_07b.png,,0.7010309278350515,1,,,,,,,,
4925.19999999553,,directmemory_phase4,1518487,,,,object_04b.png,,,50,,,1,,object_01c.png,object_12b.png,object_08b.png,object_12b.png,,0.7040816326530612,1,,,,,,,,
4459.60000000149,,directmemory_phase4,1522951,,,,object_12c.png,,,50,,,1,,object_15c.png,object_04a.png,object_14a.png,object_04a.png,,0.7070707070707071,1,,,,,,,,
7522.89999999851,,directmemory_phase4,1530479,,,,object_02b.png,,,49,,,0,,object_09a.png,object_03b.png,object_12b.png,object_03b.png,,0.7,0,,,,,,,,
4040.8000000044703,,directmemory_phase4,1534522,,,,object_06a.png,,,49,,,1,,object_13c.png,object_14a.png,object_15b.png,object_13c.png,,0.7029702970297029,1,,,,,,,,
4360.10000000149,,directmemory_phase4,1538887,,,,object_03b.png,,,50,,,1,,object_05a.png,object_06c.png,object_05c.png,object_06c.png,,0.7058823529411765,1,,,,,,,,
5893.89999999851,,directmemory_phase4,1544783,,,,object_02a.png,,,49,,,1,,object_03a.png,object_08b.png,object_01c.png,object_03a.png,,0.7087378640776699,1,,,,,,,,
5170.89999999851,,directmemory_phase4,1549956,,,,object_14c.png,,,51,,,1,,object_05b.png,object_03a.png,object_10b.png,object_10b.png,,0.7115384615384616,1,,,,,,,,
8448.90000000596,,directmemory_phase4,1558407,,,,object_09b.png,,,51,,,1,,object_07b.png,object_04c.png,object_05b.png,object_05b.png,,0.7142857142857143,1,,,,,,,,
1986.2000000029802,,directmemory_phase4,1560399,,,,object_08a.png,,,50,,,1,,object_13b.png,object_06b.png,object_03b.png,object_06b.png,,0.7169811320754716,1,,,,,,,,
2029.6999999955297,,directmemory_phase4,1562431,,,,object_09c.png,,,49,,,1,,object_14c.png,object_08b.png,object_12a.png,object_14c.png,,0.719626168224299,1,,,,,,,,
1981.1000000014901,,directmemory_phase4,1564415,,,,object_12b.png,,,51,,,1,,object_06c.png,object_05a.png,object_14b.png,object_14b.png,,0.7222222222222222,1,,,,,,,,
2387.6999999955297,,directmemory_phase4,1566807,,,,object_11c.png,,,50,,,1,,object_01c.png,object_01b.png,object_03b.png,object_01b.png,,0.7247706422018348,1,,,,,,,,
3571.1999999955297,,directmemory_phase4,1570384,,,,object_08b.png,,,49,,,1,,object_13b.png,object_10b.png,object_04c.png,object_13b.png,,0.7272727272727273,1,,,,,,,,
2620.89999999851,,directmemory_phase4,1573007,,,,object_10c.png,,,49,,,1,,object_11b.png,object_01b.png,object_02a.png,object_11b.png,,0.7297297297297297,1,,,,,,,,
5788.5,,directmemory_phase4,1578799,,,,object_11b.png,,,51,,,1,,object_10b.png,object_14a.png,object_15a.png,object_15a.png,,0.7321428571428571,1,,,,,,,,
4428.39999999851,,directmemory_phase4,1583231,,,,object_15c.png,,,50,,,1,,object_09c.png,object_05a.png,object_01a.png,object_05a.png,,0.7345132743362832,1,,,,,,,,
8059.39999999851,,directmemory_phase4,1591295,,,,object_09a.png,,,51,,,1,,object_03a.png,object_04b.png,object_04c.png,object_04c.png,,0.7368421052631579,1,,,,,,,,
6996.19999999553,,directmemory_phase4,1598296,,,,object_14a.png,,,50,,,1,,object_01a.png,object_07a.png,object_08c.png,object_07a.png,,0.7391304347826086,1,,,,,,,,
2410.10000000149,,directmemory_phase4,1600711,,,,object_02c.png,,,49,,,1,,object_01a.png,object_09b.png,object_10b.png,object_01a.png,,0.7413793103448276,1,,,,,,,,
1651.2000000029802,,directmemory_phase4,1602367,,,,object_01c.png,,,49,,,1,,object_14a.png,object_13c.png,object_02a.png,object_14a.png,,0.7435897435897436,1,,,,,,,,
4586.60000000149,,directmemory_phase4,1606956,,,,object_07c.png,,,50,,,1,,object_01c.png,object_01a.png,object_03b.png,object_01a.png,,0.7457627118644068,1,,,,,,,,
6433.5999999940395,,directmemory_phase4,1613391,,,,object_03a.png,,,51,,,1,,object_08c.png,object_03b.png,object_11a.png,object_11a.png,,0.7478991596638656,1,,,,,,,,
7980.89999999851,,directmemory_phase4,1621375,,,,object_13a.png,,,50,,,0,,object_04c.png,object_05a.png,object_07a.png,object_04c.png,,0.7416666666666667,0,,,,,,,,
null,,thebreak,1621480,,,,<p></p>,,,null,,,,,,,,,,,,,,,,,,,
3052.7999999970198,,intro_0,1624535,,,,instruct,,,32,,,,,,,,,,,,,,,,,,,
9670.5,,intro_1,1634207,,,,instruct,,,32,,,,,,,,,,,,,,,,,,,
6142.5,,intro_2,1640351,,,,instruct,,,32,,,,,,,,,,,,,,,,,,,
,,intro_3,1662572,,,,instruct,,,,,,,,,,,,,,,,,,,,,,
6074.70000000298,,intro_4,1668648,,,,instruct,,,32,,,,,,,,,,,,,,,,,,,
6300.10000000149,,inference_phase,1674951,,,,object_13a.png,,,49,object_15b.png,object_09a.png,0,,,,,object_09a.png,,0,,object_09b.png,,,,,,,
9875.39999999851,,inference_phase,1684831,,,,object_15c.png,,,50,object_14a.png,object_05c.png,0,,,,,object_05c.png,,0,,object_08a.png,,,,,,,
7363.39999999851,,inference_phase,1692199,,,,object_10b.png,,,51,object_11c.png,object_09c.png,1,,,,,object_09c.png,,0.3333333333333333,,object_01b.png,,,,,,,
9115.60000000149,,inference_phase,1701319,,,,object_02b.png,,,51,object_06c.png,object_05b.png,0,,,,,object_06c.png,,0.25,,object_01b.png,,,,,,,
7954.9000000059605,,inference_phase,1709279,,,,object_06a.png,,,50,object_08b.png,object_03c.png,0,,,,,object_03c.png,,0.2,,object_11a.png,,,,,,,
7980,,inference_phase,1717263,,,,object_15b.png,,,49,object_12b.png,object_14b.png,0,,,,,object_08a.png,,0.16666666666666666,,object_08a.png,,,,,,,
6195,,inference_phase,1723463,,,,object_13b.png,,,50,object_15c.png,object_01b.png,1,,,,,object_12a.png,,0.2857142857142857,,object_12a.png,,,,,,,
8955.89999999851,,inference_phase,1732423,,,,object_08c.png,,,51,object_02a.png,object_01a.png,0,,,,,object_11c.png,,0.25,,object_11c.png,,,,,,,
5876,,inference_phase,1738303,,,,object_15a.png,,,50,object_12c.png,object_13c.png,1,,,,,object_10c.png,,0.3333333333333333,,object_10c.png,,,,,,,
14404.10000000149,,inference_phase,1752712,,,,object_11a.png,,,51,object_02a.png,object_04b.png,0,,,,,object_02a.png,,0.3,,object_14a.png,,,,,,,
8083.10000000149,,inference_phase,1760799,,,,object_07a.png,,,51,object_01c.png,object_10a.png,0,,,,,object_01c.png,,0.2727272727272727,,object_08b.png,,,,,,,
9715.70000000298,,inference_phase,1770519,,,,object_10a.png,,,49,object_05a.png,object_05b.png,0,,,,,object_05b.png,,0.25,,object_06c.png,,,,,,,
7507.30000000447,,inference_phase,1778031,,,,object_07c.png,,,51,object_08b.png,object_02c.png,1,,,,,object_02c.png,,0.3076923076923077,,object_06c.png,,,,,,,
9755.5,,inference_phase,1787791,,,,object_14b.png,,,50,object_15b.png,object_14a.png,1,,,,,object_04b.png,,0.35714285714285715,,object_04b.png,,,,,,,
5875,,inference_phase,1793671,,,,object_12c.png,,,49,object_03b.png,object_05c.png,0,,,,,object_07b.png,,0.3333333333333333,,object_07b.png,,,,,,,
,,survey,1916988,,,,survey-questions,,,,,,,,,,,,,,,,none,high,I did some work around the house BEFORE the test started, but once I hit START, I worked it straight through.,Try to make a short story that would pair items.,I seemed to learn one or two more each task, must be repetition.,No,It went smoothly
