rt,responses,trial_type,time_elapsed,identifier_a,identifier_b,identifier_c,stimulus,button_pressed,response,key_press,stimulus_left,stimulus_right,accuracy,practice_cumulative_accuracy,stimulus_down_left,stimulus_down_mid,stimulus_down_right,stimulus_correct,prac_weighted_accuracy,cumulative_accuracy,weighted_accuracy,stimulus_middle,problems,smooth,distraction,strategies,easier,similar,comments
10420.10000000894,{worker_id:6678c37722059e0a2e718dbb},id_enter,10423,object_05b.png; object_04b.png; object_04c.png; object_14c.png; object_06c.png; object_13a.png; object_02c.png; object_02b.png; object_08c.png; object_12a.png; object_09c.png; object_15a.png; object_13c.png; object_12c.png; object_04a.png,object_09a.png; object_11a.png; object_01c.png; object_05c.png; object_02a.png; object_06b.png; object_15b.png; object_05a.png; object_10c.png; object_11b.png; object_01b.png; object_03c.png; object_08b.png; object_15c.png; object_08a.png,object_12b.png; object_01a.png; object_10a.png; object_11c.png; object_03b.png; object_13b.png; object_03a.png; object_10b.png; object_07a.png; object_07c.png; object_06a.png; object_09b.png; object_07b.png; object_14a.png; object_14b.png,,,,,,,,,,,,,,,,,,,,,,,
24694.29999999702,,make_fullscreen,35121,,,,fullscreen,0,,,,,,,,,,,,,,,,,,,,,
8963.70000000298,,instruct_1,44088,,,,instruct,0,Next,,,,,,,,,,,,,,,,,,,,
25846.79999999702,,instruct_2,69936,,,,instruct,1,Next,,,,,,,,,,,,,,,,,,,,
40799,,instruct_3,110736,,,,instruct,1,Next,,,,,,,,,,,,,,,,,,,,
29815.89999999106,,instruct_4,140553,,,,instruct,1,Next,,,,,,,,,,,,,,,,,,,,
16278.70000000298,,instruct_5,156832,,,,instruct,1,Next,,,,,,,,,,,,,,,,,,,,
7886.800000011921,,instruct_6,164720,,,,instruct,1,Next,,,,,,,,,,,,,,,,,,,,
63231.5,,instruct_7,227953,,,,instruct,1,Next,,,,,,,,,,,,,,,,,,,,
null,,prac_atten_color_black,228880,,,,black_plus_sign,,,null,,,,,,,,,,,,,,,,,,,
null,,prac_atten_color,229357,,,,<p style='position:absolute;top: 50%;right: 50%;transform: translate(50%, -50%);font-size: 125px;color: blue;'>+</p>,,,null,,,,,,,,,,,,,,,,,,,
null,,prac_atten_color_black,231359,,,,black_plus_sign,,,null,,,,,,,,,,,,,,,,,,,
10700.70000000298,,attentioncheck_help,242061,,,,instruct,,,32,,,,,,,,,,,,,,,,,,,
null,,prac_atten_color_black,242987,,,,black_plus_sign,,,null,,,,,,,,,,,,,,,,,,,
null,,prac_atten_color,243692,,,,<p style='position:absolute;top: 50%;right: 50%;transform: translate(50%, -50%);font-size: 125px;color: green;'>+</p>,,,null,,,,,,,,,,,,,,,,,,,
866.5,,prac_atten_color_black,245694,,,,black_plus_sign,,,50,,,,,,,,,,,,,,,,,,,
null,,prac_atten_color_black,246393,,,,black_plus_sign,,,null,,,,,,,,,,,,,,,,,,,
null,,prac_atten_color,246822,,,,<p style='position:absolute;top: 50%;right: 50%;transform: translate(50%, -50%);font-size: 125px;color: green;'>+</p>,,,null,,,,,,,,,,,,,,,,,,,
null,,prac_atten_color_black,248825,,,,black_plus_sign,,,null,,,,,,,,,,,,,,,,,,,
4136.70000000298,,attentioncheck_help,252963,,,,instruct,,,32,,,,,,,,,,,,,,,,,,,
null,,prac_atten_color_black,253936,,,,black_plus_sign,,,null,,,,,,,,,,,,,,,,,,,
null,,prac_atten_color,254427,,,,<p style='position:absolute;top: 50%;right: 50%;transform: translate(50%, -50%);font-size: 125px;color: blue;'>+</p>,,,null,,,,,,,,,,,,,,,,,,,
497.09999999403954,,prac_atten_color_black,256429,,,,black_plus_sign,,,49,,,,,,,,,,,,,,,,,,,
null,,prac_atten_color_black,257342,,,,black_plus_sign,,,null,,,,,,,,,,,,,,,,,,,
null,,prac_atten_color,257767,,,,<p style='position:absolute;top: 50%;right: 50%;transform: translate(50%, -50%);font-size: 125px;color: green;'>+</p>,,,null,,,,,,,,,,,,,,,,,,,
448.20000000298023,,prac_atten_color_black,259769,,,,black_plus_sign,,,50,,,,,,,,,,,,,,,,,,,
null,,prac_atten_color_black,260749,,,,black_plus_sign,,,null,,,,,,,,,,,,,,,,,,,
914.4000000059605,,prac_atten_color,261714,,,,<p style='position:absolute;top: 50%;right: 50%;transform: translate(50%, -50%);font-size: 125px;color: green;'>+</p>,,,50,,,,,,,,,,,,,,,,,,,
null,,prac_atten_color_black,263716,,,,black_plus_sign,,,null,,,,,,,,,,,,,,,,,,,
null,,prac_atten_color_black,264154,,,,black_plus_sign,,,null,,,,,,,,,,,,,,,,,,,
769.8999999910593,,prac_atten_color,265158,,,,<p style='position:absolute;top: 50%;right: 50%;transform: translate(50%, -50%);font-size: 125px;color: blue;'>+</p>,,,49,,,,,,,,,,,,,,,,,,,
null,,prac_atten_color_black,267159,,,,black_plus_sign,,,null,,,,,,,,,,,,,,,,,,,
null,,prac_atten_color_black,267559,,,,black_plus_sign,,,null,,,,,,,,,,,,,,,,,,,
null,,prac_atten_color,268014,,,,<p style='position:absolute;top: 50%;right: 50%;transform: translate(50%, -50%);font-size: 125px;color: green;'>+</p>,,,null,,,,,,,,,,,,,,,,,,,
83.5,,prac_atten_color_black,270015,,,,black_plus_sign,,,50,,,,,,,,,,,,,,,,,,,
null,,prac_atten_color_black,270966,,,,black_plus_sign,,,null,,,,,,,,,,,,,,,,,,,
874,,prac_atten_color,271923,,,,<p style='position:absolute;top: 50%;right: 50%;transform: translate(50%, -50%);font-size: 125px;color: blue;'>+</p>,,,49,,,,,,,,,,,,,,,,,,,
null,,prac_atten_color_black,273925,,,,black_plus_sign,,,null,,,,,,,,,,,,,,,,,,,
null,,prac_atten_color_black,274372,,,,black_plus_sign,,,null,,,,,,,,,,,,,,,,,,,
null,,prac_atten_color,275031,,,,<p style='position:absolute;top: 50%;right: 50%;transform: translate(50%, -50%);font-size: 125px;color: blue;'>+</p>,,,null,,,,,,,,,,,,,,,,,,,
206.30000001192093,,prac_atten_color_black,277032,,,,black_plus_sign,,,49,,,,,,,,,,,,,,,,,,,
14998.5,,attentioncheck_feedback,292033,,,,cross_check_feedback,0,,,,,,,,,,,,,,,,,,,,,
19363.89999999106,,last_instruct,311397,,,,instruct,,,32,,,,,,,,,,,,,,,,,,,
null,,prac_learn_phase(without_color),314899,,,,black_plus_sign,,,null,object_13a.png,object_06b.png,,,,,,,,,,,,,,,,,
null,,prac_black_cross(without_color),315715,,,,green,,,null,object_13a.png,object_06b.png,,,,,,,,,,,,,,,,,
null,,prac_rt_plussign_withcolor,316217,,,,green,,,null,object_13a.png,object_06b.png,,,,,,,,,,,,,,,,,
1337.800000011921,,prac_rt_thecrossant_black,317407,,,,black_plus_sign,,,50,,,1,1,,,,,,,,,,,,,,,
null,,prac_color_black,317510,,,,black_plus_sign,,,null,,,,,,,,,,,,,,,,,,,
null,,prac_learn_phase(without_color),321012,,,,black_plus_sign,,,null,object_13b.png,object_06b.png,,,,,,,,,,,,,,,,,
null,,black_cross(without_color)1,321812,,,,blue,,,null,object_13a.png,object_06b.png,,,,,,,,,,,,,,,,,
null,,prac_rt_plussign_withcolor,322314,,,,green,,,null,object_13b.png,object_06b.png,,,,,,,,,,,,,,,,,
1496.5999999940395,,prac_rt_thecrossant_black,323815,,,,black_plus_sign,,,50,,,1,1,,,,,,,,,,,,,,,
null,,prac_color_black,323917,,,,black_plus_sign,,,null,,,,,,,,,,,,,,,,,,,
null,,prac_learn_phase(without_color),327420,,,,black_plus_sign,,,null,object_08c.png,object_10c.png,,,,,,,,,,,,,,,,,
null,,black_cross(without_color)1,328220,,,,blue,,,null,object_13a.png,object_06b.png,,,,,,,,,,,,,,,,,
null,,prac_rt_plussign_withcolor,328722,,,,blue,,,null,object_08c.png,object_10c.png,,,,,,,,,,,,,,,,,
706.5,,prac_rt_thecrossant_black,329954,,,,black_plus_sign,,,49,,,1,1,,,,,,,,,,,,,,,
null,,prac_color_black,330056,,,,black_plus_sign,,,null,,,,,,,,,,,,,,,,,,,
null,,prac_learn_phase(without_color),333559,,,,black_plus_sign,,,null,object_14a.png,object_15c.png,,,,,,,,,,,,,,,,,
null,,black_cross(without_color)1,334359,,,,blue,,,null,object_13a.png,object_06b.png,,,,,,,,,,,,,,,,,
null,,prac_rt_plussign_withcolor,334861,,,,green,,,null,object_14a.png,object_15c.png,,,,,,,,,,,,,,,,,
1023.7000000029802,,prac_rt_thecrossant_black,335822,,,,black_plus_sign,,,50,,,1,1,,,,,,,,,,,,,,,
null,,prac_color_black,335924,,,,black_plus_sign,,,null,,,,,,,,,,,,,,,,,,,
17699.09999999404,,instruct_dir_01,353625,,,,instruct,0,Next,,,,,,,,,,,,,,,,,,,,
19790.30000001192,,instruct_dir_2,373416,,,,instruct,1,Next,,,,,,,,,,,,,,,,,,,,
19471,,instruct_dir_3,392888,,,,instruct,0,Previous,,,,,,,,,,,,,,,,,,,,
11526.40000000596,,instruct_dir_2,404415,,,,instruct,1,Next,,,,,,,,,,,,,,,,,,,,
7687.600000008941,,instruct_dir_3,412104,,,,instruct,1,Next,,,,,,,,,,,,,,,,,,,,
20391.79999999702,,instruct_dir_4,432496,,,,instruct,1,Start,,,,,,,,,,,,,,,,,,,,
null,,thebreak,432597,,,,<p></p>,,,null,,,,,,,,,,,,,,,,,,,
4790.79999999702,,intro_0,437389,,,,instruct,,,32,,,,,,,,,,,,,,,,,,,
4055.5999999940395,,prac_directmemory_phase,441446,,,,practice/object_01a.png,,,49,,,1,,practice/object_01b.png,practice/object_03b.png,practice/object_03a.png,practice/object_01b.png,1,1,,,,,,,,,
11018.20000000298,,prac_directmemory_phase,452468,,,,practice/object_02a.png,,,49,,,0,,practice/object_01a.png,practice/object_02b.png,practice/object_04b.png,practice/object_02b.png,0,0.5,,,,,,,,,
3927,,prac_directmemory_phase,456396,,,,practice/object_03a.png,,,51,,,1,,practice/object_02b.png,practice/object_02a.png,practice/object_03b.png,practice/object_03b.png,1,0.6666666666666666,,,,,,,,,
5351.29999999702,,prac_directmemory_phase,461750,,,,practice/object_04a.png,,,50,,,1,,practice/object_03a.png,practice/object_04b.png,practice/object_01b.png,practice/object_04b.png,1,0.75,,,,,,,,,
13632.59999999404,,practice_feedback,475384,,,,practice_feedback,1,,,,,,,,,,,,,,,,,,,,,
29720,,proceed_actualTask,505105,,,,proceed_actualTask,1,Continue,,,,,,,,,,,,,,,,,,,,
25988.29999999702,,last_inst,531094,,,,last_inst,,,32,,,,,,,,,,,,,,,,,,,
null,,learn_phase(without_color)1,534597,,,,black_plus_sign,,,null,object_13a.png,object_06b.png,,,,,,,,,,,,,,,,,
null,,black_cross(without_color)1,535397,,,,blue,,,null,object_13a.png,object_06b.png,,,,,,,,,,,,,,,,,
null,,rt_plussign_withcolor1,535899,,,,blue,,,null,object_13a.png,object_06b.png,,,,,,,,,,,,,,,,,
1756.5,,rt_thecrossant_black1,537104,,,,black_plus_sign,,,49,,,1,,,,,,,1,,,,,,,,,
null,,color_black1,537206,,,,black_plus_sign,,,null,,,,,,,,,,,,,,,,,,,
null,,learn_phase(without_color)1,540708,,,,black_plus_sign,,,null,object_13b.png,object_06b.png,,,,,,,,,,,,,,,,,
null,,black_cross(without_color)1,541721,,,,green,,,null,object_13b.png,object_06b.png,,,,,,,,,,,,,,,,,
null,,rt_plussign_withcolor1,542222,,,,green,,,null,object_13b.png,object_06b.png,,,,,,,,,,,,,,,,,
804.9000000059605,,rt_thecrossant_black1,543215,,,,black_plus_sign,,,50,,,1,,,,,,,1,,,,,,,,,
null,,color_black1,543317,,,,black_plus_sign,,,null,,,,,,,,,,,,,,,,,,,
null,,learn_phase(without_color)1,546820,,,,black_plus_sign,,,null,object_08c.png,object_10c.png,,,,,,,,,,,,,,,,,
null,,black_cross(without_color)1,547860,,,,blue,,,null,object_08c.png,object_10c.png,,,,,,,,,,,,,,,,,
null,,rt_plussign_withcolor1,548362,,,,blue,,,null,object_08c.png,object_10c.png,,,,,,,,,,,,,,,,,
1454.699999988079,,rt_thecrossant_black1,549327,,,,black_plus_sign,,,49,,,1,,,,,,,1,,,,,,,,,
null,,color_black1,549429,,,,black_plus_sign,,,null,,,,,,,,,,,,,,,,,,,
null,,learn_phase(without_color)1,552932,,,,black_plus_sign,,,null,object_14a.png,object_15c.png,,,,,,,,,,,,,,,,,
null,,black_cross(without_color)1,554012,,,,green,,,null,object_14a.png,object_15c.png,,,,,,,,,,,,,,,,,
null,,rt_plussign_withcolor1,554514,,,,green,,,null,object_14a.png,object_15c.png,,,,,,,,,,,,,,,,,
1592,,rt_thecrossant_black1,555437,,,,black_plus_sign,,,50,,,1,,,,,,,1,,,,,,,,,
null,,color_black1,555540,,,,black_plus_sign,,,null,,,,,,,,,,,,,,,,,,,
null,,learn_phase(without_color)1,559042,,,,black_plus_sign,,,null,object_11c.png,object_05c.png,,,,,,,,,,,,,,,,,
null,,black_cross(without_color)1,559830,,,,blue,,,null,object_11c.png,object_05c.png,,,,,,,,,,,,,,,,,
null,,rt_plussign_withcolor1,560331,,,,blue,,,null,object_11c.png,object_05c.png,,,,,,,,,,,,,,,,,
null,,rt_thecrossant_black1,561549,,,,black_plus_sign,,,null,,,,,,,,,,1,,,,,,,,,
null,,color_black1,561651,,,,black_plus_sign,,,null,,,,,,,,,,,,,,,,,,,
null,,learn_phase(without_color)1,565153,,,,black_plus_sign,,,null,object_13c.png,object_08b.png,,,,,,,,,,,,,,,,,
null,,black_cross(without_color)1,566111,,,,blue,,,null,object_13c.png,object_08b.png,,,,,,,,,,,,,,,,,
null,,rt_plussign_withcolor1,566612,,,,blue,,,null,object_13c.png,object_08b.png,,,,,,,,,,,,,,,,,
1378.9000000059605,,rt_thecrossant_black1,567660,,,,black_plus_sign,,,49,,,1,,,,,,,1,,,,,,,,,
null,,color_black1,567762,,,,black_plus_sign,,,null,,,,,,,,,,,,,,,,,,,
null,,learn_phase(without_color)1,571264,,,,black_plus_sign,,,null,object_12b.png,object_09a.png,,,,,,,,,,,,,,,,,
null,,black_cross(without_color)1,571824,,,,green,,,null,object_12b.png,object_09a.png,,,,,,,,,,,,,,,,,
null,,rt_plussign_withcolor1,572326,,,,green,,,null,object_12b.png,object_09a.png,,,,,,,,,,,,,,,,,
1769.199999988079,,rt_thecrossant_black1,573773,,,,black_plus_sign,,,50,,,1,,,,,,,1,,,,,,,,,
null,,color_black1,573875,,,,black_plus_sign,,,null,,,,,,,,,,,,,,,,,,,
null,,learn_phase(without_color)1,577378,,,,black_plus_sign,,,null,object_08b.png,object_07b.png,,,,,,,,,,,,,,,,,
null,,black_cross(without_color)1,578332,,,,green,,,null,object_08b.png,object_07b.png,,,,,,,,,,,,,,,,,
null,,rt_plussign_withcolor1,578834,,,,green,,,null,object_08b.png,object_07b.png,,,,,,,,,,,,,,,,,
940.2999999970198,,rt_thecrossant_black1,579885,,,,black_plus_sign,,,50,,,1,,,,,,,1,,,,,,,,,
null,,color_black1,579988,,,,black_plus_sign,,,null,,,,,,,,,,,,,,,,,,,
null,,learn_phase(without_color)1,583491,,,,black_plus_sign,,,null,object_09a.png,object_05b.png,,,,,,,,,,,,,,,,,
null,,black_cross(without_color)1,584582,,,,green,,,null,object_09a.png,object_05b.png,,,,,,,,,,,,,,,,,
null,,rt_plussign_withcolor1,585084,,,,green,,,null,object_09a.png,object_05b.png,,,,,,,,,,,,,,,,,
1288.9000000059605,,rt_thecrossant_black1,585998,,,,black_plus_sign,,,50,,,1,,,,,,,1,,,,,,,,,
null,,color_black1,586101,,,,black_plus_sign,,,null,,,,,,,,,,,,,,,,,,,
null,,learn_phase(without_color)1,589603,,,,black_plus_sign,,,null,object_02c.png,object_15b.png,,,,,,,,,,,,,,,,,
null,,black_cross(without_color)1,590587,,,,green,,,null,object_02c.png,object_15b.png,,,,,,,,,,,,,,,,,
null,,rt_plussign_withcolor1,591089,,,,green,,,null,object_02c.png,object_15b.png,,,,,,,,,,,,,,,,,
1552.2000000029802,,rt_thecrossant_black1,592110,,,,black_plus_sign,,,50,,,1,,,,,,,1,,,,,,,,,
null,,color_black1,592212,,,,black_plus_sign,,,null,,,,,,,,,,,,,,,,,,,
null,,learn_phase(without_color)1,595715,,,,black_plus_sign,,,null,object_10c.png,object_07a.png,,,,,,,,,,,,,,,,,
null,,black_cross(without_color)1,596442,,,,green,,,null,object_10c.png,object_07a.png,,,,,,,,,,,,,,,,,
null,,rt_plussign_withcolor1,596944,,,,green,,,null,object_10c.png,object_07a.png,,,,,,,,,,,,,,,,,
1561.7000000029802,,rt_thecrossant_black1,598222,,,,black_plus_sign,,,50,,,1,,,,,,,1,,,,,,,,,
null,,color_black1,598325,,,,black_plus_sign,,,null,,,,,,,,,,,,,,,,,,,
null,,learn_phase(without_color)1,601827,,,,black_plus_sign,,,null,object_03c.png,object_09b.png,,,,,,,,,,,,,,,,,
null,,black_cross(without_color)1,602694,,,,blue,,,null,object_03c.png,object_09b.png,,,,,,,,,,,,,,,,,
null,,rt_plussign_withcolor1,603196,,,,blue,,,null,object_03c.png,object_09b.png,,,,,,,,,,,,,,,,,
966.7999999970198,,rt_thecrossant_black1,604333,,,,black_plus_sign,,,49,,,1,,,,,,,1,,,,,,,,,
null,,color_black1,604436,,,,black_plus_sign,,,null,,,,,,,,,,,,,,,,,,,
null,,learn_phase(without_color)1,607938,,,,black_plus_sign,,,null,object_02b.png,object_05a.png,,,,,,,,,,,,,,,,,
null,,black_cross(without_color)1,608928,,,,blue,,,null,object_02b.png,object_05a.png,,,,,,,,,,,,,,,,,
null,,rt_plussign_withcolor1,609431,,,,blue,,,null,object_02b.png,object_05a.png,,,,,,,,,,,,,,,,,
1745.800000011921,,rt_thecrossant_black1,610446,,,,black_plus_sign,,,49,,,1,,,,,,,1,,,,,,,,,
null,,color_black1,610548,,,,black_plus_sign,,,null,,,,,,,,,,,,,,,,,,,
null,,learn_phase(without_color)1,614051,,,,black_plus_sign,,,null,object_07c.png,object_11b.png,,,,,,,,,,,,,,,,,
null,,black_cross(without_color)1,614558,,,,blue,,,null,object_07c.png,object_11b.png,,,,,,,,,,,,,,,,,
null,,rt_plussign_withcolor1,615060,,,,blue,,,null,object_07c.png,object_11b.png,,,,,,,,,,,,,,,,,
1512.2999999970198,,rt_thecrossant_black1,616558,,,,black_plus_sign,,,49,,,1,,,,,,,1,,,,,,,,,
null,,color_black1,616660,,,,black_plus_sign,,,null,,,,,,,,,,,,,,,,,,,
null,,learn_phase(without_color)1,620162,,,,black_plus_sign,,,null,object_01b.png,object_09c.png,,,,,,,,,,,,,,,,,
null,,black_cross(without_color)1,621006,,,,blue,,,null,object_01b.png,object_09c.png,,,,,,,,,,,,,,,,,
null,,rt_plussign_withcolor1,621507,,,,blue,,,null,object_01b.png,object_09c.png,,,,,,,,,,,,,,,,,
1131.9000000059605,,rt_thecrossant_black1,622668,,,,black_plus_sign,,,49,,,1,,,,,,,1,,,,,,,,,
null,,color_black1,622771,,,,black_plus_sign,,,null,,,,,,,,,,,,,,,,,,,
null,,learn_phase(without_color)1,626274,,,,black_plus_sign,,,null,object_15c.png,object_12c.png,,,,,,,,,,,,,,,,,
null,,black_cross(without_color)1,626814,,,,blue,,,null,object_15c.png,object_12c.png,,,,,,,,,,,,,,,,,
null,,rt_plussign_withcolor1,627316,,,,blue,,,null,object_15c.png,object_12c.png,,,,,,,,,,,,,,,,,
1458.7000000029802,,rt_thecrossant_black1,628780,,,,black_plus_sign,,,49,,,1,,,,,,,1,,,,,,,,,
null,,color_black1,628883,,,,black_plus_sign,,,null,,,,,,,,,,,,,,,,,,,
null,,learn_phase(without_color)1,632386,,,,black_plus_sign,,,null,object_01b.png,object_06a.png,,,,,,,,,,,,,,,,,
null,,black_cross(without_color)1,633125,,,,green,,,null,object_01b.png,object_06a.png,,,,,,,,,,,,,,,,,
null,,rt_plussign_withcolor1,633626,,,,green,,,null,object_01b.png,object_06a.png,,,,,,,,,,,,,,,,,
1626.6000000089407,,rt_thecrossant_black1,634890,,,,black_plus_sign,,,50,,,1,,,,,,,1,,,,,,,,,
null,,color_black1,634992,,,,black_plus_sign,,,null,,,,,,,,,,,,,,,,,,,
null,,learn_phase(without_color)1,638495,,,,black_plus_sign,,,null,object_04a.png,object_08a.png,,,,,,,,,,,,,,,,,
null,,black_cross(without_color)1,639424,,,,green,,,null,object_04a.png,object_08a.png,,,,,,,,,,,,,,,,,
null,,rt_plussign_withcolor1,639925,,,,green,,,null,object_04a.png,object_08a.png,,,,,,,,,,,,,,,,,
1078.2000000029802,,rt_thecrossant_black1,641000,,,,black_plus_sign,,,50,,,1,,,,,,,1,,,,,,,,,
null,,color_black1,641102,,,,black_plus_sign,,,null,,,,,,,,,,,,,,,,,,,
null,,learn_phase(without_color)1,644605,,,,black_plus_sign,,,null,object_10b.png,object_05a.png,,,,,,,,,,,,,,,,,
null,,black_cross(without_color)1,645116,,,,green,,,null,object_10b.png,object_05a.png,,,,,,,,,,,,,,,,,
null,,rt_plussign_withcolor1,645618,,,,green,,,null,object_10b.png,object_05a.png,,,,,,,,,,,,,,,,,
1302.7999999970198,,rt_thecrossant_black1,647111,,,,black_plus_sign,,,50,,,1,,,,,,,1,,,,,,,,,
null,,color_black1,647213,,,,black_plus_sign,,,null,,,,,,,,,,,,,,,,,,,
null,,learn_phase(without_color)1,650715,,,,black_plus_sign,,,null,object_04b.png,object_11a.png,,,,,,,,,,,,,,,,,
null,,black_cross(without_color)1,651255,,,,blue,,,null,object_04b.png,object_11a.png,,,,,,,,,,,,,,,,,
null,,rt_plussign_withcolor1,651758,,,,blue,,,null,object_04b.png,object_11a.png,,,,,,,,,,,,,,,,,
null,,rt_thecrossant_black1,653222,,,,black_plus_sign,,,null,,,,,,,,,,1,,,,,,,,,
null,,color_black1,653324,,,,black_plus_sign,,,null,,,,,,,,,,,,,,,,,,,
null,,learn_phase(without_color)1,656827,,,,black_plus_sign,,,null,object_02a.png,object_03b.png,,,,,,,,,,,,,,,,,
null,,black_cross(without_color)1,657274,,,,blue,,,null,object_02a.png,object_03b.png,,,,,,,,,,,,,,,,,
null,,rt_plussign_withcolor1,657775,,,,blue,,,null,object_02a.png,object_03b.png,,,,,,,,,,,,,,,,,
null,,rt_thecrossant_black1,659332,,,,black_plus_sign,,,null,,,,,,,,,,1,,,,,,,,,
null,,warning_page,664335,,,,warning,,,null,,,,,,,,,,,,,,,,,,,
null,,color_black1,664445,,,,black_plus_sign,,,null,,,,,,,,,,,,,,,,,,,
null,,learn_phase(without_color)1,667947,,,,black_plus_sign,,,null,object_01a.png,object_11a.png,,,,,,,,,,,,,,,,,
null,,black_cross(without_color)1,668837,,,,blue,,,null,object_01a.png,object_11a.png,,,,,,,,,,,,,,,,,
null,,rt_plussign_withcolor1,669339,,,,blue,,,null,object_01a.png,object_11a.png,,,,,,,,,,,,,,,,,
884.7000000029802,,rt_thecrossant_black1,670454,,,,black_plus_sign,,,49,,,1,,,,,,,1,,,,,,,,,
null,,color_black1,670557,,,,black_plus_sign,,,null,,,,,,,,,,,,,,,,,,,
null,,learn_phase(without_color)1,674060,,,,black_plus_sign,,,null,object_14c.png,object_05c.png,,,,,,,,,,,,,,,,,
null,,black_cross(without_color)1,675009,,,,green,,,null,object_14c.png,object_05c.png,,,,,,,,,,,,,,,,,
null,,rt_plussign_withcolor1,675511,,,,green,,,null,object_14c.png,object_05c.png,,,,,,,,,,,,,,,,,
1238.8999999910593,,rt_thecrossant_black1,676566,,,,black_plus_sign,,,50,,,1,,,,,,,1,,,,,,,,,
null,,color_black1,676669,,,,black_plus_sign,,,null,,,,,,,,,,,,,,,,,,,
null,,learn_phase(without_color)1,680171,,,,black_plus_sign,,,null,object_04c.png,object_01c.png,,,,,,,,,,,,,,,,,
null,,black_cross(without_color)1,680754,,,,green,,,null,object_04c.png,object_01c.png,,,,,,,,,,,,,,,,,
null,,rt_plussign_withcolor1,681255,,,,green,,,null,object_04c.png,object_01c.png,,,,,,,,,,,,,,,,,
1478.6000000089407,,rt_thecrossant_black1,682677,,,,black_plus_sign,,,50,,,1,,,,,,,1,,,,,,,,,
null,,color_black1,682780,,,,black_plus_sign,,,null,,,,,,,,,,,,,,,,,,,
null,,learn_phase(without_color)1,686283,,,,black_plus_sign,,,null,object_12a.png,object_11b.png,,,,,,,,,,,,,,,,,
null,,black_cross(without_color)1,687359,,,,green,,,null,object_12a.png,object_11b.png,,,,,,,,,,,,,,,,,
null,,rt_plussign_withcolor1,687861,,,,green,,,null,object_12a.png,object_11b.png,,,,,,,,,,,,,,,,,
1030.7999999970198,,rt_thecrossant_black1,688788,,,,black_plus_sign,,,50,,,1,,,,,,,1,,,,,,,,,
null,,color_black1,688890,,,,black_plus_sign,,,null,,,,,,,,,,,,,,,,,,,
null,,learn_phase(without_color)1,692393,,,,black_plus_sign,,,null,object_03a.png,object_15b.png,,,,,,,,,,,,,,,,,
null,,black_cross(without_color)1,693337,,,,blue,,,null,object_03a.png,object_15b.png,,,,,,,,,,,,,,,,,
null,,rt_plussign_withcolor1,693839,,,,blue,,,null,object_03a.png,object_15b.png,,,,,,,,,,,,,,,,,
1291.800000011921,,rt_thecrossant_black1,694900,,,,black_plus_sign,,,49,,,1,,,,,,,1,,,,,,,,,
null,,color_black1,695002,,,,black_plus_sign,,,null,,,,,,,,,,,,,,,,,,,
null,,learn_phase(without_color)1,698505,,,,black_plus_sign,,,null,object_14b.png,object_08a.png,,,,,,,,,,,,,,,,,
null,,black_cross(without_color)1,698990,,,,green,,,null,object_14b.png,object_08a.png,,,,,,,,,,,,,,,,,
null,,rt_plussign_withcolor1,699492,,,,green,,,null,object_14b.png,object_08a.png,,,,,,,,,,,,,,,,,
1454.2000000029802,,rt_thecrossant_black1,701011,,,,black_plus_sign,,,50,,,1,,,,,,,1,,,,,,,,,
null,,color_black1,701113,,,,black_plus_sign,,,null,,,,,,,,,,,,,,,,,,,
null,,learn_phase(without_color)1,704616,,,,black_plus_sign,,,null,object_01c.png,object_10a.png,,,,,,,,,,,,,,,,,
null,,black_cross(without_color)1,705059,,,,green,,,null,object_01c.png,object_10a.png,,,,,,,,,,,,,,,,,
null,,rt_plussign_withcolor1,705560,,,,green,,,null,object_01c.png,object_10a.png,,,,,,,,,,,,,,,,,
1133.199999988079,,rt_thecrossant_black1,707122,,,,black_plus_sign,,,50,,,1,,,,,,,1,,,,,,,,,
null,,color_black1,707224,,,,black_plus_sign,,,null,,,,,,,,,,,,,,,,,,,
null,,learn_phase(without_color)1,710728,,,,black_plus_sign,,,null,object_03c.png,object_15a.png,,,,,,,,,,,,,,,,,
null,,black_cross(without_color)1,711808,,,,green,,,null,object_03c.png,object_15a.png,,,,,,,,,,,,,,,,,
null,,rt_plussign_withcolor1,712310,,,,green,,,null,object_03c.png,object_15a.png,,,,,,,,,,,,,,,,,
800.6000000089407,,rt_thecrossant_black1,713234,,,,black_plus_sign,,,50,,,1,,,,,,,1,,,,,,,,,
null,,color_black1,713337,,,,black_plus_sign,,,null,,,,,,,,,,,,,,,,,,,
null,,learn_phase(without_color)1,716840,,,,black_plus_sign,,,null,object_06c.png,object_02a.png,,,,,,,,,,,,,,,,,
null,,black_cross(without_color)1,717819,,,,green,,,null,object_06c.png,object_02a.png,,,,,,,,,,,,,,,,,
null,,rt_plussign_withcolor1,718321,,,,green,,,null,object_06c.png,object_02a.png,,,,,,,,,,,,,,,,,
1416.3999999910593,,rt_thecrossant_black1,719347,,,,black_plus_sign,,,50,,,1,,,,,,,1,,,,,,,,,
null,,color_black1,719449,,,,black_plus_sign,,,null,,,,,,,,,,,,,,,,,,,
null,,thebreak,719553,,,,<p></p>,,,null,,,,,,,,,,,,,,,,,,,
4820.399999991059,,intro_0,724374,,,,instruct,,,32,,,,,,,,,,,,,,,,,,,
9100.699999988079,,directmemory_phase1,733477,,,,object_06c.png,,,49,,,0,,object_10c.png,object_13a.png,object_02a.png,object_02a.png,,0,0,,,,,,,,
5642.4000000059605,,directmemory_phase1,739122,,,,object_06a.png,,,50,,,0,,object_01b.png,object_02a.png,object_07a.png,object_01b.png,,0,0,,,,,,,,
4626.399999991059,,directmemory_phase1,743750,,,,object_02c.png,,,50,,,1,,object_02b.png,object_15b.png,object_09a.png,object_15b.png,,0.3333333333333333,1,,,,,,,,
3403.2999999970198,,directmemory_phase1,747156,,,,object_09a.png,,,49,,,0,,object_03c.png,object_12b.png,object_11c.png,object_12b.png,,0.25,0,,,,,,,,
4909.199999988079,,directmemory_phase1,752067,,,,object_12c.png,,,49,,,0,,object_15b.png,object_09c.png,object_15c.png,object_15c.png,,0.2,0,,,,,,,,
3709.5,,directmemory_phase1,755779,,,,object_10c.png,,,51,,,0,,object_07a.png,object_07b.png,object_15b.png,object_07a.png,,0.16666666666666666,0,,,,,,,,
2568.2999999970198,,directmemory_phase1,758350,,,,object_15a.png,,,50,,,1,,object_02c.png,object_03c.png,object_08b.png,object_03c.png,,0.2857142857142857,1,,,,,,,,
3858.8999999910593,,directmemory_phase1,762211,,,,object_05b.png,,,51,,,1,,object_05a.png,object_13c.png,object_09a.png,object_09a.png,,0.375,1,,,,,,,,
2659.5,,directmemory_phase1,764874,,,,object_05a.png,,,50,,,1,,object_03c.png,object_10b.png,object_09b.png,object_10b.png,,0.4444444444444444,1,,,,,,,,
4356.29999999702,,directmemory_phase1,769232,,,,object_11b.png,,,50,,,0,,object_07a.png,object_02a.png,object_07c.png,object_07c.png,,0.4,0,,,,,,,,
3781.5,,directmemory_phase1,773016,,,,object_10a.png,,,49,,,1,,object_01c.png,object_11a.png,object_11c.png,object_01c.png,,0.45454545454545453,1,,,,,,,,
12523.70000000298,,directmemory_phase1,785543,,,,object_06b.png,,,49,,,0,,object_05a.png,object_13b.png,object_10b.png,object_13b.png,,0.4166666666666667,0,,,,,,,,
2150.9000000059605,,directmemory_phase1,787696,,,,object_08b.png,,,50,,,0,,object_07b.png,object_09b.png,object_06b.png,object_07b.png,,0.38461538461538464,0,,,,,,,,
2432.5999999940395,,directmemory_phase1,790131,,,,object_08a.png,,,50,,,0,,object_14b.png,object_10a.png,object_08b.png,object_14b.png,,0.35714285714285715,0,,,,,,,,
2500.8999999910593,,directmemory_phase1,792634,,,,object_11a.png,,,51,,,0,,object_01a.png,object_03a.png,object_15c.png,object_01a.png,,0.3333333333333333,0,,,,,,,,
4167.4000000059605,,directmemory_phase1,796804,,,,object_02b.png,,,50,,,1,,object_08c.png,object_05a.png,object_10c.png,object_05a.png,,0.375,1,,,,,,,,
3265,,directmemory_phase1,800071,,,,object_04c.png,,,50,,,1,,object_02b.png,object_01c.png,object_09a.png,object_01c.png,,0.4117647058823529,1,,,,,,,,
5890.600000008941,,directmemory_phase1,805964,,,,object_14c.png,,,49,,,0,,object_04b.png,object_05c.png,object_15c.png,object_05c.png,,0.3888888888888889,0,,,,,,,,
2425.5,,directmemory_phase1,808391,,,,object_12a.png,,,50,,,1,,object_13a.png,object_11b.png,object_11a.png,object_11b.png,,0.42105263157894735,1,,,,,,,,
2825.7999999970198,,directmemory_phase1,811219,,,,object_04b.png,,,51,,,1,,object_15c.png,object_02b.png,object_11a.png,object_11a.png,,0.45,1,,,,,,,,
2948.0999999940395,,directmemory_phase1,814169,,,,object_04a.png,,,51,,,0,,object_06c.png,object_08a.png,object_03c.png,object_08a.png,,0.42857142857142855,0,,,,,,,,
3592.699999988079,,directmemory_phase1,817764,,,,object_13c.png,,,50,,,0,,object_11b.png,object_12a.png,object_08b.png,object_08b.png,,0.4090909090909091,0,,,,,,,,
2356.5999999940395,,directmemory_phase1,820123,,,,object_14a.png,,,50,,,0,,object_09a.png,object_07c.png,object_15c.png,object_15c.png,,0.391304347826087,0,,,,,,,,
2737.5,,directmemory_phase1,822863,,,,object_05c.png,,,50,,,0,,object_10b.png,object_15c.png,object_11c.png,object_11c.png,,0.375,0,,,,,,,,
4559.300000011921,,directmemory_phase1,827425,,,,object_09c.png,,,50,,,0,,object_01b.png,object_01c.png,object_13c.png,object_01b.png,,0.36,0,,,,,,,,
2332.8999999910593,,directmemory_phase1,829760,,,,object_09b.png,,,50,,,0,,object_03c.png,object_09a.png,object_10b.png,object_03c.png,,0.34615384615384615,0,,,,,,,,
2651.5999999940395,,directmemory_phase1,832413,,,,object_15b.png,,,49,,,0,,object_06b.png,object_03a.png,object_07c.png,object_03a.png,,0.3333333333333333,0,,,,,,,,
3970.0999999940395,,directmemory_phase1,836386,,,,object_02a.png,,,50,,,0,,object_12b.png,object_06b.png,object_03b.png,object_03b.png,,0.32142857142857145,0,,,,,,,,
3477.2999999970198,,directmemory_phase1,839865,,,,object_08c.png,,,51,,,0,,object_09c.png,object_10c.png,object_08b.png,object_10c.png,,0.3103448275862069,0,,,,,,,,
2687.4000000059605,,directmemory_phase1,842554,,,,object_13a.png,,,50,,,0,,object_15c.png,object_02c.png,object_06b.png,object_06b.png,,0.3,0,,,,,,,,
null,,thebreak,842657,,,,<p></p>,,,null,,,,,,,,,,,,,,,,,,,
2270.4000000059605,,intro_0,844929,,,,instruct,,,32,,,,,,,,,,,,,,,,,,,
null,,learn_phase(without_color)2,848432,,,,black_plus_sign,,,null,object_15b.png,object_03a.png,,,,,,,,,,,,,,,,,
null,,black_cross(without_color)2,848909,,,,green,,,null,object_15b.png,object_03a.png,,,,,,,,,,,,,,,,,
null,,rt_plussign_withcolor2,849410,,,,green,,,null,object_15b.png,object_03a.png,,,,,,,,,,,,,,,,,
1219.7000000029802,,rt_thecrossant_black2,850938,,,,black_plus_sign,,,50,,,1,,,,,,,1,,,,,,,,,
null,,color_black2,851040,,,,black_plus_sign,,,null,,,,,,,,,,,,,,,,,,,
null,,learn_phase(without_color)2,854542,,,,black_plus_sign,,,null,object_01c.png,object_10a.png,,,,,,,,,,,,,,,,,
null,,black_cross(without_color)2,855479,,,,blue,,,null,object_01c.png,object_10a.png,,,,,,,,,,,,,,,,,
null,,rt_plussign_withcolor2,855981,,,,blue,,,null,object_01c.png,object_10a.png,,,,,,,,,,,,,,,,,
849.6000000089407,,rt_thecrossant_black2,857049,,,,black_plus_sign,,,49,,,1,,,,,,,1,,,,,,,,,
null,,color_black2,857151,,,,black_plus_sign,,,null,,,,,,,,,,,,,,,,,,,
null,,learn_phase(without_color)2,860653,,,,black_plus_sign,,,null,object_05c.png,object_11c.png,,,,,,,,,,,,,,,,,
null,,black_cross(without_color)2,861078,,,,green,,,null,object_05c.png,object_11c.png,,,,,,,,,,,,,,,,,
null,,rt_plussign_withcolor2,861580,,,,green,,,null,object_05c.png,object_11c.png,,,,,,,,,,,,,,,,,
1261.3999999910593,,rt_thecrossant_black2,863160,,,,black_plus_sign,,,50,,,1,,,,,,,1,,,,,,,,,
null,,color_black2,863262,,,,black_plus_sign,,,null,,,,,,,,,,,,,,,,,,,
null,,learn_phase(without_color)2,866764,,,,black_plus_sign,,,null,object_05a.png,object_02b.png,,,,,,,,,,,,,,,,,
null,,black_cross(without_color)2,867621,,,,green,,,null,object_05a.png,object_02b.png,,,,,,,,,,,,,,,,,
null,,rt_plussign_withcolor2,868122,,,,green,,,null,object_05a.png,object_02b.png,,,,,,,,,,,,,,,,,
859.2999999970198,,rt_thecrossant_black2,869271,,,,black_plus_sign,,,50,,,1,,,,,,,1,,,,,,,,,
null,,color_black2,869373,,,,black_plus_sign,,,null,,,,,,,,,,,,,,,,,,,
null,,learn_phase(without_color)2,872876,,,,black_plus_sign,,,null,object_09a.png,object_05b.png,,,,,,,,,,,,,,,,,
null,,black_cross(without_color)2,873838,,,,green,,,null,object_09a.png,object_05b.png,,,,,,,,,,,,,,,,,
null,,rt_plussign_withcolor2,874340,,,,green,,,null,object_09a.png,object_05b.png,,,,,,,,,,,,,,,,,
1056.2000000029802,,rt_thecrossant_black2,875382,,,,black_plus_sign,,,50,,,1,,,,,,,1,,,,,,,,,
null,,color_black2,875485,,,,black_plus_sign,,,null,,,,,,,,,,,,,,,,,,,
null,,learn_phase(without_color)2,878987,,,,black_plus_sign,,,null,object_02c.png,object_15b.png,,,,,,,,,,,,,,,,,
null,,black_cross(without_color)2,879911,,,,green,,,null,object_02c.png,object_15b.png,,,,,,,,,,,,,,,,,
null,,rt_plussign_withcolor2,880412,,,,green,,,null,object_02c.png,object_15b.png,,,,,,,,,,,,,,,,,
1255.9000000059605,,rt_thecrossant_black2,881493,,,,black_plus_sign,,,50,,,1,,,,,,,1,,,,,,,,,
null,,color_black2,881594,,,,black_plus_sign,,,null,,,,,,,,,,,,,,,,,,,
null,,learn_phase(without_color)2,885097,,,,black_plus_sign,,,null,object_06b.png,object_13b.png,,,,,,,,,,,,,,,,,
null,,black_cross(without_color)2,885767,,,,green,,,null,object_06b.png,object_13b.png,,,,,,,,,,,,,,,,,
null,,rt_plussign_withcolor2,886268,,,,green,,,null,object_06b.png,object_13b.png,,,,,,,,,,,,,,,,,
1264.7000000029802,,rt_thecrossant_black2,887602,,,,black_plus_sign,,,50,,,1,,,,,,,1,,,,,,,,,
null,,color_black2,887705,,,,black_plus_sign,,,null,,,,,,,,,,,,,,,,,,,
null,,learn_phase(without_color)2,891207,,,,black_plus_sign,,,null,object_09a.png,object_12b.png,,,,,,,,,,,,,,,,,
null,,black_cross(without_color)2,892027,,,,blue,,,null,object_09a.png,object_12b.png,,,,,,,,,,,,,,,,,
null,,rt_plussign_withcolor2,892529,,,,blue,,,null,object_09a.png,object_12b.png,,,,,,,,,,,,,,,,,
1129.3999999910593,,rt_thecrossant_black2,893713,,,,black_plus_sign,,,49,,,1,,,,,,,1,,,,,,,,,
null,,color_black2,893814,,,,black_plus_sign,,,null,,,,,,,,,,,,,,,,,,,
null,,learn_phase(without_color)2,897317,,,,black_plus_sign,,,null,object_11a.png,object_01a.png,,,,,,,,,,,,,,,,,
null,,black_cross(without_color)2,898290,,,,green,,,null,object_11a.png,object_01a.png,,,,,,,,,,,,,,,,,
null,,rt_plussign_withcolor2,898791,,,,green,,,null,object_11a.png,object_01a.png,,,,,,,,,,,,,,,,,
1226.7000000029802,,rt_thecrossant_black2,899823,,,,black_plus_sign,,,50,,,1,,,,,,,1,,,,,,,,,
null,,color_black2,899926,,,,black_plus_sign,,,null,,,,,,,,,,,,,,,,,,,
null,,learn_phase(without_color)2,903428,,,,black_plus_sign,,,null,object_04c.png,object_01c.png,,,,,,,,,,,,,,,,,
null,,black_cross(without_color)2,904419,,,,green,,,null,object_04c.png,object_01c.png,,,,,,,,,,,,,,,,,
null,,rt_plussign_withcolor2,904921,,,,green,,,null,object_04c.png,object_01c.png,,,,,,,,,,,,,,,,,
1249,,rt_thecrossant_black2,905933,,,,black_plus_sign,,,50,,,1,,,,,,,1,,,,,,,,,
null,,color_black2,906035,,,,black_plus_sign,,,null,,,,,,,,,,,,,,,,,,,
null,,learn_phase(without_color)2,909537,,,,black_plus_sign,,,null,object_09c.png,object_01b.png,,,,,,,,,,,,,,,,,
null,,black_cross(without_color)2,910285,,,,blue,,,null,object_09c.png,object_01b.png,,,,,,,,,,,,,,,,,
null,,rt_plussign_withcolor2,910787,,,,blue,,,null,object_09c.png,object_01b.png,,,,,,,,,,,,,,,,,
1225.4000000059605,,rt_thecrossant_black2,912043,,,,black_plus_sign,,,49,,,1,,,,,,,1,,,,,,,,,
null,,color_black2,912145,,,,black_plus_sign,,,null,,,,,,,,,,,,,,,,,,,
null,,learn_phase(without_color)2,915648,,,,black_plus_sign,,,null,object_14a.png,object_15c.png,,,,,,,,,,,,,,,,,
null,,black_cross(without_color)2,916650,,,,blue,,,null,object_14a.png,object_15c.png,,,,,,,,,,,,,,,,,
null,,rt_plussign_withcolor2,917152,,,,blue,,,null,object_14a.png,object_15c.png,,,,,,,,,,,,,,,,,
973.2000000029802,,rt_thecrossant_black2,918154,,,,black_plus_sign,,,49,,,1,,,,,,,1,,,,,,,,,
null,,color_black2,918256,,,,black_plus_sign,,,null,,,,,,,,,,,,,,,,,,,
null,,learn_phase(without_color)2,921759,,,,black_plus_sign,,,null,object_03b.png,object_02a.png,,,,,,,,,,,,,,,,,
null,,black_cross(without_color)2,922489,,,,blue,,,null,object_03b.png,object_02a.png,,,,,,,,,,,,,,,,,
null,,rt_plussign_withcolor2,922991,,,,blue,,,null,object_03b.png,object_02a.png,,,,,,,,,,,,,,,,,
1487.4000000059605,,rt_thecrossant_black2,924266,,,,black_plus_sign,,,49,,,1,,,,,,,1,,,,,,,,,
null,,color_black2,924368,,,,black_plus_sign,,,null,,,,,,,,,,,,,,,,,,,
null,,learn_phase(without_color)2,927870,,,,black_plus_sign,,,null,object_02a.png,object_06c.png,,,,,,,,,,,,,,,,,
null,,black_cross(without_color)2,928435,,,,green,,,null,object_02a.png,object_06c.png,,,,,,,,,,,,,,,,,
null,,rt_plussign_withcolor2,928937,,,,green,,,null,object_02a.png,object_06c.png,,,,,,,,,,,,,,,,,
1094,,rt_thecrossant_black2,930376,,,,black_plus_sign,,,49,,,0,,,,,,,0.9285714285714286,,,,,,,,,
null,,color_black2,930478,,,,black_plus_sign,,,null,,,,,,,,,,,,,,,,,,,
null,,learn_phase(without_color)2,933981,,,,black_plus_sign,,,null,object_07b.png,object_08b.png,,,,,,,,,,,,,,,,,
null,,black_cross(without_color)2,934742,,,,blue,,,null,object_07b.png,object_08b.png,,,,,,,,,,,,,,,,,
null,,rt_plussign_withcolor2,935244,,,,blue,,,null,object_07b.png,object_08b.png,,,,,,,,,,,,,,,,,
927.5999999940395,,rt_thecrossant_black2,936487,,,,black_plus_sign,,,49,,,1,,,,,,,0.9333333333333333,,,,,,,,,
null,,color_black2,936589,,,,black_plus_sign,,,null,,,,,,,,,,,,,,,,,,,
null,,learn_phase(without_color)2,940091,,,,black_plus_sign,,,null,object_05c.png,object_14c.png,,,,,,,,,,,,,,,,,
null,,black_cross(without_color)2,940500,,,,blue,,,null,object_05c.png,object_14c.png,,,,,,,,,,,,,,,,,
null,,rt_plussign_withcolor2,941002,,,,blue,,,null,object_05c.png,object_14c.png,,,,,,,,,,,,,,,,,
1279.6000000089407,,rt_thecrossant_black2,942597,,,,black_plus_sign,,,49,,,1,,,,,,,0.9375,,,,,,,,,
null,,color_black2,942699,,,,black_plus_sign,,,null,,,,,,,,,,,,,,,,,,,
null,,learn_phase(without_color)2,946203,,,,black_plus_sign,,,null,object_13a.png,object_06b.png,,,,,,,,,,,,,,,,,
null,,black_cross(without_color)2,947182,,,,green,,,null,object_13a.png,object_06b.png,,,,,,,,,,,,,,,,,
null,,rt_plussign_withcolor2,947684,,,,green,,,null,object_13a.png,object_06b.png,,,,,,,,,,,,,,,,,
550.7000000029802,,rt_thecrossant_black2,948709,,,,black_plus_sign,,,50,,,1,,,,,,,0.9411764705882353,,,,,,,,,
null,,color_black2,948811,,,,black_plus_sign,,,null,,,,,,,,,,,,,,,,,,,
null,,learn_phase(without_color)2,952314,,,,black_plus_sign,,,null,object_03c.png,object_09b.png,,,,,,,,,,,,,,,,,
null,,black_cross(without_color)2,952746,,,,green,,,null,object_03c.png,object_09b.png,,,,,,,,,,,,,,,,,
null,,rt_plussign_withcolor2,953248,,,,green,,,null,object_03c.png,object_09b.png,,,,,,,,,,,,,,,,,
1448.5999999940395,,rt_thecrossant_black2,954821,,,,black_plus_sign,,,50,,,1,,,,,,,0.9444444444444444,,,,,,,,,
null,,color_black2,954923,,,,black_plus_sign,,,null,,,,,,,,,,,,,,,,,,,
null,,learn_phase(without_color)2,958425,,,,black_plus_sign,,,null,object_12c.png,object_15c.png,,,,,,,,,,,,,,,,,
null,,black_cross(without_color)2,959367,,,,green,,,null,object_12c.png,object_15c.png,,,,,,,,,,,,,,,,,
null,,rt_plussign_withcolor2,959869,,,,green,,,null,object_12c.png,object_15c.png,,,,,,,,,,,,,,,,,
576.3999999910593,,rt_thecrossant_black2,960931,,,,black_plus_sign,,,50,,,1,,,,,,,0.9473684210526315,,,,,,,,,
null,,color_black2,961033,,,,black_plus_sign,,,null,,,,,,,,,,,,,,,,,,,
null,,learn_phase(without_color)2,964535,,,,black_plus_sign,,,null,object_14b.png,object_08a.png,,,,,,,,,,,,,,,,,
null,,black_cross(without_color)2,965527,,,,green,,,null,object_14b.png,object_08a.png,,,,,,,,,,,,,,,,,
null,,rt_plussign_withcolor2,966028,,,,green,,,null,object_14b.png,object_08a.png,,,,,,,,,,,,,,,,,
1416.2000000029802,,rt_thecrossant_black2,967042,,,,black_plus_sign,,,50,,,1,,,,,,,0.95,,,,,,,,,
null,,color_black2,967145,,,,black_plus_sign,,,null,,,,,,,,,,,,,,,,,,,
null,,learn_phase(without_color)2,970647,,,,black_plus_sign,,,null,object_15a.png,object_03c.png,,,,,,,,,,,,,,,,,
null,,black_cross(without_color)2,971701,,,,green,,,null,object_15a.png,object_03c.png,,,,,,,,,,,,,,,,,
null,,rt_plussign_withcolor2,972202,,,,green,,,null,object_15a.png,object_03c.png,,,,,,,,,,,,,,,,,
1584.4000000059605,,rt_thecrossant_black2,973152,,,,black_plus_sign,,,50,,,1,,,,,,,0.9523809523809523,,,,,,,,,
null,,color_black2,973255,,,,black_plus_sign,,,null,,,,,,,,,,,,,,,,,,,
null,,learn_phase(without_color)2,976757,,,,black_plus_sign,,,null,object_12a.png,object_11b.png,,,,,,,,,,,,,,,,,
null,,black_cross(without_color)2,977245,,,,blue,,,null,object_12a.png,object_11b.png,,,,,,,,,,,,,,,,,
null,,rt_plussign_withcolor2,977746,,,,blue,,,null,object_12a.png,object_11b.png,,,,,,,,,,,,,,,,,
1665.4000000059605,,rt_thecrossant_black2,979263,,,,black_plus_sign,,,49,,,1,,,,,,,0.9545454545454546,,,,,,,,,
null,,color_black2,979368,,,,black_plus_sign,,,null,,,,,,,,,,,,,,,,,,,
null,,learn_phase(without_color)2,982870,,,,black_plus_sign,,,null,object_08c.png,object_10c.png,,,,,,,,,,,,,,,,,
null,,black_cross(without_color)2,983921,,,,green,,,null,object_08c.png,object_10c.png,,,,,,,,,,,,,,,,,
null,,rt_plussign_withcolor2,984422,,,,green,,,null,object_08c.png,object_10c.png,,,,,,,,,,,,,,,,,
936.7000000029802,,rt_thecrossant_black2,985375,,,,black_plus_sign,,,50,,,1,,,,,,,0.9565217391304348,,,,,,,,,
null,,color_black2,985483,,,,black_plus_sign,,,null,,,,,,,,,,,,,,,,,,,
null,,learn_phase(without_color)2,988985,,,,black_plus_sign,,,null,object_05a.png,object_10b.png,,,,,,,,,,,,,,,,,
null,,black_cross(without_color)2,989471,,,,green,,,null,object_05a.png,object_10b.png,,,,,,,,,,,,,,,,,
null,,rt_plussign_withcolor2,989973,,,,green,,,null,object_05a.png,object_10b.png,,,,,,,,,,,,,,,,,
1488.7999999970198,,rt_thecrossant_black2,991492,,,,black_plus_sign,,,50,,,1,,,,,,,0.9583333333333334,,,,,,,,,
null,,color_black2,991595,,,,black_plus_sign,,,null,,,,,,,,,,,,,,,,,,,
null,,learn_phase(without_color)2,995097,,,,black_plus_sign,,,null,object_08a.png,object_04a.png,,,,,,,,,,,,,,,,,
null,,black_cross(without_color)2,995949,,,,blue,,,null,object_08a.png,object_04a.png,,,,,,,,,,,,,,,,,
null,,rt_plussign_withcolor2,996451,,,,blue,,,null,object_08a.png,object_04a.png,,,,,,,,,,,,,,,,,
1035.0999999940395,,rt_thecrossant_black2,997604,,,,black_plus_sign,,,49,,,1,,,,,,,0.96,,,,,,,,,
null,,color_black2,997706,,,,black_plus_sign,,,null,,,,,,,,,,,,,,,,,,,
null,,learn_phase(without_color)2,1001209,,,,black_plus_sign,,,null,object_10c.png,object_07a.png,,,,,,,,,,,,,,,,,
null,,black_cross(without_color)2,1002173,,,,green,,,null,object_10c.png,object_07a.png,,,,,,,,,,,,,,,,,
null,,rt_plussign_withcolor2,1002674,,,,green,,,null,object_10c.png,object_07a.png,,,,,,,,,,,,,,,,,
1739.5999999940395,,rt_thecrossant_black2,1003715,,,,black_plus_sign,,,50,,,1,,,,,,,0.9615384615384616,,,,,,,,,
null,,color_black2,1003818,,,,black_plus_sign,,,null,,,,,,,,,,,,,,,,,,,
null,,learn_phase(without_color)2,1007320,,,,black_plus_sign,,,null,object_01b.png,object_06a.png,,,,,,,,,,,,,,,,,
null,,black_cross(without_color)2,1008281,,,,blue,,,null,object_01b.png,object_06a.png,,,,,,,,,,,,,,,,,
null,,rt_plussign_withcolor2,1008782,,,,blue,,,null,object_01b.png,object_06a.png,,,,,,,,,,,,,,,,,
1500.5,,rt_thecrossant_black2,1009826,,,,black_plus_sign,,,49,,,1,,,,,,,0.9629629629629629,,,,,,,,,
null,,color_black2,1009929,,,,black_plus_sign,,,null,,,,,,,,,,,,,,,,,,,
null,,learn_phase(without_color)2,1013431,,,,black_plus_sign,,,null,object_11a.png,object_04b.png,,,,,,,,,,,,,,,,,
null,,black_cross(without_color)2,1014517,,,,green,,,null,object_11a.png,object_04b.png,,,,,,,,,,,,,,,,,
null,,rt_plussign_withcolor2,1015019,,,,green,,,null,object_11a.png,object_04b.png,,,,,,,,,,,,,,,,,
1327.5999999940395,,rt_thecrossant_black2,1015938,,,,black_plus_sign,,,50,,,1,,,,,,,0.9642857142857143,,,,,,,,,
null,,color_black2,1016040,,,,black_plus_sign,,,null,,,,,,,,,,,,,,,,,,,
null,,learn_phase(without_color)2,1019543,,,,black_plus_sign,,,null,object_08b.png,object_13c.png,,,,,,,,,,,,,,,,,
null,,black_cross(without_color)2,1020415,,,,green,,,null,object_08b.png,object_13c.png,,,,,,,,,,,,,,,,,
null,,rt_plussign_withcolor2,1020917,,,,green,,,null,object_08b.png,object_13c.png,,,,,,,,,,,,,,,,,
1511.2999999970198,,rt_thecrossant_black2,1022050,,,,black_plus_sign,,,50,,,1,,,,,,,0.9655172413793104,,,,,,,,,
null,,color_black2,1022154,,,,black_plus_sign,,,null,,,,,,,,,,,,,,,,,,,
null,,learn_phase(without_color)2,1025657,,,,black_plus_sign,,,null,object_11b.png,object_07c.png,,,,,,,,,,,,,,,,,
null,,black_cross(without_color)2,1026239,,,,blue,,,null,object_11b.png,object_07c.png,,,,,,,,,,,,,,,,,
null,,rt_plussign_withcolor2,1026742,,,,blue,,,null,object_11b.png,object_07c.png,,,,,,,,,,,,,,,,,
1713.7000000029802,,rt_thecrossant_black2,1028165,,,,black_plus_sign,,,49,,,1,,,,,,,0.9666666666666667,,,,,,,,,
null,,color_black2,1028266,,,,black_plus_sign,,,null,,,,,,,,,,,,,,,,,,,
null,,thebreak,1028371,,,,<p></p>,,,null,,,,,,,,,,,,,,,,,,,
2944.5,,intro_0,1031317,,,,instruct,,,32,,,,,,,,,,,,,,,,,,,
4970.20000000298,,directmemory_phase2,1036289,,,,object_01a.png,,,49,,,0,,object_07a.png,object_11a.png,object_15c.png,object_11a.png,,0.2903225806451613,0,,,,,,,,
4513,,directmemory_phase2,1040803,,,,object_12a.png,,,51,,,0,,object_11b.png,object_05c.png,object_04b.png,object_11b.png,,0.28125,0,,,,,,,,
3438.8999999910593,,directmemory_phase2,1044245,,,,object_15b.png,,,49,,,1,,object_03a.png,object_06a.png,object_11a.png,object_03a.png,,0.30303030303030304,1,,,,,,,,
2603.2999999970198,,directmemory_phase2,1046850,,,,object_06b.png,,,50,,,1,,object_15b.png,object_13b.png,object_14a.png,object_13b.png,,0.3235294117647059,1,,,,,,,,
2322.2999999970198,,directmemory_phase2,1049175,,,,object_12b.png,,,51,,,0,,object_07c.png,object_09a.png,object_03c.png,object_09a.png,,0.3142857142857143,0,,,,,,,,
2971.300000011921,,directmemory_phase2,1052149,,,,object_09c.png,,,51,,,0,,object_01b.png,object_09a.png,object_06c.png,object_01b.png,,0.3055555555555556,0,,,,,,,,
3546.5,,directmemory_phase2,1055698,,,,object_14c.png,,,49,,,0,,object_08c.png,object_05c.png,object_11b.png,object_05c.png,,0.2972972972972973,0,,,,,,,,
1314.2999999970198,,directmemory_phase2,1057015,,,,object_12c.png,,,50,,,1,,object_12a.png,object_15c.png,object_03c.png,object_15c.png,,0.3157894736842105,1,,,,,,,,
3134.9000000059605,,directmemory_phase2,1060152,,,,object_15c.png,,,50,,,0,,object_12b.png,object_10c.png,object_14a.png,object_14a.png,,0.3076923076923077,0,,,,,,,,
3265.6000000089407,,directmemory_phase2,1063421,,,,object_04b.png,,,50,,,1,,object_04c.png,object_11a.png,object_01b.png,object_11a.png,,0.325,1,,,,,,,,
3249.7999999970198,,directmemory_phase2,1066673,,,,object_08a.png,,,51,,,0,,object_14b.png,object_10b.png,object_05c.png,object_14b.png,,0.3170731707317073,0,,,,,,,,
2461.5,,directmemory_phase2,1069137,,,,object_07c.png,,,51,,,0,,object_11b.png,object_05a.png,object_10a.png,object_11b.png,,0.30952380952380953,0,,,,,,,,
2371.199999988079,,directmemory_phase2,1071511,,,,object_06a.png,,,50,,,1,,object_10b.png,object_01b.png,object_11b.png,object_01b.png,,0.32558139534883723,1,,,,,,,,
3329.6000000089407,,directmemory_phase2,1074843,,,,object_11c.png,,,49,,,1,,object_05c.png,object_11b.png,object_14a.png,object_05c.png,,0.3409090909090909,1,,,,,,,,
3694.699999988079,,directmemory_phase2,1078541,,,,object_10a.png,,,49,,,0,,object_03b.png,object_01c.png,object_10c.png,object_01c.png,,0.3333333333333333,0,,,,,,,,
4596.5,,directmemory_phase2,1083140,,,,object_04a.png,,,51,,,0,,object_12a.png,object_08a.png,object_15b.png,object_08a.png,,0.32608695652173914,0,,,,,,,,
2106.2000000029802,,directmemory_phase2,1085248,,,,object_07b.png,,,50,,,0,,object_11a.png,object_11c.png,object_08b.png,object_08b.png,,0.3191489361702128,0,,,,,,,,
3219.6000000089407,,directmemory_phase2,1088469,,,,object_15a.png,,,50,,,0,,object_02a.png,object_02b.png,object_03c.png,object_03c.png,,0.3125,0,,,,,,,,
2090.5999999940395,,directmemory_phase2,1090563,,,,object_02b.png,,,49,,,0,,object_05b.png,object_05a.png,object_10c.png,object_05a.png,,0.30612244897959184,0,,,,,,,,
2673.8999999910593,,directmemory_phase2,1093239,,,,object_06c.png,,,50,,,1,,object_02b.png,object_02a.png,object_05a.png,object_02a.png,,0.32,1,,,,,,,,
1838.9000000059605,,directmemory_phase2,1095080,,,,object_03b.png,,,51,,,1,,object_15c.png,object_07c.png,object_02a.png,object_02a.png,,0.3333333333333333,1,,,,,,,,
3423.2000000029802,,directmemory_phase2,1098506,,,,object_13c.png,,,49,,,0,,object_05b.png,object_08b.png,object_05a.png,object_08b.png,,0.3269230769230769,0,,,,,,,,
3296.0999999940395,,directmemory_phase2,1101805,,,,object_02c.png,,,51,,,1,,object_06b.png,object_13c.png,object_15b.png,object_15b.png,,0.33962264150943394,1,,,,,,,,
3594.7999999970198,,directmemory_phase2,1105402,,,,object_08c.png,,,51,,,0,,object_10c.png,object_09a.png,object_15a.png,object_10c.png,,0.3333333333333333,0,,,,,,,,
2371.1000000089407,,directmemory_phase2,1107776,,,,object_04c.png,,,50,,,1,,object_08c.png,object_01c.png,object_15c.png,object_01c.png,,0.34545454545454546,1,,,,,,,,
2042.2999999970198,,directmemory_phase2,1109819,,,,object_09b.png,,,50,,,1,,object_11c.png,object_03c.png,object_05a.png,object_03c.png,,0.35714285714285715,1,,,,,,,,
2716.5,,directmemory_phase2,1112539,,,,object_07a.png,,,51,,,1,,object_15b.png,object_12b.png,object_10c.png,object_10c.png,,0.3684210526315789,1,,,,,,,,
3040.3999999910593,,directmemory_phase2,1115582,,,,object_05a.png,,,50,,,0,,object_10b.png,object_12b.png,object_03c.png,object_10b.png,,0.3620689655172414,0,,,,,,,,
2906,,directmemory_phase2,1118490,,,,object_05b.png,,,50,,,1,,object_06c.png,object_09a.png,object_10c.png,object_09a.png,,0.3728813559322034,1,,,,,,,,
null,,directmemory_phase2,1133493,,,,object_13a.png,,,null,,,0,,object_11a.png,object_12c.png,object_06b.png,object_06b.png,,0.36666666666666664,0,,,,,,,,
null,,warning_page,1138496,,,,warning,,,null,,,,,,,,,,,,,,,,,,,
null,,thebreak,1138608,,,,<p></p>,,,null,,,,,,,,,,,,,,,,,,,
2147.7999999970198,,intro_0,1140757,,,,instruct,,,32,,,,,,,,,,,,,,,,,,,
null,,learn_phase(without_color)3,1144259,,,,black_plus_sign,,,null,object_10a.png,object_01c.png,,,,,,,,,,,,,,,,,
null,,black_cross(without_color)3,1144903,,,,blue,,,null,object_10a.png,object_01c.png,,,,,,,,,,,,,,,,,
null,,rt_plussign_withcolor3,1145405,,,,blue,,,null,object_10a.png,object_01c.png,,,,,,,,,,,,,,,,,
1161.3999999910593,,rt_thecrossant_black3,1146764,,,,black_plus_sign,,,49,,,1,,,,,,,1,,,,,,,,,
null,,color_black3,1146867,,,,black_plus_sign,,,null,,,,,,,,,,,,,,,,,,,
null,,learn_phase(without_color)3,1150369,,,,black_plus_sign,,,null,object_12b.png,object_09a.png,,,,,,,,,,,,,,,,,
null,,black_cross(without_color)3,1150956,,,,green,,,null,object_12b.png,object_09a.png,,,,,,,,,,,,,,,,,
null,,rt_plussign_withcolor3,1151458,,,,green,,,null,object_12b.png,object_09a.png,,,,,,,,,,,,,,,,,
1079.7000000029802,,rt_thecrossant_black3,1152875,,,,black_plus_sign,,,50,,,1,,,,,,,1,,,,,,,,,
null,,color_black3,1152977,,,,black_plus_sign,,,null,,,,,,,,,,,,,,,,,,,
null,,learn_phase(without_color)3,1156480,,,,black_plus_sign,,,null,object_05a.png,object_02b.png,,,,,,,,,,,,,,,,,
null,,black_cross(without_color)3,1157491,,,,blue,,,null,object_05a.png,object_02b.png,,,,,,,,,,,,,,,,,
null,,rt_plussign_withcolor3,1157992,,,,blue,,,null,object_05a.png,object_02b.png,,,,,,,,,,,,,,,,,
926.7999999970198,,rt_thecrossant_black3,1158986,,,,black_plus_sign,,,49,,,1,,,,,,,1,,,,,,,,,
null,,color_black3,1159089,,,,black_plus_sign,,,null,,,,,,,,,,,,,,,,,,,
null,,learn_phase(without_color)3,1162592,,,,black_plus_sign,,,null,object_08b.png,object_07b.png,,,,,,,,,,,,,,,,,
null,,black_cross(without_color)3,1163113,,,,blue,,,null,object_08b.png,object_07b.png,,,,,,,,,,,,,,,,,
null,,rt_plussign_withcolor3,1163614,,,,blue,,,null,object_08b.png,object_07b.png,,,,,,,,,,,,,,,,,
1608,,rt_thecrossant_black3,1165098,,,,black_plus_sign,,,49,,,1,,,,,,,1,,,,,,,,,
null,,color_black3,1165201,,,,black_plus_sign,,,null,,,,,,,,,,,,,,,,,,,
null,,learn_phase(without_color)3,1168704,,,,black_plus_sign,,,null,object_14c.png,object_05c.png,,,,,,,,,,,,,,,,,
null,,black_cross(without_color)3,1169569,,,,blue,,,null,object_14c.png,object_05c.png,,,,,,,,,,,,,,,,,
null,,rt_plussign_withcolor3,1170071,,,,blue,,,null,object_14c.png,object_05c.png,,,,,,,,,,,,,,,,,
878.4000000059605,,rt_thecrossant_black3,1171210,,,,black_plus_sign,,,49,,,1,,,,,,,1,,,,,,,,,
null,,color_black3,1171313,,,,black_plus_sign,,,null,,,,,,,,,,,,,,,,,,,
null,,learn_phase(without_color)3,1174816,,,,black_plus_sign,,,null,object_04b.png,object_11a.png,,,,,,,,,,,,,,,,,
null,,black_cross(without_color)3,1175568,,,,green,,,null,object_04b.png,object_11a.png,,,,,,,,,,,,,,,,,
null,,rt_plussign_withcolor3,1176072,,,,green,,,null,object_04b.png,object_11a.png,,,,,,,,,,,,,,,,,
1269,,rt_thecrossant_black3,1177325,,,,black_plus_sign,,,50,,,1,,,,,,,1,,,,,,,,,
null,,color_black3,1177427,,,,black_plus_sign,,,null,,,,,,,,,,,,,,,,,,,
null,,learn_phase(without_color)3,1180930,,,,black_plus_sign,,,null,object_10b.png,object_05a.png,,,,,,,,,,,,,,,,,
null,,black_cross(without_color)3,1181820,,,,green,,,null,object_10b.png,object_05a.png,,,,,,,,,,,,,,,,,
null,,rt_plussign_withcolor3,1182323,,,,green,,,null,object_10b.png,object_05a.png,,,,,,,,,,,,,,,,,
1556.2999999970198,,rt_thecrossant_black3,1183438,,,,black_plus_sign,,,50,,,1,,,,,,,1,,,,,,,,,
null,,color_black3,1183540,,,,black_plus_sign,,,null,,,,,,,,,,,,,,,,,,,
null,,learn_phase(without_color)3,1187043,,,,black_plus_sign,,,null,object_13b.png,object_06b.png,,,,,,,,,,,,,,,,,
null,,black_cross(without_color)3,1187653,,,,blue,,,null,object_13b.png,object_06b.png,,,,,,,,,,,,,,,,,
null,,rt_plussign_withcolor3,1188154,,,,blue,,,null,object_13b.png,object_06b.png,,,,,,,,,,,,,,,,,
1665.4000000059605,,rt_thecrossant_black3,1189549,,,,black_plus_sign,,,49,,,1,,,,,,,1,,,,,,,,,
null,,color_black3,1189651,,,,black_plus_sign,,,null,,,,,,,,,,,,,,,,,,,
null,,learn_phase(without_color)3,1193154,,,,black_plus_sign,,,null,object_15c.png,object_14a.png,,,,,,,,,,,,,,,,,
null,,black_cross(without_color)3,1193826,,,,green,,,null,object_15c.png,object_14a.png,,,,,,,,,,,,,,,,,
null,,rt_plussign_withcolor3,1194328,,,,green,,,null,object_15c.png,object_14a.png,,,,,,,,,,,,,,,,,
826.7000000029802,,rt_thecrossant_black3,1195662,,,,black_plus_sign,,,50,,,1,,,,,,,1,,,,,,,,,
null,,color_black3,1195765,,,,black_plus_sign,,,null,,,,,,,,,,,,,,,,,,,
null,,learn_phase(without_color)3,1199268,,,,black_plus_sign,,,null,object_02c.png,object_15b.png,,,,,,,,,,,,,,,,,
null,,black_cross(without_color)3,1199798,,,,green,,,null,object_02c.png,object_15b.png,,,,,,,,,,,,,,,,,
null,,rt_plussign_withcolor3,1200299,,,,green,,,null,object_02c.png,object_15b.png,,,,,,,,,,,,,,,,,
1034.4000000059605,,rt_thecrossant_black3,1201775,,,,black_plus_sign,,,50,,,1,,,,,,,1,,,,,,,,,
null,,color_black3,1201877,,,,black_plus_sign,,,null,,,,,,,,,,,,,,,,,,,
null,,learn_phase(without_color)3,1205381,,,,black_plus_sign,,,null,object_12a.png,object_11b.png,,,,,,,,,,,,,,,,,
null,,black_cross(without_color)3,1206061,,,,blue,,,null,object_12a.png,object_11b.png,,,,,,,,,,,,,,,,,
null,,rt_plussign_withcolor3,1206562,,,,blue,,,null,object_12a.png,object_11b.png,,,,,,,,,,,,,,,,,
678.3999999910593,,rt_thecrossant_black3,1207885,,,,black_plus_sign,,,49,,,1,,,,,,,1,,,,,,,,,
null,,color_black3,1207987,,,,black_plus_sign,,,null,,,,,,,,,,,,,,,,,,,
null,,learn_phase(without_color)3,1211490,,,,black_plus_sign,,,null,object_15c.png,object_12c.png,,,,,,,,,,,,,,,,,
null,,black_cross(without_color)3,1211922,,,,blue,,,null,object_15c.png,object_12c.png,,,,,,,,,,,,,,,,,
null,,rt_plussign_withcolor3,1212424,,,,blue,,,null,object_15c.png,object_12c.png,,,,,,,,,,,,,,,,,
1198.2999999970198,,rt_thecrossant_black3,1213996,,,,black_plus_sign,,,49,,,1,,,,,,,1,,,,,,,,,
null,,color_black3,1214098,,,,black_plus_sign,,,null,,,,,,,,,,,,,,,,,,,
null,,learn_phase(without_color)3,1217601,,,,black_plus_sign,,,null,object_11c.png,object_05c.png,,,,,,,,,,,,,,,,,
null,,black_cross(without_color)3,1218120,,,,green,,,null,object_11c.png,object_05c.png,,,,,,,,,,,,,,,,,
null,,rt_plussign_withcolor3,1218621,,,,green,,,null,object_11c.png,object_05c.png,,,,,,,,,,,,,,,,,
936.7000000029802,,rt_thecrossant_black3,1220109,,,,black_plus_sign,,,50,,,1,,,,,,,1,,,,,,,,,
null,,color_black3,1220211,,,,black_plus_sign,,,null,,,,,,,,,,,,,,,,,,,
null,,learn_phase(without_color)3,1223714,,,,black_plus_sign,,,null,object_14b.png,object_08a.png,,,,,,,,,,,,,,,,,
null,,black_cross(without_color)3,1224161,,,,green,,,null,object_14b.png,object_08a.png,,,,,,,,,,,,,,,,,
null,,rt_plussign_withcolor3,1224662,,,,green,,,null,object_14b.png,object_08a.png,,,,,,,,,,,,,,,,,
824.6000000089407,,rt_thecrossant_black3,1226220,,,,black_plus_sign,,,50,,,1,,,,,,,1,,,,,,,,,
null,,color_black3,1226322,,,,black_plus_sign,,,null,,,,,,,,,,,,,,,,,,,
null,,learn_phase(without_color)3,1229825,,,,black_plus_sign,,,null,object_09c.png,object_01b.png,,,,,,,,,,,,,,,,,
null,,black_cross(without_color)3,1230640,,,,green,,,null,object_09c.png,object_01b.png,,,,,,,,,,,,,,,,,
null,,rt_plussign_withcolor3,1231142,,,,green,,,null,object_09c.png,object_01b.png,,,,,,,,,,,,,,,,,
703,,rt_thecrossant_black3,1232332,,,,black_plus_sign,,,50,,,1,,,,,,,1,,,,,,,,,
null,,color_black3,1232435,,,,black_plus_sign,,,null,,,,,,,,,,,,,,,,,,,
null,,learn_phase(without_color)3,1235939,,,,black_plus_sign,,,null,object_01a.png,object_11a.png,,,,,,,,,,,,,,,,,
null,,black_cross(without_color)3,1236442,,,,green,,,null,object_01a.png,object_11a.png,,,,,,,,,,,,,,,,,
null,,rt_plussign_withcolor3,1236943,,,,green,,,null,object_01a.png,object_11a.png,,,,,,,,,,,,,,,,,
1115.300000011921,,rt_thecrossant_black3,1238444,,,,black_plus_sign,,,50,,,1,,,,,,,1,,,,,,,,,
null,,color_black3,1238546,,,,black_plus_sign,,,null,,,,,,,,,,,,,,,,,,,
null,,learn_phase(without_color)3,1242049,,,,black_plus_sign,,,null,object_10c.png,object_07a.png,,,,,,,,,,,,,,,,,
null,,black_cross(without_color)3,1242720,,,,blue,,,null,object_10c.png,object_07a.png,,,,,,,,,,,,,,,,,
null,,rt_plussign_withcolor3,1243222,,,,blue,,,null,object_10c.png,object_07a.png,,,,,,,,,,,,,,,,,
994.2000000029802,,rt_thecrossant_black3,1244557,,,,black_plus_sign,,,49,,,1,,,,,,,1,,,,,,,,,
null,,color_black3,1244659,,,,black_plus_sign,,,null,,,,,,,,,,,,,,,,,,,
null,,learn_phase(without_color)3,1248162,,,,black_plus_sign,,,null,object_09a.png,object_05b.png,,,,,,,,,,,,,,,,,
null,,black_cross(without_color)3,1249257,,,,blue,,,null,object_09a.png,object_05b.png,,,,,,,,,,,,,,,,,
null,,rt_plussign_withcolor3,1249759,,,,blue,,,null,object_09a.png,object_05b.png,,,,,,,,,,,,,,,,,
1129.7999999970198,,rt_thecrossant_black3,1250668,,,,black_plus_sign,,,49,,,1,,,,,,,1,,,,,,,,,
null,,color_black3,1250771,,,,black_plus_sign,,,null,,,,,,,,,,,,,,,,,,,
null,,learn_phase(without_color)3,1254274,,,,black_plus_sign,,,null,object_03b.png,object_02a.png,,,,,,,,,,,,,,,,,
null,,black_cross(without_color)3,1254765,,,,blue,,,null,object_03b.png,object_02a.png,,,,,,,,,,,,,,,,,
null,,rt_plussign_withcolor3,1255266,,,,blue,,,null,object_03b.png,object_02a.png,,,,,,,,,,,,,,,,,
2219.7999999970198,,rt_thecrossant_black3,1256781,,,,black_plus_sign,,,49,,,1,,,,,,,1,,,,,,,,,
null,,color_black3,1256883,,,,black_plus_sign,,,null,,,,,,,,,,,,,,,,,,,
null,,learn_phase(without_color)3,1260386,,,,black_plus_sign,,,null,object_03c.png,object_09b.png,,,,,,,,,,,,,,,,,
null,,black_cross(without_color)3,1261020,,,,green,,,null,object_03c.png,object_09b.png,,,,,,,,,,,,,,,,,
null,,rt_plussign_withcolor3,1261521,,,,green,,,null,object_03c.png,object_09b.png,,,,,,,,,,,,,,,,,
1482.6000000089407,,rt_thecrossant_black3,1262891,,,,black_plus_sign,,,50,,,1,,,,,,,1,,,,,,,,,
null,,color_black3,1262993,,,,black_plus_sign,,,null,,,,,,,,,,,,,,,,,,,
null,,learn_phase(without_color)3,1266495,,,,black_plus_sign,,,null,object_11b.png,object_07c.png,,,,,,,,,,,,,,,,,
null,,black_cross(without_color)3,1267570,,,,blue,,,null,object_11b.png,object_07c.png,,,,,,,,,,,,,,,,,
null,,rt_plussign_withcolor3,1268071,,,,blue,,,null,object_11b.png,object_07c.png,,,,,,,,,,,,,,,,,
1242,,rt_thecrossant_black3,1269001,,,,black_plus_sign,,,49,,,1,,,,,,,1,,,,,,,,,
null,,color_black3,1269103,,,,black_plus_sign,,,null,,,,,,,,,,,,,,,,,,,
null,,learn_phase(without_color)3,1272606,,,,black_plus_sign,,,null,object_03c.png,object_15a.png,,,,,,,,,,,,,,,,,
null,,black_cross(without_color)3,1273064,,,,green,,,null,object_03c.png,object_15a.png,,,,,,,,,,,,,,,,,
null,,rt_plussign_withcolor3,1273566,,,,green,,,null,object_03c.png,object_15a.png,,,,,,,,,,,,,,,,,
1997.5,,rt_thecrossant_black3,1275113,,,,black_plus_sign,,,50,,,1,,,,,,,1,,,,,,,,,
null,,color_black3,1275215,,,,black_plus_sign,,,null,,,,,,,,,,,,,,,,,,,
null,,learn_phase(without_color)3,1278718,,,,black_plus_sign,,,null,object_01c.png,object_04c.png,,,,,,,,,,,,,,,,,
null,,black_cross(without_color)3,1279385,,,,blue,,,null,object_01c.png,object_04c.png,,,,,,,,,,,,,,,,,
null,,rt_plussign_withcolor3,1279886,,,,blue,,,null,object_01c.png,object_04c.png,,,,,,,,,,,,,,,,,
1017.2000000029802,,rt_thecrossant_black3,1281224,,,,black_plus_sign,,,49,,,1,,,,,,,1,,,,,,,,,
null,,color_black3,1281327,,,,black_plus_sign,,,null,,,,,,,,,,,,,,,,,,,
null,,learn_phase(without_color)3,1284829,,,,black_plus_sign,,,null,object_13a.png,object_06b.png,,,,,,,,,,,,,,,,,
null,,black_cross(without_color)3,1285594,,,,green,,,null,object_13a.png,object_06b.png,,,,,,,,,,,,,,,,,
null,,rt_plussign_withcolor3,1286095,,,,green,,,null,object_13a.png,object_06b.png,,,,,,,,,,,,,,,,,
1541.7999999970198,,rt_thecrossant_black3,1287336,,,,black_plus_sign,,,50,,,1,,,,,,,1,,,,,,,,,
null,,color_black3,1287438,,,,black_plus_sign,,,null,,,,,,,,,,,,,,,,,,,
null,,learn_phase(without_color)3,1290941,,,,black_plus_sign,,,null,object_03a.png,object_15b.png,,,,,,,,,,,,,,,,,
null,,black_cross(without_color)3,1291544,,,,green,,,null,object_03a.png,object_15b.png,,,,,,,,,,,,,,,,,
null,,rt_plussign_withcolor3,1292046,,,,green,,,null,object_03a.png,object_15b.png,,,,,,,,,,,,,,,,,
1232.7000000029802,,rt_thecrossant_black3,1293448,,,,black_plus_sign,,,50,,,1,,,,,,,1,,,,,,,,,
null,,color_black3,1293552,,,,black_plus_sign,,,null,,,,,,,,,,,,,,,,,,,
null,,learn_phase(without_color)3,1297054,,,,black_plus_sign,,,null,object_01b.png,object_06a.png,,,,,,,,,,,,,,,,,
null,,black_cross(without_color)3,1297894,,,,green,,,null,object_01b.png,object_06a.png,,,,,,,,,,,,,,,,,
null,,rt_plussign_withcolor3,1298396,,,,green,,,null,object_01b.png,object_06a.png,,,,,,,,,,,,,,,,,
888.5999999940395,,rt_thecrossant_black3,1299562,,,,black_plus_sign,,,50,,,1,,,,,,,1,,,,,,,,,
null,,color_black3,1299664,,,,black_plus_sign,,,null,,,,,,,,,,,,,,,,,,,
null,,learn_phase(without_color)3,1303166,,,,black_plus_sign,,,null,object_08c.png,object_10c.png,,,,,,,,,,,,,,,,,
null,,black_cross(without_color)3,1304165,,,,blue,,,null,object_08c.png,object_10c.png,,,,,,,,,,,,,,,,,
null,,rt_plussign_withcolor3,1304667,,,,blue,,,null,object_08c.png,object_10c.png,,,,,,,,,,,,,,,,,
1043.300000011921,,rt_thecrossant_black3,1305673,,,,black_plus_sign,,,49,,,1,,,,,,,1,,,,,,,,,
null,,color_black3,1305776,,,,black_plus_sign,,,null,,,,,,,,,,,,,,,,,,,
null,,learn_phase(without_color)3,1309279,,,,black_plus_sign,,,null,object_13c.png,object_08b.png,,,,,,,,,,,,,,,,,
null,,black_cross(without_color)3,1310048,,,,green,,,null,object_13c.png,object_08b.png,,,,,,,,,,,,,,,,,
null,,rt_plussign_withcolor3,1310549,,,,green,,,null,object_13c.png,object_08b.png,,,,,,,,,,,,,,,,,
1856.3999999910593,,rt_thecrossant_black3,1311786,,,,black_plus_sign,,,50,,,1,,,,,,,1,,,,,,,,,
null,,color_black3,1311893,,,,black_plus_sign,,,null,,,,,,,,,,,,,,,,,,,
null,,learn_phase(without_color)3,1315395,,,,black_plus_sign,,,null,object_02a.png,object_06c.png,,,,,,,,,,,,,,,,,
null,,black_cross(without_color)3,1316069,,,,blue,,,null,object_02a.png,object_06c.png,,,,,,,,,,,,,,,,,
null,,rt_plussign_withcolor3,1316571,,,,blue,,,null,object_02a.png,object_06c.png,,,,,,,,,,,,,,,,,
1197.3999999910593,,rt_thecrossant_black3,1317903,,,,black_plus_sign,,,49,,,1,,,,,,,1,,,,,,,,,
null,,color_black3,1318005,,,,black_plus_sign,,,null,,,,,,,,,,,,,,,,,,,
null,,learn_phase(without_color)3,1321508,,,,black_plus_sign,,,null,object_04a.png,object_08a.png,,,,,,,,,,,,,,,,,
null,,black_cross(without_color)3,1322114,,,,green,,,null,object_04a.png,object_08a.png,,,,,,,,,,,,,,,,,
null,,rt_plussign_withcolor3,1322615,,,,green,,,null,object_04a.png,object_08a.png,,,,,,,,,,,,,,,,,
1379.199999988079,,rt_thecrossant_black3,1324014,,,,black_plus_sign,,,50,,,1,,,,,,,1,,,,,,,,,
null,,color_black3,1324117,,,,black_plus_sign,,,null,,,,,,,,,,,,,,,,,,,
null,,thebreak,1324220,,,,<p></p>,,,null,,,,,,,,,,,,,,,,,,,
32211.20000000298,,intro_0,1356433,,,,instruct,,,32,,,,,,,,,,,,,,,,,,,
2921.5,,directmemory_phase3,1359356,,,,object_15b.png,,,51,,,0,,object_09a.png,object_03a.png,object_07b.png,object_03a.png,,0.36065573770491804,0,,,,,,,,
2367.3999999910593,,directmemory_phase3,1361727,,,,object_08c.png,,,50,,,0,,object_01b.png,object_15a.png,object_10c.png,object_10c.png,,0.3548387096774194,0,,,,,,,,
2449.7999999970198,,directmemory_phase3,1364179,,,,object_15a.png,,,51,,,0,,object_03c.png,object_11a.png,object_13a.png,object_03c.png,,0.3492063492063492,0,,,,,,,,
3089.2000000029802,,directmemory_phase3,1367271,,,,object_12c.png,,,50,,,1,,object_14c.png,object_15c.png,object_05a.png,object_15c.png,,0.359375,1,,,,,,,,
3529.5,,directmemory_phase3,1370803,,,,object_13a.png,,,50,,,0,,object_06b.png,object_03c.png,object_04b.png,object_06b.png,,0.35384615384615387,0,,,,,,,,
3230.2999999970198,,directmemory_phase3,1374036,,,,object_10c.png,,,51,,,1,,object_10a.png,object_01c.png,object_07a.png,object_07a.png,,0.36363636363636365,1,,,,,,,,
3461.8999999910593,,directmemory_phase3,1377501,,,,object_09a.png,,,49,,,0,,object_07c.png,object_05c.png,object_12b.png,object_12b.png,,0.3582089552238806,0,,,,,,,,
2448.199999988079,,directmemory_phase3,1379952,,,,object_12a.png,,,50,,,0,,object_11b.png,object_05a.png,object_02c.png,object_11b.png,,0.35294117647058826,0,,,,,,,,
2693.7999999970198,,directmemory_phase3,1382647,,,,object_09c.png,,,51,,,0,,object_01b.png,object_05a.png,object_08c.png,object_01b.png,,0.34782608695652173,0,,,,,,,,
3135.7000000029802,,directmemory_phase3,1385785,,,,object_05a.png,,,51,,,0,,object_10b.png,object_11c.png,object_11a.png,object_10b.png,,0.34285714285714286,0,,,,,,,,
2585.5,,directmemory_phase3,1388374,,,,object_04a.png,,,49,,,1,,object_08a.png,object_02a.png,object_12a.png,object_08a.png,,0.352112676056338,1,,,,,,,,
3801.7999999970198,,directmemory_phase3,1392179,,,,object_05c.png,,,51,,,0,,object_15b.png,object_11c.png,object_03a.png,object_11c.png,,0.3472222222222222,0,,,,,,,,
2158.6000000089407,,directmemory_phase3,1394340,,,,object_02b.png,,,50,,,0,,object_05a.png,object_06b.png,object_12c.png,object_05a.png,,0.3424657534246575,0,,,,,,,,
1860.5,,directmemory_phase3,1396204,,,,object_05b.png,,,50,,,1,,object_12c.png,object_09a.png,object_10c.png,object_09a.png,,0.35135135135135137,1,,,,,,,,
2209.5,,directmemory_phase3,1398416,,,,object_13c.png,,,49,,,1,,object_08b.png,object_11b.png,object_12a.png,object_08b.png,,0.36,1,,,,,,,,
3213.1000000089407,,directmemory_phase3,1401632,,,,object_14c.png,,,51,,,0,,object_05c.png,object_10c.png,object_12c.png,object_05c.png,,0.35526315789473684,0,,,,,,,,
1812.4000000059605,,directmemory_phase3,1403447,,,,object_03b.png,,,51,,,1,,object_01c.png,object_12b.png,object_02a.png,object_02a.png,,0.36363636363636365,1,,,,,,,,
3576,,directmemory_phase3,1407026,,,,object_13b.png,,,51,,,1,,object_10c.png,object_14a.png,object_06b.png,object_06b.png,,0.3717948717948718,1,,,,,,,,
2391.8999999910593,,directmemory_phase3,1409420,,,,object_10a.png,,,50,,,0,,object_11a.png,object_12b.png,object_01c.png,object_01c.png,,0.3670886075949367,0,,,,,,,,
3528.7999999970198,,directmemory_phase3,1412952,,,,object_02c.png,,,49,,,1,,object_15b.png,object_02a.png,object_04b.png,object_15b.png,,0.375,1,,,,,,,,
3679.9000000059605,,directmemory_phase3,1416634,,,,object_01b.png,,,51,,,0,,object_06a.png,object_03b.png,object_15b.png,object_06a.png,,0.37037037037037035,0,,,,,,,,
8944.29999999702,,directmemory_phase3,1425582,,,,object_04b.png,,,49,,,0,,object_15c.png,object_06c.png,object_11a.png,object_11a.png,,0.36585365853658536,0,,,,,,,,
404,,directmemory_phase3,1425988,,,,object_04c.png,,,50,,,0,,object_08b.png,object_12a.png,object_01c.png,object_01c.png,,0.3614457831325301,0,,,,,,,,
0.19999998807907104,,directmemory_phase3,1425991,,,,object_15c.png,,,49,,,1,,object_14a.png,object_12b.png,object_11a.png,object_14a.png,,0.36904761904761907,1,,,,,,,,
3912.2999999970198,,directmemory_phase3,1429904,,,,object_08b.png,,,50,,,1,,object_10c.png,object_07b.png,object_14a.png,object_07b.png,,0.3764705882352941,1,,,,,,,,
3710.2999999970198,,directmemory_phase3,1433617,,,,object_06c.png,,,51,,,0,,object_02a.png,object_15b.png,object_02b.png,object_02a.png,,0.37209302325581395,0,,,,,,,,
3702.7000000029802,,directmemory_phase3,1437321,,,,object_11a.png,,,50,,,1,,object_01b.png,object_01a.png,object_09b.png,object_01a.png,,0.3793103448275862,1,,,,,,,,
1905.2999999970198,,directmemory_phase3,1439229,,,,object_07c.png,,,50,,,0,,object_11b.png,object_09a.png,object_07a.png,object_11b.png,,0.375,0,,,,,,,,
4310.70000000298,,directmemory_phase3,1443542,,,,object_09b.png,,,50,,,0,,object_03c.png,object_09a.png,object_01a.png,object_03c.png,,0.3707865168539326,0,,,,,,,,
2596,,directmemory_phase3,1446141,,,,object_14b.png,,,49,,,1,,object_08a.png,object_11a.png,object_01a.png,object_08a.png,,0.37777777777777777,1,,,,,,,,
null,,thebreak,1446244,,,,<p></p>,,,null,,,,,,,,,,,,,,,,,,,
3317.7000000029802,,intro_0,1449563,,,,instruct,,,32,,,,,,,,,,,,,,,,,,,
null,,learn_phase(without_color)4,1453066,,,,black_plus_sign,,,null,object_08c.png,object_10c.png,,,,,,,,,,,,,,,,,
null,,black_cross(without_color)4,1453845,,,,blue,,,null,object_08c.png,object_10c.png,,,,,,,,,,,,,,,,,
null,,rt_plussign_withcolor4,1454346,,,,blue,,,null,object_08c.png,object_10c.png,,,,,,,,,,,,,,,,,
1137.7000000029802,,rt_thecrossant_black4,1455572,,,,black_plus_sign,,,49,,,1,,,,,,,1,,,,,,,,,
null,,color_black4,1455675,,,,black_plus_sign,,,null,,,,,,,,,,,,,,,,,,,
null,,learn_phase(without_color)4,1459179,,,,black_plus_sign,,,null,object_02a.png,object_03b.png,,,,,,,,,,,,,,,,,
null,,black_cross(without_color)4,1459667,,,,green,,,null,object_02a.png,object_03b.png,,,,,,,,,,,,,,,,,
null,,rt_plussign_withcolor4,1460169,,,,green,,,null,object_02a.png,object_03b.png,,,,,,,,,,,,,,,,,
1051.8999999910593,,rt_thecrossant_black4,1461685,,,,black_plus_sign,,,50,,,1,,,,,,,1,,,,,,,,,
null,,color_black4,1461788,,,,black_plus_sign,,,null,,,,,,,,,,,,,,,,,,,
null,,learn_phase(without_color)4,1465292,,,,black_plus_sign,,,null,object_04a.png,object_08a.png,,,,,,,,,,,,,,,,,
null,,black_cross(without_color)4,1465796,,,,green,,,null,object_04a.png,object_08a.png,,,,,,,,,,,,,,,,,
null,,rt_plussign_withcolor4,1466298,,,,green,,,null,object_04a.png,object_08a.png,,,,,,,,,,,,,,,,,
840.5,,rt_thecrossant_black4,1467800,,,,black_plus_sign,,,50,,,1,,,,,,,1,,,,,,,,,
null,,color_black4,1467902,,,,black_plus_sign,,,null,,,,,,,,,,,,,,,,,,,
null,,learn_phase(without_color)4,1471405,,,,black_plus_sign,,,null,object_08b.png,object_13c.png,,,,,,,,,,,,,,,,,
null,,black_cross(without_color)4,1471827,,,,blue,,,null,object_08b.png,object_13c.png,,,,,,,,,,,,,,,,,
null,,rt_plussign_withcolor4,1472329,,,,blue,,,null,object_08b.png,object_13c.png,,,,,,,,,,,,,,,,,
1148,,rt_thecrossant_black4,1473912,,,,black_plus_sign,,,49,,,1,,,,,,,1,,,,,,,,,
null,,color_black4,1474014,,,,black_plus_sign,,,null,,,,,,,,,,,,,,,,,,,
null,,learn_phase(without_color)4,1477517,,,,black_plus_sign,,,null,object_12c.png,object_15c.png,,,,,,,,,,,,,,,,,
null,,black_cross(without_color)4,1478007,,,,blue,,,null,object_12c.png,object_15c.png,,,,,,,,,,,,,,,,,
null,,rt_plussign_withcolor4,1478509,,,,blue,,,null,object_12c.png,object_15c.png,,,,,,,,,,,,,,,,,
810.7999999970198,,rt_thecrossant_black4,1480024,,,,black_plus_sign,,,49,,,1,,,,,,,1,,,,,,,,,
null,,color_black4,1480127,,,,black_plus_sign,,,null,,,,,,,,,,,,,,,,,,,
null,,learn_phase(without_color)4,1483630,,,,black_plus_sign,,,null,object_07b.png,object_08b.png,,,,,,,,,,,,,,,,,
null,,black_cross(without_color)4,1484511,,,,green,,,null,object_07b.png,object_08b.png,,,,,,,,,,,,,,,,,
null,,rt_plussign_withcolor4,1485013,,,,green,,,null,object_07b.png,object_08b.png,,,,,,,,,,,,,,,,,
944,,rt_thecrossant_black4,1486137,,,,black_plus_sign,,,49,,,0,,,,,,,0.8333333333333334,,,,,,,,,
null,,color_black4,1486240,,,,black_plus_sign,,,null,,,,,,,,,,,,,,,,,,,
null,,learn_phase(without_color)4,1489742,,,,black_plus_sign,,,null,object_02c.png,object_15b.png,,,,,,,,,,,,,,,,,
null,,black_cross(without_color)4,1490208,,,,blue,,,null,object_02c.png,object_15b.png,,,,,,,,,,,,,,,,,
null,,rt_plussign_withcolor4,1490710,,,,blue,,,null,object_02c.png,object_15b.png,,,,,,,,,,,,,,,,,
1309.7999999970198,,rt_thecrossant_black4,1492249,,,,black_plus_sign,,,49,,,1,,,,,,,0.8571428571428571,,,,,,,,,
null,,color_black4,1492352,,,,black_plus_sign,,,null,,,,,,,,,,,,,,,,,,,
null,,learn_phase(without_color)4,1495854,,,,black_plus_sign,,,null,object_06b.png,object_13a.png,,,,,,,,,,,,,,,,,
null,,black_cross(without_color)4,1496549,,,,green,,,null,object_06b.png,object_13a.png,,,,,,,,,,,,,,,,,
null,,rt_plussign_withcolor4,1497051,,,,green,,,null,object_06b.png,object_13a.png,,,,,,,,,,,,,,,,,
799,,rt_thecrossant_black4,1498361,,,,black_plus_sign,,,50,,,1,,,,,,,0.875,,,,,,,,,
null,,color_black4,1498464,,,,black_plus_sign,,,null,,,,,,,,,,,,,,,,,,,
null,,learn_phase(without_color)4,1501966,,,,black_plus_sign,,,null,object_11c.png,object_05c.png,,,,,,,,,,,,,,,,,
null,,black_cross(without_color)4,1502709,,,,blue,,,null,object_11c.png,object_05c.png,,,,,,,,,,,,,,,,,
null,,rt_plussign_withcolor4,1503212,,,,blue,,,null,object_11c.png,object_05c.png,,,,,,,,,,,,,,,,,
1266.1000000089407,,rt_thecrossant_black4,1504474,,,,black_plus_sign,,,49,,,1,,,,,,,0.8888888888888888,,,,,,,,,
null,,color_black4,1504577,,,,black_plus_sign,,,null,,,,,,,,,,,,,,,,,,,
null,,learn_phase(without_color)4,1508080,,,,black_plus_sign,,,null,object_14b.png,object_08a.png,,,,,,,,,,,,,,,,,
null,,black_cross(without_color)4,1509041,,,,green,,,null,object_14b.png,object_08a.png,,,,,,,,,,,,,,,,,
null,,rt_plussign_withcolor4,1509543,,,,green,,,null,object_14b.png,object_08a.png,,,,,,,,,,,,,,,,,
1164.7999999970198,,rt_thecrossant_black4,1510586,,,,black_plus_sign,,,50,,,1,,,,,,,0.9,,,,,,,,,
null,,color_black4,1510689,,,,black_plus_sign,,,null,,,,,,,,,,,,,,,,,,,
null,,learn_phase(without_color)4,1514193,,,,black_plus_sign,,,null,object_01c.png,object_10a.png,,,,,,,,,,,,,,,,,
null,,black_cross(without_color)4,1515169,,,,green,,,null,object_01c.png,object_10a.png,,,,,,,,,,,,,,,,,
null,,rt_plussign_withcolor4,1515672,,,,green,,,null,object_01c.png,object_10a.png,,,,,,,,,,,,,,,,,
1143,,rt_thecrossant_black4,1516699,,,,black_plus_sign,,,50,,,1,,,,,,,0.9090909090909091,,,,,,,,,
null,,color_black4,1516802,,,,black_plus_sign,,,null,,,,,,,,,,,,,,,,,,,
null,,learn_phase(without_color)4,1520303,,,,black_plus_sign,,,null,object_01a.png,object_11a.png,,,,,,,,,,,,,,,,,
null,,black_cross(without_color)4,1521374,,,,blue,,,null,object_01a.png,object_11a.png,,,,,,,,,,,,,,,,,
null,,rt_plussign_withcolor4,1521876,,,,blue,,,null,object_01a.png,object_11a.png,,,,,,,,,,,,,,,,,
1204.7999999970198,,rt_thecrossant_black4,1522810,,,,black_plus_sign,,,49,,,1,,,,,,,0.9166666666666666,,,,,,,,,
null,,color_black4,1522913,,,,black_plus_sign,,,null,,,,,,,,,,,,,,,,,,,
null,,learn_phase(without_color)4,1526416,,,,black_plus_sign,,,null,object_04c.png,object_01c.png,,,,,,,,,,,,,,,,,
null,,black_cross(without_color)4,1527273,,,,blue,,,null,object_04c.png,object_01c.png,,,,,,,,,,,,,,,,,
null,,rt_plussign_withcolor4,1527774,,,,blue,,,null,object_04c.png,object_01c.png,,,,,,,,,,,,,,,,,
1419,,rt_thecrossant_black4,1528922,,,,black_plus_sign,,,49,,,1,,,,,,,0.9230769230769231,,,,,,,,,
null,,color_black4,1529024,,,,black_plus_sign,,,null,,,,,,,,,,,,,,,,,,,
null,,learn_phase(without_color)4,1532527,,,,black_plus_sign,,,null,object_02a.png,object_06c.png,,,,,,,,,,,,,,,,,
null,,black_cross(without_color)4,1533540,,,,blue,,,null,object_02a.png,object_06c.png,,,,,,,,,,,,,,,,,
null,,rt_plussign_withcolor4,1534042,,,,blue,,,null,object_02a.png,object_06c.png,,,,,,,,,,,,,,,,,
1178.2999999970198,,rt_thecrossant_black4,1535034,,,,black_plus_sign,,,49,,,1,,,,,,,0.9285714285714286,,,,,,,,,
null,,color_black4,1535136,,,,black_plus_sign,,,null,,,,,,,,,,,,,,,,,,,
null,,learn_phase(without_color)4,1538639,,,,black_plus_sign,,,null,object_05a.png,object_10b.png,,,,,,,,,,,,,,,,,
null,,black_cross(without_color)4,1539390,,,,blue,,,null,object_05a.png,object_10b.png,,,,,,,,,,,,,,,,,
null,,rt_plussign_withcolor4,1539892,,,,blue,,,null,object_05a.png,object_10b.png,,,,,,,,,,,,,,,,,
1117.5999999940395,,rt_thecrossant_black4,1541146,,,,black_plus_sign,,,49,,,1,,,,,,,0.9333333333333333,,,,,,,,,
null,,color_black4,1541248,,,,black_plus_sign,,,null,,,,,,,,,,,,,,,,,,,
null,,learn_phase(without_color)4,1544751,,,,black_plus_sign,,,null,object_01b.png,object_06a.png,,,,,,,,,,,,,,,,,
null,,black_cross(without_color)4,1545173,,,,green,,,null,object_01b.png,object_06a.png,,,,,,,,,,,,,,,,,
null,,rt_plussign_withcolor4,1545675,,,,green,,,null,object_01b.png,object_06a.png,,,,,,,,,,,,,,,,,
1431.5,,rt_thecrossant_black4,1547259,,,,black_plus_sign,,,50,,,1,,,,,,,0.9375,,,,,,,,,
null,,color_black4,1547362,,,,black_plus_sign,,,null,,,,,,,,,,,,,,,,,,,
null,,learn_phase(without_color)4,1550865,,,,black_plus_sign,,,null,object_09b.png,object_03c.png,,,,,,,,,,,,,,,,,
null,,black_cross(without_color)4,1551957,,,,green,,,null,object_09b.png,object_03c.png,,,,,,,,,,,,,,,,,
null,,rt_plussign_withcolor4,1552459,,,,green,,,null,object_09b.png,object_03c.png,,,,,,,,,,,,,,,,,
1035.5,,rt_thecrossant_black4,1553372,,,,black_plus_sign,,,50,,,1,,,,,,,0.9411764705882353,,,,,,,,,
null,,color_black4,1553475,,,,black_plus_sign,,,null,,,,,,,,,,,,,,,,,,,
null,,learn_phase(without_color)4,1556978,,,,black_plus_sign,,,null,object_01b.png,object_09c.png,,,,,,,,,,,,,,,,,
null,,black_cross(without_color)4,1557525,,,,green,,,null,object_01b.png,object_09c.png,,,,,,,,,,,,,,,,,
null,,rt_plussign_withcolor4,1558026,,,,green,,,null,object_01b.png,object_09c.png,,,,,,,,,,,,,,,,,
1443.9000000059605,,rt_thecrossant_black4,1559484,,,,black_plus_sign,,,50,,,1,,,,,,,0.9444444444444444,,,,,,,,,
null,,color_black4,1559587,,,,black_plus_sign,,,null,,,,,,,,,,,,,,,,,,,
null,,learn_phase(without_color)4,1563089,,,,black_plus_sign,,,null,object_14c.png,object_05c.png,,,,,,,,,,,,,,,,,
null,,black_cross(without_color)4,1563928,,,,green,,,null,object_14c.png,object_05c.png,,,,,,,,,,,,,,,,,
null,,rt_plussign_withcolor4,1564431,,,,green,,,null,object_14c.png,object_05c.png,,,,,,,,,,,,,,,,,
913.0999999940395,,rt_thecrossant_black4,1565597,,,,black_plus_sign,,,50,,,1,,,,,,,0.9473684210526315,,,,,,,,,
null,,color_black4,1565700,,,,black_plus_sign,,,null,,,,,,,,,,,,,,,,,,,
null,,learn_phase(without_color)4,1569202,,,,black_plus_sign,,,null,object_02b.png,object_05a.png,,,,,,,,,,,,,,,,,
null,,black_cross(without_color)4,1569935,,,,blue,,,null,object_02b.png,object_05a.png,,,,,,,,,,,,,,,,,
null,,rt_plussign_withcolor4,1570437,,,,blue,,,null,object_02b.png,object_05a.png,,,,,,,,,,,,,,,,,
1388.0999999940395,,rt_thecrossant_black4,1571710,,,,black_plus_sign,,,49,,,1,,,,,,,0.95,,,,,,,,,
null,,color_black4,1571813,,,,black_plus_sign,,,null,,,,,,,,,,,,,,,,,,,
null,,learn_phase(without_color)4,1575316,,,,black_plus_sign,,,null,object_10c.png,object_07a.png,,,,,,,,,,,,,,,,,
null,,black_cross(without_color)4,1575732,,,,green,,,null,object_10c.png,object_07a.png,,,,,,,,,,,,,,,,,
null,,rt_plussign_withcolor4,1576233,,,,green,,,null,object_10c.png,object_07a.png,,,,,,,,,,,,,,,,,
1191.300000011921,,rt_thecrossant_black4,1577821,,,,black_plus_sign,,,50,,,1,,,,,,,0.9523809523809523,,,,,,,,,
null,,color_black4,1577924,,,,black_plus_sign,,,null,,,,,,,,,,,,,,,,,,,
null,,learn_phase(without_color)4,1581427,,,,black_plus_sign,,,null,object_12a.png,object_11b.png,,,,,,,,,,,,,,,,,
null,,black_cross(without_color)4,1582247,,,,green,,,null,object_12a.png,object_11b.png,,,,,,,,,,,,,,,,,
null,,rt_plussign_withcolor4,1582749,,,,green,,,null,object_12a.png,object_11b.png,,,,,,,,,,,,,,,,,
817.9000000059605,,rt_thecrossant_black4,1583934,,,,black_plus_sign,,,50,,,1,,,,,,,0.9545454545454546,,,,,,,,,
null,,color_black4,1584036,,,,black_plus_sign,,,null,,,,,,,,,,,,,,,,,,,
null,,learn_phase(without_color)4,1587540,,,,black_plus_sign,,,null,object_15a.png,object_03c.png,,,,,,,,,,,,,,,,,
null,,black_cross(without_color)4,1588081,,,,blue,,,null,object_15a.png,object_03c.png,,,,,,,,,,,,,,,,,
null,,rt_plussign_withcolor4,1588582,,,,blue,,,null,object_15a.png,object_03c.png,,,,,,,,,,,,,,,,,
1274.2999999970198,,rt_thecrossant_black4,1590045,,,,black_plus_sign,,,49,,,1,,,,,,,0.9565217391304348,,,,,,,,,
null,,color_black4,1590147,,,,black_plus_sign,,,null,,,,,,,,,,,,,,,,,,,
null,,learn_phase(without_color)4,1593650,,,,black_plus_sign,,,null,object_03a.png,object_15b.png,,,,,,,,,,,,,,,,,
null,,black_cross(without_color)4,1594317,,,,blue,,,null,object_03a.png,object_15b.png,,,,,,,,,,,,,,,,,
null,,rt_plussign_withcolor4,1594819,,,,blue,,,null,object_03a.png,object_15b.png,,,,,,,,,,,,,,,,,
799.7999999970198,,rt_thecrossant_black4,1596157,,,,black_plus_sign,,,49,,,1,,,,,,,0.9583333333333334,,,,,,,,,
null,,color_black4,1596259,,,,black_plus_sign,,,null,,,,,,,,,,,,,,,,,,,
null,,learn_phase(without_color)4,1599761,,,,black_plus_sign,,,null,object_11b.png,object_07c.png,,,,,,,,,,,,,,,,,
null,,black_cross(without_color)4,1600361,,,,green,,,null,object_11b.png,object_07c.png,,,,,,,,,,,,,,,,,
null,,rt_plussign_withcolor4,1600863,,,,green,,,null,object_11b.png,object_07c.png,,,,,,,,,,,,,,,,,
1266.2999999970198,,rt_thecrossant_black4,1602268,,,,black_plus_sign,,,50,,,1,,,,,,,0.96,,,,,,,,,
null,,color_black4,1602371,,,,black_plus_sign,,,null,,,,,,,,,,,,,,,,,,,
null,,learn_phase(without_color)4,1605874,,,,black_plus_sign,,,null,object_12b.png,object_09a.png,,,,,,,,,,,,,,,,,
null,,black_cross(without_color)4,1606375,,,,blue,,,null,object_12b.png,object_09a.png,,,,,,,,,,,,,,,,,
null,,rt_plussign_withcolor4,1606877,,,,blue,,,null,object_12b.png,object_09a.png,,,,,,,,,,,,,,,,,
1178.0999999940395,,rt_thecrossant_black4,1608381,,,,black_plus_sign,,,49,,,1,,,,,,,0.9615384615384616,,,,,,,,,
null,,color_black4,1608484,,,,black_plus_sign,,,null,,,,,,,,,,,,,,,,,,,
null,,learn_phase(without_color)4,1611988,,,,black_plus_sign,,,null,object_06b.png,object_13b.png,,,,,,,,,,,,,,,,,
null,,black_cross(without_color)4,1613005,,,,green,,,null,object_06b.png,object_13b.png,,,,,,,,,,,,,,,,,
null,,rt_plussign_withcolor4,1613506,,,,green,,,null,object_06b.png,object_13b.png,,,,,,,,,,,,,,,,,
956.5,,rt_thecrossant_black4,1614495,,,,black_plus_sign,,,50,,,1,,,,,,,0.9629629629629629,,,,,,,,,
null,,color_black4,1614597,,,,black_plus_sign,,,null,,,,,,,,,,,,,,,,,,,
null,,learn_phase(without_color)4,1618101,,,,black_plus_sign,,,null,object_14a.png,object_15c.png,,,,,,,,,,,,,,,,,
null,,black_cross(without_color)4,1618961,,,,blue,,,null,object_14a.png,object_15c.png,,,,,,,,,,,,,,,,,
null,,rt_plussign_withcolor4,1619464,,,,blue,,,null,object_14a.png,object_15c.png,,,,,,,,,,,,,,,,,
1276,,rt_thecrossant_black4,1620609,,,,black_plus_sign,,,49,,,1,,,,,,,0.9642857142857143,,,,,,,,,
null,,color_black4,1620711,,,,black_plus_sign,,,null,,,,,,,,,,,,,,,,,,,
null,,learn_phase(without_color)4,1624215,,,,black_plus_sign,,,null,object_05b.png,object_09a.png,,,,,,,,,,,,,,,,,
null,,black_cross(without_color)4,1624916,,,,blue,,,null,object_05b.png,object_09a.png,,,,,,,,,,,,,,,,,
null,,rt_plussign_withcolor4,1625417,,,,blue,,,null,object_05b.png,object_09a.png,,,,,,,,,,,,,,,,,
1272.7000000029802,,rt_thecrossant_black4,1626721,,,,black_plus_sign,,,49,,,1,,,,,,,0.9655172413793104,,,,,,,,,
null,,color_black4,1626823,,,,black_plus_sign,,,null,,,,,,,,,,,,,,,,,,,
null,,learn_phase(without_color)4,1630326,,,,black_plus_sign,,,null,object_04b.png,object_11a.png,,,,,,,,,,,,,,,,,
null,,black_cross(without_color)4,1631257,,,,blue,,,null,object_04b.png,object_11a.png,,,,,,,,,,,,,,,,,
null,,rt_plussign_withcolor4,1631759,,,,blue,,,null,object_04b.png,object_11a.png,,,,,,,,,,,,,,,,,
981.4000000059605,,rt_thecrossant_black4,1632842,,,,black_plus_sign,,,49,,,1,,,,,,,0.9666666666666667,,,,,,,,,
null,,color_black4,1632945,,,,black_plus_sign,,,null,,,,,,,,,,,,,,,,,,,
null,,thebreak,1633048,,,,<p></p>,,,null,,,,,,,,,,,,,,,,,,,
29477.29999999702,,intro_0,1662527,,,,instruct,,,32,,,,,,,,,,,,,,,,,,,
2484,,directmemory_phase4,1665013,,,,object_11c.png,,,51,,,1,,object_15b.png,object_13b.png,object_05c.png,object_05c.png,,0.38461538461538464,1,,,,,,,,
2996.2000000029802,,directmemory_phase4,1668012,,,,object_04c.png,,,51,,,0,,object_14c.png,object_01c.png,object_01b.png,object_01c.png,,0.3804347826086957,0,,,,,,,,
2588.9000000059605,,directmemory_phase4,1670604,,,,object_08b.png,,,51,,,0,,object_02a.png,object_07b.png,object_09b.png,object_07b.png,,0.3763440860215054,0,,,,,,,,
2025.7999999970198,,directmemory_phase4,1672633,,,,object_08a.png,,,50,,,1,,object_03c.png,object_14b.png,object_06a.png,object_14b.png,,0.3829787234042553,1,,,,,,,,
2688.7999999970198,,directmemory_phase4,1675324,,,,object_13a.png,,,50,,,1,,object_13c.png,object_06b.png,object_03c.png,object_06b.png,,0.3894736842105263,1,,,,,,,,
3471.2000000029802,,directmemory_phase4,1678798,,,,object_14a.png,,,49,,,1,,object_15c.png,object_02a.png,object_07b.png,object_15c.png,,0.3958333333333333,1,,,,,,,,
3491.6000000089407,,directmemory_phase4,1682292,,,,object_02a.png,,,50,,,0,,object_03b.png,object_01a.png,object_15c.png,object_03b.png,,0.3917525773195876,0,,,,,,,,
3383.7000000029802,,directmemory_phase4,1685677,,,,object_14c.png,,,50,,,0,,object_05c.png,object_01b.png,object_05b.png,object_05c.png,,0.3877551020408163,0,,,,,,,,
3153.800000011921,,directmemory_phase4,1688832,,,,object_13c.png,,,49,,,1,,object_08b.png,object_02a.png,object_15a.png,object_08b.png,,0.3939393939393939,1,,,,,,,,
3478.5,,directmemory_phase4,1692314,,,,object_02c.png,,,50,,,1,,object_06c.png,object_15b.png,object_02a.png,object_15b.png,,0.4,1,,,,,,,,
2821.800000011921,,directmemory_phase4,1695138,,,,object_03c.png,,,49,,,1,,object_09b.png,object_06a.png,object_15b.png,object_09b.png,,0.40594059405940597,1,,,,,,,,
3605.0999999940395,,directmemory_phase4,1698747,,,,object_01a.png,,,50,,,0,,object_11a.png,object_01b.png,object_10a.png,object_11a.png,,0.4019607843137255,0,,,,,,,,
2948.3999999910593,,directmemory_phase4,1701698,,,,object_12c.png,,,51,,,0,,object_12a.png,object_15c.png,object_15b.png,object_15c.png,,0.39805825242718446,0,,,,,,,,
3369.8999999910593,,directmemory_phase4,1705071,,,,object_12a.png,,,50,,,1,,object_04b.png,object_11b.png,object_15c.png,object_11b.png,,0.40384615384615385,1,,,,,,,,
2776.9000000059605,,directmemory_phase4,1707851,,,,object_15a.png,,,51,,,0,,object_02c.png,object_03c.png,object_06b.png,object_03c.png,,0.4,0,,,,,,,,
3391.9000000059605,,directmemory_phase4,1711245,,,,object_13b.png,,,51,,,1,,object_08b.png,object_03b.png,object_06b.png,object_06b.png,,0.4056603773584906,1,,,,,,,,
3029.2000000029802,,directmemory_phase4,1714278,,,,object_11b.png,,,50,,,1,,object_01c.png,object_07c.png,object_09b.png,object_07c.png,,0.411214953271028,1,,,,,,,,
2604.1000000089407,,directmemory_phase4,1716883,,,,object_05b.png,,,50,,,1,,object_02b.png,object_09a.png,object_01b.png,object_09a.png,,0.4166666666666667,1,,,,,,,,
3658.1000000089407,,directmemory_phase4,1720544,,,,object_08c.png,,,49,,,0,,object_04c.png,object_10c.png,object_11a.png,object_10c.png,,0.41284403669724773,0,,,,,,,,
4340.20000000298,,directmemory_phase4,1724887,,,,object_15b.png,,,49,,,0,,object_11a.png,object_03a.png,object_06a.png,object_03a.png,,0.4090909090909091,0,,,,,,,,
3758.9000000059605,,directmemory_phase4,1728647,,,,object_04b.png,,,50,,,1,,object_13a.png,object_11a.png,object_09a.png,object_11a.png,,0.4144144144144144,1,,,,,,,,
3450.3999999910593,,directmemory_phase4,1732101,,,,object_09a.png,,,51,,,1,,object_03b.png,object_05c.png,object_12b.png,object_12b.png,,0.41964285714285715,1,,,,,,,,
4083.5,,directmemory_phase4,1736187,,,,object_01b.png,,,51,,,1,,object_10b.png,object_11b.png,object_06a.png,object_06a.png,,0.4247787610619469,1,,,,,,,,
3031.9000000059605,,directmemory_phase4,1739222,,,,object_09c.png,,,50,,,0,,object_15b.png,object_14c.png,object_01b.png,object_01b.png,,0.42105263157894735,0,,,,,,,,
3241.0999999940395,,directmemory_phase4,1742465,,,,object_07a.png,,,50,,,1,,object_03a.png,object_10c.png,object_15b.png,object_10c.png,,0.4260869565217391,1,,,,,,,,
2919,,directmemory_phase4,1745386,,,,object_04a.png,,,49,,,1,,object_08a.png,object_03c.png,object_13c.png,object_08a.png,,0.43103448275862066,1,,,,,,,,
4513.79999999702,,directmemory_phase4,1749903,,,,object_10b.png,,,49,,,0,,object_10c.png,object_10a.png,object_05a.png,object_05a.png,,0.42735042735042733,0,,,,,,,,
3006.2999999970198,,directmemory_phase4,1752912,,,,object_06c.png,,,51,,,0,,object_02a.png,object_01b.png,object_13a.png,object_02a.png,,0.423728813559322,0,,,,,,,,
2999.4000000059605,,directmemory_phase4,1755914,,,,object_10a.png,,,50,,,1,,object_12b.png,object_01c.png,object_09a.png,object_01c.png,,0.42857142857142855,1,,,,,,,,
3806,,directmemory_phase4,1759723,,,,object_02b.png,,,50,,,1,,object_09c.png,object_05a.png,object_15c.png,object_05a.png,,0.43333333333333335,1,,,,,,,,
null,,thebreak,1759826,,,,<p></p>,,,null,,,,,,,,,,,,,,,,,,,
6730.0999999940395,,intro_0,1766558,,,,instruct,,,32,,,,,,,,,,,,,,,,,,,
18453.20000000298,,intro_1,1785012,,,,instruct,,,32,,,,,,,,,,,,,,,,,,,
9636,,intro_2,1794649,,,,instruct,,,32,,,,,,,,,,,,,,,,,,,
,,intro_3,1808545,,,,instruct,,,,,,,,,,,,,,,,,,,,,,
4785.399999991059,,intro_4,1813331,,,,instruct,,,32,,,,,,,,,,,,,,,,,,,
null,,thebreak,1813433,,,,<p></p>,,,null,,,,,,,,,,,,,,,,,,,
186.59999999403954,,intro_0,1813621,,,,instruct,,,32,,,,,,,,,,,,,,,,,,,
13880.70000000298,,intro_1,1827503,,,,instruct,,,32,,,,,,,,,,,,,,,,,,,
3594.6000000089407,,intro_2,1831099,,,,instruct,,,32,,,,,,,,,,,,,,,,,,,
,,intro_3,1846303,,,,instruct,,,,,,,,,,,,,,,,,,,,,,
1850.7999999970198,,intro_4,1848155,,,,instruct,,,32,,,,,,,,,,,,,,,,,,,
null,,thebreak,1848257,,,,<p></p>,,,null,,,,,,,,,,,,,,,,,,,
3535.0999999940395,,intro_0,1851794,,,,instruct,,,32,,,,,,,,,,,,,,,,,,,
15701.40000000596,,intro_1,1867496,,,,instruct,,,32,,,,,,,,,,,,,,,,,,,
5134.5999999940395,,intro_2,1872632,,,,instruct,,,32,,,,,,,,,,,,,,,,,,,
,,intro_3,1882190,,,,instruct,,,,,,,,,,,,,,,,,,,,,,
14547.90000000596,,intro_4,1896739,,,,instruct,,,32,,,,,,,,,,,,,,,,,,,
null,,thebreak,1896841,,,,<p></p>,,,null,,,,,,,,,,,,,,,,,,,
1987.5,,intro_0,1898830,,,,instruct,,,32,,,,,,,,,,,,,,,,,,,
8040.4000000059605,,intro_1,1906872,,,,instruct,,,32,,,,,,,,,,,,,,,,,,,
2434.1000000089407,,intro_2,1909307,,,,instruct,,,32,,,,,,,,,,,,,,,,,,,
,,intro_3,1917600,,,,instruct,,,,,,,,,,,,,,,,,,,,,,
1821.7999999970198,,intro_4,1919423,,,,instruct,,,32,,,,,,,,,,,,,,,,,,,
null,,thebreak,1919524,,,,<p></p>,,,null,,,,,,,,,,,,,,,,,,,
1571.5999999940395,,intro_0,1921098,,,,instruct,,,32,,,,,,,,,,,,,,,,,,,
3281.7000000029802,,intro_1,1924381,,,,instruct,,,32,,,,,,,,,,,,,,,,,,,
957.0999999940395,,intro_2,1925339,,,,instruct,,,32,,,,,,,,,,,,,,,,,,,
,,intro_3,1935304,,,,instruct,,,,,,,,,,,,,,,,,,,,,,
4084.6000000089407,,intro_4,1939390,,,,instruct,,,32,,,,,,,,,,,,,,,,,,,
3759.5999999940395,,inference_phase,1943151,,,,object_10a.png,,,50,object_08c.png,object_04c.png,0,,,,,object_04c.png,,0,,object_05c.png,,,,,,,
4295.9000000059605,,inference_phase,1947450,,,,object_11c.png,,,50,object_12a.png,object_09a.png,1,,,,,object_14c.png,,0.5,,object_14c.png,,,,,,,
0.5999999940395355,,inference_phase,1947453,,,,object_01a.png,,,51,object_04b.png,object_14c.png,0,,,,,object_04b.png,,0.3333333333333333,,object_10c.png,,,,,,,
4482.79999999702,,inference_phase,1951938,,,,object_12b.png,,,49,object_12a.png,object_10c.png,0,,,,,object_05b.png,,0.25,,object_05b.png,,,,,,,
4045,,inference_phase,1955986,,,,object_02c.png,,,51,object_03a.png,object_09b.png,0,,,,,object_03a.png,,0.2,,object_09a.png,,,,,,,
3113.5999999940395,,inference_phase,1959102,,,,object_09c.png,,,50,object_03c.png,object_03b.png,1,,,,,object_06a.png,,0.3333333333333333,,object_06a.png,,,,,,,
3928.300000011921,,inference_phase,1963032,,,,object_07a.png,,,51,object_08c.png,object_06c.png,0,,,,,object_08c.png,,0.2857142857142857,,object_11a.png,,,,,,,
0.800000011920929,,inference_phase,1963035,,,,object_15a.png,,,50,object_01c.png,object_09b.png,0,,,,,object_09b.png,,0.25,,object_01a.png,,,,,,,
1197.5,,inference_phase,1964234,,,,object_13c.png,,,51,object_10c.png,object_07b.png,1,,,,,object_07b.png,,0.3333333333333333,,object_10b.png,,,,,,,
133.09999999403954,,inference_phase,1964369,,,,object_14b.png,,,51,object_02c.png,object_03c.png,0,,,,,object_04a.png,,0.3,,object_04a.png,,,,,,,
2911.3999999910593,,inference_phase,1967282,,,,object_03b.png,,,49,object_12c.png,object_15b.png,0,,,,,object_06c.png,,0.2727272727272727,,object_06c.png,,,,,,,
3057.0999999940395,,inference_phase,1970340,,,,object_12a.png,,,49,object_10c.png,object_03b.png,0,,,,,object_07c.png,,0.25,,object_07c.png,,,,,,,
3354.1000000089407,,inference_phase,1973697,,,,object_12c.png,,,49,object_06b.png,object_14a.png,0,,,,,object_14a.png,,0.23076923076923078,,object_10b.png,,,,,,,
2854.300000011921,,inference_phase,1976553,,,,object_13b.png,,,50,object_06c.png,object_15c.png,1,,,,,object_13a.png,,0.2857142857142857,,object_13a.png,,,,,,,
3263.4000000059605,,inference_phase,1979819,,,,object_02b.png,,,50,object_15b.png,object_12b.png,1,,,,,object_10b.png,,0.3333333333333333,,object_10b.png,,,,,,,
,,survey,2154937,,,,survey-questions,,,,,,,,,,,,,,,,none,med,nothing,tryed to keep colors togethere,same,have not done this before,it was exciting to do
