rt,responses,trial_type,time_elapsed,identifier_a,identifier_b,identifier_c,stimulus,button_pressed,response,key_press,stimulus_left,stimulus_right,accuracy,practice_cumulative_accuracy,stimulus_down_left,stimulus_down_mid,stimulus_down_right,stimulus_correct,prac_weighted_accuracy,cumulative_accuracy,weighted_accuracy,stimulus_middle,problems,smooth,distraction,strategies,easier,similar,comments
5689.399999976158,{worker_id:66ddf87fcc5c581ffea00c28},id_enter,5694,object_10b.png; object_07c.png; object_02a.png; object_08b.png; object_04a.png; object_01b.png; object_03c.png; object_14c.png; object_10a.png; object_08a.png; object_08c.png; object_03b.png; object_12a.png; object_13b.png; object_10c.png,object_05a.png; object_01a.png; object_06b.png; object_02c.png; object_13c.png; object_02b.png; object_12b.png; object_15c.png; object_09a.png; object_04b.png; object_14a.png; object_09c.png; object_06c.png; object_13a.png; object_11a.png,object_14b.png; object_07a.png; object_07b.png; object_05c.png; object_11c.png; object_12c.png; object_01c.png; object_06a.png; object_05b.png; object_15a.png; object_03a.png; object_04c.png; object_15b.png; object_09b.png; object_11b.png,,,,,,,,,,,,,,,,,,,,,,,
13603.900000095367,,make_fullscreen,19303,,,,fullscreen,0,,,,,,,,,,,,,,,,,,,,,
6162.700000047684,,instruct_1,25468,,,,instruct,0,Next,,,,,,,,,,,,,,,,,,,,
14400.5,,instruct_2,39870,,,,instruct,1,Next,,,,,,,,,,,,,,,,,,,,
8836.200000047684,,instruct_3,48708,,,,instruct,1,Next,,,,,,,,,,,,,,,,,,,,
25616.299999952316,,instruct_4,74326,,,,instruct,1,Next,,,,,,,,,,,,,,,,,,,,
16613.699999928474,,instruct_5,90942,,,,instruct,1,Next,,,,,,,,,,,,,,,,,,,,
6470.600000023842,,instruct_6,97414,,,,instruct,1,Next,,,,,,,,,,,,,,,,,,,,
34328.10000002384,,instruct_7,131744,,,,instruct,1,Next,,,,,,,,,,,,,,,,,,,,
null,,prac_atten_color_black,132204,,,,black_plus_sign,,,null,,,,,,,,,,,,,,,,,,,
827.3000000715256,,prac_atten_color,133155,,,,<p style='position:absolute;top: 50%;right: 50%;transform: translate(50%, -50%);font-size: 125px;color: blue;'>+</p>,,,49,,,,,,,,,,,,,,,,,,,
null,,prac_atten_color_black,135161,,,,black_plus_sign,,,null,,,,,,,,,,,,,,,,,,,
null,,prac_atten_color_black,135629,,,,black_plus_sign,,,null,,,,,,,,,,,,,,,,,,,
null,,prac_atten_color,136692,,,,<p style='position:absolute;top: 50%;right: 50%;transform: translate(50%, -50%);font-size: 125px;color: green;'>+</p>,,,null,,,,,,,,,,,,,,,,,,,
1160.7999999523163,,prac_atten_color_black,138703,,,,black_plus_sign,,,50,,,,,,,,,,,,,,,,,,,
null,,prac_atten_color_black,139056,,,,black_plus_sign,,,null,,,,,,,,,,,,,,,,,,,
null,,prac_atten_color,139670,,,,<p style='position:absolute;top: 50%;right: 50%;transform: translate(50%, -50%);font-size: 125px;color: green;'>+</p>,,,null,,,,,,,,,,,,,,,,,,,
171,,prac_atten_color_black,141681,,,,black_plus_sign,,,50,,,,,,,,,,,,,,,,,,,
null,,prac_atten_color_black,142481,,,,black_plus_sign,,,null,,,,,,,,,,,,,,,,,,,
497.10000002384186,,prac_atten_color,143288,,,,<p style='position:absolute;top: 50%;right: 50%;transform: translate(50%, -50%);font-size: 125px;color: blue;'>+</p>,,,49,,,,,,,,,,,,,,,,,,,
null,,prac_atten_color_black,145297,,,,black_plus_sign,,,null,,,,,,,,,,,,,,,,,,,
null,,prac_atten_color_black,145915,,,,black_plus_sign,,,null,,,,,,,,,,,,,,,,,,,
652.1000000238419,,prac_atten_color,146700,,,,<p style='position:absolute;top: 50%;right: 50%;transform: translate(50%, -50%);font-size: 125px;color: green;'>+</p>,,,50,,,,,,,,,,,,,,,,,,,
null,,prac_atten_color_black,148710,,,,black_plus_sign,,,null,,,,,,,,,,,,,,,,,,,
null,,prac_atten_color_black,149341,,,,black_plus_sign,,,null,,,,,,,,,,,,,,,,,,,
null,,prac_atten_color,149775,,,,<p style='position:absolute;top: 50%;right: 50%;transform: translate(50%, -50%);font-size: 125px;color: green;'>+</p>,,,null,,,,,,,,,,,,,,,,,,,
248.20000004768372,,prac_atten_color_black,151778,,,,black_plus_sign,,,50,,,,,,,,,,,,,,,,,,,
null,,prac_atten_color_black,152758,,,,black_plus_sign,,,null,,,,,,,,,,,,,,,,,,,
null,,prac_atten_color,153305,,,,<p style='position:absolute;top: 50%;right: 50%;transform: translate(50%, -50%);font-size: 125px;color: blue;'>+</p>,,,null,,,,,,,,,,,,,,,,,,,
88.30000007152557,,prac_atten_color_black,155321,,,,black_plus_sign,,,49,,,,,,,,,,,,,,,,,,,
null,,prac_atten_color_black,156181,,,,black_plus_sign,,,null,,,,,,,,,,,,,,,,,,,
579.3999999761581,,prac_atten_color,156929,,,,<p style='position:absolute;top: 50%;right: 50%;transform: translate(50%, -50%);font-size: 125px;color: green;'>+</p>,,,50,,,,,,,,,,,,,,,,,,,
null,,prac_atten_color_black,158939,,,,black_plus_sign,,,null,,,,,,,,,,,,,,,,,,,
null,,prac_atten_color_black,159608,,,,black_plus_sign,,,null,,,,,,,,,,,,,,,,,,,
390.6999999284744,,prac_atten_color,160695,,,,<p style='position:absolute;top: 50%;right: 50%;transform: translate(50%, -50%);font-size: 125px;color: blue;'>+</p>,,,49,,,,,,,,,,,,,,,,,,,
null,,prac_atten_color_black,162699,,,,black_plus_sign,,,null,,,,,,,,,,,,,,,,,,,
null,,prac_atten_color_black,163028,,,,black_plus_sign,,,null,,,,,,,,,,,,,,,,,,,
605.2999999523163,,prac_atten_color,163896,,,,<p style='position:absolute;top: 50%;right: 50%;transform: translate(50%, -50%);font-size: 125px;color: blue;'>+</p>,,,49,,,,,,,,,,,,,,,,,,,
null,,prac_atten_color_black,165905,,,,black_plus_sign,,,null,,,,,,,,,,,,,,,,,,,
7723,,attentioncheck_feedback,173631,,,,cross_check_feedback,0,,,,,,,,,,,,,,,,,,,,,
14127,,last_instruct,187759,,,,instruct,,,32,,,,,,,,,,,,,,,,,,,
null,,prac_learn_phase(without_color),191270,,,,black_plus_sign,,,null,object_06b.png,object_07b.png,,,,,,,,,,,,,,,,,
null,,prac_black_cross(without_color),191721,,,,blue,,,null,object_06b.png,object_07b.png,,,,,,,,,,,,,,,,,
null,,prac_rt_plussign_withcolor,192225,,,,blue,,,null,object_06b.png,object_07b.png,,,,,,,,,,,,,,,,,
960.6000000238419,,prac_rt_thecrossant_black,193791,,,,black_plus_sign,,,49,,,1,1,,,,,,,,,,,,,,,
null,,prac_color_black,193905,,,,black_plus_sign,,,null,,,,,,,,,,,,,,,,,,,
null,,prac_learn_phase(without_color),197417,,,,black_plus_sign,,,null,object_04b.png,object_08a.png,,,,,,,,,,,,,,,,,
null,,black_cross(without_color)1,198064,,,,green,,,null,object_06b.png,object_07b.png,,,,,,,,,,,,,,,,,
491.7000000476837,,prac_rt_plussign_withcolor,198568,,,,green,,,50,object_04b.png,object_08a.png,,,,,,,,,,,,,,,,,
null,,prac_rt_thecrossant_black,200078,,,,black_plus_sign,,,null,,,1,1,,,,,,,,,,,,,,,
null,,prac_color_black,200182,,,,black_plus_sign,,,null,,,,,,,,,,,,,,,,,,,
null,,prac_learn_phase(without_color),203692,,,,black_plus_sign,,,null,object_11a.png,object_11b.png,,,,,,,,,,,,,,,,,
null,,black_cross(without_color)1,204333,,,,green,,,null,object_06b.png,object_07b.png,,,,,,,,,,,,,,,,,
null,,prac_rt_plussign_withcolor,204847,,,,green,,,null,object_11a.png,object_11b.png,,,,,,,,,,,,,,,,,
603.6000000238419,,prac_rt_thecrossant_black,205764,,,,black_plus_sign,,,50,,,1,1,,,,,,,,,,,,,,,
null,,prac_color_black,205881,,,,black_plus_sign,,,null,,,,,,,,,,,,,,,,,,,
null,,prac_learn_phase(without_color),209389,,,,black_plus_sign,,,null,object_01c.png,object_12b.png,,,,,,,,,,,,,,,,,
null,,black_cross(without_color)1,210037,,,,green,,,null,object_06b.png,object_07b.png,,,,,,,,,,,,,,,,,
null,,prac_rt_plussign_withcolor,210553,,,,green,,,null,object_01c.png,object_12b.png,,,,,,,,,,,,,,,,,
1225.1999999284744,,prac_rt_thecrossant_black,211553,,,,black_plus_sign,,,50,,,1,1,,,,,,,,,,,,,,,
null,,prac_color_black,211662,,,,black_plus_sign,,,null,,,,,,,,,,,,,,,,,,,
9857.400000095367,,instruct_dir_01,221522,,,,instruct,0,Next,,,,,,,,,,,,,,,,,,,,
14180.5,,instruct_dir_2,235704,,,,instruct,1,Next,,,,,,,,,,,,,,,,,,,,
11874.600000023842,,instruct_dir_3,247580,,,,instruct,1,Next,,,,,,,,,,,,,,,,,,,,
9796.600000023842,,instruct_dir_4,257378,,,,instruct,1,Start,,,,,,,,,,,,,,,,,,,,
null,,thebreak,257484,,,,<p></p>,,,null,,,,,,,,,,,,,,,,,,,
2378.2999999523163,,intro_0,259865,,,,instruct,,,32,,,,,,,,,,,,,,,,,,,
7592.799999952316,,prac_directmemory_phase,267460,,,,practice/object_03a.png,,,49,,,0,,practice/object_01b.png,practice/object_04a.png,practice/object_03b.png,practice/object_03b.png,0,0,,,,,,,,,
3309.100000023842,,prac_directmemory_phase,270773,,,,practice/object_01a.png,,,49,,,1,,practice/object_01b.png,practice/object_03b.png,practice/object_04a.png,practice/object_01b.png,1,0.5,,,,,,,,,
2649,,prac_directmemory_phase,273425,,,,practice/object_04a.png,,,50,,,1,,practice/object_01a.png,practice/object_04b.png,practice/object_02b.png,practice/object_04b.png,1,0.6666666666666666,,,,,,,,,
3063.5,,prac_directmemory_phase,276491,,,,practice/object_02a.png,,,51,,,1,,practice/object_03b.png,practice/object_03a.png,practice/object_02b.png,practice/object_02b.png,1,0.75,,,,,,,,,
10014.5,,practice_feedback,286508,,,,practice_feedback,1,,,,,,,,,,,,,,,,,,,,,
10716.5,,proceed_actualTask,297226,,,,proceed_actualTask,1,Continue,,,,,,,,,,,,,,,,,,,,
23654.5,,last_inst,320882,,,,last_inst,,,32,,,,,,,,,,,,,,,,,,,
null,,learn_phase(without_color)1,324384,,,,black_plus_sign,,,null,object_06b.png,object_07b.png,,,,,,,,,,,,,,,,,
null,,black_cross(without_color)1,325023,,,,green,,,null,object_06b.png,object_07b.png,,,,,,,,,,,,,,,,,
null,,rt_plussign_withcolor1,325525,,,,green,,,null,object_06b.png,object_07b.png,,,,,,,,,,,,,,,,,
1540.6999999284744,,rt_thecrossant_black1,326890,,,,black_plus_sign,,,50,,,1,,,,,,,1,,,,,,,,,
null,,color_black1,326996,,,,black_plus_sign,,,null,,,,,,,,,,,,,,,,,,,
null,,learn_phase(without_color)1,330501,,,,black_plus_sign,,,null,object_04b.png,object_08a.png,,,,,,,,,,,,,,,,,
null,,black_cross(without_color)1,330971,,,,green,,,null,object_04b.png,object_08a.png,,,,,,,,,,,,,,,,,
null,,rt_plussign_withcolor1,331473,,,,green,,,null,object_04b.png,object_08a.png,,,,,,,,,,,,,,,,,
1425.1000000238419,,rt_thecrossant_black1,333015,,,,black_plus_sign,,,50,,,1,,,,,,,1,,,,,,,,,
null,,color_black1,333120,,,,black_plus_sign,,,null,,,,,,,,,,,,,,,,,,,
null,,learn_phase(without_color)1,336623,,,,black_plus_sign,,,null,object_11a.png,object_11b.png,,,,,,,,,,,,,,,,,
null,,black_cross(without_color)1,337249,,,,green,,,null,object_11a.png,object_11b.png,,,,,,,,,,,,,,,,,
null,,rt_plussign_withcolor1,337753,,,,green,,,null,object_11a.png,object_11b.png,,,,,,,,,,,,,,,,,
603.6000000238419,,rt_thecrossant_black1,339133,,,,black_plus_sign,,,50,,,1,,,,,,,1,,,,,,,,,
null,,color_black1,339237,,,,black_plus_sign,,,null,,,,,,,,,,,,,,,,,,,
null,,learn_phase(without_color)1,342741,,,,black_plus_sign,,,null,object_01c.png,object_12b.png,,,,,,,,,,,,,,,,,
null,,black_cross(without_color)1,343453,,,,blue,,,null,object_01c.png,object_12b.png,,,,,,,,,,,,,,,,,
null,,rt_plussign_withcolor1,343955,,,,blue,,,null,object_01c.png,object_12b.png,,,,,,,,,,,,,,,,,
1344.7999999523163,,rt_thecrossant_black1,345249,,,,black_plus_sign,,,49,,,1,,,,,,,1,,,,,,,,,
null,,color_black1,345353,,,,black_plus_sign,,,null,,,,,,,,,,,,,,,,,,,
null,,learn_phase(without_color)1,348857,,,,black_plus_sign,,,null,object_03b.png,object_09c.png,,,,,,,,,,,,,,,,,
null,,black_cross(without_color)1,349751,,,,green,,,null,object_03b.png,object_09c.png,,,,,,,,,,,,,,,,,
423.39999997615814,,rt_plussign_withcolor1,350254,,,,green,,,50,object_03b.png,object_09c.png,,,,,,,,,,,,,,,,,
null,,rt_thecrossant_black1,351366,,,,black_plus_sign,,,null,,,1,,,,,,,1,,,,,,,,,
null,,color_black1,351468,,,,black_plus_sign,,,null,,,,,,,,,,,,,,,,,,,
null,,learn_phase(without_color)1,354972,,,,black_plus_sign,,,null,object_05a.png,object_14b.png,,,,,,,,,,,,,,,,,
null,,black_cross(without_color)1,355452,,,,blue,,,null,object_05a.png,object_14b.png,,,,,,,,,,,,,,,,,
486.39999997615814,,rt_plussign_withcolor1,355954,,,,blue,,,49,object_05a.png,object_14b.png,,,,,,,,,,,,,,,,,
null,,rt_thecrossant_black1,357479,,,,black_plus_sign,,,null,,,1,,,,,,,1,,,,,,,,,
null,,color_black1,357583,,,,black_plus_sign,,,null,,,,,,,,,,,,,,,,,,,
null,,learn_phase(without_color)1,361087,,,,black_plus_sign,,,null,object_03c.png,object_12b.png,,,,,,,,,,,,,,,,,
null,,black_cross(without_color)1,361567,,,,blue,,,null,object_03c.png,object_12b.png,,,,,,,,,,,,,,,,,
null,,rt_plussign_withcolor1,362069,,,,blue,,,null,object_03c.png,object_12b.png,,,,,,,,,,,,,,,,,
863.2999999523163,,rt_thecrossant_black1,363596,,,,black_plus_sign,,,49,,,1,,,,,,,1,,,,,,,,,
null,,color_black1,363699,,,,black_plus_sign,,,null,,,,,,,,,,,,,,,,,,,
null,,learn_phase(without_color)1,367203,,,,black_plus_sign,,,null,object_15a.png,object_04b.png,,,,,,,,,,,,,,,,,
null,,black_cross(without_color)1,367822,,,,green,,,null,object_15a.png,object_04b.png,,,,,,,,,,,,,,,,,
455,,rt_plussign_withcolor1,368325,,,,green,,,50,object_15a.png,object_04b.png,,,,,,,,,,,,,,,,,
null,,rt_thecrossant_black1,369711,,,,black_plus_sign,,,null,,,1,,,,,,,1,,,,,,,,,
null,,color_black1,369816,,,,black_plus_sign,,,null,,,,,,,,,,,,,,,,,,,
null,,learn_phase(without_color)1,373319,,,,black_plus_sign,,,null,object_15b.png,object_06c.png,,,,,,,,,,,,,,,,,
null,,black_cross(without_color)1,374397,,,,green,,,null,object_15b.png,object_06c.png,,,,,,,,,,,,,,,,,
null,,rt_plussign_withcolor1,374900,,,,green,,,null,object_15b.png,object_06c.png,,,,,,,,,,,,,,,,,
770.8000000715256,,rt_thecrossant_black1,375827,,,,black_plus_sign,,,50,,,1,,,,,,,1,,,,,,,,,
null,,color_black1,375930,,,,black_plus_sign,,,null,,,,,,,,,,,,,,,,,,,
null,,learn_phase(without_color)1,379434,,,,black_plus_sign,,,null,object_11c.png,object_13c.png,,,,,,,,,,,,,,,,,
null,,black_cross(without_color)1,380044,,,,blue,,,null,object_11c.png,object_13c.png,,,,,,,,,,,,,,,,,
437,,rt_plussign_withcolor1,380546,,,,blue,,,49,object_11c.png,object_13c.png,,,,,,,,,,,,,,,,,
null,,rt_thecrossant_black1,381942,,,,black_plus_sign,,,null,,,1,,,,,,,1,,,,,,,,,
null,,color_black1,382045,,,,black_plus_sign,,,null,,,,,,,,,,,,,,,,,,,
null,,learn_phase(without_color)1,385549,,,,black_plus_sign,,,null,object_12a.png,object_06c.png,,,,,,,,,,,,,,,,,
null,,black_cross(without_color)1,386618,,,,green,,,null,object_12a.png,object_06c.png,,,,,,,,,,,,,,,,,
427.1999999284744,,rt_plussign_withcolor1,387120,,,,green,,,50,object_12a.png,object_06c.png,,,,,,,,,,,,,,,,,
null,,rt_thecrossant_black1,388069,,,,black_plus_sign,,,null,,,1,,,,,,,1,,,,,,,,,
null,,color_black1,388172,,,,black_plus_sign,,,null,,,,,,,,,,,,,,,,,,,
null,,learn_phase(without_color)1,391675,,,,black_plus_sign,,,null,object_02b.png,object_12c.png,,,,,,,,,,,,,,,,,
null,,black_cross(without_color)1,392458,,,,blue,,,null,object_02b.png,object_12c.png,,,,,,,,,,,,,,,,,
null,,rt_plussign_withcolor1,392960,,,,blue,,,null,object_02b.png,object_12c.png,,,,,,,,,,,,,,,,,
1311.7000000476837,,rt_thecrossant_black1,394183,,,,black_plus_sign,,,49,,,1,,,,,,,1,,,,,,,,,
null,,color_black1,394286,,,,black_plus_sign,,,null,,,,,,,,,,,,,,,,,,,
null,,learn_phase(without_color)1,397789,,,,black_plus_sign,,,null,object_04a.png,object_13c.png,,,,,,,,,,,,,,,,,
null,,black_cross(without_color)1,398481,,,,green,,,null,object_04a.png,object_13c.png,,,,,,,,,,,,,,,,,
null,,rt_plussign_withcolor1,398983,,,,green,,,null,object_04a.png,object_13c.png,,,,,,,,,,,,,,,,,
891.5,,rt_thecrossant_black1,400297,,,,black_plus_sign,,,50,,,1,,,,,,,1,,,,,,,,,
null,,color_black1,400400,,,,black_plus_sign,,,null,,,,,,,,,,,,,,,,,,,
null,,learn_phase(without_color)1,403904,,,,black_plus_sign,,,null,object_14a.png,object_03a.png,,,,,,,,,,,,,,,,,
null,,black_cross(without_color)1,404768,,,,green,,,null,object_14a.png,object_03a.png,,,,,,,,,,,,,,,,,
498,,rt_plussign_withcolor1,405270,,,,green,,,50,object_14a.png,object_03a.png,,,,,,,,,,,,,,,,,
null,,rt_thecrossant_black1,406411,,,,black_plus_sign,,,null,,,1,,,,,,,1,,,,,,,,,
null,,color_black1,406514,,,,black_plus_sign,,,null,,,,,,,,,,,,,,,,,,,
null,,learn_phase(without_color)1,410033,,,,black_plus_sign,,,null,object_06a.png,object_15c.png,,,,,,,,,,,,,,,,,
null,,black_cross(without_color)1,410796,,,,blue,,,null,object_06a.png,object_15c.png,,,,,,,,,,,,,,,,,
null,,rt_plussign_withcolor1,411299,,,,blue,,,null,object_06a.png,object_15c.png,,,,,,,,,,,,,,,,,
1316.2999999523163,,rt_thecrossant_black1,412542,,,,black_plus_sign,,,49,,,1,,,,,,,1,,,,,,,,,
null,,color_black1,412644,,,,black_plus_sign,,,null,,,,,,,,,,,,,,,,,,,
null,,learn_phase(without_color)1,416147,,,,black_plus_sign,,,null,object_14a.png,object_08c.png,,,,,,,,,,,,,,,,,
null,,black_cross(without_color)1,417044,,,,blue,,,null,object_14a.png,object_08c.png,,,,,,,,,,,,,,,,,
null,,rt_plussign_withcolor1,417546,,,,blue,,,null,object_14a.png,object_08c.png,,,,,,,,,,,,,,,,,
949.5,,rt_thecrossant_black1,418656,,,,black_plus_sign,,,49,,,1,,,,,,,1,,,,,,,,,
null,,color_black1,418760,,,,black_plus_sign,,,null,,,,,,,,,,,,,,,,,,,
null,,learn_phase(without_color)1,422264,,,,black_plus_sign,,,null,object_02a.png,object_06b.png,,,,,,,,,,,,,,,,,
null,,black_cross(without_color)1,422891,,,,blue,,,null,object_02a.png,object_06b.png,,,,,,,,,,,,,,,,,
null,,rt_plussign_withcolor1,423394,,,,blue,,,null,object_02a.png,object_06b.png,,,,,,,,,,,,,,,,,
1271.5999999046326,,rt_thecrossant_black1,424772,,,,black_plus_sign,,,49,,,1,,,,,,,1,,,,,,,,,
null,,color_black1,424875,,,,black_plus_sign,,,null,,,,,,,,,,,,,,,,,,,
null,,learn_phase(without_color)1,428379,,,,black_plus_sign,,,null,object_15c.png,object_14c.png,,,,,,,,,,,,,,,,,
null,,black_cross(without_color)1,429251,,,,blue,,,null,object_15c.png,object_14c.png,,,,,,,,,,,,,,,,,
null,,rt_plussign_withcolor1,429753,,,,blue,,,null,object_15c.png,object_14c.png,,,,,,,,,,,,,,,,,
735.2999999523163,,rt_thecrossant_black1,430886,,,,black_plus_sign,,,49,,,1,,,,,,,1,,,,,,,,,
null,,color_black1,430988,,,,black_plus_sign,,,null,,,,,,,,,,,,,,,,,,,
null,,learn_phase(without_color)1,434492,,,,black_plus_sign,,,null,object_07a.png,object_01a.png,,,,,,,,,,,,,,,,,
null,,black_cross(without_color)1,435113,,,,blue,,,null,object_07a.png,object_01a.png,,,,,,,,,,,,,,,,,
null,,rt_plussign_withcolor1,435615,,,,blue,,,null,object_07a.png,object_01a.png,,,,,,,,,,,,,,,,,
1149,,rt_thecrossant_black1,436999,,,,black_plus_sign,,,49,,,1,,,,,,,1,,,,,,,,,
null,,color_black1,437102,,,,black_plus_sign,,,null,,,,,,,,,,,,,,,,,,,
null,,learn_phase(without_color)1,440606,,,,black_plus_sign,,,null,object_04c.png,object_09c.png,,,,,,,,,,,,,,,,,
null,,black_cross(without_color)1,441011,,,,green,,,null,object_04c.png,object_09c.png,,,,,,,,,,,,,,,,,
null,,rt_plussign_withcolor1,441512,,,,green,,,null,object_04c.png,object_09c.png,,,,,,,,,,,,,,,,,
782.3000000715256,,rt_thecrossant_black1,443114,,,,black_plus_sign,,,50,,,1,,,,,,,1,,,,,,,,,
null,,color_black1,443217,,,,black_plus_sign,,,null,,,,,,,,,,,,,,,,,,,
null,,learn_phase(without_color)1,446719,,,,black_plus_sign,,,null,object_05a.png,object_10b.png,,,,,,,,,,,,,,,,,
null,,black_cross(without_color)1,447312,,,,blue,,,null,object_05a.png,object_10b.png,,,,,,,,,,,,,,,,,
null,,rt_plussign_withcolor1,447814,,,,blue,,,null,object_05a.png,object_10b.png,,,,,,,,,,,,,,,,,
550.8000000715256,,rt_thecrossant_black1,449228,,,,black_plus_sign,,,49,,,1,,,,,,,1,,,,,,,,,
null,,color_black1,449332,,,,black_plus_sign,,,null,,,,,,,,,,,,,,,,,,,
null,,learn_phase(without_color)1,452836,,,,black_plus_sign,,,null,object_08b.png,object_02c.png,,,,,,,,,,,,,,,,,
null,,black_cross(without_color)1,453325,,,,green,,,null,object_08b.png,object_02c.png,,,,,,,,,,,,,,,,,
null,,rt_plussign_withcolor1,453827,,,,green,,,null,object_08b.png,object_02c.png,,,,,,,,,,,,,,,,,
935,,rt_thecrossant_black1,455351,,,,black_plus_sign,,,50,,,1,,,,,,,1,,,,,,,,,
null,,color_black1,455455,,,,black_plus_sign,,,null,,,,,,,,,,,,,,,,,,,
null,,learn_phase(without_color)1,458959,,,,black_plus_sign,,,null,object_10c.png,object_11a.png,,,,,,,,,,,,,,,,,
null,,black_cross(without_color)1,459824,,,,green,,,null,object_10c.png,object_11a.png,,,,,,,,,,,,,,,,,
null,,rt_plussign_withcolor1,460326,,,,green,,,null,object_10c.png,object_11a.png,,,,,,,,,,,,,,,,,
647,,rt_thecrossant_black1,461467,,,,black_plus_sign,,,50,,,1,,,,,,,1,,,,,,,,,
null,,color_black1,461571,,,,black_plus_sign,,,null,,,,,,,,,,,,,,,,,,,
null,,learn_phase(without_color)1,465074,,,,black_plus_sign,,,null,object_05b.png,object_09a.png,,,,,,,,,,,,,,,,,
null,,black_cross(without_color)1,465926,,,,green,,,null,object_05b.png,object_09a.png,,,,,,,,,,,,,,,,,
null,,rt_plussign_withcolor1,466428,,,,green,,,null,object_05b.png,object_09a.png,,,,,,,,,,,,,,,,,
1652.5,,rt_thecrossant_black1,467583,,,,black_plus_sign,,,50,,,1,,,,,,,1,,,,,,,,,
null,,color_black1,467684,,,,black_plus_sign,,,null,,,,,,,,,,,,,,,,,,,
null,,learn_phase(without_color)1,471188,,,,black_plus_sign,,,null,object_10a.png,object_09a.png,,,,,,,,,,,,,,,,,
null,,black_cross(without_color)1,472255,,,,green,,,null,object_10a.png,object_09a.png,,,,,,,,,,,,,,,,,
null,,rt_plussign_withcolor1,472758,,,,green,,,null,object_10a.png,object_09a.png,,,,,,,,,,,,,,,,,
996.3999999761581,,rt_thecrossant_black1,473697,,,,black_plus_sign,,,50,,,1,,,,,,,1,,,,,,,,,
null,,color_black1,473800,,,,black_plus_sign,,,null,,,,,,,,,,,,,,,,,,,
null,,learn_phase(without_color)1,477303,,,,black_plus_sign,,,null,object_09b.png,object_13a.png,,,,,,,,,,,,,,,,,
null,,black_cross(without_color)1,478260,,,,blue,,,null,object_09b.png,object_13a.png,,,,,,,,,,,,,,,,,
380.39999997615814,,rt_plussign_withcolor1,478763,,,,blue,,,49,object_09b.png,object_13a.png,,,,,,,,,,,,,,,,,
null,,rt_thecrossant_black1,479812,,,,black_plus_sign,,,null,,,1,,,,,,,1,,,,,,,,,
null,,color_black1,479915,,,,black_plus_sign,,,null,,,,,,,,,,,,,,,,,,,
null,,learn_phase(without_color)1,483419,,,,black_plus_sign,,,null,object_05c.png,object_02c.png,,,,,,,,,,,,,,,,,
null,,black_cross(without_color)1,484390,,,,blue,,,null,object_05c.png,object_02c.png,,,,,,,,,,,,,,,,,
null,,rt_plussign_withcolor1,484893,,,,blue,,,null,object_05c.png,object_02c.png,,,,,,,,,,,,,,,,,
1354.1000000238419,,rt_thecrossant_black1,485926,,,,black_plus_sign,,,49,,,1,,,,,,,1,,,,,,,,,
null,,color_black1,486028,,,,black_plus_sign,,,null,,,,,,,,,,,,,,,,,,,
null,,learn_phase(without_color)1,489533,,,,black_plus_sign,,,null,object_01a.png,object_07c.png,,,,,,,,,,,,,,,,,
null,,black_cross(without_color)1,490377,,,,green,,,null,object_01a.png,object_07c.png,,,,,,,,,,,,,,,,,
null,,rt_plussign_withcolor1,490879,,,,green,,,null,object_01a.png,object_07c.png,,,,,,,,,,,,,,,,,
1084.8999999761581,,rt_thecrossant_black1,492041,,,,black_plus_sign,,,50,,,1,,,,,,,1,,,,,,,,,
null,,color_black1,492146,,,,black_plus_sign,,,null,,,,,,,,,,,,,,,,,,,
null,,learn_phase(without_color)1,495650,,,,black_plus_sign,,,null,object_13b.png,object_13a.png,,,,,,,,,,,,,,,,,
null,,black_cross(without_color)1,496169,,,,green,,,null,object_13b.png,object_13a.png,,,,,,,,,,,,,,,,,
null,,rt_plussign_withcolor1,496671,,,,green,,,null,object_13b.png,object_13a.png,,,,,,,,,,,,,,,,,
1056.5,,rt_thecrossant_black1,498157,,,,black_plus_sign,,,50,,,1,,,,,,,1,,,,,,,,,
null,,color_black1,498260,,,,black_plus_sign,,,null,,,,,,,,,,,,,,,,,,,
null,,learn_phase(without_color)1,501764,,,,black_plus_sign,,,null,object_01b.png,object_02b.png,,,,,,,,,,,,,,,,,
null,,black_cross(without_color)1,502576,,,,green,,,null,object_01b.png,object_02b.png,,,,,,,,,,,,,,,,,
null,,rt_plussign_withcolor1,503078,,,,green,,,null,object_01b.png,object_02b.png,,,,,,,,,,,,,,,,,
660.6000000238419,,rt_thecrossant_black1,504271,,,,black_plus_sign,,,50,,,1,,,,,,,1,,,,,,,,,
null,,color_black1,504374,,,,black_plus_sign,,,null,,,,,,,,,,,,,,,,,,,
null,,thebreak,504480,,,,<p></p>,,,null,,,,,,,,,,,,,,,,,,,
3189.2999999523163,,intro_0,507672,,,,instruct,,,32,,,,,,,,,,,,,,,,,,,
6212.5,,directmemory_phase1,513887,,,,object_04c.png,,,49,,,1,,object_09c.png,object_13c.png,object_01c.png,object_09c.png,,1,1,,,,,,,,
4178.699999928474,,directmemory_phase1,518070,,,,object_01a.png,,,50,,,0,,object_07a.png,object_09b.png,object_13c.png,object_07a.png,,0.5,0,,,,,,,,
4451.699999928474,,directmemory_phase1,522525,,,,object_08c.png,,,51,,,0,,object_14a.png,object_06c.png,object_02a.png,object_14a.png,,0.3333333333333333,0,,,,,,,,
2027.6000000238419,,directmemory_phase1,524557,,,,object_03b.png,,,49,,,0,,object_01b.png,object_09c.png,object_09a.png,object_09c.png,,0.25,0,,,,,,,,
2819.2999999523163,,directmemory_phase1,527380,,,,object_12b.png,,,50,,,1,,object_13c.png,object_01c.png,object_15b.png,object_01c.png,,0.4,1,,,,,,,,
2483.100000023842,,directmemory_phase1,529867,,,,object_15c.png,,,51,,,0,,object_04b.png,object_06a.png,object_15a.png,object_06a.png,,0.3333333333333333,0,,,,,,,,
2403.2999999523163,,directmemory_phase1,532274,,,,object_11a.png,,,50,,,1,,object_12b.png,object_11b.png,object_01c.png,object_11b.png,,0.42857142857142855,1,,,,,,,,
1793.0999999046326,,directmemory_phase1,534070,,,,object_08a.png,,,49,,,1,,object_04b.png,object_06c.png,object_03c.png,object_04b.png,,0.5,1,,,,,,,,
1668.6000000238419,,directmemory_phase1,535742,,,,object_11c.png,,,50,,,1,,object_04c.png,object_13c.png,object_15c.png,object_13c.png,,0.5555555555555556,1,,,,,,,,
2241.600000023842,,directmemory_phase1,537987,,,,object_04a.png,,,49,,,1,,object_13c.png,object_01a.png,object_13b.png,object_13c.png,,0.6,1,,,,,,,,
1863.5,,directmemory_phase1,539854,,,,object_05b.png,,,51,,,1,,object_04b.png,object_15a.png,object_09a.png,object_09a.png,,0.6363636363636364,1,,,,,,,,
1518.3000000715256,,directmemory_phase1,541376,,,,object_03c.png,,,50,,,1,,object_04a.png,object_12b.png,object_01a.png,object_12b.png,,0.6666666666666666,1,,,,,,,,
1929.3000000715256,,directmemory_phase1,543309,,,,object_13b.png,,,49,,,1,,object_13a.png,object_15c.png,object_07c.png,object_13a.png,,0.6923076923076923,1,,,,,,,,
2865.6999999284744,,directmemory_phase1,546178,,,,object_07b.png,,,49,,,0,,object_14a.png,object_01c.png,object_06b.png,object_06b.png,,0.6428571428571429,0,,,,,,,,
2408.4000000953674,,directmemory_phase1,548590,,,,object_01b.png,,,50,,,0,,object_15c.png,object_08b.png,object_02b.png,object_02b.png,,0.6,0,,,,,,,,
2915.399999976158,,directmemory_phase1,551508,,,,object_14c.png,,,50,,,1,,object_08c.png,object_15c.png,object_09a.png,object_15c.png,,0.625,1,,,,,,,,
2160.399999976158,,directmemory_phase1,553672,,,,object_05a.png,,,51,,,0,,object_14b.png,object_15b.png,object_04b.png,object_14b.png,,0.5882352941176471,0,,,,,,,,
2488,,directmemory_phase1,556164,,,,object_08b.png,,,49,,,1,,object_02c.png,object_06c.png,object_10a.png,object_02c.png,,0.6111111111111112,1,,,,,,,,
2278.600000023842,,directmemory_phase1,558446,,,,object_02b.png,,,50,,,0,,object_06a.png,object_13a.png,object_12c.png,object_12c.png,,0.5789473684210527,0,,,,,,,,
1629,,directmemory_phase1,560078,,,,object_15a.png,,,49,,,1,,object_04b.png,object_09a.png,object_01c.png,object_04b.png,,0.6,1,,,,,,,,
1995,,directmemory_phase1,562077,,,,object_12a.png,,,51,,,1,,object_06b.png,object_13b.png,object_06c.png,object_06c.png,,0.6190476190476191,1,,,,,,,,
2327.3000000715256,,directmemory_phase1,564407,,,,object_10c.png,,,51,,,1,,object_12b.png,object_03c.png,object_11a.png,object_11a.png,,0.6363636363636364,1,,,,,,,,
1435.4000000953674,,directmemory_phase1,565846,,,,object_10a.png,,,50,,,0,,object_09a.png,object_02c.png,object_08c.png,object_09a.png,,0.6086956521739131,0,,,,,,,,
1797.0999999046326,,directmemory_phase1,567646,,,,object_05c.png,,,49,,,1,,object_02c.png,object_06c.png,object_15a.png,object_02c.png,,0.625,1,,,,,,,,
1713.8000000715256,,directmemory_phase1,569364,,,,object_10b.png,,,51,,,0,,object_08a.png,object_05a.png,object_13c.png,object_05a.png,,0.6,0,,,,,,,,
2373.9000000953674,,directmemory_phase1,571741,,,,object_02a.png,,,50,,,1,,object_01b.png,object_06b.png,object_13c.png,object_06b.png,,0.6153846153846154,1,,,,,,,,
2556.7000000476837,,directmemory_phase1,574301,,,,object_15b.png,,,50,,,1,,object_14b.png,object_06c.png,object_02c.png,object_06c.png,,0.6296296296296297,1,,,,,,,,
2689.100000023842,,directmemory_phase1,576995,,,,object_13a.png,,,50,,,0,,object_04c.png,object_09a.png,object_09b.png,object_09b.png,,0.6071428571428571,0,,,,,,,,
2541,,directmemory_phase1,579539,,,,object_07c.png,,,50,,,1,,object_10a.png,object_01a.png,object_13a.png,object_01a.png,,0.6206896551724138,1,,,,,,,,
2323,,directmemory_phase1,581866,,,,object_14a.png,,,50,,,1,,object_06c.png,object_03a.png,object_06a.png,object_03a.png,,0.6333333333333333,1,,,,,,,,
null,,thebreak,581971,,,,<p></p>,,,null,,,,,,,,,,,,,,,,,,,
2301.600000023842,,intro_0,584275,,,,instruct,,,32,,,,,,,,,,,,,,,,,,,
null,,learn_phase(without_color)2,587778,,,,black_plus_sign,,,null,object_03b.png,object_09c.png,,,,,,,,,,,,,,,,,
null,,black_cross(without_color)2,588666,,,,blue,,,null,object_03b.png,object_09c.png,,,,,,,,,,,,,,,,,
null,,rt_plussign_withcolor2,589168,,,,blue,,,null,object_03b.png,object_09c.png,,,,,,,,,,,,,,,,,
1510.9000000953674,,rt_thecrossant_black2,590286,,,,black_plus_sign,,,49,,,1,,,,,,,1,,,,,,,,,
null,,color_black2,590389,,,,black_plus_sign,,,null,,,,,,,,,,,,,,,,,,,
null,,learn_phase(without_color)2,593891,,,,black_plus_sign,,,null,object_12b.png,object_01c.png,,,,,,,,,,,,,,,,,
null,,black_cross(without_color)2,594495,,,,green,,,null,object_12b.png,object_01c.png,,,,,,,,,,,,,,,,,
null,,rt_plussign_withcolor2,594997,,,,green,,,null,object_12b.png,object_01c.png,,,,,,,,,,,,,,,,,
1159.1999999284744,,rt_thecrossant_black2,596400,,,,black_plus_sign,,,50,,,1,,,,,,,1,,,,,,,,,
null,,color_black2,596504,,,,black_plus_sign,,,null,,,,,,,,,,,,,,,,,,,
null,,learn_phase(without_color)2,600008,,,,black_plus_sign,,,null,object_04c.png,object_09c.png,,,,,,,,,,,,,,,,,
null,,black_cross(without_color)2,600579,,,,green,,,null,object_04c.png,object_09c.png,,,,,,,,,,,,,,,,,
null,,rt_plussign_withcolor2,601081,,,,green,,,null,object_04c.png,object_09c.png,,,,,,,,,,,,,,,,,
1142.7999999523163,,rt_thecrossant_black2,602516,,,,black_plus_sign,,,50,,,1,,,,,,,1,,,,,,,,,
null,,color_black2,602620,,,,black_plus_sign,,,null,,,,,,,,,,,,,,,,,,,
null,,learn_phase(without_color)2,606124,,,,black_plus_sign,,,null,object_11b.png,object_11a.png,,,,,,,,,,,,,,,,,
null,,black_cross(without_color)2,606717,,,,green,,,null,object_11b.png,object_11a.png,,,,,,,,,,,,,,,,,
null,,rt_plussign_withcolor2,607219,,,,green,,,null,object_11b.png,object_11a.png,,,,,,,,,,,,,,,,,
738.8000000715256,,rt_thecrossant_black2,608633,,,,black_plus_sign,,,50,,,1,,,,,,,1,,,,,,,,,
null,,color_black2,608736,,,,black_plus_sign,,,null,,,,,,,,,,,,,,,,,,,
null,,learn_phase(without_color)2,612240,,,,black_plus_sign,,,null,object_01a.png,object_07a.png,,,,,,,,,,,,,,,,,
null,,black_cross(without_color)2,612897,,,,green,,,null,object_01a.png,object_07a.png,,,,,,,,,,,,,,,,,
null,,rt_plussign_withcolor2,613399,,,,green,,,null,object_01a.png,object_07a.png,,,,,,,,,,,,,,,,,
814.3999999761581,,rt_thecrossant_black2,614749,,,,black_plus_sign,,,50,,,1,,,,,,,1,,,,,,,,,
null,,color_black2,614852,,,,black_plus_sign,,,null,,,,,,,,,,,,,,,,,,,
null,,learn_phase(without_color)2,618363,,,,black_plus_sign,,,null,object_02b.png,object_12c.png,,,,,,,,,,,,,,,,,
null,,black_cross(without_color)2,619333,,,,green,,,null,object_02b.png,object_12c.png,,,,,,,,,,,,,,,,,
410.7000000476837,,rt_plussign_withcolor2,619835,,,,green,,,50,object_02b.png,object_12c.png,,,,,,,,,,,,,,,,,
null,,rt_thecrossant_black2,620872,,,,black_plus_sign,,,null,,,1,,,,,,,1,,,,,,,,,
null,,color_black2,620976,,,,black_plus_sign,,,null,,,,,,,,,,,,,,,,,,,
null,,learn_phase(without_color)2,624481,,,,black_plus_sign,,,null,object_08b.png,object_02c.png,,,,,,,,,,,,,,,,,
null,,black_cross(without_color)2,625338,,,,green,,,null,object_08b.png,object_02c.png,,,,,,,,,,,,,,,,,
null,,rt_plussign_withcolor2,625841,,,,green,,,null,object_08b.png,object_02c.png,,,,,,,,,,,,,,,,,
1398.6000000238419,,rt_thecrossant_black2,626990,,,,black_plus_sign,,,50,,,1,,,,,,,1,,,,,,,,,
null,,color_black2,627107,,,,black_plus_sign,,,null,,,,,,,,,,,,,,,,,,,
null,,learn_phase(without_color)2,630612,,,,black_plus_sign,,,null,object_13b.png,object_13a.png,,,,,,,,,,,,,,,,,
null,,black_cross(without_color)2,631223,,,,blue,,,null,object_13b.png,object_13a.png,,,,,,,,,,,,,,,,,
365,,rt_plussign_withcolor2,631726,,,,blue,,,49,object_13b.png,object_13a.png,,,,,,,,,,,,,,,,,
null,,rt_thecrossant_black2,633120,,,,black_plus_sign,,,null,,,1,,,,,,,1,,,,,,,,,
null,,color_black2,633224,,,,black_plus_sign,,,null,,,,,,,,,,,,,,,,,,,
null,,learn_phase(without_color)2,636728,,,,black_plus_sign,,,null,object_02a.png,object_06b.png,,,,,,,,,,,,,,,,,
null,,black_cross(without_color)2,637538,,,,blue,,,null,object_02a.png,object_06b.png,,,,,,,,,,,,,,,,,
485.3000000715256,,rt_plussign_withcolor2,638043,,,,blue,,,49,object_02a.png,object_06b.png,,,,,,,,,,,,,,,,,
null,,rt_thecrossant_black2,639239,,,,black_plus_sign,,,null,,,1,,,,,,,1,,,,,,,,,
null,,color_black2,639355,,,,black_plus_sign,,,null,,,,,,,,,,,,,,,,,,,
null,,learn_phase(without_color)2,642859,,,,black_plus_sign,,,null,object_04b.png,object_15a.png,,,,,,,,,,,,,,,,,
null,,black_cross(without_color)2,643507,,,,green,,,null,object_04b.png,object_15a.png,,,,,,,,,,,,,,,,,
477,,rt_plussign_withcolor2,644009,,,,green,,,50,object_04b.png,object_15a.png,,,,,,,,,,,,,,,,,
null,,rt_thecrossant_black2,645366,,,,black_plus_sign,,,null,,,1,,,,,,,1,,,,,,,,,
null,,color_black2,645469,,,,black_plus_sign,,,null,,,,,,,,,,,,,,,,,,,
null,,learn_phase(without_color)2,648973,,,,black_plus_sign,,,null,object_09b.png,object_13a.png,,,,,,,,,,,,,,,,,
null,,black_cross(without_color)2,649407,,,,blue,,,null,object_09b.png,object_13a.png,,,,,,,,,,,,,,,,,
437.60000002384186,,rt_plussign_withcolor2,649909,,,,blue,,,49,object_09b.png,object_13a.png,,,,,,,,,,,,,,,,,
null,,rt_thecrossant_black2,651480,,,,black_plus_sign,,,null,,,1,,,,,,,1,,,,,,,,,
null,,color_black2,651582,,,,black_plus_sign,,,null,,,,,,,,,,,,,,,,,,,
null,,learn_phase(without_color)2,655086,,,,black_plus_sign,,,null,object_15b.png,object_06c.png,,,,,,,,,,,,,,,,,
null,,black_cross(without_color)2,655591,,,,green,,,null,object_15b.png,object_06c.png,,,,,,,,,,,,,,,,,
null,,rt_plussign_withcolor2,656094,,,,green,,,null,object_15b.png,object_06c.png,,,,,,,,,,,,,,,,,
616.1999999284744,,rt_thecrossant_black2,657594,,,,black_plus_sign,,,50,,,1,,,,,,,1,,,,,,,,,
null,,color_black2,657696,,,,black_plus_sign,,,null,,,,,,,,,,,,,,,,,,,
null,,learn_phase(without_color)2,661200,,,,black_plus_sign,,,null,object_10c.png,object_11a.png,,,,,,,,,,,,,,,,,
null,,black_cross(without_color)2,662149,,,,green,,,null,object_10c.png,object_11a.png,,,,,,,,,,,,,,,,,
null,,rt_plussign_withcolor2,662656,,,,green,,,null,object_10c.png,object_11a.png,,,,,,,,,,,,,,,,,
793.4000000953674,,rt_thecrossant_black2,663713,,,,black_plus_sign,,,50,,,1,,,,,,,1,,,,,,,,,
null,,color_black2,663816,,,,black_plus_sign,,,null,,,,,,,,,,,,,,,,,,,
null,,learn_phase(without_color)2,667319,,,,black_plus_sign,,,null,object_06a.png,object_15c.png,,,,,,,,,,,,,,,,,
null,,black_cross(without_color)2,667796,,,,blue,,,null,object_06a.png,object_15c.png,,,,,,,,,,,,,,,,,
null,,rt_plussign_withcolor2,668298,,,,blue,,,null,object_06a.png,object_15c.png,,,,,,,,,,,,,,,,,
1420.6000000238419,,rt_thecrossant_black2,669827,,,,black_plus_sign,,,49,,,1,,,,,,,1,,,,,,,,,
null,,color_black2,669932,,,,black_plus_sign,,,null,,,,,,,,,,,,,,,,,,,
null,,learn_phase(without_color)2,673435,,,,black_plus_sign,,,null,object_14b.png,object_05a.png,,,,,,,,,,,,,,,,,
null,,black_cross(without_color)2,674282,,,,green,,,null,object_14b.png,object_05a.png,,,,,,,,,,,,,,,,,
null,,rt_plussign_withcolor2,674784,,,,green,,,null,object_14b.png,object_05a.png,,,,,,,,,,,,,,,,,
766.6000000238419,,rt_thecrossant_black2,675943,,,,black_plus_sign,,,50,,,1,,,,,,,1,,,,,,,,,
null,,color_black2,676047,,,,black_plus_sign,,,null,,,,,,,,,,,,,,,,,,,
null,,learn_phase(without_color)2,679550,,,,black_plus_sign,,,null,object_02c.png,object_05c.png,,,,,,,,,,,,,,,,,
null,,black_cross(without_color)2,680256,,,,green,,,null,object_02c.png,object_05c.png,,,,,,,,,,,,,,,,,
null,,rt_plussign_withcolor2,680759,,,,green,,,null,object_02c.png,object_05c.png,,,,,,,,,,,,,,,,,
948.5999999046326,,rt_thecrossant_black2,682060,,,,black_plus_sign,,,50,,,1,,,,,,,1,,,,,,,,,
null,,color_black2,682171,,,,black_plus_sign,,,null,,,,,,,,,,,,,,,,,,,
null,,learn_phase(without_color)2,685675,,,,black_plus_sign,,,null,object_08a.png,object_04b.png,,,,,,,,,,,,,,,,,
null,,black_cross(without_color)2,686436,,,,blue,,,null,object_08a.png,object_04b.png,,,,,,,,,,,,,,,,,
417.2999999523163,,rt_plussign_withcolor2,686939,,,,blue,,,49,object_08a.png,object_04b.png,,,,,,,,,,,,,,,,,
null,,rt_thecrossant_black2,688185,,,,black_plus_sign,,,null,,,1,,,,,,,1,,,,,,,,,
null,,color_black2,688288,,,,black_plus_sign,,,null,,,,,,,,,,,,,,,,,,,
null,,learn_phase(without_color)2,691792,,,,black_plus_sign,,,null,object_03a.png,object_14a.png,,,,,,,,,,,,,,,,,
null,,black_cross(without_color)2,692244,,,,blue,,,null,object_03a.png,object_14a.png,,,,,,,,,,,,,,,,,
null,,rt_plussign_withcolor2,692746,,,,blue,,,null,object_03a.png,object_14a.png,,,,,,,,,,,,,,,,,
997.6000000238419,,rt_thecrossant_black2,694300,,,,black_plus_sign,,,49,,,1,,,,,,,1,,,,,,,,,
null,,color_black2,694404,,,,black_plus_sign,,,null,,,,,,,,,,,,,,,,,,,
null,,learn_phase(without_color)2,697908,,,,black_plus_sign,,,null,object_02b.png,object_01b.png,,,,,,,,,,,,,,,,,
null,,black_cross(without_color)2,698677,,,,green,,,null,object_02b.png,object_01b.png,,,,,,,,,,,,,,,,,
337.39999997615814,,rt_plussign_withcolor2,699179,,,,green,,,50,object_02b.png,object_01b.png,,,,,,,,,,,,,,,,,
null,,rt_thecrossant_black2,700417,,,,black_plus_sign,,,null,,,1,,,,,,,1,,,,,,,,,
null,,color_black2,700518,,,,black_plus_sign,,,null,,,,,,,,,,,,,,,,,,,
null,,learn_phase(without_color)2,704022,,,,black_plus_sign,,,null,object_06c.png,object_12a.png,,,,,,,,,,,,,,,,,
null,,black_cross(without_color)2,704495,,,,blue,,,null,object_06c.png,object_12a.png,,,,,,,,,,,,,,,,,
null,,rt_plussign_withcolor2,704997,,,,blue,,,null,object_06c.png,object_12a.png,,,,,,,,,,,,,,,,,
1016.3000000715256,,rt_thecrossant_black2,706532,,,,black_plus_sign,,,49,,,1,,,,,,,1,,,,,,,,,
null,,color_black2,706636,,,,black_plus_sign,,,null,,,,,,,,,,,,,,,,,,,
null,,learn_phase(without_color)2,710140,,,,black_plus_sign,,,null,object_12b.png,object_03c.png,,,,,,,,,,,,,,,,,
null,,black_cross(without_color)2,711127,,,,green,,,null,object_12b.png,object_03c.png,,,,,,,,,,,,,,,,,
405.90000009536743,,rt_plussign_withcolor2,711629,,,,green,,,50,object_12b.png,object_03c.png,,,,,,,,,,,,,,,,,
null,,rt_thecrossant_black2,712649,,,,black_plus_sign,,,null,,,1,,,,,,,1,,,,,,,,,
null,,color_black2,712764,,,,black_plus_sign,,,null,,,,,,,,,,,,,,,,,,,
null,,learn_phase(without_color)2,716268,,,,black_plus_sign,,,null,object_09a.png,object_10a.png,,,,,,,,,,,,,,,,,
null,,black_cross(without_color)2,717190,,,,green,,,null,object_09a.png,object_10a.png,,,,,,,,,,,,,,,,,
null,,rt_plussign_withcolor2,717693,,,,green,,,null,object_09a.png,object_10a.png,,,,,,,,,,,,,,,,,
1223.1000000238419,,rt_thecrossant_black2,718777,,,,black_plus_sign,,,50,,,1,,,,,,,1,,,,,,,,,
null,,color_black2,718880,,,,black_plus_sign,,,null,,,,,,,,,,,,,,,,,,,
null,,learn_phase(without_color)2,722384,,,,black_plus_sign,,,null,object_07c.png,object_01a.png,,,,,,,,,,,,,,,,,
null,,black_cross(without_color)2,723380,,,,green,,,null,object_07c.png,object_01a.png,,,,,,,,,,,,,,,,,
374,,rt_plussign_withcolor2,723882,,,,green,,,50,object_07c.png,object_01a.png,,,,,,,,,,,,,,,,,
null,,rt_thecrossant_black2,724892,,,,black_plus_sign,,,null,,,1,,,,,,,1,,,,,,,,,
null,,color_black2,724996,,,,black_plus_sign,,,null,,,,,,,,,,,,,,,,,,,
null,,learn_phase(without_color)2,728501,,,,black_plus_sign,,,null,object_14c.png,object_15c.png,,,,,,,,,,,,,,,,,
null,,black_cross(without_color)2,728997,,,,blue,,,null,object_14c.png,object_15c.png,,,,,,,,,,,,,,,,,
null,,rt_plussign_withcolor2,729499,,,,blue,,,null,object_14c.png,object_15c.png,,,,,,,,,,,,,,,,,
1409.7999999523163,,rt_thecrossant_black2,731008,,,,black_plus_sign,,,49,,,1,,,,,,,1,,,,,,,,,
null,,color_black2,731110,,,,black_plus_sign,,,null,,,,,,,,,,,,,,,,,,,
null,,learn_phase(without_color)2,734614,,,,black_plus_sign,,,null,object_08c.png,object_14a.png,,,,,,,,,,,,,,,,,
null,,black_cross(without_color)2,735504,,,,blue,,,null,object_08c.png,object_14a.png,,,,,,,,,,,,,,,,,
null,,rt_plussign_withcolor2,736007,,,,blue,,,null,object_08c.png,object_14a.png,,,,,,,,,,,,,,,,,
760.1999999284744,,rt_thecrossant_black2,737122,,,,black_plus_sign,,,49,,,1,,,,,,,1,,,,,,,,,
null,,color_black2,737226,,,,black_plus_sign,,,null,,,,,,,,,,,,,,,,,,,
null,,learn_phase(without_color)2,740729,,,,black_plus_sign,,,null,object_05b.png,object_09a.png,,,,,,,,,,,,,,,,,
null,,black_cross(without_color)2,741462,,,,blue,,,null,object_05b.png,object_09a.png,,,,,,,,,,,,,,,,,
null,,rt_plussign_withcolor2,741964,,,,blue,,,null,object_05b.png,object_09a.png,,,,,,,,,,,,,,,,,
1360.5999999046326,,rt_thecrossant_black2,743238,,,,black_plus_sign,,,49,,,1,,,,,,,1,,,,,,,,,
null,,color_black2,743341,,,,black_plus_sign,,,null,,,,,,,,,,,,,,,,,,,
null,,learn_phase(without_color)2,746846,,,,black_plus_sign,,,null,object_06b.png,object_07b.png,,,,,,,,,,,,,,,,,
null,,black_cross(without_color)2,747390,,,,blue,,,null,object_06b.png,object_07b.png,,,,,,,,,,,,,,,,,
418.8000000715256,,rt_plussign_withcolor2,747892,,,,blue,,,49,object_06b.png,object_07b.png,,,,,,,,,,,,,,,,,
null,,rt_thecrossant_black2,749355,,,,black_plus_sign,,,null,,,1,,,,,,,1,,,,,,,,,
null,,color_black2,749459,,,,black_plus_sign,,,null,,,,,,,,,,,,,,,,,,,
null,,learn_phase(without_color)2,752964,,,,black_plus_sign,,,null,object_05a.png,object_10b.png,,,,,,,,,,,,,,,,,
null,,black_cross(without_color)2,753954,,,,green,,,null,object_05a.png,object_10b.png,,,,,,,,,,,,,,,,,
383.10000002384186,,rt_plussign_withcolor2,754457,,,,green,,,50,object_05a.png,object_10b.png,,,,,,,,,,,,,,,,,
null,,rt_thecrossant_black2,755474,,,,black_plus_sign,,,null,,,1,,,,,,,1,,,,,,,,,
null,,color_black2,755577,,,,black_plus_sign,,,null,,,,,,,,,,,,,,,,,,,
null,,learn_phase(without_color)2,759082,,,,black_plus_sign,,,null,object_11c.png,object_13c.png,,,,,,,,,,,,,,,,,
null,,black_cross(without_color)2,760092,,,,blue,,,null,object_11c.png,object_13c.png,,,,,,,,,,,,,,,,,
null,,rt_plussign_withcolor2,760597,,,,blue,,,null,object_11c.png,object_13c.png,,,,,,,,,,,,,,,,,
1420.5999999046326,,rt_thecrossant_black2,761592,,,,black_plus_sign,,,49,,,1,,,,,,,1,,,,,,,,,
null,,color_black2,761694,,,,black_plus_sign,,,null,,,,,,,,,,,,,,,,,,,
null,,learn_phase(without_color)2,765198,,,,black_plus_sign,,,null,object_04a.png,object_13c.png,,,,,,,,,,,,,,,,,
null,,black_cross(without_color)2,766217,,,,blue,,,null,object_04a.png,object_13c.png,,,,,,,,,,,,,,,,,
null,,rt_plussign_withcolor2,766719,,,,blue,,,null,object_04a.png,object_13c.png,,,,,,,,,,,,,,,,,
1299.3000000715256,,rt_thecrossant_black2,767706,,,,black_plus_sign,,,49,,,1,,,,,,,1,,,,,,,,,
null,,color_black2,767810,,,,black_plus_sign,,,null,,,,,,,,,,,,,,,,,,,
null,,thebreak,767913,,,,<p></p>,,,null,,,,,,,,,,,,,,,,,,,
2875.2999999523163,,intro_0,770791,,,,instruct,,,32,,,,,,,,,,,,,,,,,,,
4672.299999952316,,directmemory_phase2,775467,,,,object_03a.png,,,49,,,1,,object_14a.png,object_15c.png,object_06a.png,object_14a.png,,0.6451612903225806,1,,,,,,,,
3675.2000000476837,,directmemory_phase2,779145,,,,object_06c.png,,,49,,,1,,object_15b.png,object_07a.png,object_06b.png,object_15b.png,,0.65625,1,,,,,,,,
2952.5,,directmemory_phase2,782100,,,,object_08b.png,,,50,,,1,,object_13b.png,object_02c.png,object_09a.png,object_02c.png,,0.6666666666666666,1,,,,,,,,
3256.4000000953674,,directmemory_phase2,785359,,,,object_09a.png,,,50,,,0,,object_09b.png,object_12b.png,object_05b.png,object_05b.png,,0.6470588235294118,0,,,,,,,,
2125.899999976158,,directmemory_phase2,787487,,,,object_09b.png,,,51,,,1,,object_02c.png,object_11c.png,object_13a.png,object_13a.png,,0.6571428571428571,1,,,,,,,,
2800.1999999284744,,directmemory_phase2,790291,,,,object_01a.png,,,50,,,1,,object_14a.png,object_07a.png,object_01c.png,object_07a.png,,0.6666666666666666,1,,,,,,,,
2238.100000023842,,directmemory_phase2,792532,,,,object_12c.png,,,50,,,1,,object_05c.png,object_02b.png,object_13c.png,object_02b.png,,0.6756756756756757,1,,,,,,,,
3845.2000000476837,,directmemory_phase2,796379,,,,object_01b.png,,,49,,,0,,object_13b.png,object_02b.png,object_04b.png,object_02b.png,,0.6578947368421053,0,,,,,,,,
3080.6999999284744,,directmemory_phase2,799464,,,,object_14c.png,,,51,,,1,,object_06c.png,object_13b.png,object_15c.png,object_15c.png,,0.6666666666666666,1,,,,,,,,
2997.600000023842,,directmemory_phase2,802466,,,,object_09c.png,,,49,,,0,,object_14b.png,object_15c.png,object_04c.png,object_04c.png,,0.65,0,,,,,,,,
3174.7999999523163,,directmemory_phase2,805645,,,,object_10c.png,,,51,,,1,,object_06c.png,object_03c.png,object_11a.png,object_11a.png,,0.6585365853658537,1,,,,,,,,
1933.3999999761581,,directmemory_phase2,807582,,,,object_12a.png,,,50,,,1,,object_07c.png,object_06c.png,object_13a.png,object_06c.png,,0.6666666666666666,1,,,,,,,,
2421,,directmemory_phase2,810005,,,,object_13c.png,,,49,,,1,,object_11c.png,object_07b.png,object_13a.png,object_11c.png,,0.6744186046511628,1,,,,,,,,
3024.2000000476837,,directmemory_phase2,813033,,,,object_08c.png,,,50,,,0,,object_14a.png,object_09c.png,object_13b.png,object_14a.png,,0.6590909090909091,0,,,,,,,,
2429.600000023842,,directmemory_phase2,815466,,,,object_13b.png,,,49,,,1,,object_13a.png,object_02c.png,object_07c.png,object_13a.png,,0.6666666666666666,1,,,,,,,,
1331.5,,directmemory_phase2,816802,,,,object_04a.png,,,50,,,1,,object_01b.png,object_13c.png,object_15c.png,object_13c.png,,0.6739130434782609,1,,,,,,,,
2336.899999976158,,directmemory_phase2,819142,,,,object_05c.png,,,51,,,1,,object_12b.png,object_15b.png,object_02c.png,object_02c.png,,0.6808510638297872,1,,,,,,,,
2335.7000000476837,,directmemory_phase2,821482,,,,object_07c.png,,,49,,,1,,object_01a.png,object_09c.png,object_03c.png,object_01a.png,,0.6875,1,,,,,,,,
2556.1999999284744,,directmemory_phase2,824042,,,,object_11a.png,,,50,,,0,,object_07b.png,object_02c.png,object_11b.png,object_11b.png,,0.673469387755102,0,,,,,,,,
2411.7999999523163,,directmemory_phase2,826457,,,,object_10b.png,,,50,,,1,,object_08a.png,object_05a.png,object_06b.png,object_05a.png,,0.68,1,,,,,,,,
2706.5,,directmemory_phase2,829165,,,,object_14b.png,,,51,,,1,,object_13c.png,object_09b.png,object_05a.png,object_05a.png,,0.6862745098039216,1,,,,,,,,
1649.3999999761581,,directmemory_phase2,830818,,,,object_03b.png,,,49,,,1,,object_09c.png,object_06b.png,object_14c.png,object_09c.png,,0.6923076923076923,1,,,,,,,,
1722.8000000715256,,directmemory_phase2,832545,,,,object_15a.png,,,51,,,1,,object_13c.png,object_01c.png,object_04b.png,object_04b.png,,0.6981132075471698,1,,,,,,,,
1671.8000000715256,,directmemory_phase2,834220,,,,object_06a.png,,,49,,,1,,object_15c.png,object_02b.png,object_15b.png,object_15c.png,,0.7037037037037037,1,,,,,,,,
2043.2999999523163,,directmemory_phase2,836267,,,,object_03c.png,,,51,,,1,,object_14a.png,object_07c.png,object_12b.png,object_12b.png,,0.7090909090909091,1,,,,,,,,
2112.100000023842,,directmemory_phase2,838383,,,,object_01c.png,,,49,,,0,,object_04b.png,object_11c.png,object_12b.png,object_12b.png,,0.6964285714285714,0,,,,,,,,
2649.2000000476837,,directmemory_phase2,841036,,,,object_02a.png,,,50,,,1,,object_12a.png,object_06b.png,object_12b.png,object_06b.png,,0.7017543859649122,1,,,,,,,,
1948.8999999761581,,directmemory_phase2,842989,,,,object_06b.png,,,50,,,1,,object_12b.png,object_07b.png,object_14b.png,object_07b.png,,0.7068965517241379,1,,,,,,,,
2323.100000023842,,directmemory_phase2,845316,,,,object_10a.png,,,49,,,0,,object_02a.png,object_09a.png,object_06c.png,object_09a.png,,0.6949152542372882,0,,,,,,,,
1949.8999999761581,,directmemory_phase2,847269,,,,object_08a.png,,,49,,,1,,object_04b.png,object_09a.png,object_01b.png,object_04b.png,,0.7,1,,,,,,,,
null,,thebreak,847386,,,,<p></p>,,,null,,,,,,,,,,,,,,,,,,,
1828.3000000715256,,intro_0,849216,,,,instruct,,,32,,,,,,,,,,,,,,,,,,,
null,,learn_phase(without_color)3,852719,,,,black_plus_sign,,,null,object_11c.png,object_13c.png,,,,,,,,,,,,,,,,,
null,,black_cross(without_color)3,853814,,,,blue,,,null,object_11c.png,object_13c.png,,,,,,,,,,,,,,,,,
null,,rt_plussign_withcolor3,854316,,,,blue,,,null,object_11c.png,object_13c.png,,,,,,,,,,,,,,,,,
1399.5,,rt_thecrossant_black3,855227,,,,black_plus_sign,,,49,,,1,,,,,,,1,,,,,,,,,
null,,color_black3,855331,,,,black_plus_sign,,,null,,,,,,,,,,,,,,,,,,,
null,,learn_phase(without_color)3,858836,,,,black_plus_sign,,,null,object_11a.png,object_10c.png,,,,,,,,,,,,,,,,,
null,,black_cross(without_color)3,859549,,,,blue,,,null,object_11a.png,object_10c.png,,,,,,,,,,,,,,,,,
null,,rt_plussign_withcolor3,860052,,,,blue,,,null,object_11a.png,object_10c.png,,,,,,,,,,,,,,,,,
1558,,rt_thecrossant_black3,861346,,,,black_plus_sign,,,49,,,1,,,,,,,1,,,,,,,,,
null,,color_black3,861449,,,,black_plus_sign,,,null,,,,,,,,,,,,,,,,,,,
null,,learn_phase(without_color)3,864954,,,,black_plus_sign,,,null,object_10a.png,object_09a.png,,,,,,,,,,,,,,,,,
null,,black_cross(without_color)3,865408,,,,green,,,null,object_10a.png,object_09a.png,,,,,,,,,,,,,,,,,
null,,rt_plussign_withcolor3,865911,,,,green,,,null,object_10a.png,object_09a.png,,,,,,,,,,,,,,,,,
956.2000000476837,,rt_thecrossant_black3,867464,,,,black_plus_sign,,,50,,,1,,,,,,,1,,,,,,,,,
null,,color_black3,867568,,,,black_plus_sign,,,null,,,,,,,,,,,,,,,,,,,
null,,learn_phase(without_color)3,871072,,,,black_plus_sign,,,null,object_02a.png,object_06b.png,,,,,,,,,,,,,,,,,
null,,black_cross(without_color)3,871522,,,,blue,,,null,object_02a.png,object_06b.png,,,,,,,,,,,,,,,,,
null,,rt_plussign_withcolor3,872027,,,,blue,,,null,object_02a.png,object_06b.png,,,,,,,,,,,,,,,,,
651.6000000238419,,rt_thecrossant_black3,873583,,,,black_plus_sign,,,49,,,1,,,,,,,1,,,,,,,,,
null,,color_black3,873687,,,,black_plus_sign,,,null,,,,,,,,,,,,,,,,,,,
null,,learn_phase(without_color)3,877190,,,,black_plus_sign,,,null,object_14a.png,object_03a.png,,,,,,,,,,,,,,,,,
null,,black_cross(without_color)3,878154,,,,blue,,,null,object_14a.png,object_03a.png,,,,,,,,,,,,,,,,,
433.6999999284744,,rt_plussign_withcolor3,878656,,,,blue,,,49,object_14a.png,object_03a.png,,,,,,,,,,,,,,,,,
null,,rt_thecrossant_black3,879698,,,,black_plus_sign,,,null,,,1,,,,,,,1,,,,,,,,,
null,,color_black3,879801,,,,black_plus_sign,,,null,,,,,,,,,,,,,,,,,,,
null,,learn_phase(without_color)3,883304,,,,black_plus_sign,,,null,object_09c.png,object_03b.png,,,,,,,,,,,,,,,,,
null,,black_cross(without_color)3,883815,,,,blue,,,null,object_09c.png,object_03b.png,,,,,,,,,,,,,,,,,
null,,rt_plussign_withcolor3,884318,,,,blue,,,null,object_09c.png,object_03b.png,,,,,,,,,,,,,,,,,
1374.7000000476837,,rt_thecrossant_black3,885814,,,,black_plus_sign,,,49,,,1,,,,,,,1,,,,,,,,,
null,,color_black3,885917,,,,black_plus_sign,,,null,,,,,,,,,,,,,,,,,,,
null,,learn_phase(without_color)3,889422,,,,black_plus_sign,,,null,object_06a.png,object_15c.png,,,,,,,,,,,,,,,,,
null,,black_cross(without_color)3,889949,,,,green,,,null,object_06a.png,object_15c.png,,,,,,,,,,,,,,,,,
null,,rt_plussign_withcolor3,890452,,,,green,,,null,object_06a.png,object_15c.png,,,,,,,,,,,,,,,,,
760.6999999284744,,rt_thecrossant_black3,891931,,,,black_plus_sign,,,50,,,1,,,,,,,1,,,,,,,,,
null,,color_black3,892046,,,,black_plus_sign,,,null,,,,,,,,,,,,,,,,,,,
null,,learn_phase(without_color)3,895550,,,,black_plus_sign,,,null,object_07a.png,object_01a.png,,,,,,,,,,,,,,,,,
null,,black_cross(without_color)3,896079,,,,green,,,null,object_07a.png,object_01a.png,,,,,,,,,,,,,,,,,
null,,rt_plussign_withcolor3,896581,,,,green,,,null,object_07a.png,object_01a.png,,,,,,,,,,,,,,,,,
665.5,,rt_thecrossant_black3,898061,,,,black_plus_sign,,,50,,,1,,,,,,,1,,,,,,,,,
null,,color_black3,898164,,,,black_plus_sign,,,null,,,,,,,,,,,,,,,,,,,
null,,learn_phase(without_color)3,901670,,,,black_plus_sign,,,null,object_13a.png,object_09b.png,,,,,,,,,,,,,,,,,
null,,black_cross(without_color)3,902103,,,,green,,,null,object_13a.png,object_09b.png,,,,,,,,,,,,,,,,,
null,,rt_plussign_withcolor3,902607,,,,green,,,null,object_13a.png,object_09b.png,,,,,,,,,,,,,,,,,
749,,rt_thecrossant_black3,904180,,,,black_plus_sign,,,50,,,1,,,,,,,1,,,,,,,,,
null,,color_black3,904285,,,,black_plus_sign,,,null,,,,,,,,,,,,,,,,,,,
null,,learn_phase(without_color)3,907788,,,,black_plus_sign,,,null,object_09c.png,object_04c.png,,,,,,,,,,,,,,,,,
null,,black_cross(without_color)3,908298,,,,green,,,null,object_09c.png,object_04c.png,,,,,,,,,,,,,,,,,
null,,rt_plussign_withcolor3,908801,,,,green,,,null,object_09c.png,object_04c.png,,,,,,,,,,,,,,,,,
620.2999999523163,,rt_thecrossant_black3,910298,,,,black_plus_sign,,,50,,,1,,,,,,,1,,,,,,,,,
null,,color_black3,910401,,,,black_plus_sign,,,null,,,,,,,,,,,,,,,,,,,
null,,learn_phase(without_color)3,913906,,,,black_plus_sign,,,null,object_13b.png,object_13a.png,,,,,,,,,,,,,,,,,
null,,black_cross(without_color)3,914329,,,,blue,,,null,object_13b.png,object_13a.png,,,,,,,,,,,,,,,,,
null,,rt_plussign_withcolor3,914832,,,,blue,,,null,object_13b.png,object_13a.png,,,,,,,,,,,,,,,,,
627.7000000476837,,rt_thecrossant_black3,916415,,,,black_plus_sign,,,49,,,1,,,,,,,1,,,,,,,,,
null,,color_black3,916518,,,,black_plus_sign,,,null,,,,,,,,,,,,,,,,,,,
null,,learn_phase(without_color)3,920023,,,,black_plus_sign,,,null,object_12b.png,object_01c.png,,,,,,,,,,,,,,,,,
null,,black_cross(without_color)3,921106,,,,green,,,null,object_12b.png,object_01c.png,,,,,,,,,,,,,,,,,
458.6999999284744,,rt_plussign_withcolor3,921608,,,,green,,,50,object_12b.png,object_01c.png,,,,,,,,,,,,,,,,,
null,,rt_thecrossant_black3,922533,,,,black_plus_sign,,,null,,,1,,,,,,,1,,,,,,,,,
null,,color_black3,922637,,,,black_plus_sign,,,null,,,,,,,,,,,,,,,,,,,
null,,learn_phase(without_color)3,926140,,,,black_plus_sign,,,null,object_12a.png,object_06c.png,,,,,,,,,,,,,,,,,
null,,black_cross(without_color)3,927198,,,,green,,,null,object_12a.png,object_06c.png,,,,,,,,,,,,,,,,,
null,,rt_plussign_withcolor3,927700,,,,green,,,null,object_12a.png,object_06c.png,,,,,,,,,,,,,,,,,
1293.7000000476837,,rt_thecrossant_black3,928648,,,,black_plus_sign,,,50,,,1,,,,,,,1,,,,,,,,,
null,,color_black3,928750,,,,black_plus_sign,,,null,,,,,,,,,,,,,,,,,,,
null,,learn_phase(without_color)3,932254,,,,black_plus_sign,,,null,object_08a.png,object_04b.png,,,,,,,,,,,,,,,,,
null,,black_cross(without_color)3,932737,,,,blue,,,null,object_08a.png,object_04b.png,,,,,,,,,,,,,,,,,
null,,rt_plussign_withcolor3,933240,,,,blue,,,null,object_08a.png,object_04b.png,,,,,,,,,,,,,,,,,
1191.1999999284744,,rt_thecrossant_black3,934763,,,,black_plus_sign,,,49,,,1,,,,,,,1,,,,,,,,,
null,,color_black3,934867,,,,black_plus_sign,,,null,,,,,,,,,,,,,,,,,,,
null,,learn_phase(without_color)3,938371,,,,black_plus_sign,,,null,object_15b.png,object_06c.png,,,,,,,,,,,,,,,,,
null,,black_cross(without_color)3,939200,,,,blue,,,null,object_15b.png,object_06c.png,,,,,,,,,,,,,,,,,
477,,rt_plussign_withcolor3,939702,,,,blue,,,49,object_15b.png,object_06c.png,,,,,,,,,,,,,,,,,
null,,rt_thecrossant_black3,940878,,,,black_plus_sign,,,null,,,1,,,,,,,1,,,,,,,,,
null,,color_black3,940982,,,,black_plus_sign,,,null,,,,,,,,,,,,,,,,,,,
null,,learn_phase(without_color)3,944487,,,,black_plus_sign,,,null,object_15c.png,object_14c.png,,,,,,,,,,,,,,,,,
null,,black_cross(without_color)3,945080,,,,green,,,null,object_15c.png,object_14c.png,,,,,,,,,,,,,,,,,
450.7999999523163,,rt_plussign_withcolor3,945583,,,,green,,,50,object_15c.png,object_14c.png,,,,,,,,,,,,,,,,,
null,,rt_thecrossant_black3,947009,,,,black_plus_sign,,,null,,,1,,,,,,,1,,,,,,,,,
null,,color_black3,947113,,,,black_plus_sign,,,null,,,,,,,,,,,,,,,,,,,
null,,learn_phase(without_color)3,950618,,,,black_plus_sign,,,null,object_05a.png,object_10b.png,,,,,,,,,,,,,,,,,
null,,black_cross(without_color)3,951676,,,,blue,,,null,object_05a.png,object_10b.png,,,,,,,,,,,,,,,,,
436.59999990463257,,rt_plussign_withcolor3,952178,,,,blue,,,49,object_05a.png,object_10b.png,,,,,,,,,,,,,,,,,
null,,rt_thecrossant_black3,953126,,,,black_plus_sign,,,null,,,1,,,,,,,1,,,,,,,,,
null,,color_black3,953229,,,,black_plus_sign,,,null,,,,,,,,,,,,,,,,,,,
null,,learn_phase(without_color)3,956734,,,,black_plus_sign,,,null,object_11a.png,object_11b.png,,,,,,,,,,,,,,,,,
null,,black_cross(without_color)3,957232,,,,blue,,,null,object_11a.png,object_11b.png,,,,,,,,,,,,,,,,,
null,,rt_plussign_withcolor3,957734,,,,blue,,,null,object_11a.png,object_11b.png,,,,,,,,,,,,,,,,,
1293.5,,rt_thecrossant_black3,959242,,,,black_plus_sign,,,49,,,1,,,,,,,1,,,,,,,,,
null,,color_black3,959347,,,,black_plus_sign,,,null,,,,,,,,,,,,,,,,,,,
null,,learn_phase(without_color)3,962852,,,,black_plus_sign,,,null,object_01a.png,object_07c.png,,,,,,,,,,,,,,,,,
null,,black_cross(without_color)3,963355,,,,green,,,null,object_01a.png,object_07c.png,,,,,,,,,,,,,,,,,
null,,rt_plussign_withcolor3,963857,,,,green,,,null,object_01a.png,object_07c.png,,,,,,,,,,,,,,,,,
608.3000000715256,,rt_thecrossant_black3,965361,,,,black_plus_sign,,,50,,,1,,,,,,,1,,,,,,,,,
null,,color_black3,965469,,,,black_plus_sign,,,null,,,,,,,,,,,,,,,,,,,
null,,learn_phase(without_color)3,968974,,,,black_plus_sign,,,null,object_02c.png,object_08b.png,,,,,,,,,,,,,,,,,
null,,black_cross(without_color)3,969448,,,,green,,,null,object_02c.png,object_08b.png,,,,,,,,,,,,,,,,,
null,,rt_plussign_withcolor3,969951,,,,green,,,null,object_02c.png,object_08b.png,,,,,,,,,,,,,,,,,
705,,rt_thecrossant_black3,971483,,,,black_plus_sign,,,50,,,1,,,,,,,1,,,,,,,,,
null,,color_black3,971587,,,,black_plus_sign,,,null,,,,,,,,,,,,,,,,,,,
null,,learn_phase(without_color)3,975091,,,,black_plus_sign,,,null,object_04b.png,object_15a.png,,,,,,,,,,,,,,,,,
null,,black_cross(without_color)3,975500,,,,green,,,null,object_04b.png,object_15a.png,,,,,,,,,,,,,,,,,
null,,rt_plussign_withcolor3,976003,,,,green,,,null,object_04b.png,object_15a.png,,,,,,,,,,,,,,,,,
577,,rt_thecrossant_black3,977601,,,,black_plus_sign,,,50,,,1,,,,,,,1,,,,,,,,,
null,,color_black3,977704,,,,black_plus_sign,,,null,,,,,,,,,,,,,,,,,,,
null,,learn_phase(without_color)3,981208,,,,black_plus_sign,,,null,object_08c.png,object_14a.png,,,,,,,,,,,,,,,,,
null,,black_cross(without_color)3,982140,,,,green,,,null,object_08c.png,object_14a.png,,,,,,,,,,,,,,,,,
null,,rt_plussign_withcolor3,982643,,,,green,,,null,object_08c.png,object_14a.png,,,,,,,,,,,,,,,,,
579.4000000953674,,rt_thecrossant_black3,983717,,,,black_plus_sign,,,50,,,1,,,,,,,1,,,,,,,,,
null,,color_black3,983821,,,,black_plus_sign,,,null,,,,,,,,,,,,,,,,,,,
null,,learn_phase(without_color)3,987325,,,,black_plus_sign,,,null,object_14b.png,object_05a.png,,,,,,,,,,,,,,,,,
null,,black_cross(without_color)3,988077,,,,blue,,,null,object_14b.png,object_05a.png,,,,,,,,,,,,,,,,,
null,,rt_plussign_withcolor3,988580,,,,blue,,,null,object_14b.png,object_05a.png,,,,,,,,,,,,,,,,,
1140.8000000715256,,rt_thecrossant_black3,989834,,,,black_plus_sign,,,49,,,1,,,,,,,1,,,,,,,,,
null,,color_black3,989938,,,,black_plus_sign,,,null,,,,,,,,,,,,,,,,,,,
null,,learn_phase(without_color)3,993442,,,,black_plus_sign,,,null,object_03c.png,object_12b.png,,,,,,,,,,,,,,,,,
null,,black_cross(without_color)3,994524,,,,blue,,,null,object_03c.png,object_12b.png,,,,,,,,,,,,,,,,,
null,,rt_plussign_withcolor3,995026,,,,blue,,,null,object_03c.png,object_12b.png,,,,,,,,,,,,,,,,,
1038.9000000953674,,rt_thecrossant_black3,995949,,,,black_plus_sign,,,49,,,1,,,,,,,1,,,,,,,,,
null,,color_black3,996052,,,,black_plus_sign,,,null,,,,,,,,,,,,,,,,,,,
null,,learn_phase(without_color)3,999557,,,,black_plus_sign,,,null,object_07b.png,object_06b.png,,,,,,,,,,,,,,,,,
null,,black_cross(without_color)3,1000506,,,,green,,,null,object_07b.png,object_06b.png,,,,,,,,,,,,,,,,,
null,,rt_plussign_withcolor3,1001008,,,,green,,,null,object_07b.png,object_06b.png,,,,,,,,,,,,,,,,,
1415,,rt_thecrossant_black3,1002064,,,,black_plus_sign,,,50,,,1,,,,,,,1,,,,,,,,,
null,,color_black3,1002168,,,,black_plus_sign,,,null,,,,,,,,,,,,,,,,,,,
null,,learn_phase(without_color)3,1005672,,,,black_plus_sign,,,null,object_01b.png,object_02b.png,,,,,,,,,,,,,,,,,
null,,black_cross(without_color)3,1006645,,,,green,,,null,object_01b.png,object_02b.png,,,,,,,,,,,,,,,,,
null,,rt_plussign_withcolor3,1007159,,,,green,,,null,object_01b.png,object_02b.png,,,,,,,,,,,,,,,,,
1094.2999999523163,,rt_thecrossant_black3,1008192,,,,black_plus_sign,,,50,,,1,,,,,,,1,,,,,,,,,
null,,color_black3,1008297,,,,black_plus_sign,,,null,,,,,,,,,,,,,,,,,,,
null,,learn_phase(without_color)3,1011801,,,,black_plus_sign,,,null,object_02b.png,object_12c.png,,,,,,,,,,,,,,,,,
null,,black_cross(without_color)3,1012423,,,,green,,,null,object_02b.png,object_12c.png,,,,,,,,,,,,,,,,,
472.7000000476837,,rt_plussign_withcolor3,1012926,,,,green,,,50,object_02b.png,object_12c.png,,,,,,,,,,,,,,,,,
null,,rt_thecrossant_black3,1014309,,,,black_plus_sign,,,null,,,1,,,,,,,1,,,,,,,,,
null,,color_black3,1014419,,,,black_plus_sign,,,null,,,,,,,,,,,,,,,,,,,
null,,learn_phase(without_color)3,1017924,,,,black_plus_sign,,,null,object_02c.png,object_05c.png,,,,,,,,,,,,,,,,,
null,,black_cross(without_color)3,1018887,,,,blue,,,null,object_02c.png,object_05c.png,,,,,,,,,,,,,,,,,
null,,rt_plussign_withcolor3,1019390,,,,blue,,,null,object_02c.png,object_05c.png,,,,,,,,,,,,,,,,,
915.3000000715256,,rt_thecrossant_black3,1020435,,,,black_plus_sign,,,49,,,1,,,,,,,1,,,,,,,,,
null,,color_black3,1020538,,,,black_plus_sign,,,null,,,,,,,,,,,,,,,,,,,
null,,learn_phase(without_color)3,1024043,,,,black_plus_sign,,,null,object_04a.png,object_13c.png,,,,,,,,,,,,,,,,,
null,,black_cross(without_color)3,1024840,,,,blue,,,null,object_04a.png,object_13c.png,,,,,,,,,,,,,,,,,
null,,rt_plussign_withcolor3,1025343,,,,blue,,,null,object_04a.png,object_13c.png,,,,,,,,,,,,,,,,,
1393.5999999046326,,rt_thecrossant_black3,1026553,,,,black_plus_sign,,,49,,,1,,,,,,,1,,,,,,,,,
null,,color_black3,1026657,,,,black_plus_sign,,,null,,,,,,,,,,,,,,,,,,,
null,,learn_phase(without_color)3,1030161,,,,black_plus_sign,,,null,object_05b.png,object_09a.png,,,,,,,,,,,,,,,,,
null,,black_cross(without_color)3,1030999,,,,green,,,null,object_05b.png,object_09a.png,,,,,,,,,,,,,,,,,
null,,rt_plussign_withcolor3,1031501,,,,green,,,null,object_05b.png,object_09a.png,,,,,,,,,,,,,,,,,
1271.3999999761581,,rt_thecrossant_black3,1032668,,,,black_plus_sign,,,50,,,1,,,,,,,1,,,,,,,,,
null,,color_black3,1032772,,,,black_plus_sign,,,null,,,,,,,,,,,,,,,,,,,
null,,thebreak,1032877,,,,<p></p>,,,null,,,,,,,,,,,,,,,,,,,
2153,,intro_0,1035032,,,,instruct,,,32,,,,,,,,,,,,,,,,,,,
2042.6000000238419,,directmemory_phase3,1037078,,,,object_06a.png,,,51,,,1,,object_06c.png,object_01c.png,object_15c.png,object_15c.png,,0.7049180327868853,1,,,,,,,,
2722.5,,directmemory_phase3,1039804,,,,object_09c.png,,,50,,,0,,object_07a.png,object_02c.png,object_04c.png,object_04c.png,,0.6935483870967742,0,,,,,,,,
1618.3000000715256,,directmemory_phase3,1041426,,,,object_07b.png,,,49,,,1,,object_06b.png,object_02b.png,object_15a.png,object_06b.png,,0.6984126984126984,1,,,,,,,,
1911.7999999523163,,directmemory_phase3,1043342,,,,object_04b.png,,,49,,,1,,object_15a.png,object_07b.png,object_13c.png,object_15a.png,,0.703125,1,,,,,,,,
2306.5,,directmemory_phase3,1045652,,,,object_14c.png,,,51,,,1,,object_14a.png,object_07c.png,object_15c.png,object_15c.png,,0.7076923076923077,1,,,,,,,,
1454.3000000715256,,directmemory_phase3,1047111,,,,object_05b.png,,,49,,,1,,object_09a.png,object_01a.png,object_06a.png,object_09a.png,,0.7121212121212122,1,,,,,,,,
1852.2000000476837,,directmemory_phase3,1048967,,,,object_05a.png,,,50,,,1,,object_15c.png,object_14b.png,object_12c.png,object_14b.png,,0.7164179104477612,1,,,,,,,,
2349.9000000953674,,directmemory_phase3,1051319,,,,object_10b.png,,,50,,,0,,object_01a.png,object_01b.png,object_05a.png,object_05a.png,,0.7058823529411765,0,,,,,,,,
1506.2999999523163,,directmemory_phase3,1052829,,,,object_12a.png,,,49,,,1,,object_06c.png,object_09c.png,object_08c.png,object_06c.png,,0.7101449275362319,1,,,,,,,,
2703.399999976158,,directmemory_phase3,1055535,,,,object_01c.png,,,51,,,0,,object_07b.png,object_12b.png,object_02b.png,object_12b.png,,0.7,0,,,,,,,,
2671,,directmemory_phase3,1058210,,,,object_13c.png,,,51,,,1,,object_15a.png,object_09a.png,object_11c.png,object_11c.png,,0.704225352112676,1,,,,,,,,
1707.6000000238419,,directmemory_phase3,1059921,,,,object_03c.png,,,51,,,1,,object_06c.png,object_12a.png,object_12b.png,object_12b.png,,0.7083333333333334,1,,,,,,,,
2416.8000000715256,,directmemory_phase3,1062340,,,,object_08b.png,,,50,,,1,,object_13b.png,object_02c.png,object_09a.png,object_02c.png,,0.7123287671232876,1,,,,,,,,
2786.2000000476837,,directmemory_phase3,1065131,,,,object_10a.png,,,51,,,0,,object_08b.png,object_09a.png,object_05a.png,object_09a.png,,0.7027027027027027,0,,,,,,,,
2480.600000023842,,directmemory_phase3,1067615,,,,object_10c.png,,,49,,,1,,object_11a.png,object_05a.png,object_08a.png,object_11a.png,,0.7066666666666667,1,,,,,,,,
2695.399999976158,,directmemory_phase3,1070313,,,,object_04a.png,,,50,,,1,,object_12a.png,object_13c.png,object_05a.png,object_13c.png,,0.7105263157894737,1,,,,,,,,
1418.6000000238419,,directmemory_phase3,1071735,,,,object_03b.png,,,50,,,1,,object_04a.png,object_09c.png,object_04b.png,object_09c.png,,0.7142857142857143,1,,,,,,,,
3474.899999976158,,directmemory_phase3,1075214,,,,object_01b.png,,,50,,,0,,object_13a.png,object_02a.png,object_02b.png,object_02b.png,,0.7051282051282052,0,,,,,,,,
2839.9000000953674,,directmemory_phase3,1078058,,,,object_09b.png,,,50,,,0,,object_13a.png,object_01a.png,object_05b.png,object_13a.png,,0.6962025316455697,0,,,,,,,,
2788.399999976158,,directmemory_phase3,1080851,,,,object_02c.png,,,49,,,1,,object_05c.png,object_07a.png,object_02b.png,object_05c.png,,0.7,1,,,,,,,,
3118.100000023842,,directmemory_phase3,1083973,,,,object_07c.png,,,51,,,1,,object_09c.png,object_03c.png,object_01a.png,object_01a.png,,0.7037037037037037,1,,,,,,,,
3204.100000023842,,directmemory_phase3,1087181,,,,object_06c.png,,,49,,,1,,object_15b.png,object_06a.png,object_05a.png,object_15b.png,,0.7073170731707317,1,,,,,,,,
2682.600000023842,,directmemory_phase3,1089868,,,,object_13b.png,,,49,,,1,,object_13a.png,object_01a.png,object_04a.png,object_13a.png,,0.7108433734939759,1,,,,,,,,
2188,,directmemory_phase3,1092060,,,,object_14a.png,,,49,,,1,,object_03a.png,object_15a.png,object_04b.png,object_03a.png,,0.7142857142857143,1,,,,,,,,
2458.100000023842,,directmemory_phase3,1094522,,,,object_11a.png,,,49,,,1,,object_11b.png,object_15a.png,object_13c.png,object_11b.png,,0.7176470588235294,1,,,,,,,,
2015.1000000238419,,directmemory_phase3,1096541,,,,object_02a.png,,,51,,,0,,object_06b.png,object_02c.png,object_04a.png,object_06b.png,,0.7093023255813954,0,,,,,,,,
1799,,directmemory_phase3,1098342,,,,object_08a.png,,,51,,,1,,object_02c.png,object_08c.png,object_04b.png,object_04b.png,,0.7126436781609196,1,,,,,,,,
1584.4000000953674,,directmemory_phase3,1099931,,,,object_02b.png,,,50,,,1,,object_06c.png,object_12c.png,object_04c.png,object_12c.png,,0.7159090909090909,1,,,,,,,,
1905,,directmemory_phase3,1101840,,,,object_01a.png,,,50,,,0,,object_07a.png,object_03a.png,object_02b.png,object_07a.png,,0.7078651685393258,0,,,,,,,,
1972.2000000476837,,directmemory_phase3,1103816,,,,object_08c.png,,,49,,,1,,object_14a.png,object_12b.png,object_02a.png,object_14a.png,,0.7111111111111111,1,,,,,,,,
null,,thebreak,1103921,,,,<p></p>,,,null,,,,,,,,,,,,,,,,,,,
4105.200000047684,,intro_0,1108029,,,,instruct,,,32,,,,,,,,,,,,,,,,,,,
null,,learn_phase(without_color)4,1111532,,,,black_plus_sign,,,null,object_07b.png,object_06b.png,,,,,,,,,,,,,,,,,
null,,black_cross(without_color)4,1112472,,,,blue,,,null,object_07b.png,object_06b.png,,,,,,,,,,,,,,,,,
null,,rt_plussign_withcolor4,1112975,,,,blue,,,null,object_07b.png,object_06b.png,,,,,,,,,,,,,,,,,
1138.3000000715256,,rt_thecrossant_black4,1114042,,,,black_plus_sign,,,49,,,1,,,,,,,1,,,,,,,,,
null,,color_black4,1114146,,,,black_plus_sign,,,null,,,,,,,,,,,,,,,,,,,
null,,learn_phase(without_color)4,1117651,,,,black_plus_sign,,,null,object_06b.png,object_02a.png,,,,,,,,,,,,,,,,,
null,,black_cross(without_color)4,1118690,,,,green,,,null,object_06b.png,object_02a.png,,,,,,,,,,,,,,,,,
null,,rt_plussign_withcolor4,1119193,,,,green,,,null,object_06b.png,object_02a.png,,,,,,,,,,,,,,,,,
1462.2000000476837,,rt_thecrossant_black4,1120164,,,,black_plus_sign,,,50,,,1,,,,,,,1,,,,,,,,,
null,,color_black4,1120267,,,,black_plus_sign,,,null,,,,,,,,,,,,,,,,,,,
null,,learn_phase(without_color)4,1123771,,,,black_plus_sign,,,null,object_13a.png,object_09b.png,,,,,,,,,,,,,,,,,
null,,black_cross(without_color)4,1124335,,,,green,,,null,object_13a.png,object_09b.png,,,,,,,,,,,,,,,,,
null,,rt_plussign_withcolor4,1124837,,,,green,,,null,object_13a.png,object_09b.png,,,,,,,,,,,,,,,,,
1201.8999999761581,,rt_thecrossant_black4,1126280,,,,black_plus_sign,,,50,,,1,,,,,,,1,,,,,,,,,
null,,color_black4,1126390,,,,black_plus_sign,,,null,,,,,,,,,,,,,,,,,,,
null,,learn_phase(without_color)4,1129895,,,,black_plus_sign,,,null,object_11a.png,object_10c.png,,,,,,,,,,,,,,,,,
null,,black_cross(without_color)4,1130448,,,,blue,,,null,object_11a.png,object_10c.png,,,,,,,,,,,,,,,,,
null,,rt_plussign_withcolor4,1130951,,,,blue,,,null,object_11a.png,object_10c.png,,,,,,,,,,,,,,,,,
665.2999999523163,,rt_thecrossant_black4,1132404,,,,black_plus_sign,,,49,,,1,,,,,,,1,,,,,,,,,
null,,color_black4,1132507,,,,black_plus_sign,,,null,,,,,,,,,,,,,,,,,,,
null,,learn_phase(without_color)4,1136010,,,,black_plus_sign,,,null,object_04b.png,object_08a.png,,,,,,,,,,,,,,,,,
null,,black_cross(without_color)4,1136626,,,,green,,,null,object_04b.png,object_08a.png,,,,,,,,,,,,,,,,,
null,,rt_plussign_withcolor4,1137129,,,,green,,,null,object_04b.png,object_08a.png,,,,,,,,,,,,,,,,,
710.8000000715256,,rt_thecrossant_black4,1138520,,,,black_plus_sign,,,50,,,1,,,,,,,1,,,,,,,,,
null,,color_black4,1138635,,,,black_plus_sign,,,null,,,,,,,,,,,,,,,,,,,
null,,learn_phase(without_color)4,1142140,,,,black_plus_sign,,,null,object_08b.png,object_02c.png,,,,,,,,,,,,,,,,,
null,,black_cross(without_color)4,1142719,,,,green,,,null,object_08b.png,object_02c.png,,,,,,,,,,,,,,,,,
null,,rt_plussign_withcolor4,1143222,,,,green,,,null,object_08b.png,object_02c.png,,,,,,,,,,,,,,,,,
760.2999999523163,,rt_thecrossant_black4,1144651,,,,black_plus_sign,,,50,,,1,,,,,,,1,,,,,,,,,
null,,color_black4,1144754,,,,black_plus_sign,,,null,,,,,,,,,,,,,,,,,,,
null,,learn_phase(without_color)4,1148259,,,,black_plus_sign,,,null,object_10b.png,object_05a.png,,,,,,,,,,,,,,,,,
null,,black_cross(without_color)4,1149316,,,,blue,,,null,object_10b.png,object_05a.png,,,,,,,,,,,,,,,,,
495,,rt_plussign_withcolor4,1149818,,,,blue,,,49,object_10b.png,object_05a.png,,,,,,,,,,,,,,,,,
null,,rt_thecrossant_black4,1150776,,,,black_plus_sign,,,null,,,1,,,,,,,1,,,,,,,,,
null,,color_black4,1150879,,,,black_plus_sign,,,null,,,,,,,,,,,,,,,,,,,
null,,learn_phase(without_color)4,1154383,,,,black_plus_sign,,,null,object_10a.png,object_09a.png,,,,,,,,,,,,,,,,,
null,,black_cross(without_color)4,1155381,,,,green,,,null,object_10a.png,object_09a.png,,,,,,,,,,,,,,,,,
440.89999997615814,,rt_plussign_withcolor4,1155885,,,,green,,,50,object_10a.png,object_09a.png,,,,,,,,,,,,,,,,,
null,,rt_thecrossant_black4,1156894,,,,black_plus_sign,,,null,,,1,,,,,,,1,,,,,,,,,
null,,color_black4,1156997,,,,black_plus_sign,,,null,,,,,,,,,,,,,,,,,,,
null,,learn_phase(without_color)4,1160501,,,,black_plus_sign,,,null,object_07c.png,object_01a.png,,,,,,,,,,,,,,,,,
null,,black_cross(without_color)4,1161026,,,,green,,,null,object_07c.png,object_01a.png,,,,,,,,,,,,,,,,,
null,,rt_plussign_withcolor4,1161529,,,,green,,,null,object_07c.png,object_01a.png,,,,,,,,,,,,,,,,,
1182.3999999761581,,rt_thecrossant_black4,1163011,,,,black_plus_sign,,,50,,,1,,,,,,,1,,,,,,,,,
null,,color_black4,1163115,,,,black_plus_sign,,,null,,,,,,,,,,,,,,,,,,,
null,,learn_phase(without_color)4,1166620,,,,black_plus_sign,,,null,object_11c.png,object_13c.png,,,,,,,,,,,,,,,,,
null,,black_cross(without_color)4,1167225,,,,green,,,null,object_11c.png,object_13c.png,,,,,,,,,,,,,,,,,
null,,rt_plussign_withcolor4,1167728,,,,green,,,null,object_11c.png,object_13c.png,,,,,,,,,,,,,,,,,
622.5999999046326,,rt_thecrossant_black4,1169130,,,,black_plus_sign,,,50,,,1,,,,,,,1,,,,,,,,,
null,,color_black4,1169236,,,,black_plus_sign,,,null,,,,,,,,,,,,,,,,,,,
null,,learn_phase(without_color)4,1172740,,,,black_plus_sign,,,null,object_03c.png,object_12b.png,,,,,,,,,,,,,,,,,
null,,black_cross(without_color)4,1173622,,,,green,,,null,object_03c.png,object_12b.png,,,,,,,,,,,,,,,,,
null,,rt_plussign_withcolor4,1174125,,,,green,,,null,object_03c.png,object_12b.png,,,,,,,,,,,,,,,,,
708.8999999761581,,rt_thecrossant_black4,1175255,,,,black_plus_sign,,,50,,,1,,,,,,,1,,,,,,,,,
null,,color_black4,1175357,,,,black_plus_sign,,,null,,,,,,,,,,,,,,,,,,,
null,,learn_phase(without_color)4,1178862,,,,black_plus_sign,,,null,object_14b.png,object_05a.png,,,,,,,,,,,,,,,,,
null,,black_cross(without_color)4,1179397,,,,blue,,,null,object_14b.png,object_05a.png,,,,,,,,,,,,,,,,,
null,,rt_plussign_withcolor4,1179900,,,,blue,,,null,object_14b.png,object_05a.png,,,,,,,,,,,,,,,,,
992.7000000476837,,rt_thecrossant_black4,1181372,,,,black_plus_sign,,,49,,,1,,,,,,,1,,,,,,,,,
null,,color_black4,1181476,,,,black_plus_sign,,,null,,,,,,,,,,,,,,,,,,,
null,,learn_phase(without_color)4,1184981,,,,black_plus_sign,,,null,object_08c.png,object_14a.png,,,,,,,,,,,,,,,,,
null,,black_cross(without_color)4,1186074,,,,green,,,null,object_08c.png,object_14a.png,,,,,,,,,,,,,,,,,
null,,rt_plussign_withcolor4,1186577,,,,green,,,null,object_08c.png,object_14a.png,,,,,,,,,,,,,,,,,
922,,rt_thecrossant_black4,1187491,,,,black_plus_sign,,,50,,,1,,,,,,,1,,,,,,,,,
null,,color_black4,1187595,,,,black_plus_sign,,,null,,,,,,,,,,,,,,,,,,,
null,,learn_phase(without_color)4,1191097,,,,black_plus_sign,,,null,object_01a.png,object_07a.png,,,,,,,,,,,,,,,,,
null,,black_cross(without_color)4,1191976,,,,blue,,,null,object_01a.png,object_07a.png,,,,,,,,,,,,,,,,,
null,,rt_plussign_withcolor4,1192480,,,,blue,,,null,object_01a.png,object_07a.png,,,,,,,,,,,,,,,,,
1195.6999999284744,,rt_thecrossant_black4,1193607,,,,black_plus_sign,,,49,,,1,,,,,,,1,,,,,,,,,
null,,color_black4,1193710,,,,black_plus_sign,,,null,,,,,,,,,,,,,,,,,,,
null,,learn_phase(without_color)4,1197215,,,,black_plus_sign,,,null,object_03a.png,object_14a.png,,,,,,,,,,,,,,,,,
null,,black_cross(without_color)4,1197947,,,,green,,,null,object_03a.png,object_14a.png,,,,,,,,,,,,,,,,,
null,,rt_plussign_withcolor4,1198450,,,,green,,,null,object_03a.png,object_14a.png,,,,,,,,,,,,,,,,,
1013.1999999284744,,rt_thecrossant_black4,1199725,,,,black_plus_sign,,,50,,,1,,,,,,,1,,,,,,,,,
null,,color_black4,1199828,,,,black_plus_sign,,,null,,,,,,,,,,,,,,,,,,,
null,,learn_phase(without_color)4,1203333,,,,black_plus_sign,,,null,object_06a.png,object_15c.png,,,,,,,,,,,,,,,,,
null,,black_cross(without_color)4,1204369,,,,blue,,,null,object_06a.png,object_15c.png,,,,,,,,,,,,,,,,,
null,,rt_plussign_withcolor4,1204871,,,,blue,,,null,object_06a.png,object_15c.png,,,,,,,,,,,,,,,,,
936.2999999523163,,rt_thecrossant_black4,1205842,,,,black_plus_sign,,,49,,,1,,,,,,,1,,,,,,,,,
null,,color_black4,1205948,,,,black_plus_sign,,,null,,,,,,,,,,,,,,,,,,,
null,,learn_phase(without_color)4,1209453,,,,black_plus_sign,,,null,object_04c.png,object_09c.png,,,,,,,,,,,,,,,,,
null,,black_cross(without_color)4,1210274,,,,blue,,,null,object_04c.png,object_09c.png,,,,,,,,,,,,,,,,,
null,,rt_plussign_withcolor4,1210777,,,,blue,,,null,object_04c.png,object_09c.png,,,,,,,,,,,,,,,,,
1164.0999999046326,,rt_thecrossant_black4,1211962,,,,black_plus_sign,,,49,,,1,,,,,,,1,,,,,,,,,
null,,color_black4,1212066,,,,black_plus_sign,,,null,,,,,,,,,,,,,,,,,,,
null,,learn_phase(without_color)4,1215572,,,,black_plus_sign,,,null,object_09a.png,object_05b.png,,,,,,,,,,,,,,,,,
null,,black_cross(without_color)4,1216328,,,,blue,,,null,object_09a.png,object_05b.png,,,,,,,,,,,,,,,,,
null,,rt_plussign_withcolor4,1216830,,,,blue,,,null,object_09a.png,object_05b.png,,,,,,,,,,,,,,,,,
null,,rt_thecrossant_black4,1218080,,,,black_plus_sign,,,null,,,,,,,,,,1,,,,,,,,,
null,,color_black4,1218185,,,,black_plus_sign,,,null,,,,,,,,,,,,,,,,,,,
null,,learn_phase(without_color)4,1221690,,,,black_plus_sign,,,null,object_02b.png,object_12c.png,,,,,,,,,,,,,,,,,
null,,black_cross(without_color)4,1222469,,,,green,,,null,object_02b.png,object_12c.png,,,,,,,,,,,,,,,,,
442.2999999523163,,rt_plussign_withcolor4,1222981,,,,green,,,50,object_02b.png,object_12c.png,,,,,,,,,,,,,,,,,
null,,rt_thecrossant_black4,1224221,,,,black_plus_sign,,,null,,,1,,,,,,,1,,,,,,,,,
null,,color_black4,1224324,,,,black_plus_sign,,,null,,,,,,,,,,,,,,,,,,,
null,,learn_phase(without_color)4,1227830,,,,black_plus_sign,,,null,object_15c.png,object_14c.png,,,,,,,,,,,,,,,,,
null,,black_cross(without_color)4,1228793,,,,blue,,,null,object_15c.png,object_14c.png,,,,,,,,,,,,,,,,,
344.10000002384186,,rt_plussign_withcolor4,1229296,,,,blue,,,49,object_15c.png,object_14c.png,,,,,,,,,,,,,,,,,
null,,rt_thecrossant_black4,1230341,,,,black_plus_sign,,,null,,,1,,,,,,,1,,,,,,,,,
null,,color_black4,1230444,,,,black_plus_sign,,,null,,,,,,,,,,,,,,,,,,,
null,,learn_phase(without_color)4,1233946,,,,black_plus_sign,,,null,object_12b.png,object_01c.png,,,,,,,,,,,,,,,,,
null,,black_cross(without_color)4,1234357,,,,green,,,null,object_12b.png,object_01c.png,,,,,,,,,,,,,,,,,
null,,rt_plussign_withcolor4,1234861,,,,green,,,null,object_12b.png,object_01c.png,,,,,,,,,,,,,,,,,
1188.6000000238419,,rt_thecrossant_black4,1236457,,,,black_plus_sign,,,50,,,1,,,,,,,1,,,,,,,,,
null,,color_black4,1236561,,,,black_plus_sign,,,null,,,,,,,,,,,,,,,,,,,
null,,learn_phase(without_color)4,1240064,,,,black_plus_sign,,,null,object_13a.png,object_13b.png,,,,,,,,,,,,,,,,,
null,,black_cross(without_color)4,1240630,,,,green,,,null,object_13a.png,object_13b.png,,,,,,,,,,,,,,,,,
null,,rt_plussign_withcolor4,1241134,,,,green,,,null,object_13a.png,object_13b.png,,,,,,,,,,,,,,,,,
738.2000000476837,,rt_thecrossant_black4,1242576,,,,black_plus_sign,,,50,,,1,,,,,,,1,,,,,,,,,
null,,color_black4,1242680,,,,black_plus_sign,,,null,,,,,,,,,,,,,,,,,,,
null,,learn_phase(without_color)4,1246184,,,,black_plus_sign,,,null,object_15b.png,object_06c.png,,,,,,,,,,,,,,,,,
null,,black_cross(without_color)4,1246970,,,,blue,,,null,object_15b.png,object_06c.png,,,,,,,,,,,,,,,,,
400.5,,rt_plussign_withcolor4,1247473,,,,blue,,,49,object_15b.png,object_06c.png,,,,,,,,,,,,,,,,,
null,,rt_thecrossant_black4,1248711,,,,black_plus_sign,,,null,,,1,,,,,,,1,,,,,,,,,
null,,color_black4,1248814,,,,black_plus_sign,,,null,,,,,,,,,,,,,,,,,,,
null,,learn_phase(without_color)4,1252317,,,,black_plus_sign,,,null,object_12a.png,object_06c.png,,,,,,,,,,,,,,,,,
null,,black_cross(without_color)4,1253173,,,,blue,,,null,object_12a.png,object_06c.png,,,,,,,,,,,,,,,,,
490.89999997615814,,rt_plussign_withcolor4,1253675,,,,blue,,,49,object_12a.png,object_06c.png,,,,,,,,,,,,,,,,,
null,,rt_thecrossant_black4,1254826,,,,black_plus_sign,,,null,,,1,,,,,,,1,,,,,,,,,
null,,color_black4,1254930,,,,black_plus_sign,,,null,,,,,,,,,,,,,,,,,,,
null,,learn_phase(without_color)4,1258435,,,,black_plus_sign,,,null,object_09c.png,object_03b.png,,,,,,,,,,,,,,,,,
null,,black_cross(without_color)4,1259345,,,,blue,,,null,object_09c.png,object_03b.png,,,,,,,,,,,,,,,,,
null,,rt_plussign_withcolor4,1259848,,,,blue,,,null,object_09c.png,object_03b.png,,,,,,,,,,,,,,,,,
1112.0999999046326,,rt_thecrossant_black4,1260945,,,,black_plus_sign,,,49,,,1,,,,,,,1,,,,,,,,,
null,,color_black4,1261049,,,,black_plus_sign,,,null,,,,,,,,,,,,,,,,,,,
null,,learn_phase(without_color)4,1264554,,,,black_plus_sign,,,null,object_11a.png,object_11b.png,,,,,,,,,,,,,,,,,
null,,black_cross(without_color)4,1265252,,,,green,,,null,object_11a.png,object_11b.png,,,,,,,,,,,,,,,,,
null,,rt_plussign_withcolor4,1265756,,,,green,,,null,object_11a.png,object_11b.png,,,,,,,,,,,,,,,,,
1200,,rt_thecrossant_black4,1267064,,,,black_plus_sign,,,50,,,1,,,,,,,1,,,,,,,,,
null,,color_black4,1267167,,,,black_plus_sign,,,null,,,,,,,,,,,,,,,,,,,
null,,learn_phase(without_color)4,1270672,,,,black_plus_sign,,,null,object_13c.png,object_04a.png,,,,,,,,,,,,,,,,,
null,,black_cross(without_color)4,1271101,,,,green,,,null,object_13c.png,object_04a.png,,,,,,,,,,,,,,,,,
null,,rt_plussign_withcolor4,1271604,,,,green,,,null,object_13c.png,object_04a.png,,,,,,,,,,,,,,,,,
1037.6000000238419,,rt_thecrossant_black4,1273182,,,,black_plus_sign,,,50,,,1,,,,,,,1,,,,,,,,,
null,,color_black4,1273286,,,,black_plus_sign,,,null,,,,,,,,,,,,,,,,,,,
null,,learn_phase(without_color)4,1276792,,,,black_plus_sign,,,null,object_02c.png,object_05c.png,,,,,,,,,,,,,,,,,
null,,black_cross(without_color)4,1277203,,,,green,,,null,object_02c.png,object_05c.png,,,,,,,,,,,,,,,,,
null,,rt_plussign_withcolor4,1277707,,,,green,,,null,object_02c.png,object_05c.png,,,,,,,,,,,,,,,,,
1577.7999999523163,,rt_thecrossant_black4,1279303,,,,black_plus_sign,,,50,,,1,,,,,,,1,,,,,,,,,
null,,color_black4,1279412,,,,black_plus_sign,,,null,,,,,,,,,,,,,,,,,,,
null,,learn_phase(without_color)4,1282917,,,,black_plus_sign,,,null,object_01b.png,object_02b.png,,,,,,,,,,,,,,,,,
null,,black_cross(without_color)4,1283796,,,,blue,,,null,object_01b.png,object_02b.png,,,,,,,,,,,,,,,,,
null,,rt_plussign_withcolor4,1284299,,,,blue,,,null,object_01b.png,object_02b.png,,,,,,,,,,,,,,,,,
603.5,,rt_thecrossant_black4,1285440,,,,black_plus_sign,,,49,,,1,,,,,,,1,,,,,,,,,
null,,color_black4,1285542,,,,black_plus_sign,,,null,,,,,,,,,,,,,,,,,,,
null,,learn_phase(without_color)4,1289045,,,,black_plus_sign,,,null,object_15a.png,object_04b.png,,,,,,,,,,,,,,,,,
null,,black_cross(without_color)4,1289667,,,,blue,,,null,object_15a.png,object_04b.png,,,,,,,,,,,,,,,,,
null,,rt_plussign_withcolor4,1290170,,,,blue,,,null,object_15a.png,object_04b.png,,,,,,,,,,,,,,,,,
1090.1000000238419,,rt_thecrossant_black4,1291554,,,,black_plus_sign,,,49,,,1,,,,,,,1,,,,,,,,,
null,,color_black4,1291657,,,,black_plus_sign,,,null,,,,,,,,,,,,,,,,,,,
null,,thebreak,1291762,,,,<p></p>,,,null,,,,,,,,,,,,,,,,,,,
3087.899999976158,,intro_0,1294853,,,,instruct,,,32,,,,,,,,,,,,,,,,,,,
2735.5,,directmemory_phase4,1297590,,,,object_07a.png,,,50,,,0,,object_02c.png,object_15b.png,object_01a.png,object_01a.png,,0.7032967032967034,0,,,,,,,,
2399.100000023842,,directmemory_phase4,1299993,,,,object_13a.png,,,51,,,1,,object_07b.png,object_02c.png,object_09b.png,object_09b.png,,0.7065217391304348,1,,,,,,,,
1885.8000000715256,,directmemory_phase4,1301883,,,,object_10a.png,,,51,,,1,,object_14a.png,object_08a.png,object_09a.png,object_09a.png,,0.7096774193548387,1,,,,,,,,
2912.600000023842,,directmemory_phase4,1304801,,,,object_08c.png,,,51,,,1,,object_06c.png,object_10b.png,object_14a.png,object_14a.png,,0.7127659574468085,1,,,,,,,,
2524.8000000715256,,directmemory_phase4,1307330,,,,object_01b.png,,,50,,,0,,object_02b.png,object_09a.png,object_02a.png,object_02b.png,,0.7052631578947368,0,,,,,,,,
1765.7000000476837,,directmemory_phase4,1309100,,,,object_11c.png,,,49,,,1,,object_13c.png,object_12b.png,object_09b.png,object_13c.png,,0.7083333333333334,1,,,,,,,,
1303.7999999523163,,directmemory_phase4,1310408,,,,object_08a.png,,,50,,,1,,object_10b.png,object_04b.png,object_06b.png,object_04b.png,,0.711340206185567,1,,,,,,,,
2173.7000000476837,,directmemory_phase4,1312586,,,,object_08b.png,,,49,,,1,,object_02c.png,object_15c.png,object_01b.png,object_02c.png,,0.7142857142857143,1,,,,,,,,
1594.3999999761581,,directmemory_phase4,1314185,,,,object_03b.png,,,49,,,1,,object_09c.png,object_01a.png,object_10b.png,object_09c.png,,0.7171717171717171,1,,,,,,,,
1443.7000000476837,,directmemory_phase4,1315632,,,,object_07b.png,,,50,,,1,,object_05c.png,object_06b.png,object_14a.png,object_06b.png,,0.72,1,,,,,,,,
2644.7000000476837,,directmemory_phase4,1318278,,,,object_12b.png,,,51,,,0,,object_14a.png,object_01c.png,object_06a.png,object_01c.png,,0.7128712871287128,0,,,,,,,,
2156.9000000953674,,directmemory_phase4,1320438,,,,object_04c.png,,,49,,,1,,object_09c.png,object_13a.png,object_03a.png,object_09c.png,,0.7156862745098039,1,,,,,,,,
2727.9000000953674,,directmemory_phase4,1323169,,,,object_06c.png,,,50,,,1,,object_12b.png,object_15b.png,object_04c.png,object_15b.png,,0.7184466019417476,1,,,,,,,,
1930.6999999284744,,directmemory_phase4,1325104,,,,object_15c.png,,,51,,,1,,object_09b.png,object_14a.png,object_06a.png,object_06a.png,,0.7211538461538461,1,,,,,,,,
3288.6999999284744,,directmemory_phase4,1328394,,,,object_07c.png,,,49,,,1,,object_01a.png,object_06b.png,object_02a.png,object_01a.png,,0.7238095238095238,1,,,,,,,,
2720.1999999284744,,directmemory_phase4,1331116,,,,object_10b.png,,,50,,,0,,object_05a.png,object_06c.png,object_14c.png,object_05a.png,,0.7169811320754716,0,,,,,,,,
1419.7999999523163,,directmemory_phase4,1332539,,,,object_13b.png,,,50,,,1,,object_10a.png,object_13a.png,object_14a.png,object_13a.png,,0.719626168224299,1,,,,,,,,
2005.8999999761581,,directmemory_phase4,1334550,,,,object_14c.png,,,51,,,1,,object_06b.png,object_10a.png,object_15c.png,object_15c.png,,0.7222222222222222,1,,,,,,,,
1920.8999999761581,,directmemory_phase4,1336475,,,,object_05b.png,,,51,,,1,,object_12b.png,object_06a.png,object_09a.png,object_09a.png,,0.7247706422018348,1,,,,,,,,
1950.5,,directmemory_phase4,1338430,,,,object_05c.png,,,49,,,1,,object_02c.png,object_14a.png,object_01c.png,object_02c.png,,0.7272727272727273,1,,,,,,,,
2096,,directmemory_phase4,1340531,,,,object_02a.png,,,49,,,0,,object_07c.png,object_06b.png,object_06c.png,object_06b.png,,0.7207207207207207,0,,,,,,,,
1761.3999999761581,,directmemory_phase4,1342296,,,,object_02b.png,,,49,,,1,,object_12c.png,object_05b.png,object_04b.png,object_12c.png,,0.7232142857142857,1,,,,,,,,
1995.6000000238419,,directmemory_phase4,1344297,,,,object_14b.png,,,49,,,1,,object_05a.png,object_01a.png,object_06a.png,object_05a.png,,0.7256637168141593,1,,,,,,,,
1681,,directmemory_phase4,1345983,,,,object_11b.png,,,50,,,1,,object_15b.png,object_11a.png,object_04b.png,object_11a.png,,0.7280701754385965,1,,,,,,,,
1863.5,,directmemory_phase4,1347849,,,,object_03a.png,,,50,,,0,,object_13c.png,object_11c.png,object_14a.png,object_14a.png,,0.7217391304347827,0,,,,,,,,
2005.7000000476837,,directmemory_phase4,1349857,,,,object_03c.png,,,50,,,1,,object_04a.png,object_12b.png,object_06b.png,object_12b.png,,0.7241379310344828,1,,,,,,,,
2868.100000023842,,directmemory_phase4,1352729,,,,object_10c.png,,,51,,,0,,object_11a.png,object_12b.png,object_10b.png,object_11a.png,,0.717948717948718,0,,,,,,,,
1205,,directmemory_phase4,1353939,,,,object_04b.png,,,50,,,1,,object_15c.png,object_15a.png,object_14b.png,object_15a.png,,0.7203389830508474,1,,,,,,,,
1521.7000000476837,,directmemory_phase4,1355465,,,,object_12a.png,,,49,,,1,,object_06c.png,object_12b.png,object_04a.png,object_06c.png,,0.7226890756302521,1,,,,,,,,
2425.100000023842,,directmemory_phase4,1357895,,,,object_04a.png,,,50,,,1,,object_12a.png,object_13c.png,object_05a.png,object_13c.png,,0.725,1,,,,,,,,
null,,thebreak,1358000,,,,<p></p>,,,null,,,,,,,,,,,,,,,,,,,
4957.799999952316,,intro_0,1362961,,,,instruct,,,32,,,,,,,,,,,,,,,,,,,
31818.399999976158,,intro_1,1394781,,,,instruct,,,32,,,,,,,,,,,,,,,,,,,
8618.600000023842,,intro_2,1403402,,,,instruct,,,32,,,,,,,,,,,,,,,,,,,
,,intro_3,1422028,,,,instruct,,,,,,,,,,,,,,,,,,,,,,
12989.399999976158,,intro_4,1435020,,,,instruct,,,32,,,,,,,,,,,,,,,,,,,
3544.7000000476837,,inference_phase,1438567,,,,object_04a.png,,,49,object_11c.png,object_05b.png,1,,,,,object_11c.png,,1,,object_14a.png,,,,,,,
3787.5,,inference_phase,1442357,,,,object_03a.png,,,49,object_08c.png,object_03c.png,1,,,,,object_08c.png,,1,,object_05a.png,,,,,,,
3347.3000000715256,,inference_phase,1445708,,,,object_13b.png,,,51,object_02b.png,object_09b.png,1,,,,,object_09b.png,,1,,object_06a.png,,,,,,,
3924,,inference_phase,1449637,,,,object_03c.png,,,49,object_01c.png,object_15b.png,1,,,,,object_01c.png,,1,,object_13c.png,,,,,,,
3380.3000000715256,,inference_phase,1453022,,,,object_03b.png,,,51,object_04c.png,object_05b.png,0,,,,,object_04c.png,,0.8,,object_02b.png,,,,,,,
3497,,inference_phase,1456523,,,,object_15b.png,,,50,object_13b.png,object_01a.png,1,,,,,object_12a.png,,0.8333333333333334,,object_12a.png,,,,,,,
2788.7000000476837,,inference_phase,1459317,,,,object_10a.png,,,51,object_04b.png,object_03a.png,0,,,,,object_05b.png,,0.7142857142857143,,object_05b.png,,,,,,,
3833.899999976158,,inference_phase,1463155,,,,object_12c.png,,,49,object_01b.png,object_02a.png,1,,,,,object_01b.png,,0.75,,object_14a.png,,,,,,,
3194.7999999523163,,inference_phase,1466354,,,,object_07a.png,,,51,object_03b.png,object_09a.png,0,,,,,object_07c.png,,0.6666666666666666,,object_07c.png,,,,,,,
3117.5,,inference_phase,1469476,,,,object_07b.png,,,50,object_04a.png,object_13c.png,1,,,,,object_02a.png,,0.7,,object_02a.png,,,,,,,
3955.4000000953674,,inference_phase,1473436,,,,object_11b.png,,,49,object_08a.png,object_04b.png,0,,,,,object_10c.png,,0.6363636363636364,,object_10c.png,,,,,,,
2363.7000000476837,,inference_phase,1475804,,,,object_05c.png,,,49,object_14c.png,object_06b.png,0,,,,,object_08b.png,,0.5833333333333334,,object_08b.png,,,,,,,
3526,,inference_phase,1479335,,,,object_15a.png,,,51,object_03c.png,object_08a.png,1,,,,,object_08a.png,,0.6153846153846154,,object_05a.png,,,,,,,
2485.600000023842,,inference_phase,1481825,,,,object_14c.png,,,51,object_06a.png,object_05c.png,0,,,,,object_06a.png,,0.5714285714285714,,object_06c.png,,,,,,,
4371.600000023842,,inference_phase,1486201,,,,object_14b.png,,,50,object_08c.png,object_15c.png,1,,,,,object_10b.png,,0.6,,object_10b.png,,,,,,,
,,survey,1580349,,,,survey-questions,,,,,,,,,,,,,,,,none,high,I was not doing anything else, if the pices could interact,no,no,no
