rt,responses,trial_type,time_elapsed,identifier_a,identifier_b,identifier_c,stimulus,button_pressed,response,key_press,stimulus_left,stimulus_right,accuracy,practice_cumulative_accuracy,stimulus_down_left,stimulus_down_mid,stimulus_down_right,stimulus_correct,prac_weighted_accuracy,cumulative_accuracy,failed_practice,weighted_accuracy
18237.10000000149,{worker_id:67db45b4facfa0d4fab192ab},id_enter,18239,object_09a.png; object_03b.png; object_02c.png; object_15a.png; object_07b.png; object_04a.png; object_11b.png; object_12c.png; object_02a.png; object_06c.png; object_14a.png; object_08a.png; object_03c.png; object_08b.png; object_04c.png,object_04b.png; object_05b.png; object_13b.png; object_12b.png; object_03a.png; object_11a.png; object_12a.png; object_09b.png; object_14b.png; object_13a.png; object_06a.png; object_10b.png; object_15b.png; object_06b.png; object_10c.png,object_01a.png; object_01b.png; object_15c.png; object_05c.png; object_01c.png; object_08c.png; object_13c.png; object_07c.png; object_09c.png; object_10a.png; object_05a.png; object_02b.png; object_11c.png; object_14c.png; object_07a.png,,,,,,,,,,,,,,,,
2826901.1000000015,,make_fullscreen,2845149,,,,fullscreen,0,,,,,,,,,,,,,,
9765.60000000149,,instruct_1,2854922,,,,instruct,0,Next,,,,,,,,,,,,,
47249.60000000149,,instruct_2,2902175,,,,instruct,1,Next,,,,,,,,,,,,,
15977.70000000298,,instruct_3,2918155,,,,instruct,1,Next,,,,,,,,,,,,,
30637.70000000298,,instruct_4,2948795,,,,instruct,1,Next,,,,,,,,,,,,,
23827.60000000149,,instruct_5,2972626,,,,instruct,1,Next,,,,,,,,,,,,,
8914.79999999702,,instruct_6,2981543,,,,instruct,1,Next,,,,,,,,,,,,,
50966.89999999851,,instruct_7,3032513,,,,instruct,1,Next,,,,,,,,,,,,,
null,,prac_atten_color_black,3033025,,,,black_plus_sign,,,null,,,,,,,,,,,,
null,,prac_atten_color,3033944,,,,<p style='position:absolute;top: 50%;right: 50%;transform: translate(50%, -50%);font-size: 125px;color: blue;'>+</p>,,,null,,,,,,,,,,,,
null,,prac_atten_color_black,3035960,,,,black_plus_sign,,,null,,,,,,,,,,,,
14180.90000000596,,attentioncheck_help,3050144,,,,instruct,,,32,,,,,,,,,,,,
null,,prac_atten_color_black,3050656,,,,black_plus_sign,,,null,,,,,,,,,,,,
664,,prac_atten_color,3051735,,,,<p style='position:absolute;top: 50%;right: 50%;transform: translate(50%, -50%);font-size: 125px;color: green;'>+</p>,,,50,,,,,,,,,,,,
null,,prac_atten_color_black,3053743,,,,black_plus_sign,,,null,,,,,,,,,,,,
null,,prac_atten_color_black,3054085,,,,black_plus_sign,,,null,,,,,,,,,,,,
null,,prac_atten_color,3055188,,,,<p style='position:absolute;top: 50%;right: 50%;transform: translate(50%, -50%);font-size: 125px;color: green;'>+</p>,,,null,,,,,,,,,,,,
null,,prac_atten_color_black,3057191,,,,black_plus_sign,,,null,,,,,,,,,,,,
16208.39999999851,,attentioncheck_help,3073402,,,,instruct,,,32,,,,,,,,,,,,
null,,prac_atten_color_black,3073716,,,,black_plus_sign,,,null,,,,,,,,,,,,
null,,prac_atten_color,3074599,,,,<p style='position:absolute;top: 50%;right: 50%;transform: translate(50%, -50%);font-size: 125px;color: blue;'>+</p>,,,null,,,,,,,,,,,,
219.20000000298023,,prac_atten_color_black,3076607,,,,black_plus_sign,,,49,,,,,,,,,,,,
null,,prac_atten_color_black,3077151,,,,black_plus_sign,,,null,,,,,,,,,,,,
null,,prac_atten_color,3077632,,,,<p style='position:absolute;top: 50%;right: 50%;transform: translate(50%, -50%);font-size: 125px;color: green;'>+</p>,,,null,,,,,,,,,,,,
192.89999999850988,,prac_atten_color_black,3079648,,,,black_plus_sign,,,50,,,,,,,,,,,,
null,,prac_atten_color_black,3080593,,,,black_plus_sign,,,null,,,,,,,,,,,,
null,,prac_atten_color,3081042,,,,<p style='position:absolute;top: 50%;right: 50%;transform: translate(50%, -50%);font-size: 125px;color: green;'>+</p>,,,null,,,,,,,,,,,,
23.30000000447035,,prac_atten_color_black,3083057,,,,black_plus_sign,,,50,,,,,,,,,,,,
null,,prac_atten_color_black,3084023,,,,black_plus_sign,,,null,,,,,,,,,,,,
null,,prac_atten_color,3084441,,,,<p style='position:absolute;top: 50%;right: 50%;transform: translate(50%, -50%);font-size: 125px;color: blue;'>+</p>,,,null,,,,,,,,,,,,
174.80000000447035,,prac_atten_color_black,3086445,,,,black_plus_sign,,,49,,,,,,,,,,,,
null,,prac_atten_color_black,3087457,,,,black_plus_sign,,,null,,,,,,,,,,,,
380.29999999701977,,prac_atten_color,3088109,,,,<p style='position:absolute;top: 50%;right: 50%;transform: translate(50%, -50%);font-size: 125px;color: green;'>+</p>,,,50,,,,,,,,,,,,
null,,prac_atten_color_black,3090125,,,,black_plus_sign,,,null,,,,,,,,,,,,
null,,prac_atten_color_black,3090886,,,,black_plus_sign,,,null,,,,,,,,,,,,
484.3999999985099,,prac_atten_color,3091880,,,,<p style='position:absolute;top: 50%;right: 50%;transform: translate(50%, -50%);font-size: 125px;color: blue;'>+</p>,,,49,,,,,,,,,,,,
null,,prac_atten_color_black,3093895,,,,black_plus_sign,,,null,,,,,,,,,,,,
null,,prac_atten_color_black,3094330,,,,black_plus_sign,,,null,,,,,,,,,,,,
439.29999999701977,,prac_atten_color,3095031,,,,<p style='position:absolute;top: 50%;right: 50%;transform: translate(50%, -50%);font-size: 125px;color: blue;'>+</p>,,,49,,,,,,,,,,,,
null,,prac_atten_color_black,3097049,,,,black_plus_sign,,,null,,,,,,,,,,,,
7822.5999999940395,,attentioncheck_feedback,3104875,,,,cross_check_feedback,0,,,,,,,,,,,,,,
42784.29999999702,,last_instruct,3147661,,,,instruct,,,32,,,,,,,,,,,,
null,,prac_learn_phase(without_color),3151176,,,,black_plus_sign,,,null,object_11a.png,object_04a.png,,,,,,,,,,
null,,prac_black_cross(without_color),3151843,,,,green,,,null,object_11a.png,object_04a.png,,,,,,,,,,
null,,prac_rt_plussign_withcolor,3152357,,,,green,,,null,object_11a.png,object_04a.png,,,,,,,,,,
832.5999999940395,,prac_rt_thecrossant_black,3153708,,,,black_plus_sign,,,50,,,1,1,,,,,,,,
null,,prac_color_black,3153817,,,,black_plus_sign,,,null,,,,,,,,,,,,
null,,prac_learn_phase(without_color),3157335,,,,black_plus_sign,,,null,object_12b.png,object_15a.png,,,,,,,,,,
null,,black_cross(without_color)1,3157832,,,,blue,,,null,object_11a.png,object_04a.png,,,,,,,,,,
null,,prac_rt_plussign_withcolor,3158344,,,,blue,,,null,object_12b.png,object_15a.png,,,,,,,,,,
969.3999999985099,,prac_rt_thecrossant_black,3159495,,,,black_plus_sign,,,49,,,1,1,,,,,,,,
null,,prac_color_black,3159604,,,,black_plus_sign,,,null,,,,,,,,,,,,
null,,prac_learn_phase(without_color),3163115,,,,black_plus_sign,,,null,object_04b.png,object_09a.png,,,,,,,,,,
null,,black_cross(without_color)1,3163614,,,,blue,,,null,object_11a.png,object_04a.png,,,,,,,,,,
444.3999999985099,,prac_rt_plussign_withcolor,3164126,,,,green,,,50,object_04b.png,object_09a.png,,,,,,,,,,
null,,prac_rt_thecrossant_black,3165474,,,,black_plus_sign,,,null,,,1,1,,,,,,,,
null,,prac_color_black,3165583,,,,black_plus_sign,,,null,,,,,,,,,,,,
null,,prac_learn_phase(without_color),3169088,,,,black_plus_sign,,,null,object_06a.png,object_14a.png,,,,,,,,,,
null,,black_cross(without_color)1,3169583,,,,blue,,,null,object_11a.png,object_04a.png,,,,,,,,,,
null,,prac_rt_plussign_withcolor,3170096,,,,blue,,,null,object_06a.png,object_14a.png,,,,,,,,,,
764.5,,prac_rt_thecrossant_black,3171600,,,,black_plus_sign,,,49,,,1,1,,,,,,,,
null,,prac_color_black,3171711,,,,black_plus_sign,,,null,,,,,,,,,,,,
15545.39999999851,,instruct_dir_01,3187260,,,,instruct,0,Next,,,,,,,,,,,,,
19890,,instruct_dir_2,3207154,,,,instruct,1,Next,,,,,,,,,,,,,
8591.29999999702,,instruct_dir_3,3215748,,,,instruct,1,Next,,,,,,,,,,,,,
13456.89999999851,,instruct_dir_4,3229207,,,,instruct,1,Start,,,,,,,,,,,,,
null,,thebreak,3229315,,,,<p></p>,,,null,,,,,,,,,,,,
2195.10000000149,,intro_0,3231512,,,,instruct,,,32,,,,,,,,,,,,
5345.5999999940395,,prac_directmemory_phase,3236859,,,,practice/object_04a.png,,,50,,,0,,practice/object_02b.png,practice/object_02a.png,practice/object_04b.png,practice/object_04b.png,0,0,,
3701.8000000044703,,prac_directmemory_phase,3240565,,,,practice/object_02a.png,,,51,,,0,,practice/object_02b.png,practice/object_01b.png,practice/object_04a.png,practice/object_02b.png,0,0,,
5163,,prac_directmemory_phase,3245731,,,,practice/object_01a.png,,,49,,,0,,practice/object_02a.png,practice/object_01b.png,practice/object_02b.png,practice/object_01b.png,0,0,,
6716,,prac_directmemory_phase,3252449,,,,practice/object_03a.png,,,51,,,0,,practice/object_03b.png,practice/object_02b.png,practice/object_02a.png,practice/object_03b.png,0,0,,
12785.70000000298,,practice_feedback_force_restart,3265238,,,,practice_feedback,0,,,,,,,,,,,,,1,
16818,,last_instruct,3282057,,,,instruct,,,32,,,,,,,,,,,,
null,,prac_learn_phase(without_color),3285565,,,,black_plus_sign,,,null,object_11a.png,object_04a.png,,,,,,,,,,
null,,prac_black_cross(without_color),3286310,,,,green,,,null,object_11a.png,object_04a.png,,,,,,,,,,
null,,prac_rt_plussign_withcolor,3286823,,,,green,,,null,object_11a.png,object_04a.png,,,,,,,,,,
1156.3000000044703,,prac_rt_thecrossant_black,3288101,,,,black_plus_sign,,,50,,,1,1,,,,,,,,
null,,prac_color_black,3288210,,,,black_plus_sign,,,null,,,,,,,,,,,,
null,,prac_learn_phase(without_color),3291728,,,,black_plus_sign,,,null,object_12b.png,object_15a.png,,,,,,,,,,
null,,black_cross(without_color)1,3292223,,,,blue,,,null,object_11a.png,object_04a.png,,,,,,,,,,
null,,prac_rt_plussign_withcolor,3292737,,,,blue,,,null,object_12b.png,object_15a.png,,,,,,,,,,
867.2000000029802,,prac_rt_thecrossant_black,3294107,,,,black_plus_sign,,,49,,,1,1,,,,,,,,
null,,prac_color_black,3294216,,,,black_plus_sign,,,null,,,,,,,,,,,,
null,,prac_learn_phase(without_color),3297727,,,,black_plus_sign,,,null,object_04b.png,object_09a.png,,,,,,,,,,
null,,black_cross(without_color)1,3298226,,,,blue,,,null,object_11a.png,object_04a.png,,,,,,,,,,
429.8999999985099,,prac_rt_plussign_withcolor,3298741,,,,green,,,50,object_04b.png,object_09a.png,,,,,,,,,,
null,,prac_rt_thecrossant_black,3300000,,,,black_plus_sign,,,null,,,1,1,,,,,,,,
null,,prac_color_black,3300108,,,,black_plus_sign,,,null,,,,,,,,,,,,
null,,prac_learn_phase(without_color),3303619,,,,black_plus_sign,,,null,object_06a.png,object_14a.png,,,,,,,,,,
null,,black_cross(without_color)1,3304115,,,,blue,,,null,object_11a.png,object_04a.png,,,,,,,,,,
null,,prac_rt_plussign_withcolor,3304630,,,,blue,,,null,object_06a.png,object_14a.png,,,,,,,,,,
905.3000000044703,,prac_rt_thecrossant_black,3305781,,,,black_plus_sign,,,49,,,1,1,,,,,,,,
null,,prac_color_black,3305891,,,,black_plus_sign,,,null,,,,,,,,,,,,
8402.39999999851,,instruct_dir_01,3314296,,,,instruct,0,Next,,,,,,,,,,,,,
9727.39999999851,,instruct_dir_2,3324025,,,,instruct,1,Next,,,,,,,,,,,,,
4159.19999999553,,instruct_dir_3,3328186,,,,instruct,1,Next,,,,,,,,,,,,,
6415.89999999851,,instruct_dir_4,3334604,,,,instruct,1,Start,,,,,,,,,,,,,
null,,thebreak,3334712,,,,<p></p>,,,null,,,,,,,,,,,,
1604.7999999970198,,intro_0,3336318,,,,instruct,,,32,,,,,,,,,,,,
3115.6999999955297,,prac_directmemory_phase,3339435,,,,practice/object_04a.png,,,50,,,0,,practice/object_02b.png,practice/object_02a.png,practice/object_04b.png,practice/object_04b.png,0,0,,
4101.70000000298,,prac_directmemory_phase,3343541,,,,practice/object_02a.png,,,49,,,1,,practice/object_02b.png,practice/object_01b.png,practice/object_04a.png,practice/object_02b.png,1,0.5,,
15.5,,prac_directmemory_phase,3343559,,,,practice/object_01a.png,,,51,,,0,,practice/object_02a.png,practice/object_01b.png,practice/object_02b.png,practice/object_01b.png,0,0.3333333333333333,,
3589.39999999851,,prac_directmemory_phase,3347151,,,,practice/object_03a.png,,,49,,,1,,practice/object_03b.png,practice/object_02b.png,practice/object_02a.png,practice/object_03b.png,1,0.5,,
75971.89999999851,,practice_feedback_force_restart,3423126,,,,practice_feedback,0,,,,,,,,,,,,,2,
7259.5,,last_instruct,3430386,,,,instruct,,,32,,,,,,,,,,,,
null,,prac_learn_phase(without_color),3433898,,,,black_plus_sign,,,null,object_11a.png,object_04a.png,,,,,,,,,,
null,,prac_black_cross(without_color),3434317,,,,green,,,null,object_11a.png,object_04a.png,,,,,,,,,,
null,,prac_rt_plussign_withcolor,3434827,,,,green,,,null,object_11a.png,object_04a.png,,,,,,,,,,
1489,,prac_rt_thecrossant_black,3436427,,,,black_plus_sign,,,50,,,1,1,,,,,,,,
null,,prac_color_black,3436536,,,,black_plus_sign,,,null,,,,,,,,,,,,
null,,prac_learn_phase(without_color),3440049,,,,black_plus_sign,,,null,object_12b.png,object_15a.png,,,,,,,,,,
null,,black_cross(without_color)1,3440545,,,,blue,,,null,object_11a.png,object_04a.png,,,,,,,,,,
null,,prac_rt_plussign_withcolor,3441057,,,,blue,,,null,object_12b.png,object_15a.png,,,,,,,,,,
722.7000000029802,,prac_rt_thecrossant_black,3442159,,,,black_plus_sign,,,49,,,1,1,,,,,,,,
null,,prac_color_black,3442267,,,,black_plus_sign,,,null,,,,,,,,,,,,
null,,prac_learn_phase(without_color),3445772,,,,black_plus_sign,,,null,object_04b.png,object_09a.png,,,,,,,,,,
null,,black_cross(without_color)1,3446269,,,,blue,,,null,object_11a.png,object_04a.png,,,,,,,,,,
null,,prac_rt_plussign_withcolor,3446779,,,,green,,,null,object_04b.png,object_09a.png,,,,,,,,,,
1158.2000000029802,,prac_rt_thecrossant_black,3448098,,,,black_plus_sign,,,50,,,1,1,,,,,,,,
null,,prac_color_black,3448206,,,,black_plus_sign,,,null,,,,,,,,,,,,
null,,prac_learn_phase(without_color),3451722,,,,black_plus_sign,,,null,object_06a.png,object_14a.png,,,,,,,,,,
null,,black_cross(without_color)1,3452218,,,,blue,,,null,object_11a.png,object_04a.png,,,,,,,,,,
441.70000000298023,,prac_rt_plussign_withcolor,3452730,,,,blue,,,50,object_06a.png,object_14a.png,,,,,,,,,,
null,,prac_rt_thecrossant_black,3454330,,,,black_plus_sign,,,49,,,0,0.9166666666666666,,,,,,,,
null,,prac_color_black,3454439,,,,black_plus_sign,,,null,,,,,,,,,,,,
18277.60000000149,,instruct_dir_01,3472720,,,,instruct,0,Next,,,,,,,,,,,,,
6002.5,,instruct_dir_2,3478725,,,,instruct,1,Next,,,,,,,,,,,,,
1991.8000000044703,,instruct_dir_3,3480718,,,,instruct,1,Next,,,,,,,,,,,,,
1958.6000000014901,,instruct_dir_4,3482679,,,,instruct,1,Start,,,,,,,,,,,,,
null,,thebreak,3482784,,,,<p></p>,,,null,,,,,,,,,,,,
1562.8999999985099,,intro_0,3484349,,,,instruct,,,32,,,,,,,,,,,,
7608.80000000447,,prac_directmemory_phase,3491959,,,,practice/object_04a.png,,,50,,,0,,practice/object_02b.png,practice/object_02a.png,practice/object_04b.png,practice/object_04b.png,0,0,,
3953.89999999851,,prac_directmemory_phase,3495917,,,,practice/object_02a.png,,,49,,,1,,practice/object_02b.png,practice/object_01b.png,practice/object_04a.png,practice/object_02b.png,1,0.5,,
6128.10000000149,,prac_directmemory_phase,3502047,,,,practice/object_01a.png,,,50,,,1,,practice/object_02a.png,practice/object_01b.png,practice/object_02b.png,practice/object_01b.png,1,0.6666666666666666,,
5055.4000000059605,,prac_directmemory_phase,3507104,,,,practice/object_03a.png,,,49,,,1,,practice/object_03b.png,practice/object_02b.png,practice/object_02a.png,practice/object_03b.png,1,0.75,,
6091.60000000149,,practice_feedback,3513198,,,,practice_feedback,1,,,,,,,,,,,,,,
7181.60000000149,,proceed_actualTask,3520382,,,,proceed_actualTask,1,Continue,,,,,,,,,,,,,
39112.5,,last_inst,3559496,,,,last_inst,,,32,,,,,,,,,,,,
null,,learn_phase(without_color)1,3563005,,,,black_plus_sign,,,null,object_11a.png,object_04a.png,,,,,,,,,,
null,,black_cross(without_color)1,3563501,,,,blue,,,null,object_11a.png,object_04a.png,,,,,,,,,,
null,,rt_plussign_withcolor1,3564013,,,,blue,,,null,object_11a.png,object_04a.png,,,,,,,,,,
600.6000000014901,,rt_thecrossant_black1,3565548,,,,black_plus_sign,,,49,,,1,,,,,,,1,,
null,,color_black1,3565658,,,,black_plus_sign,,,null,,,,,,,,,,,,
null,,learn_phase(without_color)1,3569176,,,,black_plus_sign,,,null,object_12b.png,object_15a.png,,,,,,,,,,
null,,black_cross(without_color)1,3569764,,,,blue,,,null,object_12b.png,object_15a.png,,,,,,,,,,
null,,rt_plussign_withcolor1,3570277,,,,blue,,,null,object_12b.png,object_15a.png,,,,,,,,,,
1518.6999999955297,,rt_thecrossant_black1,3571699,,,,black_plus_sign,,,49,,,1,,,,,,,1,,
null,,color_black1,3571806,,,,black_plus_sign,,,null,,,,,,,,,,,,
null,,learn_phase(without_color)1,3575319,,,,black_plus_sign,,,null,object_04b.png,object_09a.png,,,,,,,,,,
null,,black_cross(without_color)1,3575767,,,,green,,,null,object_04b.png,object_09a.png,,,,,,,,,,
374.3999999985099,,rt_plussign_withcolor1,3576274,,,,green,,,50,object_04b.png,object_09a.png,,,,,,,,,,
null,,rt_thecrossant_black1,3577858,,,,black_plus_sign,,,null,,,1,,,,,,,1,,
null,,color_black1,3577967,,,,black_plus_sign,,,null,,,,,,,,,,,,
null,,learn_phase(without_color)1,3581479,,,,black_plus_sign,,,null,object_06a.png,object_14a.png,,,,,,,,,,
null,,black_cross(without_color)1,3582567,,,,blue,,,null,object_06a.png,object_14a.png,,,,,,,,,,
399,,rt_plussign_withcolor1,3583080,,,,blue,,,49,object_06a.png,object_14a.png,,,,,,,,,,
null,,rt_thecrossant_black1,3584010,,,,black_plus_sign,,,null,,,1,,,,,,,1,,
null,,color_black1,3584120,,,,black_plus_sign,,,null,,,,,,,,,,,,
null,,learn_phase(without_color)1,3587624,,,,black_plus_sign,,,null,object_02c.png,object_13b.png,,,,,,,,,,
null,,black_cross(without_color)1,3588118,,,,blue,,,null,object_02c.png,object_13b.png,,,,,,,,,,
null,,rt_plussign_withcolor1,3588629,,,,blue,,,null,object_02c.png,object_13b.png,,,,,,,,,,
1340.6000000014901,,rt_thecrossant_black1,3590162,,,,black_plus_sign,,,49,,,1,,,,,,,1,,
null,,color_black1,3590272,,,,black_plus_sign,,,null,,,,,,,,,,,,
null,,learn_phase(without_color)1,3593791,,,,black_plus_sign,,,null,object_08b.png,object_06b.png,,,,,,,,,,
null,,black_cross(without_color)1,3594537,,,,green,,,null,object_08b.png,object_06b.png,,,,,,,,,,
null,,rt_plussign_withcolor1,3595049,,,,green,,,null,object_08b.png,object_06b.png,,,,,,,,,,
720.5,,rt_thecrossant_black1,3596323,,,,black_plus_sign,,,49,,,0,,,,,,,0.8333333333333334,,
null,,color_black1,3596431,,,,black_plus_sign,,,null,,,,,,,,,,,,
null,,learn_phase(without_color)1,3599950,,,,black_plus_sign,,,null,object_07b.png,object_03a.png,,,,,,,,,,
null,,black_cross(without_color)1,3600414,,,,blue,,,null,object_07b.png,object_03a.png,,,,,,,,,,
null,,rt_plussign_withcolor1,3600922,,,,blue,,,null,object_07b.png,object_03a.png,,,,,,,,,,
962.6000000014901,,rt_thecrossant_black1,3602473,,,,black_plus_sign,,,49,,,1,,,,,,,0.8571428571428571,,
null,,color_black1,3602584,,,,black_plus_sign,,,null,,,,,,,,,,,,
null,,learn_phase(without_color)1,3606104,,,,black_plus_sign,,,null,object_14b.png,object_02a.png,,,,,,,,,,
null,,black_cross(without_color)1,3607062,,,,blue,,,null,object_14b.png,object_02a.png,,,,,,,,,,
null,,rt_plussign_withcolor1,3607565,,,,blue,,,null,object_14b.png,object_02a.png,,,,,,,,,,
851.3999999985099,,rt_thecrossant_black1,3608624,,,,black_plus_sign,,,49,,,1,,,,,,,0.875,,
null,,color_black1,3608733,,,,black_plus_sign,,,null,,,,,,,,,,,,
null,,learn_phase(without_color)1,3612245,,,,black_plus_sign,,,null,object_03b.png,object_05b.png,,,,,,,,,,
null,,black_cross(without_color)1,3613034,,,,green,,,null,object_03b.png,object_05b.png,,,,,,,,,,
null,,rt_plussign_withcolor1,3613546,,,,green,,,null,object_03b.png,object_05b.png,,,,,,,,,,
1533.8999999985099,,rt_thecrossant_black1,3614776,,,,black_plus_sign,,,50,,,1,,,,,,,0.8888888888888888,,
null,,color_black1,3614884,,,,black_plus_sign,,,null,,,,,,,,,,,,
null,,learn_phase(without_color)1,3618394,,,,black_plus_sign,,,null,object_15b.png,object_03c.png,,,,,,,,,,
null,,black_cross(without_color)1,3618827,,,,green,,,null,object_15b.png,object_03c.png,,,,,,,,,,
482.6000000014901,,rt_plussign_withcolor1,3619329,,,,green,,,49,object_15b.png,object_03c.png,,,,,,,,,,
null,,rt_thecrossant_black1,3620912,,,,black_plus_sign,,,null,,,0,,,,,,,0.8,,
null,,color_black1,3621019,,,,black_plus_sign,,,null,,,,,,,,,,,,
null,,learn_phase(without_color)1,3624534,,,,black_plus_sign,,,null,object_08a.png,object_10b.png,,,,,,,,,,
null,,black_cross(without_color)1,3625634,,,,green,,,null,object_08a.png,object_10b.png,,,,,,,,,,
null,,rt_plussign_withcolor1,3626151,,,,green,,,null,object_08a.png,object_10b.png,,,,,,,,,,
null,,rt_thecrossant_black1,3627080,,,,black_plus_sign,,,null,,,,,,,,,,0.8,,
null,,warning_page,3632090,,,,warning,,,null,,,,,,,,,,,,
null,,color_black1,3632217,,,,black_plus_sign,,,null,,,,,,,,,,,,
null,,learn_phase(without_color)1,3635735,,,,black_plus_sign,,,null,object_10c.png,object_04c.png,,,,,,,,,,
null,,black_cross(without_color)1,3636248,,,,blue,,,null,object_10c.png,object_04c.png,,,,,,,,,,
null,,rt_plussign_withcolor1,3636760,,,,blue,,,null,object_10c.png,object_04c.png,,,,,,,,,,
1420,,rt_thecrossant_black1,3638278,,,,black_plus_sign,,,49,,,1,,,,,,,0.8181818181818182,,
null,,color_black1,3638388,,,,black_plus_sign,,,null,,,,,,,,,,,,
null,,learn_phase(without_color)1,3641904,,,,black_plus_sign,,,null,object_06c.png,object_13a.png,,,,,,,,,,
null,,black_cross(without_color)1,3642756,,,,blue,,,null,object_06c.png,object_13a.png,,,,,,,,,,
null,,rt_plussign_withcolor1,3643265,,,,blue,,,null,object_06c.png,object_13a.png,,,,,,,,,,
616.5,,rt_thecrossant_black1,3644429,,,,black_plus_sign,,,49,,,1,,,,,,,0.8333333333333334,,
null,,color_black1,3644540,,,,black_plus_sign,,,null,,,,,,,,,,,,
null,,learn_phase(without_color)1,3648046,,,,black_plus_sign,,,null,object_12a.png,object_11b.png,,,,,,,,,,
null,,black_cross(without_color)1,3649149,,,,blue,,,null,object_12a.png,object_11b.png,,,,,,,,,,
480.70000000298023,,rt_plussign_withcolor1,3649651,,,,blue,,,49,object_12a.png,object_11b.png,,,,,,,,,,
null,,rt_thecrossant_black1,3650557,,,,black_plus_sign,,,null,,,1,,,,,,,0.8461538461538461,,
null,,color_black1,3650665,,,,black_plus_sign,,,null,,,,,,,,,,,,
null,,learn_phase(without_color)1,3654182,,,,black_plus_sign,,,null,object_09b.png,object_12c.png,,,,,,,,,,
null,,black_cross(without_color)1,3655053,,,,blue,,,null,object_09b.png,object_12c.png,,,,,,,,,,
null,,rt_plussign_withcolor1,3655562,,,,blue,,,null,object_09b.png,object_12c.png,,,,,,,,,,
1367.7999999970198,,rt_thecrossant_black1,3656701,,,,black_plus_sign,,,49,,,1,,,,,,,0.8571428571428571,,
null,,color_black1,3656809,,,,black_plus_sign,,,null,,,,,,,,,,,,
null,,thebreak,3656916,,,,<p></p>,,,null,,,,,,,,,,,,
5356.20000000298,,intro_0,3662274,,,,instruct,,,32,,,,,,,,,,,,
8334.20000000298,,directmemory_phase1,3670611,,,,object_02c.png,,,51,,,1,,object_14b.png,object_03b.png,object_13b.png,object_13b.png,,1,,1
4425.39999999851,,directmemory_phase1,3675040,,,,object_02a.png,,,50,,,1,,object_03b.png,object_14b.png,object_03a.png,object_14b.png,,1,,1
3753.9000000059605,,directmemory_phase1,3678798,,,,object_03c.png,,,49,,,1,,object_15b.png,object_09b.png,object_12c.png,object_15b.png,,1,,1
9275.30000000447,,directmemory_phase1,3688076,,,,object_03b.png,,,51,,,1,,object_12a.png,object_08b.png,object_05b.png,object_05b.png,,1,,1
7869.20000000298,,directmemory_phase1,3695948,,,,object_08b.png,,,50,,,1,,object_02c.png,object_06b.png,object_13a.png,object_06b.png,,1,,1
10094.29999999702,,directmemory_phase1,3706045,,,,object_15a.png,,,50,,,1,,object_12c.png,object_12b.png,object_04b.png,object_12b.png,,1,,1
7234.30000000447,,directmemory_phase1,3713282,,,,object_14a.png,,,50,,,1,,object_03c.png,object_06a.png,object_11a.png,object_06a.png,,1,,1
11438,,directmemory_phase1,3724724,,,,object_04a.png,,,50,,,0,,object_11a.png,object_10b.png,object_14a.png,object_11a.png,,0.875,,0
10451.60000000149,,directmemory_phase1,3735178,,,,object_09a.png,,,51,,,1,,object_10b.png,object_08b.png,object_04b.png,object_04b.png,,0.8888888888888888,,1
10346.29999999702,,directmemory_phase1,3745527,,,,object_04c.png,,,49,,,1,,object_10c.png,object_04b.png,object_03c.png,object_10c.png,,0.9,,1
4621.70000000298,,directmemory_phase1,3750151,,,,object_11b.png,,,50,,,1,,object_07b.png,object_12a.png,object_03a.png,object_12a.png,,0.9090909090909091,,1
3253.9000000059605,,directmemory_phase1,3753408,,,,object_12c.png,,,50,,,1,,object_15a.png,object_09b.png,object_04b.png,object_09b.png,,0.9166666666666666,,1
12863.79999999702,,directmemory_phase1,3766276,,,,object_06c.png,,,51,,,0,,object_13a.png,object_03a.png,object_02c.png,object_13a.png,,0.8461538461538461,,0
8326.5,,directmemory_phase1,3774605,,,,object_08a.png,,,51,,,1,,object_12a.png,object_11b.png,object_10b.png,object_10b.png,,0.8571428571428571,,1
9939.09999999404,,directmemory_phase1,3784546,,,,object_07b.png,,,51,,,1,,object_10b.png,object_02c.png,object_03a.png,object_03a.png,,0.8666666666666667,,1
null,,thebreak,3784651,,,,<p></p>,,,null,,,,,,,,,,,,
44399,,intro_0,3829051,,,,instruct,,,32,,,,,,,,,,,,
null,,learn_phase(without_color)2,3832562,,,,black_plus_sign,,,null,object_06c.png,object_13a.png,,,,,,,,,,
null,,black_cross(without_color)2,3833627,,,,green,,,null,object_06c.png,object_13a.png,,,,,,,,,,
null,,rt_plussign_withcolor2,3834144,,,,green,,,null,object_06c.png,object_13a.png,,,,,,,,,,
1291.9000000059605,,rt_thecrossant_black2,3835101,,,,black_plus_sign,,,50,,,1,,,,,,,1,,
null,,color_black2,3835210,,,,black_plus_sign,,,null,,,,,,,,,,,,
null,,learn_phase(without_color)2,3838722,,,,black_plus_sign,,,null,object_07b.png,object_03a.png,,,,,,,,,,
null,,black_cross(without_color)2,3839575,,,,green,,,null,object_07b.png,object_03a.png,,,,,,,,,,
null,,rt_plussign_withcolor2,3840088,,,,green,,,null,object_07b.png,object_03a.png,,,,,,,,,,
1176.7999999970198,,rt_thecrossant_black2,3841265,,,,black_plus_sign,,,50,,,1,,,,,,,1,,
null,,color_black2,3841370,,,,black_plus_sign,,,null,,,,,,,,,,,,
null,,learn_phase(without_color)2,3844886,,,,black_plus_sign,,,null,object_08b.png,object_06b.png,,,,,,,,,,
null,,black_cross(without_color)2,3845665,,,,blue,,,null,object_08b.png,object_06b.png,,,,,,,,,,
null,,rt_plussign_withcolor2,3846168,,,,blue,,,null,object_08b.png,object_06b.png,,,,,,,,,,
1059.2999999970198,,rt_thecrossant_black2,3847414,,,,black_plus_sign,,,49,,,1,,,,,,,1,,
null,,color_black2,3847524,,,,black_plus_sign,,,null,,,,,,,,,,,,
null,,learn_phase(without_color)2,3851041,,,,black_plus_sign,,,null,object_15b.png,object_03c.png,,,,,,,,,,
null,,black_cross(without_color)2,3851739,,,,green,,,null,object_15b.png,object_03c.png,,,,,,,,,,
null,,rt_plussign_withcolor2,3852253,,,,green,,,null,object_15b.png,object_03c.png,,,,,,,,,,
1046,,rt_thecrossant_black2,3853581,,,,black_plus_sign,,,50,,,1,,,,,,,1,,
null,,color_black2,3853686,,,,black_plus_sign,,,null,,,,,,,,,,,,
null,,learn_phase(without_color)2,3857201,,,,black_plus_sign,,,null,object_04b.png,object_09a.png,,,,,,,,,,
null,,black_cross(without_color)2,3857886,,,,green,,,null,object_04b.png,object_09a.png,,,,,,,,,,
null,,rt_plussign_withcolor2,3858401,,,,green,,,null,object_04b.png,object_09a.png,,,,,,,,,,
1195,,rt_thecrossant_black2,3859743,,,,black_plus_sign,,,50,,,1,,,,,,,1,,
null,,color_black2,3859851,,,,black_plus_sign,,,null,,,,,,,,,,,,
null,,learn_phase(without_color)2,3863364,,,,black_plus_sign,,,null,object_03b.png,object_05b.png,,,,,,,,,,
null,,black_cross(without_color)2,3863875,,,,green,,,null,object_03b.png,object_05b.png,,,,,,,,,,
null,,rt_plussign_withcolor2,3864391,,,,green,,,null,object_03b.png,object_05b.png,,,,,,,,,,
1114.2000000029802,,rt_thecrossant_black2,3865899,,,,black_plus_sign,,,49,,,0,,,,,,,0.8333333333333334,,
null,,color_black2,3866009,,,,black_plus_sign,,,null,,,,,,,,,,,,
null,,learn_phase(without_color)2,3869515,,,,black_plus_sign,,,null,object_12a.png,object_11b.png,,,,,,,,,,
null,,black_cross(without_color)2,3869982,,,,green,,,null,object_12a.png,object_11b.png,,,,,,,,,,
null,,rt_plussign_withcolor2,3870496,,,,green,,,null,object_12a.png,object_11b.png,,,,,,,,,,
883.8999999985099,,rt_thecrossant_black2,3872043,,,,black_plus_sign,,,50,,,1,,,,,,,0.8571428571428571,,
null,,color_black2,3872153,,,,black_plus_sign,,,null,,,,,,,,,,,,
null,,learn_phase(without_color)2,3875664,,,,black_plus_sign,,,null,object_09b.png,object_12c.png,,,,,,,,,,
null,,black_cross(without_color)2,3876161,,,,green,,,null,object_09b.png,object_12c.png,,,,,,,,,,
494,,rt_plussign_withcolor2,3876671,,,,green,,,50,object_09b.png,object_12c.png,,,,,,,,,,
null,,rt_thecrossant_black2,3878197,,,,black_plus_sign,,,null,,,1,,,,,,,0.875,,
null,,color_black2,3878305,,,,black_plus_sign,,,null,,,,,,,,,,,,
null,,learn_phase(without_color)2,3881812,,,,black_plus_sign,,,null,object_08a.png,object_10b.png,,,,,,,,,,
null,,black_cross(without_color)2,3882232,,,,blue,,,null,object_08a.png,object_10b.png,,,,,,,,,,
475.79999999701977,,rt_plussign_withcolor2,3882733,,,,blue,,,49,object_08a.png,object_10b.png,,,,,,,,,,
null,,rt_thecrossant_black2,3884337,,,,black_plus_sign,,,null,,,1,,,,,,,0.8888888888888888,,
null,,color_black2,3884443,,,,black_plus_sign,,,null,,,,,,,,,,,,
null,,learn_phase(without_color)2,3887953,,,,black_plus_sign,,,null,object_14b.png,object_02a.png,,,,,,,,,,
null,,black_cross(without_color)2,3888791,,,,green,,,null,object_14b.png,object_02a.png,,,,,,,,,,
null,,rt_plussign_withcolor2,3889293,,,,green,,,null,object_14b.png,object_02a.png,,,,,,,,,,
1150.5,,rt_thecrossant_black2,3890473,,,,black_plus_sign,,,50,,,1,,,,,,,0.9,,
null,,color_black2,3890582,,,,black_plus_sign,,,null,,,,,,,,,,,,
null,,learn_phase(without_color)2,3894096,,,,black_plus_sign,,,null,object_14a.png,object_06a.png,,,,,,,,,,
null,,black_cross(without_color)2,3894906,,,,blue,,,null,object_14a.png,object_06a.png,,,,,,,,,,
410.79999999701977,,rt_plussign_withcolor2,3895419,,,,blue,,,49,object_14a.png,object_06a.png,,,,,,,,,,
null,,rt_thecrossant_black2,3896631,,,,black_plus_sign,,,null,,,1,,,,,,,0.9090909090909091,,
null,,color_black2,3896737,,,,black_plus_sign,,,null,,,,,,,,,,,,
null,,learn_phase(without_color)2,3900240,,,,black_plus_sign,,,null,object_10c.png,object_04c.png,,,,,,,,,,
null,,black_cross(without_color)2,3901160,,,,blue,,,null,object_10c.png,object_04c.png,,,,,,,,,,
null,,rt_plussign_withcolor2,3901672,,,,blue,,,null,object_10c.png,object_04c.png,,,,,,,,,,
1150.3000000044703,,rt_thecrossant_black2,3902774,,,,black_plus_sign,,,49,,,1,,,,,,,0.9166666666666666,,
null,,color_black2,3902880,,,,black_plus_sign,,,null,,,,,,,,,,,,
null,,learn_phase(without_color)2,3906385,,,,black_plus_sign,,,null,object_12b.png,object_15a.png,,,,,,,,,,
null,,black_cross(without_color)2,3906835,,,,green,,,null,object_12b.png,object_15a.png,,,,,,,,,,
null,,rt_plussign_withcolor2,3907352,,,,green,,,null,object_12b.png,object_15a.png,,,,,,,,,,
1131,,rt_thecrossant_black2,3908932,,,,black_plus_sign,,,50,,,1,,,,,,,0.9230769230769231,,
null,,color_black2,3909040,,,,black_plus_sign,,,null,,,,,,,,,,,,
null,,learn_phase(without_color)2,3912556,,,,black_plus_sign,,,null,object_04a.png,object_11a.png,,,,,,,,,,
null,,black_cross(without_color)2,3913175,,,,green,,,null,object_04a.png,object_11a.png,,,,,,,,,,
null,,rt_plussign_withcolor2,3913686,,,,green,,,null,object_04a.png,object_11a.png,,,,,,,,,,
1025.3999999985099,,rt_thecrossant_black2,3915094,,,,black_plus_sign,,,49,,,0,,,,,,,0.8571428571428571,,
null,,color_black2,3915203,,,,black_plus_sign,,,null,,,,,,,,,,,,
null,,learn_phase(without_color)2,3918719,,,,black_plus_sign,,,null,object_02c.png,object_13b.png,,,,,,,,,,
null,,black_cross(without_color)2,3919420,,,,green,,,null,object_02c.png,object_13b.png,,,,,,,,,,
null,,rt_plussign_withcolor2,3919929,,,,green,,,null,object_02c.png,object_13b.png,,,,,,,,,,
904.5999999940395,,rt_thecrossant_black2,3921259,,,,black_plus_sign,,,50,,,1,,,,,,,0.8666666666666667,,
null,,color_black2,3921366,,,,black_plus_sign,,,null,,,,,,,,,,,,
null,,thebreak,3921476,,,,<p></p>,,,null,,,,,,,,,,,,
15384.5,,intro_0,3936863,,,,instruct,,,32,,,,,,,,,,,,
5350.39999999851,,directmemory_phase2,3942215,,,,object_03b.png,,,51,,,1,,object_13b.png,object_11b.png,object_05b.png,object_05b.png,,0.875,,1
8221.5,,directmemory_phase2,3950439,,,,object_06c.png,,,50,,,0,,object_13a.png,object_13b.png,object_03c.png,object_13a.png,,0.8235294117647058,,0
7784.80000000447,,directmemory_phase2,3958226,,,,object_04a.png,,,50,,,1,,object_14a.png,object_11a.png,object_12b.png,object_11a.png,,0.8333333333333334,,1
4560.69999999553,,directmemory_phase2,3962789,,,,object_08b.png,,,51,,,1,,object_13a.png,object_04a.png,object_06b.png,object_06b.png,,0.8421052631578947,,1
4706.10000000149,,directmemory_phase2,3967498,,,,object_09a.png,,,51,,,1,,object_09b.png,object_15a.png,object_04b.png,object_04b.png,,0.85,,1
3349,,directmemory_phase2,3970850,,,,object_15a.png,,,50,,,1,,object_03c.png,object_12b.png,object_13b.png,object_12b.png,,0.8571428571428571,,1
5345.10000000149,,directmemory_phase2,3976198,,,,object_03c.png,,,50,,,1,,object_08b.png,object_15b.png,object_06b.png,object_15b.png,,0.8636363636363636,,1
2900,,directmemory_phase2,3979100,,,,object_08a.png,,,51,,,1,,object_12b.png,object_14a.png,object_10b.png,object_10b.png,,0.8695652173913043,,1
4643.80000000447,,directmemory_phase2,3983746,,,,object_12c.png,,,51,,,1,,object_13a.png,object_14a.png,object_09b.png,object_09b.png,,0.875,,1
7317.4000000059605,,directmemory_phase2,3991066,,,,object_11b.png,,,50,,,0,,object_04b.png,object_02c.png,object_12a.png,object_12a.png,,0.84,,0
2545.60000000149,,directmemory_phase2,3993615,,,,object_04c.png,,,51,,,1,,object_14b.png,object_08b.png,object_10c.png,object_10c.png,,0.8461538461538461,,1
9307.20000000298,,directmemory_phase2,4002925,,,,object_14a.png,,,49,,,0,,object_03a.png,object_12c.png,object_06a.png,object_06a.png,,0.8148148148148148,,0
2713.2999999970198,,directmemory_phase2,4005640,,,,object_02c.png,,,49,,,1,,object_13b.png,object_10b.png,object_15a.png,object_13b.png,,0.8214285714285714,,1
3796.60000000149,,directmemory_phase2,4009439,,,,object_02a.png,,,50,,,1,,object_08a.png,object_14b.png,object_05b.png,object_14b.png,,0.8275862068965517,,1
5945.60000000149,,directmemory_phase2,4015387,,,,object_07b.png,,,51,,,1,,object_06a.png,object_08a.png,object_03a.png,object_03a.png,,0.8333333333333334,,1
null,,thebreak,4015498,,,,<p></p>,,,null,,,,,,,,,,,,
17379.70000000298,,intro_0,4032879,,,,instruct,,,32,,,,,,,,,,,,
null,,learn_phase(without_color)3,4036383,,,,black_plus_sign,,,null,object_09a.png,object_04b.png,,,,,,,,,,
null,,black_cross(without_color)3,4037066,,,,green,,,null,object_09a.png,object_04b.png,,,,,,,,,,
null,,rt_plussign_withcolor3,4037576,,,,green,,,null,object_09a.png,object_04b.png,,,,,,,,,,
878.3999999985099,,rt_thecrossant_black3,4038910,,,,black_plus_sign,,,50,,,1,,,,,,,1,,
null,,color_black3,4039020,,,,black_plus_sign,,,null,,,,,,,,,,,,
null,,learn_phase(without_color)3,4042534,,,,black_plus_sign,,,null,object_04c.png,object_10c.png,,,,,,,,,,
null,,black_cross(without_color)3,4043310,,,,green,,,null,object_04c.png,object_10c.png,,,,,,,,,,
null,,rt_plussign_withcolor3,4043821,,,,green,,,null,object_04c.png,object_10c.png,,,,,,,,,,
786,,rt_thecrossant_black3,4045055,,,,black_plus_sign,,,50,,,1,,,,,,,1,,
null,,color_black3,4045163,,,,black_plus_sign,,,null,,,,,,,,,,,,
null,,learn_phase(without_color)3,4048679,,,,black_plus_sign,,,null,object_02c.png,object_13b.png,,,,,,,,,,
null,,black_cross(without_color)3,4049738,,,,green,,,null,object_02c.png,object_13b.png,,,,,,,,,,
null,,rt_plussign_withcolor3,4050251,,,,green,,,null,object_02c.png,object_13b.png,,,,,,,,,,
916.3999999985099,,rt_thecrossant_black3,4051212,,,,black_plus_sign,,,50,,,1,,,,,,,1,,
null,,color_black3,4051323,,,,black_plus_sign,,,null,,,,,,,,,,,,
null,,learn_phase(without_color)3,4054830,,,,black_plus_sign,,,null,object_05b.png,object_03b.png,,,,,,,,,,
null,,black_cross(without_color)3,4055703,,,,green,,,null,object_05b.png,object_03b.png,,,,,,,,,,
null,,rt_plussign_withcolor3,4056215,,,,green,,,null,object_05b.png,object_03b.png,,,,,,,,,,
1329.8999999985099,,rt_thecrossant_black3,4057361,,,,black_plus_sign,,,50,,,1,,,,,,,1,,
null,,color_black3,4057470,,,,black_plus_sign,,,null,,,,,,,,,,,,
null,,learn_phase(without_color)3,4060973,,,,black_plus_sign,,,null,object_07b.png,object_03a.png,,,,,,,,,,
null,,black_cross(without_color)3,4061981,,,,blue,,,null,object_07b.png,object_03a.png,,,,,,,,,,
null,,rt_plussign_withcolor3,4062493,,,,blue,,,null,object_07b.png,object_03a.png,,,,,,,,,,
1389.0999999940395,,rt_thecrossant_black3,4063502,,,,black_plus_sign,,,49,,,1,,,,,,,1,,
null,,color_black3,4063611,,,,black_plus_sign,,,null,,,,,,,,,,,,
null,,learn_phase(without_color)3,4067116,,,,black_plus_sign,,,null,object_03c.png,object_15b.png,,,,,,,,,,
null,,black_cross(without_color)3,4067957,,,,green,,,null,object_03c.png,object_15b.png,,,,,,,,,,
null,,rt_plussign_withcolor3,4068469,,,,green,,,null,object_03c.png,object_15b.png,,,,,,,,,,
1257.7000000029802,,rt_thecrossant_black3,4069650,,,,black_plus_sign,,,50,,,1,,,,,,,1,,
null,,color_black3,4069759,,,,black_plus_sign,,,null,,,,,,,,,,,,
null,,learn_phase(without_color)3,4073273,,,,black_plus_sign,,,null,object_13a.png,object_06c.png,,,,,,,,,,
null,,black_cross(without_color)3,4073832,,,,blue,,,null,object_13a.png,object_06c.png,,,,,,,,,,
null,,rt_plussign_withcolor3,4074341,,,,blue,,,null,object_13a.png,object_06c.png,,,,,,,,,,
1219.2000000029802,,rt_thecrossant_black3,4075814,,,,black_plus_sign,,,49,,,1,,,,,,,1,,
null,,color_black3,4075923,,,,black_plus_sign,,,null,,,,,,,,,,,,
null,,learn_phase(without_color)3,4079439,,,,black_plus_sign,,,null,object_06b.png,object_08b.png,,,,,,,,,,
null,,black_cross(without_color)3,4080153,,,,green,,,null,object_06b.png,object_08b.png,,,,,,,,,,
null,,rt_plussign_withcolor3,4080662,,,,green,,,null,object_06b.png,object_08b.png,,,,,,,,,,
903.7000000029802,,rt_thecrossant_black3,4081974,,,,black_plus_sign,,,50,,,1,,,,,,,1,,
null,,color_black3,4082082,,,,black_plus_sign,,,null,,,,,,,,,,,,
null,,learn_phase(without_color)3,4085588,,,,black_plus_sign,,,null,object_14b.png,object_02a.png,,,,,,,,,,
null,,black_cross(without_color)3,4086363,,,,green,,,null,object_14b.png,object_02a.png,,,,,,,,,,
null,,rt_plussign_withcolor3,4086873,,,,green,,,null,object_14b.png,object_02a.png,,,,,,,,,,
1033.5,,rt_thecrossant_black3,4088113,,,,black_plus_sign,,,50,,,1,,,,,,,1,,
null,,color_black3,4088222,,,,black_plus_sign,,,null,,,,,,,,,,,,
null,,learn_phase(without_color)3,4091737,,,,black_plus_sign,,,null,object_09b.png,object_12c.png,,,,,,,,,,
null,,black_cross(without_color)3,4092669,,,,blue,,,null,object_09b.png,object_12c.png,,,,,,,,,,
null,,rt_plussign_withcolor3,4093181,,,,blue,,,null,object_09b.png,object_12c.png,,,,,,,,,,
1002.1999999955297,,rt_thecrossant_black3,4094278,,,,black_plus_sign,,,49,,,1,,,,,,,1,,
null,,color_black3,4094386,,,,black_plus_sign,,,null,,,,,,,,,,,,
null,,learn_phase(without_color)3,4097895,,,,black_plus_sign,,,null,object_14a.png,object_06a.png,,,,,,,,,,
null,,black_cross(without_color)3,4098318,,,,green,,,null,object_14a.png,object_06a.png,,,,,,,,,,
null,,rt_plussign_withcolor3,4098831,,,,green,,,null,object_14a.png,object_06a.png,,,,,,,,,,
1177.7999999970198,,rt_thecrossant_black3,4100429,,,,black_plus_sign,,,50,,,1,,,,,,,1,,
null,,color_black3,4100536,,,,black_plus_sign,,,null,,,,,,,,,,,,
null,,learn_phase(without_color)3,4104051,,,,black_plus_sign,,,null,object_15a.png,object_12b.png,,,,,,,,,,
null,,black_cross(without_color)3,4104597,,,,blue,,,null,object_15a.png,object_12b.png,,,,,,,,,,
null,,rt_plussign_withcolor3,4105111,,,,blue,,,null,object_15a.png,object_12b.png,,,,,,,,,,
695.5,,rt_thecrossant_black3,4106591,,,,black_plus_sign,,,50,,,0,,,,,,,0.9166666666666666,,
null,,color_black3,4106696,,,,black_plus_sign,,,null,,,,,,,,,,,,
null,,learn_phase(without_color)3,4110210,,,,black_plus_sign,,,null,object_11b.png,object_12a.png,,,,,,,,,,
null,,black_cross(without_color)3,4111016,,,,green,,,null,object_11b.png,object_12a.png,,,,,,,,,,
null,,rt_plussign_withcolor3,4111531,,,,green,,,null,object_11b.png,object_12a.png,,,,,,,,,,
1510.7000000029802,,rt_thecrossant_black3,4112759,,,,black_plus_sign,,,50,,,1,,,,,,,0.9230769230769231,,
null,,color_black3,4112869,,,,black_plus_sign,,,null,,,,,,,,,,,,
null,,learn_phase(without_color)3,4116380,,,,black_plus_sign,,,null,object_10b.png,object_08a.png,,,,,,,,,,
null,,black_cross(without_color)3,4117391,,,,green,,,null,object_10b.png,object_08a.png,,,,,,,,,,
null,,rt_plussign_withcolor3,4117902,,,,green,,,null,object_10b.png,object_08a.png,,,,,,,,,,
901.2999999970198,,rt_thecrossant_black3,4118917,,,,black_plus_sign,,,50,,,1,,,,,,,0.9285714285714286,,
null,,color_black3,4119026,,,,black_plus_sign,,,null,,,,,,,,,,,,
null,,learn_phase(without_color)3,4122539,,,,black_plus_sign,,,null,object_04a.png,object_11a.png,,,,,,,,,,
null,,black_cross(without_color)3,4123022,,,,green,,,null,object_04a.png,object_11a.png,,,,,,,,,,
null,,rt_plussign_withcolor3,4123534,,,,green,,,null,object_04a.png,object_11a.png,,,,,,,,,,
1725.2000000029802,,rt_thecrossant_black3,4125061,,,,black_plus_sign,,,50,,,1,,,,,,,0.9333333333333333,,
null,,color_black3,4125170,,,,black_plus_sign,,,null,,,,,,,,,,,,
null,,thebreak,4125278,,,,<p></p>,,,null,,,,,,,,,,,,
17063.60000000149,,intro_0,4142344,,,,instruct,,,32,,,,,,,,,,,,
4959.39999999851,,directmemory_phase3,4147306,,,,object_06c.png,,,49,,,1,,object_13a.png,object_04b.png,object_02c.png,object_13a.png,,0.8387096774193549,,1
3081.6999999955297,,directmemory_phase3,4150390,,,,object_04a.png,,,50,,,1,,object_02c.png,object_11a.png,object_13b.png,object_11a.png,,0.84375,,1
8741.90000000596,,directmemory_phase3,4159135,,,,object_04c.png,,,51,,,0,,object_10c.png,object_09b.png,object_11b.png,object_10c.png,,0.8181818181818182,,0
12027.80000000447,,directmemory_phase3,4171166,,,,object_03b.png,,,50,,,1,,object_12c.png,object_05b.png,object_09b.png,object_05b.png,,0.8235294117647058,,1
4552.89999999851,,directmemory_phase3,4175722,,,,object_03c.png,,,51,,,1,,object_04b.png,object_11b.png,object_15b.png,object_15b.png,,0.8285714285714286,,1
6921.10000000149,,directmemory_phase3,4182647,,,,object_02a.png,,,49,,,1,,object_14b.png,object_11a.png,object_03c.png,object_14b.png,,0.8333333333333334,,1
7790.60000000149,,directmemory_phase3,4190441,,,,object_02c.png,,,50,,,1,,object_12c.png,object_13b.png,object_15b.png,object_13b.png,,0.8378378378378378,,1
3835.0999999940395,,directmemory_phase3,4194280,,,,object_09a.png,,,50,,,1,,object_02c.png,object_04b.png,object_03a.png,object_04b.png,,0.8421052631578947,,1
4393.0999999940395,,directmemory_phase3,4198676,,,,object_12c.png,,,50,,,1,,object_02c.png,object_09b.png,object_05b.png,object_09b.png,,0.8461538461538461,,1
4659.60000000149,,directmemory_phase3,4203340,,,,object_14a.png,,,49,,,1,,object_06a.png,object_09b.png,object_12c.png,object_06a.png,,0.85,,1
2273.5,,directmemory_phase3,4205618,,,,object_08b.png,,,50,,,1,,object_11b.png,object_06b.png,object_11a.png,object_06b.png,,0.8536585365853658,,1
2313.7000000029802,,directmemory_phase3,4207935,,,,object_11b.png,,,50,,,1,,object_03b.png,object_12a.png,object_13a.png,object_12a.png,,0.8571428571428571,,1
1974,,directmemory_phase3,4209912,,,,object_15a.png,,,51,,,1,,object_03a.png,object_12c.png,object_12b.png,object_12b.png,,0.8604651162790697,,1
5350.89999999851,,directmemory_phase3,4215265,,,,object_08a.png,,,50,,,1,,object_03c.png,object_10b.png,object_06a.png,object_10b.png,,0.8636363636363636,,1
8548.29999999702,,directmemory_phase3,4223816,,,,object_07b.png,,,51,,,1,,object_14b.png,object_03c.png,object_03a.png,object_03a.png,,0.8666666666666667,,1
null,,thebreak,4223934,,,,<p></p>,,,null,,,,,,,,,,,,
43637.10000000149,,intro_0,4267573,,,,instruct,,,32,,,,,,,,,,,,
null,,learn_phase(without_color)4,4271087,,,,black_plus_sign,,,null,object_06c.png,object_13a.png,,,,,,,,,,
null,,black_cross(without_color)4,4271570,,,,green,,,null,object_06c.png,object_13a.png,,,,,,,,,,
null,,rt_plussign_withcolor4,4272081,,,,green,,,null,object_06c.png,object_13a.png,,,,,,,,,,
630.6999999955297,,rt_thecrossant_black4,4273631,,,,black_plus_sign,,,50,,,1,,,,,,,1,,
null,,color_black4,4273739,,,,black_plus_sign,,,null,,,,,,,,,,,,
null,,learn_phase(without_color)4,4277251,,,,black_plus_sign,,,null,object_14b.png,object_02a.png,,,,,,,,,,
null,,black_cross(without_color)4,4278151,,,,green,,,null,object_14b.png,object_02a.png,,,,,,,,,,
null,,rt_plussign_withcolor4,4278659,,,,green,,,null,object_14b.png,object_02a.png,,,,,,,,,,
907.3999999985099,,rt_thecrossant_black4,4279780,,,,black_plus_sign,,,50,,,1,,,,,,,1,,
null,,color_black4,4279888,,,,black_plus_sign,,,null,,,,,,,,,,,,
null,,learn_phase(without_color)4,4283396,,,,black_plus_sign,,,null,object_09a.png,object_04b.png,,,,,,,,,,
null,,black_cross(without_color)4,4284354,,,,blue,,,null,object_09a.png,object_04b.png,,,,,,,,,,
479.5,,rt_plussign_withcolor4,4284856,,,,blue,,,49,object_09a.png,object_04b.png,,,,,,,,,,
null,,rt_thecrossant_black4,4285922,,,,black_plus_sign,,,null,,,1,,,,,,,1,,
null,,color_black4,4286030,,,,black_plus_sign,,,null,,,,,,,,,,,,
null,,learn_phase(without_color)4,4289536,,,,black_plus_sign,,,null,object_09b.png,object_12c.png,,,,,,,,,,
null,,black_cross(without_color)4,4290435,,,,blue,,,null,object_09b.png,object_12c.png,,,,,,,,,,
null,,rt_plussign_withcolor4,4290949,,,,blue,,,null,object_09b.png,object_12c.png,,,,,,,,,,
1312.2999999970198,,rt_thecrossant_black4,4292081,,,,black_plus_sign,,,49,,,1,,,,,,,1,,
null,,color_black4,4292190,,,,black_plus_sign,,,null,,,,,,,,,,,,
null,,learn_phase(without_color)4,4295705,,,,black_plus_sign,,,null,object_02c.png,object_13b.png,,,,,,,,,,
null,,black_cross(without_color)4,4296265,,,,green,,,null,object_02c.png,object_13b.png,,,,,,,,,,
null,,rt_plussign_withcolor4,4296776,,,,green,,,null,object_02c.png,object_13b.png,,,,,,,,,,
1389.3000000044703,,rt_thecrossant_black4,4298236,,,,black_plus_sign,,,49,,,0,,,,,,,0.8,,
null,,color_black4,4298342,,,,black_plus_sign,,,null,,,,,,,,,,,,
null,,learn_phase(without_color)4,4301853,,,,black_plus_sign,,,null,object_06b.png,object_08b.png,,,,,,,,,,
null,,black_cross(without_color)4,4302597,,,,green,,,null,object_06b.png,object_08b.png,,,,,,,,,,
null,,rt_plussign_withcolor4,4303111,,,,green,,,null,object_06b.png,object_08b.png,,,,,,,,,,
1287.6000000014901,,rt_thecrossant_black4,4304399,,,,black_plus_sign,,,49,,,0,,,,,,,0.6666666666666666,,
null,,warning_page,4309414,,,,warning,,,null,,,,,,,,,,,,
null,,color_black4,4309539,,,,black_plus_sign,,,null,,,,,,,,,,,,
null,,learn_phase(without_color)4,4313057,,,,black_plus_sign,,,null,object_05b.png,object_03b.png,,,,,,,,,,
null,,black_cross(without_color)4,4314111,,,,green,,,null,object_05b.png,object_03b.png,,,,,,,,,,
null,,rt_plussign_withcolor4,4314624,,,,green,,,null,object_05b.png,object_03b.png,,,,,,,,,,
1227.5999999940395,,rt_thecrossant_black4,4315589,,,,black_plus_sign,,,50,,,1,,,,,,,0.7142857142857143,,
null,,color_black4,4315697,,,,black_plus_sign,,,null,,,,,,,,,,,,
null,,learn_phase(without_color)4,4319204,,,,black_plus_sign,,,null,object_15b.png,object_03c.png,,,,,,,,,,
null,,black_cross(without_color)4,4320071,,,,blue,,,null,object_15b.png,object_03c.png,,,,,,,,,,
null,,rt_plussign_withcolor4,4320581,,,,blue,,,null,object_15b.png,object_03c.png,,,,,,,,,,
1522.5999999940395,,rt_thecrossant_black4,4321749,,,,black_plus_sign,,,49,,,1,,,,,,,0.75,,
null,,color_black4,4321857,,,,black_plus_sign,,,null,,,,,,,,,,,,
null,,learn_phase(without_color)4,4325375,,,,black_plus_sign,,,null,object_03a.png,object_07b.png,,,,,,,,,,
null,,black_cross(without_color)4,4326459,,,,blue,,,null,object_03a.png,object_07b.png,,,,,,,,,,
null,,rt_plussign_withcolor4,4326972,,,,blue,,,null,object_03a.png,object_07b.png,,,,,,,,,,
1262.1999999955297,,rt_thecrossant_black4,4327909,,,,black_plus_sign,,,49,,,1,,,,,,,0.7777777777777778,,
null,,color_black4,4328020,,,,black_plus_sign,,,null,,,,,,,,,,,,
null,,learn_phase(without_color)4,4331537,,,,black_plus_sign,,,null,object_14a.png,object_06a.png,,,,,,,,,,
null,,black_cross(without_color)4,4332285,,,,green,,,null,object_14a.png,object_06a.png,,,,,,,,,,
null,,rt_plussign_withcolor4,4332795,,,,green,,,null,object_14a.png,object_06a.png,,,,,,,,,,
1566.1000000014901,,rt_thecrossant_black4,4334067,,,,black_plus_sign,,,50,,,1,,,,,,,0.8,,
null,,color_black4,4334173,,,,black_plus_sign,,,null,,,,,,,,,,,,
null,,learn_phase(without_color)4,4337689,,,,black_plus_sign,,,null,object_11a.png,object_04a.png,,,,,,,,,,
null,,black_cross(without_color)4,4338340,,,,green,,,null,object_11a.png,object_04a.png,,,,,,,,,,
null,,rt_plussign_withcolor4,4338854,,,,green,,,null,object_11a.png,object_04a.png,,,,,,,,,,
1197.3000000044703,,rt_thecrossant_black4,4340220,,,,black_plus_sign,,,50,,,1,,,,,,,0.8181818181818182,,
null,,color_black4,4340328,,,,black_plus_sign,,,null,,,,,,,,,,,,
null,,learn_phase(without_color)4,4343837,,,,black_plus_sign,,,null,object_10b.png,object_08a.png,,,,,,,,,,
null,,black_cross(without_color)4,4344868,,,,green,,,null,object_10b.png,object_08a.png,,,,,,,,,,
null,,rt_plussign_withcolor4,4345385,,,,green,,,null,object_10b.png,object_08a.png,,,,,,,,,,
1202.1000000014901,,rt_thecrossant_black4,4346376,,,,black_plus_sign,,,50,,,1,,,,,,,0.8333333333333334,,
null,,color_black4,4346485,,,,black_plus_sign,,,null,,,,,,,,,,,,
null,,learn_phase(without_color)4,4349998,,,,black_plus_sign,,,null,object_11b.png,object_12a.png,,,,,,,,,,
null,,black_cross(without_color)4,4350806,,,,green,,,null,object_11b.png,object_12a.png,,,,,,,,,,
null,,rt_plussign_withcolor4,4351317,,,,green,,,null,object_11b.png,object_12a.png,,,,,,,,,,
1476.6999999955297,,rt_thecrossant_black4,4352528,,,,black_plus_sign,,,50,,,1,,,,,,,0.8461538461538461,,
null,,color_black4,4352638,,,,black_plus_sign,,,null,,,,,,,,,,,,
null,,learn_phase(without_color)4,4356156,,,,black_plus_sign,,,null,object_12b.png,object_15a.png,,,,,,,,,,
null,,black_cross(without_color)4,4357238,,,,blue,,,null,object_12b.png,object_15a.png,,,,,,,,,,
null,,rt_plussign_withcolor4,4357748,,,,blue,,,null,object_12b.png,object_15a.png,,,,,,,,,,
1211.1999999955297,,rt_thecrossant_black4,4358698,,,,black_plus_sign,,,50,,,0,,,,,,,0.7857142857142857,,
null,,color_black4,4358805,,,,black_plus_sign,,,null,,,,,,,,,,,,
null,,learn_phase(without_color)4,4362308,,,,black_plus_sign,,,null,object_10c.png,object_04c.png,,,,,,,,,,
null,,black_cross(without_color)4,4362912,,,,blue,,,null,object_10c.png,object_04c.png,,,,,,,,,,
null,,rt_plussign_withcolor4,4363425,,,,blue,,,null,object_10c.png,object_04c.png,,,,,,,,,,
1719.8000000044703,,rt_thecrossant_black4,4364848,,,,black_plus_sign,,,49,,,1,,,,,,,0.8,,
null,,color_black4,4364957,,,,black_plus_sign,,,null,,,,,,,,,,,,
null,,thebreak,4365066,,,,<p></p>,,,null,,,,,,,,,,,,
9546.10000000149,,intro_0,4374614,,,,instruct,,,32,,,,,,,,,,,,
4735.80000000447,,directmemory_phase4,4379351,,,,object_03b.png,,,49,,,1,,object_05b.png,object_03a.png,object_12c.png,object_05b.png,,0.8695652173913043,,1
3360.8000000044703,,directmemory_phase4,4382714,,,,object_04c.png,,,51,,,1,,object_09b.png,object_12c.png,object_10c.png,object_10c.png,,0.8723404255319149,,1
4793.39999999851,,directmemory_phase4,4387511,,,,object_06c.png,,,51,,,0,,object_13a.png,object_15b.png,object_03c.png,object_13a.png,,0.8541666666666666,,0
5039.30000000447,,directmemory_phase4,4392553,,,,object_15a.png,,,49,,,1,,object_12b.png,object_10b.png,object_08a.png,object_12b.png,,0.8571428571428571,,1
3466.8000000044703,,directmemory_phase4,4396024,,,,object_04a.png,,,50,,,1,,object_08a.png,object_11a.png,object_03a.png,object_11a.png,,0.86,,1
2188.7999999970198,,directmemory_phase4,4398215,,,,object_03c.png,,,51,,,1,,object_10b.png,object_08b.png,object_15b.png,object_15b.png,,0.8627450980392157,,1
6801.10000000149,,directmemory_phase4,4405020,,,,object_09a.png,,,50,,,1,,object_08a.png,object_04b.png,object_12b.png,object_04b.png,,0.8653846153846154,,1
4514.29999999702,,directmemory_phase4,4409538,,,,object_02a.png,,,49,,,1,,object_14b.png,object_12a.png,object_06c.png,object_14b.png,,0.8679245283018868,,1
4828.5999999940395,,directmemory_phase4,4414370,,,,object_08a.png,,,49,,,1,,object_10b.png,object_12a.png,object_11b.png,object_10b.png,,0.8703703703703703,,1
4331.80000000447,,directmemory_phase4,4418705,,,,object_02c.png,,,49,,,1,,object_13b.png,object_06a.png,object_03c.png,object_13b.png,,0.8727272727272727,,1
4368.39999999851,,directmemory_phase4,4423077,,,,object_08b.png,,,51,,,1,,object_09b.png,object_07b.png,object_06b.png,object_06b.png,,0.875,,1
3522.5,,directmemory_phase4,4426603,,,,object_12c.png,,,49,,,1,,object_09b.png,object_13a.png,object_08b.png,object_09b.png,,0.8771929824561403,,1
3092.7000000029802,,directmemory_phase4,4429698,,,,object_14a.png,,,50,,,1,,object_08a.png,object_06a.png,object_03a.png,object_06a.png,,0.8793103448275862,,1
3097.8000000044703,,directmemory_phase4,4432800,,,,object_11b.png,,,51,,,1,,object_15b.png,object_03b.png,object_12a.png,object_12a.png,,0.8813559322033898,,1
3416.10000000149,,directmemory_phase4,4436219,,,,object_07b.png,,,51,,,1,,object_09b.png,object_11b.png,object_03a.png,object_03a.png,,0.8833333333333333,,1
null,,thebreak,4436329,,,,<p></p>,,,null,,,,,,,,,,,,
27433.39999999851,,intro_0,4463765,,,,instruct,,,32,,,,,,,,,,,,
null,,learn_phase(without_color)5,4467273,,,,black_plus_sign,,,null,object_05c.png,object_12b.png,,,,,,,,,,
null,,black_cross(without_color)5,4467757,,,,blue,,,null,object_05c.png,object_12b.png,,,,,,,,,,
null,,rt_plussign_withcolor5,4468269,,,,blue,,,null,object_05c.png,object_12b.png,,,,,,,,,,
1932.4000000059605,,rt_thecrossant_black5,4469807,,,,black_plus_sign,,,49,,,1,,,,,,,1,,
null,,color_black5,4469917,,,,black_plus_sign,,,null,,,,,,,,,,,,
null,,learn_phase(without_color)5,4473432,,,,black_plus_sign,,,null,object_10b.png,object_02b.png,,,,,,,,,,
null,,black_cross(without_color)5,4473961,,,,blue,,,null,object_10b.png,object_02b.png,,,,,,,,,,
null,,rt_plussign_withcolor5,4474473,,,,blue,,,null,object_10b.png,object_02b.png,,,,,,,,,,
731.6999999955297,,rt_thecrossant_black5,4475967,,,,black_plus_sign,,,49,,,1,,,,,,,1,,
null,,color_black5,4476076,,,,black_plus_sign,,,null,,,,,,,,,,,,
null,,learn_phase(without_color)5,4479587,,,,black_plus_sign,,,null,object_13a.png,object_10a.png,,,,,,,,,,
null,,black_cross(without_color)5,4480061,,,,blue,,,null,object_13a.png,object_10a.png,,,,,,,,,,
null,,rt_plussign_withcolor5,4480566,,,,blue,,,null,object_13a.png,object_10a.png,,,,,,,,,,
1044.8999999985099,,rt_thecrossant_black5,4482128,,,,black_plus_sign,,,49,,,1,,,,,,,1,,
null,,color_black5,4482239,,,,black_plus_sign,,,null,,,,,,,,,,,,
null,,learn_phase(without_color)5,4485747,,,,black_plus_sign,,,null,object_06a.png,object_05a.png,,,,,,,,,,
null,,black_cross(without_color)5,4486676,,,,green,,,null,object_06a.png,object_05a.png,,,,,,,,,,
null,,rt_plussign_withcolor5,4487190,,,,green,,,null,object_06a.png,object_05a.png,,,,,,,,,,
885.0999999940395,,rt_thecrossant_black5,4488281,,,,black_plus_sign,,,50,,,1,,,,,,,1,,
null,,color_black5,4488391,,,,black_plus_sign,,,null,,,,,,,,,,,,
null,,learn_phase(without_color)5,4491898,,,,black_plus_sign,,,null,object_10c.png,object_07a.png,,,,,,,,,,
null,,black_cross(without_color)5,4492939,,,,green,,,null,object_10c.png,object_07a.png,,,,,,,,,,
null,,rt_plussign_withcolor5,4493451,,,,green,,,null,object_10c.png,object_07a.png,,,,,,,,,,
1262.2999999970198,,rt_thecrossant_black5,4494430,,,,black_plus_sign,,,50,,,1,,,,,,,1,,
null,,color_black5,4494538,,,,black_plus_sign,,,null,,,,,,,,,,,,
null,,learn_phase(without_color)5,4498044,,,,black_plus_sign,,,null,object_15c.png,object_13b.png,,,,,,,,,,
null,,black_cross(without_color)5,4499020,,,,blue,,,null,object_15c.png,object_13b.png,,,,,,,,,,
null,,rt_plussign_withcolor5,4499531,,,,blue,,,null,object_15c.png,object_13b.png,,,,,,,,,,
1443,,rt_thecrossant_black5,4500587,,,,black_plus_sign,,,49,,,1,,,,,,,1,,
null,,color_black5,4500698,,,,black_plus_sign,,,null,,,,,,,,,,,,
null,,learn_phase(without_color)5,4504218,,,,black_plus_sign,,,null,object_01c.png,object_03a.png,,,,,,,,,,
null,,black_cross(without_color)5,4504672,,,,green,,,null,object_01c.png,object_03a.png,,,,,,,,,,
null,,rt_plussign_withcolor5,4505181,,,,green,,,null,object_01c.png,object_03a.png,,,,,,,,,,
1742.7999999970198,,rt_thecrossant_black5,4506752,,,,black_plus_sign,,,50,,,1,,,,,,,1,,
null,,color_black5,4506862,,,,black_plus_sign,,,null,,,,,,,,,,,,
null,,learn_phase(without_color)5,4510379,,,,black_plus_sign,,,null,object_13c.png,object_12a.png,,,,,,,,,,
null,,black_cross(without_color)5,4510905,,,,green,,,null,object_13c.png,object_12a.png,,,,,,,,,,
null,,rt_plussign_withcolor5,4511416,,,,green,,,null,object_13c.png,object_12a.png,,,,,,,,,,
1081,,rt_thecrossant_black5,4512907,,,,black_plus_sign,,,50,,,1,,,,,,,1,,
null,,color_black5,4513017,,,,black_plus_sign,,,null,,,,,,,,,,,,
null,,learn_phase(without_color)5,4516529,,,,black_plus_sign,,,null,object_14c.png,object_06b.png,,,,,,,,,,
null,,black_cross(without_color)5,4517546,,,,blue,,,null,object_14c.png,object_06b.png,,,,,,,,,,
null,,rt_plussign_withcolor5,4518059,,,,blue,,,null,object_14c.png,object_06b.png,,,,,,,,,,
875.5,,rt_thecrossant_black5,4519070,,,,black_plus_sign,,,49,,,1,,,,,,,1,,
null,,color_black5,4519179,,,,black_plus_sign,,,null,,,,,,,,,,,,
null,,learn_phase(without_color)5,4522689,,,,black_plus_sign,,,null,object_11c.png,object_15b.png,,,,,,,,,,
null,,black_cross(without_color)5,4523463,,,,green,,,null,object_11c.png,object_15b.png,,,,,,,,,,
null,,rt_plussign_withcolor5,4523974,,,,green,,,null,object_11c.png,object_15b.png,,,,,,,,,,
1504.3999999985099,,rt_thecrossant_black5,4525232,,,,black_plus_sign,,,50,,,1,,,,,,,1,,
null,,color_black5,4525343,,,,black_plus_sign,,,null,,,,,,,,,,,,
null,,learn_phase(without_color)5,4528862,,,,black_plus_sign,,,null,object_14b.png,object_09c.png,,,,,,,,,,
null,,black_cross(without_color)5,4529579,,,,green,,,null,object_14b.png,object_09c.png,,,,,,,,,,
null,,rt_plussign_withcolor5,4530094,,,,green,,,null,object_14b.png,object_09c.png,,,,,,,,,,
1195.6000000014901,,rt_thecrossant_black5,4531400,,,,black_plus_sign,,,50,,,1,,,,,,,1,,
null,,color_black5,4531510,,,,black_plus_sign,,,null,,,,,,,,,,,,
null,,learn_phase(without_color)5,4535024,,,,black_plus_sign,,,null,object_05b.png,object_01b.png,,,,,,,,,,
null,,black_cross(without_color)5,4536001,,,,green,,,null,object_05b.png,object_01b.png,,,,,,,,,,
null,,rt_plussign_withcolor5,4536512,,,,green,,,null,object_05b.png,object_01b.png,,,,,,,,,,
864.7999999970198,,rt_thecrossant_black5,4537556,,,,black_plus_sign,,,50,,,1,,,,,,,1,,
null,,color_black5,4537667,,,,black_plus_sign,,,null,,,,,,,,,,,,
null,,learn_phase(without_color)5,4541182,,,,black_plus_sign,,,null,object_08c.png,object_11a.png,,,,,,,,,,
null,,black_cross(without_color)5,4542074,,,,green,,,null,object_08c.png,object_11a.png,,,,,,,,,,
null,,rt_plussign_withcolor5,4542588,,,,green,,,null,object_08c.png,object_11a.png,,,,,,,,,,
1204.3999999985099,,rt_thecrossant_black5,4543720,,,,black_plus_sign,,,50,,,1,,,,,,,1,,
null,,color_black5,4543830,,,,black_plus_sign,,,null,,,,,,,,,,,,
null,,learn_phase(without_color)5,4547341,,,,black_plus_sign,,,null,object_07c.png,object_09b.png,,,,,,,,,,
null,,black_cross(without_color)5,4548247,,,,green,,,null,object_07c.png,object_09b.png,,,,,,,,,,
null,,rt_plussign_withcolor5,4548761,,,,green,,,null,object_07c.png,object_09b.png,,,,,,,,,,
1468.8999999985099,,rt_thecrossant_black5,4549883,,,,black_plus_sign,,,50,,,1,,,,,,,1,,
null,,color_black5,4549992,,,,black_plus_sign,,,null,,,,,,,,,,,,
null,,learn_phase(without_color)5,4553500,,,,black_plus_sign,,,null,object_01a.png,object_04b.png,,,,,,,,,,
null,,black_cross(without_color)5,4554242,,,,blue,,,null,object_01a.png,object_04b.png,,,,,,,,,,
null,,rt_plussign_withcolor5,4554756,,,,blue,,,null,object_01a.png,object_04b.png,,,,,,,,,,
1293.7999999970198,,rt_thecrossant_black5,4556033,,,,black_plus_sign,,,49,,,1,,,,,,,1,,
null,,color_black5,4556140,,,,black_plus_sign,,,null,,,,,,,,,,,,
null,,thebreak,4556250,,,,<p></p>,,,null,,,,,,,,,,,,
10681.20000000298,,intro_0,4566933,,,,instruct,,,32,,,,,,,,,,,,
3463.10000000149,,directmemory_phase5,4570398,,,,object_11c.png,,,51,,,1,,object_09b.png,object_15c.png,object_15b.png,object_15b.png,,0.8852459016393442,,1
5883.89999999851,,directmemory_phase5,4576285,,,,object_02b.png,,,51,,,1,,object_09b.png,object_11c.png,object_10b.png,object_10b.png,,0.8870967741935484,,1
2422.5,,directmemory_phase5,4578712,,,,object_13c.png,,,51,,,1,,object_15b.png,object_09c.png,object_12a.png,object_12a.png,,0.8888888888888888,,1
3337,,directmemory_phase5,4582051,,,,object_11a.png,,,49,,,1,,object_08c.png,object_10a.png,object_14b.png,object_08c.png,,0.890625,,1
2556.7000000029802,,directmemory_phase5,4584611,,,,object_09b.png,,,50,,,1,,object_13a.png,object_07c.png,object_02b.png,object_07c.png,,0.8923076923076924,,1
3562.5,,directmemory_phase5,4588176,,,,object_15c.png,,,49,,,1,,object_13b.png,object_05b.png,object_10a.png,object_13b.png,,0.8939393939393939,,1
4929.19999999553,,directmemory_phase5,4593109,,,,object_07a.png,,,49,,,1,,object_10c.png,object_13b.png,object_13c.png,object_10c.png,,0.8955223880597015,,1
7507.9000000059605,,directmemory_phase5,4600620,,,,object_05c.png,,,49,,,1,,object_12b.png,object_09b.png,object_13c.png,object_12b.png,,0.8970588235294118,,1
4110.5,,directmemory_phase5,4604734,,,,object_01b.png,,,49,,,1,,object_05b.png,object_12a.png,object_15c.png,object_05b.png,,0.8985507246376812,,1
2284.89999999851,,directmemory_phase5,4607023,,,,object_06a.png,,,50,,,1,,object_06b.png,object_05a.png,object_14c.png,object_05a.png,,0.9,,1
3940.7000000029802,,directmemory_phase5,4610967,,,,object_01c.png,,,50,,,1,,object_10a.png,object_03a.png,object_04b.png,object_03a.png,,0.9014084507042254,,1
4587.10000000149,,directmemory_phase5,4615557,,,,object_10a.png,,,51,,,1,,object_11a.png,object_14c.png,object_13a.png,object_13a.png,,0.9027777777777778,,1
3148.39999999851,,directmemory_phase5,4618708,,,,object_01a.png,,,49,,,1,,object_04b.png,object_13a.png,object_05c.png,object_04b.png,,0.9041095890410958,,1
4258.69999999553,,directmemory_phase5,4622970,,,,object_06b.png,,,49,,,1,,object_14c.png,object_05a.png,object_10b.png,object_14c.png,,0.9054054054054054,,1
6055.70000000298,,directmemory_phase5,4629029,,,,object_14b.png,,,51,,,1,,object_02b.png,object_13b.png,object_09c.png,object_09c.png,,0.9066666666666666,,1
null,,thebreak,4629147,,,,<p></p>,,,null,,,,,,,,,,,,
20395.39999999851,,intro_0,4649545,,,,instruct,,,32,,,,,,,,,,,,
null,,learn_phase(without_color)6,4653053,,,,black_plus_sign,,,null,object_03a.png,object_01c.png,,,,,,,,,,
null,,black_cross(without_color)6,4654138,,,,blue,,,null,object_03a.png,object_01c.png,,,,,,,,,,
null,,rt_plussign_withcolor6,4654652,,,,blue,,,null,object_03a.png,object_01c.png,,,,,,,,,,
1426,,rt_thecrossant_black6,4655586,,,,black_plus_sign,,,49,,,1,,,,,,,1,,
null,,color_black6,4655698,,,,black_plus_sign,,,null,,,,,,,,,,,,
null,,learn_phase(without_color)6,4659214,,,,black_plus_sign,,,null,object_13b.png,object_15c.png,,,,,,,,,,
null,,black_cross(without_color)6,4660210,,,,blue,,,null,object_13b.png,object_15c.png,,,,,,,,,,
null,,rt_plussign_withcolor6,4660721,,,,blue,,,null,object_13b.png,object_15c.png,,,,,,,,,,
1298.5,,rt_thecrossant_black6,4661746,,,,black_plus_sign,,,49,,,1,,,,,,,1,,
null,,color_black6,4661854,,,,black_plus_sign,,,null,,,,,,,,,,,,
null,,learn_phase(without_color)6,4665368,,,,black_plus_sign,,,null,object_02b.png,object_10b.png,,,,,,,,,,
null,,black_cross(without_color)6,4665926,,,,green,,,null,object_02b.png,object_10b.png,,,,,,,,,,
null,,rt_plussign_withcolor6,4666439,,,,green,,,null,object_02b.png,object_10b.png,,,,,,,,,,
1354.0999999940395,,rt_thecrossant_black6,4667903,,,,black_plus_sign,,,50,,,1,,,,,,,1,,
null,,color_black6,4668013,,,,black_plus_sign,,,null,,,,,,,,,,,,
null,,learn_phase(without_color)6,4671526,,,,black_plus_sign,,,null,object_01a.png,object_04b.png,,,,,,,,,,
null,,black_cross(without_color)6,4672375,,,,green,,,null,object_01a.png,object_04b.png,,,,,,,,,,
null,,rt_plussign_withcolor6,4672886,,,,green,,,null,object_01a.png,object_04b.png,,,,,,,,,,
664.5,,rt_thecrossant_black6,4674060,,,,black_plus_sign,,,50,,,1,,,,,,,1,,
null,,color_black6,4674169,,,,black_plus_sign,,,null,,,,,,,,,,,,
null,,learn_phase(without_color)6,4677688,,,,black_plus_sign,,,null,object_07a.png,object_10c.png,,,,,,,,,,
null,,black_cross(without_color)6,4678557,,,,blue,,,null,object_07a.png,object_10c.png,,,,,,,,,,
null,,rt_plussign_withcolor6,4679067,,,,blue,,,null,object_07a.png,object_10c.png,,,,,,,,,,
968.2999999970198,,rt_thecrossant_black6,4680219,,,,black_plus_sign,,,49,,,1,,,,,,,1,,
null,,color_black6,4680328,,,,black_plus_sign,,,null,,,,,,,,,,,,
null,,learn_phase(without_color)6,4683833,,,,black_plus_sign,,,null,object_05b.png,object_01b.png,,,,,,,,,,
null,,black_cross(without_color)6,4684590,,,,blue,,,null,object_05b.png,object_01b.png,,,,,,,,,,
null,,rt_plussign_withcolor6,4685101,,,,blue,,,null,object_05b.png,object_01b.png,,,,,,,,,,
1061.3000000044703,,rt_thecrossant_black6,4686368,,,,black_plus_sign,,,49,,,1,,,,,,,1,,
null,,color_black6,4686478,,,,black_plus_sign,,,null,,,,,,,,,,,,
null,,learn_phase(without_color)6,4689992,,,,black_plus_sign,,,null,object_14b.png,object_09c.png,,,,,,,,,,
null,,black_cross(without_color)6,4691073,,,,green,,,null,object_14b.png,object_09c.png,,,,,,,,,,
null,,rt_plussign_withcolor6,4691587,,,,green,,,null,object_14b.png,object_09c.png,,,,,,,,,,
1218.7999999970198,,rt_thecrossant_black6,4692532,,,,black_plus_sign,,,50,,,1,,,,,,,1,,
null,,color_black6,4692640,,,,black_plus_sign,,,null,,,,,,,,,,,,
null,,learn_phase(without_color)6,4696145,,,,black_plus_sign,,,null,object_06a.png,object_05a.png,,,,,,,,,,
null,,black_cross(without_color)6,4697218,,,,blue,,,null,object_06a.png,object_05a.png,,,,,,,,,,
null,,rt_plussign_withcolor6,4697730,,,,blue,,,null,object_06a.png,object_05a.png,,,,,,,,,,
1437.5,,rt_thecrossant_black6,4698678,,,,black_plus_sign,,,49,,,1,,,,,,,1,,
null,,color_black6,4698786,,,,black_plus_sign,,,null,,,,,,,,,,,,
null,,learn_phase(without_color)6,4702296,,,,black_plus_sign,,,null,object_13c.png,object_12a.png,,,,,,,,,,
null,,black_cross(without_color)6,4702761,,,,blue,,,null,object_13c.png,object_12a.png,,,,,,,,,,
null,,rt_plussign_withcolor6,4703273,,,,blue,,,null,object_13c.png,object_12a.png,,,,,,,,,,
1946.7999999970198,,rt_thecrossant_black6,4704839,,,,black_plus_sign,,,49,,,1,,,,,,,1,,
null,,color_black6,4704948,,,,black_plus_sign,,,null,,,,,,,,,,,,
null,,learn_phase(without_color)6,4708464,,,,black_plus_sign,,,null,object_11c.png,object_15b.png,,,,,,,,,,
null,,black_cross(without_color)6,4709290,,,,blue,,,null,object_11c.png,object_15b.png,,,,,,,,,,
null,,rt_plussign_withcolor6,4709803,,,,blue,,,null,object_11c.png,object_15b.png,,,,,,,,,,
851.8999999985099,,rt_thecrossant_black6,4710989,,,,black_plus_sign,,,49,,,1,,,,,,,1,,
null,,color_black6,4711093,,,,black_plus_sign,,,null,,,,,,,,,,,,
null,,learn_phase(without_color)6,4714605,,,,black_plus_sign,,,null,object_13a.png,object_10a.png,,,,,,,,,,
null,,black_cross(without_color)6,4715412,,,,blue,,,null,object_13a.png,object_10a.png,,,,,,,,,,
496.3999999985099,,rt_plussign_withcolor6,4715915,,,,blue,,,49,object_13a.png,object_10a.png,,,,,,,,,,
null,,rt_thecrossant_black6,4717118,,,,black_plus_sign,,,null,,,1,,,,,,,1,,
null,,color_black6,4717230,,,,black_plus_sign,,,null,,,,,,,,,,,,
null,,learn_phase(without_color)6,4720742,,,,black_plus_sign,,,null,object_06b.png,object_14c.png,,,,,,,,,,
null,,black_cross(without_color)6,4721300,,,,blue,,,null,object_06b.png,object_14c.png,,,,,,,,,,
null,,rt_plussign_withcolor6,4721818,,,,blue,,,null,object_06b.png,object_14c.png,,,,,,,,,,
1216.7000000029802,,rt_thecrossant_black6,4723279,,,,black_plus_sign,,,49,,,1,,,,,,,1,,
null,,color_black6,4723388,,,,black_plus_sign,,,null,,,,,,,,,,,,
null,,learn_phase(without_color)6,4726897,,,,black_plus_sign,,,null,object_11a.png,object_08c.png,,,,,,,,,,
null,,black_cross(without_color)6,4727751,,,,green,,,null,object_11a.png,object_08c.png,,,,,,,,,,
null,,rt_plussign_withcolor6,4728264,,,,green,,,null,object_11a.png,object_08c.png,,,,,,,,,,
1069.1999999955297,,rt_thecrossant_black6,4729445,,,,black_plus_sign,,,50,,,1,,,,,,,1,,
null,,color_black6,4729553,,,,black_plus_sign,,,null,,,,,,,,,,,,
null,,learn_phase(without_color)6,4733060,,,,black_plus_sign,,,null,object_07c.png,object_09b.png,,,,,,,,,,
null,,black_cross(without_color)6,4734154,,,,blue,,,null,object_07c.png,object_09b.png,,,,,,,,,,
null,,rt_plussign_withcolor6,4734667,,,,blue,,,null,object_07c.png,object_09b.png,,,,,,,,,,
1025.1999999955297,,rt_thecrossant_black6,4735589,,,,black_plus_sign,,,49,,,1,,,,,,,1,,
null,,color_black6,4735700,,,,black_plus_sign,,,null,,,,,,,,,,,,
null,,learn_phase(without_color)6,4739204,,,,black_plus_sign,,,null,object_12b.png,object_05c.png,,,,,,,,,,
null,,black_cross(without_color)6,4739992,,,,green,,,null,object_12b.png,object_05c.png,,,,,,,,,,
null,,rt_plussign_withcolor6,4740503,,,,green,,,null,object_12b.png,object_05c.png,,,,,,,,,,
1523.7999999970198,,rt_thecrossant_black6,4741744,,,,black_plus_sign,,,50,,,1,,,,,,,1,,
null,,color_black6,4741852,,,,black_plus_sign,,,null,,,,,,,,,,,,
null,,thebreak,4741960,,,,<p></p>,,,null,,,,,,,,,,,,
7764.10000000149,,intro_0,4749726,,,,instruct,,,32,,,,,,,,,,,,
5752.5,,directmemory_phase6,4755481,,,,object_13b.png,,,50,,,1,,object_12a.png,object_15c.png,object_01b.png,object_15c.png,,0.9078947368421053,,1
4405.80000000447,,directmemory_phase6,4759890,,,,object_14b.png,,,51,,,1,,object_01c.png,object_09b.png,object_09c.png,object_09c.png,,0.9090909090909091,,1
2310.2000000029802,,directmemory_phase6,4762203,,,,object_13c.png,,,50,,,1,,object_02b.png,object_12a.png,object_04b.png,object_12a.png,,0.9102564102564102,,1
3451.7999999970198,,directmemory_phase6,4765658,,,,object_01c.png,,,50,,,1,,object_15c.png,object_03a.png,object_04b.png,object_03a.png,,0.9113924050632911,,1
2644.4000000059605,,directmemory_phase6,4768307,,,,object_10a.png,,,49,,,1,,object_13a.png,object_13b.png,object_15c.png,object_13a.png,,0.9125,,1
7569.89999999851,,directmemory_phase6,4775880,,,,object_11a.png,,,50,,,1,,object_14b.png,object_08c.png,object_01c.png,object_08c.png,,0.9135802469135802,,1
4457.20000000298,,directmemory_phase6,4780340,,,,object_11c.png,,,51,,,1,,object_13b.png,object_15c.png,object_15b.png,object_15b.png,,0.9146341463414634,,1
8304.5,,directmemory_phase6,4788648,,,,object_14c.png,,,51,,,1,,object_12a.png,object_11c.png,object_06b.png,object_06b.png,,0.9156626506024096,,1
3703.5,,directmemory_phase6,4792355,,,,object_01b.png,,,50,,,1,,object_05a.png,object_05b.png,object_11a.png,object_05b.png,,0.9166666666666666,,1
2553.39999999851,,directmemory_phase6,4794911,,,,object_05a.png,,,51,,,1,,object_13a.png,object_08c.png,object_06a.png,object_06a.png,,0.9176470588235294,,1
7790.5,,directmemory_phase6,4802704,,,,object_05c.png,,,51,,,1,,object_05b.png,object_09c.png,object_12b.png,object_12b.png,,0.9186046511627907,,1
1817.6999999955297,,directmemory_phase6,4804526,,,,object_07c.png,,,51,,,1,,object_05b.png,object_05a.png,object_09b.png,object_09b.png,,0.9195402298850575,,1
3654.7000000029802,,directmemory_phase6,4808184,,,,object_10b.png,,,51,,,1,,object_05a.png,object_13b.png,object_02b.png,object_02b.png,,0.9204545454545454,,1
3817.2999999970198,,directmemory_phase6,4812004,,,,object_07a.png,,,49,,,1,,object_10c.png,object_14b.png,object_07c.png,object_10c.png,,0.9213483146067416,,1
6044.0999999940395,,directmemory_phase6,4818052,,,,object_01a.png,,,50,,,1,,object_09c.png,object_04b.png,object_10b.png,object_04b.png,,0.9222222222222223,,1
null,,thebreak,4818160,,,,<p></p>,,,null,,,,,,,,,,,,
15586.20000000298,,intro_0,4833748,,,,instruct,,,32,,,,,,,,,,,,
null,,learn_phase(without_color)7,4837253,,,,black_plus_sign,,,null,object_10c.png,object_07a.png,,,,,,,,,,
null,,black_cross(without_color)7,4838281,,,,blue,,,null,object_10c.png,object_07a.png,,,,,,,,,,
null,,rt_plussign_withcolor7,4838792,,,,blue,,,null,object_10c.png,object_07a.png,,,,,,,,,,
1262.5,,rt_thecrossant_black7,4839790,,,,black_plus_sign,,,49,,,1,,,,,,,1,,
null,,color_black7,4839896,,,,black_plus_sign,,,null,,,,,,,,,,,,
null,,learn_phase(without_color)7,4843402,,,,black_plus_sign,,,null,object_01a.png,object_04b.png,,,,,,,,,,
null,,black_cross(without_color)7,4844008,,,,green,,,null,object_01a.png,object_04b.png,,,,,,,,,,
null,,rt_plussign_withcolor7,4844518,,,,green,,,null,object_01a.png,object_04b.png,,,,,,,,,,
1383.5,,rt_thecrossant_black7,4845940,,,,black_plus_sign,,,50,,,1,,,,,,,1,,
null,,color_black7,4846049,,,,black_plus_sign,,,null,,,,,,,,,,,,
null,,learn_phase(without_color)7,4849562,,,,black_plus_sign,,,null,object_14c.png,object_06b.png,,,,,,,,,,
null,,black_cross(without_color)7,4850389,,,,green,,,null,object_14c.png,object_06b.png,,,,,,,,,,
null,,rt_plussign_withcolor7,4850901,,,,green,,,null,object_14c.png,object_06b.png,,,,,,,,,,
null,,rt_thecrossant_black7,4852096,,,,black_plus_sign,,,null,,,,,,,,,,1,,
null,,warning_page,4857113,,,,warning,,,null,,,,,,,,,,,,
null,,color_black7,4857252,,,,black_plus_sign,,,null,,,,,,,,,,,,
null,,learn_phase(without_color)7,4860758,,,,black_plus_sign,,,null,object_01c.png,object_03a.png,,,,,,,,,,
null,,black_cross(without_color)7,4861697,,,,blue,,,null,object_01c.png,object_03a.png,,,,,,,,,,
null,,rt_plussign_withcolor7,4862210,,,,blue,,,null,object_01c.png,object_03a.png,,,,,,,,,,
1119.7000000029802,,rt_thecrossant_black7,4863292,,,,black_plus_sign,,,49,,,1,,,,,,,1,,
null,,color_black7,4863401,,,,black_plus_sign,,,null,,,,,,,,,,,,
null,,learn_phase(without_color)7,4866914,,,,black_plus_sign,,,null,object_14b.png,object_09c.png,,,,,,,,,,
null,,black_cross(without_color)7,4867798,,,,green,,,null,object_14b.png,object_09c.png,,,,,,,,,,
451.20000000298023,,rt_plussign_withcolor7,4868311,,,,green,,,50,object_14b.png,object_09c.png,,,,,,,,,,
null,,rt_thecrossant_black7,4869445,,,,black_plus_sign,,,null,,,1,,,,,,,1,,
null,,color_black7,4869554,,,,black_plus_sign,,,null,,,,,,,,,,,,
null,,learn_phase(without_color)7,4873059,,,,black_plus_sign,,,null,object_02b.png,object_10b.png,,,,,,,,,,
null,,black_cross(without_color)7,4873896,,,,green,,,null,object_02b.png,object_10b.png,,,,,,,,,,
null,,rt_plussign_withcolor7,4874407,,,,green,,,null,object_02b.png,object_10b.png,,,,,,,,,,
1002.0999999940395,,rt_thecrossant_black7,4875580,,,,black_plus_sign,,,50,,,1,,,,,,,1,,
null,,color_black7,4875690,,,,black_plus_sign,,,null,,,,,,,,,,,,
null,,learn_phase(without_color)7,4879203,,,,black_plus_sign,,,null,object_11a.png,object_08c.png,,,,,,,,,,
null,,black_cross(without_color)7,4880117,,,,green,,,null,object_11a.png,object_08c.png,,,,,,,,,,
499.20000000298023,,rt_plussign_withcolor7,4880619,,,,green,,,50,object_11a.png,object_08c.png,,,,,,,,,,
null,,rt_thecrossant_black7,4881721,,,,black_plus_sign,,,null,,,1,,,,,,,1,,
null,,color_black7,4881829,,,,black_plus_sign,,,null,,,,,,,,,,,,
null,,learn_phase(without_color)7,4885346,,,,black_plus_sign,,,null,object_15c.png,object_13b.png,,,,,,,,,,
null,,black_cross(without_color)7,4886443,,,,blue,,,null,object_15c.png,object_13b.png,,,,,,,,,,
null,,rt_plussign_withcolor7,4886960,,,,blue,,,null,object_15c.png,object_13b.png,,,,,,,,,,
1116.5,,rt_thecrossant_black7,4887891,,,,black_plus_sign,,,49,,,1,,,,,,,1,,
null,,color_black7,4888001,,,,black_plus_sign,,,null,,,,,,,,,,,,
null,,learn_phase(without_color)7,4891508,,,,black_plus_sign,,,null,object_06a.png,object_05a.png,,,,,,,,,,
null,,black_cross(without_color)7,4892300,,,,blue,,,null,object_06a.png,object_05a.png,,,,,,,,,,
null,,rt_plussign_withcolor7,4892817,,,,blue,,,null,object_06a.png,object_05a.png,,,,,,,,,,
1398.3999999985099,,rt_thecrossant_black7,4894043,,,,black_plus_sign,,,49,,,1,,,,,,,1,,
null,,color_black7,4894152,,,,black_plus_sign,,,null,,,,,,,,,,,,
null,,learn_phase(without_color)7,4897663,,,,black_plus_sign,,,null,object_13c.png,object_12a.png,,,,,,,,,,
null,,black_cross(without_color)7,4898520,,,,green,,,null,object_13c.png,object_12a.png,,,,,,,,,,
null,,rt_plussign_withcolor7,4899033,,,,green,,,null,object_13c.png,object_12a.png,,,,,,,,,,
902.3000000044703,,rt_thecrossant_black7,4900195,,,,black_plus_sign,,,50,,,1,,,,,,,1,,
null,,color_black7,4900303,,,,black_plus_sign,,,null,,,,,,,,,,,,
null,,learn_phase(without_color)7,4903822,,,,black_plus_sign,,,null,object_13a.png,object_10a.png,,,,,,,,,,
null,,black_cross(without_color)7,4904882,,,,green,,,null,object_13a.png,object_10a.png,,,,,,,,,,
null,,rt_plussign_withcolor7,4905395,,,,green,,,null,object_13a.png,object_10a.png,,,,,,,,,,
1344.5,,rt_thecrossant_black7,4906355,,,,black_plus_sign,,,50,,,1,,,,,,,1,,
null,,color_black7,4906463,,,,black_plus_sign,,,null,,,,,,,,,,,,
null,,learn_phase(without_color)7,4909979,,,,black_plus_sign,,,null,object_07c.png,object_09b.png,,,,,,,,,,
null,,black_cross(without_color)7,4911050,,,,blue,,,null,object_07c.png,object_09b.png,,,,,,,,,,
null,,rt_plussign_withcolor7,4911561,,,,blue,,,null,object_07c.png,object_09b.png,,,,,,,,,,
1653.3999999985099,,rt_thecrossant_black7,4912500,,,,black_plus_sign,,,49,,,1,,,,,,,1,,
null,,color_black7,4912606,,,,black_plus_sign,,,null,,,,,,,,,,,,
null,,learn_phase(without_color)7,4916112,,,,black_plus_sign,,,null,object_12b.png,object_05c.png,,,,,,,,,,
null,,black_cross(without_color)7,4917074,,,,blue,,,null,object_12b.png,object_05c.png,,,,,,,,,,
null,,rt_plussign_withcolor7,4917587,,,,blue,,,null,object_12b.png,object_05c.png,,,,,,,,,,
1619.7000000029802,,rt_thecrossant_black7,4918658,,,,black_plus_sign,,,49,,,1,,,,,,,1,,
null,,color_black7,4918767,,,,black_plus_sign,,,null,,,,,,,,,,,,
null,,learn_phase(without_color)7,4922273,,,,black_plus_sign,,,null,object_01b.png,object_05b.png,,,,,,,,,,
null,,black_cross(without_color)7,4922880,,,,blue,,,null,object_01b.png,object_05b.png,,,,,,,,,,
null,,rt_plussign_withcolor7,4923393,,,,blue,,,null,object_01b.png,object_05b.png,,,,,,,,,,
2015.8000000044703,,rt_thecrossant_black7,4924807,,,,black_plus_sign,,,49,,,1,,,,,,,1,,
null,,color_black7,4924918,,,,black_plus_sign,,,null,,,,,,,,,,,,
null,,learn_phase(without_color)7,4928423,,,,black_plus_sign,,,null,object_11c.png,object_15b.png,,,,,,,,,,
null,,black_cross(without_color)7,4929213,,,,blue,,,null,object_11c.png,object_15b.png,,,,,,,,,,
null,,rt_plussign_withcolor7,4929729,,,,blue,,,null,object_11c.png,object_15b.png,,,,,,,,,,
971.6999999955297,,rt_thecrossant_black7,4930952,,,,black_plus_sign,,,49,,,1,,,,,,,1,,
null,,color_black7,4931061,,,,black_plus_sign,,,null,,,,,,,,,,,,
null,,thebreak,4931170,,,,<p></p>,,,null,,,,,,,,,,,,
6706.79999999702,,intro_0,4937879,,,,instruct,,,32,,,,,,,,,,,,
2790.7999999970198,,directmemory_phase7,4940672,,,,object_10a.png,,,51,,,1,,object_06b.png,object_02b.png,object_13a.png,object_13a.png,,0.9230769230769231,,1
7692.39999999851,,directmemory_phase7,4948367,,,,object_14c.png,,,50,,,0,,object_06b.png,object_09b.png,object_01b.png,object_06b.png,,0.9130434782608695,,0
6361.10000000149,,directmemory_phase7,4954732,,,,object_02b.png,,,49,,,1,,object_10b.png,object_05b.png,object_01a.png,object_10b.png,,0.9139784946236559,,1
4060,,directmemory_phase7,4958796,,,,object_13c.png,,,50,,,1,,object_14c.png,object_12a.png,object_04b.png,object_12a.png,,0.9148936170212766,,1
1577.2000000029802,,directmemory_phase7,4960376,,,,object_15b.png,,,50,,,1,,object_09b.png,object_11c.png,object_01c.png,object_11c.png,,0.9157894736842105,,1
3880.39999999851,,directmemory_phase7,4964261,,,,object_12b.png,,,49,,,1,,object_05c.png,object_05a.png,object_11a.png,object_05c.png,,0.9166666666666666,,1
11661,,directmemory_phase7,4975926,,,,object_15c.png,,,49,,,1,,object_13b.png,object_04b.png,object_05c.png,object_13b.png,,0.9175257731958762,,1
2438.89999999851,,directmemory_phase7,4978370,,,,object_09b.png,,,50,,,1,,object_15b.png,object_07c.png,object_05c.png,object_07c.png,,0.9183673469387755,,1
4647.39999999851,,directmemory_phase7,4983020,,,,object_01b.png,,,51,,,1,,object_15b.png,object_09c.png,object_05b.png,object_05b.png,,0.9191919191919192,,1
1926.5,,directmemory_phase7,4984951,,,,object_06a.png,,,49,,,1,,object_05a.png,object_13c.png,object_10b.png,object_05a.png,,0.92,,1
3548.1999999955297,,directmemory_phase7,4988503,,,,object_14b.png,,,49,,,1,,object_09c.png,object_13c.png,object_11a.png,object_09c.png,,0.9207920792079208,,1
2447.0999999940395,,directmemory_phase7,4990955,,,,object_03a.png,,,50,,,1,,object_04b.png,object_01c.png,object_01a.png,object_01c.png,,0.9215686274509803,,1
11416.39999999851,,directmemory_phase7,5002375,,,,object_01a.png,,,51,,,0,,object_07c.png,object_04b.png,object_06b.png,object_04b.png,,0.912621359223301,,0
7203.70000000298,,directmemory_phase7,5009582,,,,object_11a.png,,,49,,,1,,object_08c.png,object_01a.png,object_13b.png,object_08c.png,,0.9134615384615384,,1
3944.89999999851,,directmemory_phase7,5013531,,,,object_10c.png,,,50,,,1,,object_06a.png,object_07a.png,object_01b.png,object_07a.png,,0.9142857142857143,,1
null,,thebreak,5013641,,,,<p></p>,,,null,,,,,,,,,,,,
12259.80000000447,,intro_0,5025903,,,,instruct,,,32,,,,,,,,,,,,
null,,learn_phase(without_color)8,5029406,,,,black_plus_sign,,,null,object_11a.png,object_08c.png,,,,,,,,,,
null,,black_cross(without_color)8,5030119,,,,blue,,,null,object_11a.png,object_08c.png,,,,,,,,,,
null,,rt_plussign_withcolor8,5030634,,,,blue,,,null,object_11a.png,object_08c.png,,,,,,,,,,
928.8999999985099,,rt_thecrossant_black8,5031935,,,,black_plus_sign,,,49,,,1,,,,,,,1,,
null,,color_black8,5032043,,,,black_plus_sign,,,null,,,,,,,,,,,,
null,,learn_phase(without_color)8,5035554,,,,black_plus_sign,,,null,object_07a.png,object_10c.png,,,,,,,,,,
null,,black_cross(without_color)8,5036038,,,,blue,,,null,object_07a.png,object_10c.png,,,,,,,,,,
null,,rt_plussign_withcolor8,5036548,,,,blue,,,null,object_07a.png,object_10c.png,,,,,,,,,,
1476.5,,rt_thecrossant_black8,5038090,,,,black_plus_sign,,,50,,,0,,,,,,,0.5,,
null,,html-keyboard-response,5043096,,,,<h1 style=color: red; font-size: 50px>Please make sure to respond to the questions accurately.</h1><br><h1 style=color: red;font-size: 50px>Continued failure to respond will</h1><br><h1 style=color: red;font-size: 50px>result in the task ending early</h1><br><h1 style=color: red;font-size: 50px>The experiment will resume in 5 seconds</h1><br>,,,null,,,,,,,,,,,,
