rt,responses,trial_type,time_elapsed,identifier_a,identifier_b,identifier_c,stimulus,button_pressed,response,key_press,failed_practice,stimulus_left,stimulus_right,accuracy,practice_cumulative_accuracy,stimulus_down_left,stimulus_down_mid,stimulus_down_right,stimulus_correct,prac_weighted_accuracy,cumulative_accuracy,weighted_accuracy,stimulus_middle,problems,smooth,distraction,strategies,easier,similar,comments
42317.5,{worker_id:67da8424e1b87b3f612d4c09},id_enter,42321,object_08b.png; object_05a.png; object_04b.png; object_13b.png; object_15b.png; object_03c.png; object_06b.png; object_10a.png; object_10c.png; object_03b.png; object_15c.png; object_09a.png; object_05b.png; object_15a.png; object_14c.png,object_01a.png; object_05c.png; object_11b.png; object_07b.png; object_08c.png; object_04c.png; object_12c.png; object_02a.png; object_12b.png; object_13a.png; object_07a.png; object_14b.png; object_02c.png; object_08a.png; object_11c.png,object_01b.png; object_13c.png; object_07c.png; object_06a.png; object_01c.png; object_09c.png; object_03a.png; object_14a.png; object_04a.png; object_10b.png; object_02b.png; object_12a.png; object_09b.png; object_11a.png; object_06c.png,,,,,,,,,,,,,,,,,,,,,,,,
35743.69999998808,,make_fullscreen,78074,,,,fullscreen,0,,,,,,,,,,,,,,,,,,,,,,
12961.5,,instruct_1,91039,,,,instruct,0,Next,,,,,,,,,,,,,,,,,,,,,
27540.5,,instruct_2,118582,,,,instruct,1,Next,,,,,,,,,,,,,,,,,,,,,
20380.100000023842,,instruct_3,138964,,,,instruct,1,Next,,,,,,,,,,,,,,,,,,,,,
47533.90000000596,,instruct_4,186500,,,,instruct,1,Next,,,,,,,,,,,,,,,,,,,,,
28477.40000000596,,instruct_5,214979,,,,instruct,1,Next,,,,,,,,,,,,,,,,,,,,,
11096.40000000596,,instruct_6,226077,,,,instruct,1,Next,,,,,,,,,,,,,,,,,,,,,
75766.5,,instruct_7,301845,,,,instruct,1,Next,,,,,,,,,,,,,,,,,,,,,
null,,prac_atten_color_black,302619,,,,black_plus_sign,,,null,,,,,,,,,,,,,,,,,,,,
null,,prac_atten_color,303252,,,,<p style='position:absolute;top: 50%;right: 50%;transform: translate(50%, -50%);font-size: 125px;color: blue;'>+</p>,,,null,,,,,,,,,,,,,,,,,,,,
null,,prac_atten_color_black,305254,,,,black_plus_sign,,,null,,,,,,,,,,,,,,,,,,,,
14502.799999982119,,attentioncheck_help,319759,,,,instruct,,,32,,,,,,,,,,,,,,,,,,,,
null,,prac_atten_color_black,320531,,,,black_plus_sign,,,null,,,,,,,,,,,,,,,,,,,,
null,,prac_atten_color,321247,,,,<p style='position:absolute;top: 50%;right: 50%;transform: translate(50%, -50%);font-size: 125px;color: green;'>+</p>,,,null,,,,,,,,,,,,,,,,,,,,
null,,prac_atten_color_black,323249,,,,black_plus_sign,,,null,,,,,,,,,,,,,,,,,,,,
30418.30000001192,,attentioncheck_help,353670,,,,instruct,,,32,,,,,,,,,,,,,,,,,,,,
null,,prac_atten_color_black,354356,,,,black_plus_sign,,,null,,,,,,,,,,,,,,,,,,,,
null,,prac_atten_color,355390,,,,<p style='position:absolute;top: 50%;right: 50%;transform: translate(50%, -50%);font-size: 125px;color: green;'>+</p>,,,null,,,,,,,,,,,,,,,,,,,,
null,,prac_atten_color_black,357392,,,,black_plus_sign,,,null,,,,,,,,,,,,,,,,,,,,
13100.699999988079,,attentioncheck_help,370494,,,,instruct,,,32,,,,,,,,,,,,,,,,,,,,
null,,prac_atten_color_black,370865,,,,black_plus_sign,,,null,,,,,,,,,,,,,,,,,,,,
null,,prac_atten_color,371430,,,,<p style='position:absolute;top: 50%;right: 50%;transform: translate(50%, -50%);font-size: 125px;color: blue;'>+</p>,,,null,,,,,,,,,,,,,,,,,,,,
null,,prac_atten_color_black,373431,,,,black_plus_sign,,,null,,,,,,,,,,,,,,,,,,,,
9093.59999999404,,attentioncheck_help,382526,,,,instruct,,,32,,,,,,,,,,,,,,,,,,,,
null,,prac_atten_color_black,383364,,,,black_plus_sign,,,null,,,,,,,,,,,,,,,,,,,,
null,,prac_atten_color,383933,,,,<p style='position:absolute;top: 50%;right: 50%;transform: translate(50%, -50%);font-size: 125px;color: green;'>+</p>,,,null,,,,,,,,,,,,,,,,,,,,
1664.2000000178814,,prac_atten_color_black,385935,,,,black_plus_sign,,,50,,,,,,,,,,,,,,,,,,,,
null,,prac_atten_color_black,386772,,,,black_plus_sign,,,null,,,,,,,,,,,,,,,,,,,,
null,,prac_atten_color,387740,,,,<p style='position:absolute;top: 50%;right: 50%;transform: translate(50%, -50%);font-size: 125px;color: green;'>+</p>,,,null,,,,,,,,,,,,,,,,,,,,
251.80000001192093,,prac_atten_color_black,389743,,,,black_plus_sign,,,50,,,,,,,,,,,,,,,,,,,,
null,,prac_atten_color_black,390178,,,,black_plus_sign,,,null,,,,,,,,,,,,,,,,,,,,
null,,prac_atten_color,390860,,,,<p style='position:absolute;top: 50%;right: 50%;transform: translate(50%, -50%);font-size: 125px;color: blue;'>+</p>,,,null,,,,,,,,,,,,,,,,,,,,
156.7000000178814,,prac_atten_color_black,392863,,,,black_plus_sign,,,49,,,,,,,,,,,,,,,,,,,,
null,,prac_atten_color_black,393593,,,,black_plus_sign,,,null,,,,,,,,,,,,,,,,,,,,
819.1000000238419,,prac_atten_color,394491,,,,<p style='position:absolute;top: 50%;right: 50%;transform: translate(50%, -50%);font-size: 125px;color: green;'>+</p>,,,50,,,,,,,,,,,,,,,,,,,,
null,,prac_atten_color_black,396492,,,,black_plus_sign,,,null,,,,,,,,,,,,,,,,,,,,
null,,prac_atten_color_black,397010,,,,black_plus_sign,,,null,,,,,,,,,,,,,,,,,,,,
null,,prac_atten_color,397510,,,,<p style='position:absolute;top: 50%;right: 50%;transform: translate(50%, -50%);font-size: 125px;color: blue;'>+</p>,,,null,,,,,,,,,,,,,,,,,,,,
42,,prac_atten_color_black,399511,,,,black_plus_sign,,,49,,,,,,,,,,,,,,,,,,,,
null,,prac_atten_color_black,400416,,,,black_plus_sign,,,null,,,,,,,,,,,,,,,,,,,,
839.1999999880791,,prac_atten_color,401445,,,,<p style='position:absolute;top: 50%;right: 50%;transform: translate(50%, -50%);font-size: 125px;color: blue;'>+</p>,,,49,,,,,,,,,,,,,,,,,,,,
null,,prac_atten_color_black,403448,,,,black_plus_sign,,,null,,,,,,,,,,,,,,,,,,,,
13494.299999982119,,attentioncheck_feedback,416945,,,,cross_check_feedback,0,,,1,,,,,,,,,,,,,,,,,,,
null,,prac_atten_color_black,417595,,,,black_plus_sign,,,null,,,,,,,,,,,,,,,,,,,,
null,,prac_atten_color,418350,,,,<p style='position:absolute;top: 50%;right: 50%;transform: translate(50%, -50%);font-size: 125px;color: blue;'>+</p>,,,null,,,,,,,,,,,,,,,,,,,,
353.7000000178814,,prac_atten_color_black,420353,,,,black_plus_sign,,,49,,,,,,,,,,,,,,,,,,,,
null,,prac_atten_color_black,421003,,,,black_plus_sign,,,null,,,,,,,,,,,,,,,,,,,,
null,,prac_atten_color,421663,,,,<p style='position:absolute;top: 50%;right: 50%;transform: translate(50%, -50%);font-size: 125px;color: green;'>+</p>,,,null,,,,,,,,,,,,,,,,,,,,
32.80000001192093,,prac_atten_color_black,423666,,,,black_plus_sign,,,50,,,,,,,,,,,,,,,,,,,,
null,,prac_atten_color_black,424410,,,,black_plus_sign,,,null,,,,,,,,,,,,,,,,,,,,
665.5999999940395,,prac_atten_color,425218,,,,<p style='position:absolute;top: 50%;right: 50%;transform: translate(50%, -50%);font-size: 125px;color: green;'>+</p>,,,50,,,,,,,,,,,,,,,,,,,,
null,,prac_atten_color_black,427220,,,,black_plus_sign,,,null,,,,,,,,,,,,,,,,,,,,
null,,prac_atten_color_black,427817,,,,black_plus_sign,,,null,,,,,,,,,,,,,,,,,,,,
686.0999999940395,,prac_atten_color,428825,,,,<p style='position:absolute;top: 50%;right: 50%;transform: translate(50%, -50%);font-size: 125px;color: blue;'>+</p>,,,49,,,,,,,,,,,,,,,,,,,,
null,,prac_atten_color_black,430827,,,,black_plus_sign,,,null,,,,,,,,,,,,,,,,,,,,
null,,prac_atten_color_black,431235,,,,black_plus_sign,,,null,,,,,,,,,,,,,,,,,,,,
649.1999999880791,,prac_atten_color,432164,,,,<p style='position:absolute;top: 50%;right: 50%;transform: translate(50%, -50%);font-size: 125px;color: green;'>+</p>,,,50,,,,,,,,,,,,,,,,,,,,
null,,prac_atten_color_black,434167,,,,black_plus_sign,,,null,,,,,,,,,,,,,,,,,,,,
null,,prac_atten_color_black,434644,,,,black_plus_sign,,,null,,,,,,,,,,,,,,,,,,,,
557.7000000178814,,prac_atten_color,435543,,,,<p style='position:absolute;top: 50%;right: 50%;transform: translate(50%, -50%);font-size: 125px;color: green;'>+</p>,,,50,,,,,,,,,,,,,,,,,,,,
null,,prac_atten_color_black,437546,,,,black_plus_sign,,,null,,,,,,,,,,,,,,,,,,,,
null,,prac_atten_color_black,438053,,,,black_plus_sign,,,null,,,,,,,,,,,,,,,,,,,,
722,,prac_atten_color,438987,,,,<p style='position:absolute;top: 50%;right: 50%;transform: translate(50%, -50%);font-size: 125px;color: blue;'>+</p>,,,49,,,,,,,,,,,,,,,,,,,,
null,,prac_atten_color_black,440990,,,,black_plus_sign,,,null,,,,,,,,,,,,,,,,,,,,
null,,prac_atten_color_black,441461,,,,black_plus_sign,,,null,,,,,,,,,,,,,,,,,,,,
755.5,,prac_atten_color,442358,,,,<p style='position:absolute;top: 50%;right: 50%;transform: translate(50%, -50%);font-size: 125px;color: green;'>+</p>,,,50,,,,,,,,,,,,,,,,,,,,
null,,prac_atten_color_black,444359,,,,black_plus_sign,,,null,,,,,,,,,,,,,,,,,,,,
null,,prac_atten_color_black,444866,,,,black_plus_sign,,,null,,,,,,,,,,,,,,,,,,,,
null,,prac_atten_color,445472,,,,<p style='position:absolute;top: 50%;right: 50%;transform: translate(50%, -50%);font-size: 125px;color: blue;'>+</p>,,,null,,,,,,,,,,,,,,,,,,,,
78.5,,prac_atten_color_black,447474,,,,black_plus_sign,,,49,,,,,,,,,,,,,,,,,,,,
null,,prac_atten_color_black,448272,,,,black_plus_sign,,,null,,,,,,,,,,,,,,,,,,,,
null,,prac_atten_color,448777,,,,<p style='position:absolute;top: 50%;right: 50%;transform: translate(50%, -50%);font-size: 125px;color: blue;'>+</p>,,,null,,,,,,,,,,,,,,,,,,,,
71.09999999403954,,prac_atten_color_black,450780,,,,black_plus_sign,,,49,,,,,,,,,,,,,,,,,,,,
4481.199999988079,,attentioncheck_feedback,455262,,,,cross_check_feedback,0,,,,,,,,,,,,,,,,,,,,,,
18552.399999976158,,last_instruct,473816,,,,instruct,,,32,,,,,,,,,,,,,,,,,,,,
null,,prac_learn_phase(without_color),477321,,,,black_plus_sign,,,null,,object_02c.png,object_05b.png,,,,,,,,,,,,,,,,,
null,,prac_black_cross(without_color),478195,,,,green,,,null,,object_02c.png,object_05b.png,,,,,,,,,,,,,,,,,
null,,prac_rt_plussign_withcolor,478697,,,,green,,,null,,object_02c.png,object_05b.png,,,,,,,,,,,,,,,,,
1286.0999999940395,,prac_rt_thecrossant_black,479829,,,,black_plus_sign,,,50,,,,1,1,,,,,,,,,,,,,,,
null,,prac_color_black,479934,,,,black_plus_sign,,,null,,,,,,,,,,,,,,,,,,,,
null,,prac_learn_phase(without_color),483437,,,,black_plus_sign,,,null,,object_03c.png,object_04c.png,,,,,,,,,,,,,,,,,
null,,black_cross(without_color)1,484142,,,,blue,,,null,,object_02c.png,object_05b.png,,,,,,,,,,,,,,,,,
null,,prac_rt_plussign_withcolor,484644,,,,blue,,,null,,object_03c.png,object_04c.png,,,,,,,,,,,,,,,,,
1094.4000000059605,,prac_rt_thecrossant_black,485844,,,,black_plus_sign,,,49,,,,1,1,,,,,,,,,,,,,,,
null,,prac_color_black,485950,,,,black_plus_sign,,,null,,,,,,,,,,,,,,,,,,,,
null,,prac_learn_phase(without_color),489453,,,,black_plus_sign,,,null,,object_08b.png,object_01a.png,,,,,,,,,,,,,,,,,
null,,black_cross(without_color)1,490158,,,,blue,,,null,,object_02c.png,object_05b.png,,,,,,,,,,,,,,,,,
null,,prac_rt_plussign_withcolor,490659,,,,green,,,null,,object_08b.png,object_01a.png,,,,,,,,,,,,,,,,,
996.4000000059605,,prac_rt_thecrossant_black,492080,,,,black_plus_sign,,,50,,,,1,1,,,,,,,,,,,,,,,
null,,prac_color_black,492182,,,,black_plus_sign,,,null,,,,,,,,,,,,,,,,,,,,
null,,prac_learn_phase(without_color),495685,,,,black_plus_sign,,,null,,object_09a.png,object_14b.png,,,,,,,,,,,,,,,,,
null,,black_cross(without_color)1,496390,,,,blue,,,null,,object_02c.png,object_05b.png,,,,,,,,,,,,,,,,,
null,,prac_rt_plussign_withcolor,496893,,,,green,,,null,,object_09a.png,object_14b.png,,,,,,,,,,,,,,,,,
931.6999999880791,,prac_rt_thecrossant_black,498029,,,,black_plus_sign,,,50,,,,1,1,,,,,,,,,,,,,,,
null,,prac_color_black,498130,,,,black_plus_sign,,,null,,,,,,,,,,,,,,,,,,,,
24731.5,,instruct_dir_01,522864,,,,instruct,0,Next,,,,,,,,,,,,,,,,,,,,,
26543.19999998808,,instruct_dir_2,549410,,,,instruct,1,Next,,,,,,,,,,,,,,,,,,,,,
7670.199999988079,,instruct_dir_3,557082,,,,instruct,1,Next,,,,,,,,,,,,,,,,,,,,,
20004,,instruct_dir_4,577088,,,,instruct,1,Start,,,,,,,,,,,,,,,,,,,,,
null,,thebreak,577189,,,,<p></p>,,,null,,,,,,,,,,,,,,,,,,,,
1706.7999999821186,,intro_0,578897,,,,instruct,,,32,,,,,,,,,,,,,,,,,,,,
2185.199999988079,,prac_directmemory_phase,581084,,,,practice/object_04a.png,,,49,,,,0,,practice/object_03b.png,practice/object_03a.png,practice/object_04b.png,practice/object_04b.png,0,0,,,,,,,,,
1753.5999999940395,,prac_directmemory_phase,582845,,,,practice/object_01a.png,,,50,,,,0,,practice/object_03b.png,practice/object_03a.png,practice/object_01b.png,practice/object_01b.png,0,0,,,,,,,,,
1669.199999988079,,prac_directmemory_phase,584516,,,,practice/object_03a.png,,,51,,,,0,,practice/object_02a.png,practice/object_03b.png,practice/object_04b.png,practice/object_03b.png,0,0,,,,,,,,,
1518.5,,prac_directmemory_phase,586036,,,,practice/object_02a.png,,,49,,,,1,,practice/object_02b.png,practice/object_01b.png,practice/object_03a.png,practice/object_02b.png,1,0.25,,,,,,,,,
9639.5,,practice_feedback_force_restart,595677,,,,practice_feedback,0,,,1,,,,,,,,,,,,,,,,,,,
20436.90000000596,,last_instruct,616115,,,,instruct,,,32,,,,,,,,,,,,,,,,,,,,
null,,prac_learn_phase(without_color),619617,,,,black_plus_sign,,,null,,object_02c.png,object_05b.png,,,,,,,,,,,,,,,,,
null,,prac_black_cross(without_color),620580,,,,green,,,null,,object_02c.png,object_05b.png,,,,,,,,,,,,,,,,,
null,,prac_rt_plussign_withcolor,621082,,,,green,,,null,,object_02c.png,object_05b.png,,,,,,,,,,,,,,,,,
null,,prac_rt_thecrossant_black,622122,,,,black_plus_sign,,,null,,,,,1,,,,,,,,,,,,,,,
null,,prac_color_black,622224,,,,black_plus_sign,,,null,,,,,,,,,,,,,,,,,,,,
null,,prac_learn_phase(without_color),625726,,,,black_plus_sign,,,null,,object_03c.png,object_04c.png,,,,,,,,,,,,,,,,,
null,,black_cross(without_color)1,626430,,,,blue,,,null,,object_02c.png,object_05b.png,,,,,,,,,,,,,,,,,
null,,prac_rt_plussign_withcolor,626931,,,,blue,,,null,,object_03c.png,object_04c.png,,,,,,,,,,,,,,,,,
1453.800000011921,,prac_rt_thecrossant_black,627993,,,,black_plus_sign,,,49,,,,1,1,,,,,,,,,,,,,,,
null,,prac_color_black,628096,,,,black_plus_sign,,,null,,,,,,,,,,,,,,,,,,,,
null,,prac_learn_phase(without_color),631599,,,,black_plus_sign,,,null,,object_08b.png,object_01a.png,,,,,,,,,,,,,,,,,
null,,black_cross(without_color)1,632304,,,,blue,,,null,,object_02c.png,object_05b.png,,,,,,,,,,,,,,,,,
null,,prac_rt_plussign_withcolor,632806,,,,green,,,null,,object_08b.png,object_01a.png,,,,,,,,,,,,,,,,,
1438.2000000178814,,prac_rt_thecrossant_black,633745,,,,black_plus_sign,,,50,,,,1,1,,,,,,,,,,,,,,,
null,,prac_color_black,633848,,,,black_plus_sign,,,null,,,,,,,,,,,,,,,,,,,,
null,,prac_learn_phase(without_color),637351,,,,black_plus_sign,,,null,,object_09a.png,object_14b.png,,,,,,,,,,,,,,,,,
null,,black_cross(without_color)1,638056,,,,blue,,,null,,object_02c.png,object_05b.png,,,,,,,,,,,,,,,,,
null,,prac_rt_plussign_withcolor,638557,,,,green,,,null,,object_09a.png,object_14b.png,,,,,,,,,,,,,,,,,
1275.5,,prac_rt_thecrossant_black,639831,,,,black_plus_sign,,,50,,,,1,1,,,,,,,,,,,,,,,
null,,prac_color_black,639933,,,,black_plus_sign,,,null,,,,,,,,,,,,,,,,,,,,
21972.09999999404,,instruct_dir_01,661907,,,,instruct,0,Next,,,,,,,,,,,,,,,,,,,,,
9522.90000000596,,instruct_dir_2,671432,,,,instruct,1,Next,,,,,,,,,,,,,,,,,,,,,
1991.5,,instruct_dir_3,673425,,,,instruct,1,Next,,,,,,,,,,,,,,,,,,,,,
2572,,instruct_dir_4,675999,,,,instruct,1,Start,,,,,,,,,,,,,,,,,,,,,
null,,thebreak,676100,,,,<p></p>,,,null,,,,,,,,,,,,,,,,,,,,
1502.199999988079,,intro_0,677603,,,,instruct,,,32,,,,,,,,,,,,,,,,,,,,
1661.2000000178814,,prac_directmemory_phase,679266,,,,practice/object_04a.png,,,50,,,,0,,practice/object_03b.png,practice/object_03a.png,practice/object_04b.png,practice/object_04b.png,0,0,,,,,,,,,
1790.7000000178814,,prac_directmemory_phase,681058,,,,practice/object_01a.png,,,50,,,,0,,practice/object_03b.png,practice/object_03a.png,practice/object_01b.png,practice/object_01b.png,0,0,,,,,,,,,
1950.7999999821186,,prac_directmemory_phase,683011,,,,practice/object_03a.png,,,51,,,,0,,practice/object_02a.png,practice/object_03b.png,practice/object_04b.png,practice/object_03b.png,0,0,,,,,,,,,
1790.699999988079,,prac_directmemory_phase,684804,,,,practice/object_02a.png,,,50,,,,0,,practice/object_02b.png,practice/object_01b.png,practice/object_03a.png,practice/object_02b.png,0,0,,,,,,,,,
5643.199999988079,,practice_feedback_force_restart,690449,,,,practice_feedback,0,,,2,,,,,,,,,,,,,,,,,,,
1613.199999988079,,last_instruct,692063,,,,instruct,,,32,,,,,,,,,,,,,,,,,,,,
null,,prac_learn_phase(without_color),695566,,,,black_plus_sign,,,null,,object_02c.png,object_05b.png,,,,,,,,,,,,,,,,,
null,,prac_black_cross(without_color),696623,,,,green,,,null,,object_02c.png,object_05b.png,,,,,,,,,,,,,,,,,
null,,prac_rt_plussign_withcolor,697139,,,,green,,,null,,object_02c.png,object_05b.png,,,,,,,,,,,,,,,,,
1470.2000000178814,,prac_rt_thecrossant_black,698085,,,,black_plus_sign,,,50,,,,1,1,,,,,,,,,,,,,,,
null,,prac_color_black,698188,,,,black_plus_sign,,,null,,,,,,,,,,,,,,,,,,,,
null,,prac_learn_phase(without_color),701692,,,,black_plus_sign,,,null,,object_03c.png,object_04c.png,,,,,,,,,,,,,,,,,
null,,black_cross(without_color)1,702401,,,,blue,,,null,,object_02c.png,object_05b.png,,,,,,,,,,,,,,,,,
null,,prac_rt_plussign_withcolor,702903,,,,blue,,,null,,object_03c.png,object_04c.png,,,,,,,,,,,,,,,,,
1456.4000000059605,,prac_rt_thecrossant_black,704229,,,,black_plus_sign,,,49,,,,1,1,,,,,,,,,,,,,,,
null,,prac_color_black,704332,,,,black_plus_sign,,,null,,,,,,,,,,,,,,,,,,,,
null,,prac_learn_phase(without_color),707836,,,,black_plus_sign,,,null,,object_08b.png,object_01a.png,,,,,,,,,,,,,,,,,
null,,black_cross(without_color)1,708543,,,,blue,,,null,,object_02c.png,object_05b.png,,,,,,,,,,,,,,,,,
null,,prac_rt_plussign_withcolor,709045,,,,green,,,null,,object_08b.png,object_01a.png,,,,,,,,,,,,,,,,,
814.9000000059605,,prac_rt_thecrossant_black,710463,,,,black_plus_sign,,,50,,,,1,1,,,,,,,,,,,,,,,
null,,prac_color_black,710565,,,,black_plus_sign,,,null,,,,,,,,,,,,,,,,,,,,
null,,prac_learn_phase(without_color),714068,,,,black_plus_sign,,,null,,object_09a.png,object_14b.png,,,,,,,,,,,,,,,,,
null,,black_cross(without_color)1,714774,,,,blue,,,null,,object_02c.png,object_05b.png,,,,,,,,,,,,,,,,,
null,,prac_rt_plussign_withcolor,715276,,,,green,,,null,,object_09a.png,object_14b.png,,,,,,,,,,,,,,,,,
919.2000000178814,,prac_rt_thecrossant_black,716638,,,,black_plus_sign,,,50,,,,1,1,,,,,,,,,,,,,,,
null,,prac_color_black,716739,,,,black_plus_sign,,,null,,,,,,,,,,,,,,,,,,,,
9117,,instruct_dir_01,725857,,,,instruct,0,Next,,,,,,,,,,,,,,,,,,,,,
4197.100000023842,,instruct_dir_2,730056,,,,instruct,1,Next,,,,,,,,,,,,,,,,,,,,,
20950.79999998212,,instruct_dir_3,751008,,,,instruct,1,Next,,,,,,,,,,,,,,,,,,,,,
4691.899999976158,,instruct_dir_4,755702,,,,instruct,1,Start,,,,,,,,,,,,,,,,,,,,,
null,,thebreak,755803,,,,<p></p>,,,null,,,,,,,,,,,,,,,,,,,,
7380.299999982119,,intro_0,763184,,,,instruct,,,32,,,,,,,,,,,,,,,,,,,,
3991.4000000059605,,prac_directmemory_phase,767177,,,,practice/object_04a.png,,,51,,,,1,,practice/object_03b.png,practice/object_03a.png,practice/object_04b.png,practice/object_04b.png,1,1,,,,,,,,,
12665.299999982119,,prac_directmemory_phase,779846,,,,practice/object_01a.png,,,51,,,,1,,practice/object_03b.png,practice/object_03a.png,practice/object_01b.png,practice/object_01b.png,1,1,,,,,,,,,
9478,,prac_directmemory_phase,789328,,,,practice/object_03a.png,,,50,,,,1,,practice/object_02a.png,practice/object_03b.png,practice/object_04b.png,practice/object_03b.png,1,1,,,,,,,,,
6197.699999988079,,prac_directmemory_phase,795528,,,,practice/object_02a.png,,,49,,,,1,,practice/object_02b.png,practice/object_01b.png,practice/object_03a.png,practice/object_02b.png,1,1,,,,,,,,,
2818.0999999940395,,practice_feedback,798348,,,,practice_feedback,1,,,,,,,,,,,,,,,,,,,,,,
56615,,proceed_actualTask,854965,,,,proceed_actualTask,1,Continue,,,,,,,,,,,,,,,,,,,,,
24399.29999998212,,last_inst,879365,,,,last_inst,,,32,,,,,,,,,,,,,,,,,,,,
null,,learn_phase(without_color)1,882867,,,,black_plus_sign,,,null,,object_02c.png,object_05b.png,,,,,,,,,,,,,,,,,
null,,black_cross(without_color)1,883584,,,,blue,,,null,,object_02c.png,object_05b.png,,,,,,,,,,,,,,,,,
null,,rt_plussign_withcolor1,884088,,,,blue,,,null,,object_02c.png,object_05b.png,,,,,,,,,,,,,,,,,
1154.300000011921,,rt_thecrossant_black1,885388,,,,black_plus_sign,,,49,,,,1,,,,,,,1,,,,,,,,,
null,,color_black1,885491,,,,black_plus_sign,,,null,,,,,,,,,,,,,,,,,,,,
null,,learn_phase(without_color)1,888995,,,,black_plus_sign,,,null,,object_03c.png,object_04c.png,,,,,,,,,,,,,,,,,
null,,black_cross(without_color)1,889756,,,,blue,,,null,,object_03c.png,object_04c.png,,,,,,,,,,,,,,,,,
null,,rt_plussign_withcolor1,890258,,,,blue,,,null,,object_03c.png,object_04c.png,,,,,,,,,,,,,,,,,
1199.199999988079,,rt_thecrossant_black1,891503,,,,black_plus_sign,,,49,,,,1,,,,,,,1,,,,,,,,,
null,,color_black1,891619,,,,black_plus_sign,,,null,,,,,,,,,,,,,,,,,,,,
null,,learn_phase(without_color)1,895121,,,,black_plus_sign,,,null,,object_08b.png,object_01a.png,,,,,,,,,,,,,,,,,
null,,black_cross(without_color)1,895533,,,,blue,,,null,,object_08b.png,object_01a.png,,,,,,,,,,,,,,,,,
null,,rt_plussign_withcolor1,896043,,,,blue,,,null,,object_08b.png,object_01a.png,,,,,,,,,,,,,,,,,
1120.7999999821186,,rt_thecrossant_black1,897635,,,,black_plus_sign,,,49,,,,1,,,,,,,1,,,,,,,,,
null,,color_black1,897737,,,,black_plus_sign,,,null,,,,,,,,,,,,,,,,,,,,
null,,learn_phase(without_color)1,901241,,,,black_plus_sign,,,null,,object_09a.png,object_14b.png,,,,,,,,,,,,,,,,,
null,,black_cross(without_color)1,902065,,,,blue,,,null,,object_09a.png,object_14b.png,,,,,,,,,,,,,,,,,
null,,rt_plussign_withcolor1,902567,,,,blue,,,null,,object_09a.png,object_14b.png,,,,,,,,,,,,,,,,,
731.3000000119209,,rt_thecrossant_black1,903747,,,,black_plus_sign,,,49,,,,1,,,,,,,1,,,,,,,,,
null,,color_black1,903850,,,,black_plus_sign,,,null,,,,,,,,,,,,,,,,,,,,
null,,learn_phase(without_color)1,907353,,,,black_plus_sign,,,null,,object_02a.png,object_10a.png,,,,,,,,,,,,,,,,,
null,,black_cross(without_color)1,908027,,,,green,,,null,,object_02a.png,object_10a.png,,,,,,,,,,,,,,,,,
null,,rt_plussign_withcolor1,908529,,,,green,,,null,,object_02a.png,object_10a.png,,,,,,,,,,,,,,,,,
1480.5,,rt_thecrossant_black1,909875,,,,black_plus_sign,,,50,,,,1,,,,,,,1,,,,,,,,,
null,,color_black1,909986,,,,black_plus_sign,,,null,,,,,,,,,,,,,,,,,,,,
null,,learn_phase(without_color)1,913489,,,,black_plus_sign,,,null,,object_13b.png,object_07b.png,,,,,,,,,,,,,,,,,
null,,black_cross(without_color)1,914266,,,,blue,,,null,,object_13b.png,object_07b.png,,,,,,,,,,,,,,,,,
null,,rt_plussign_withcolor1,914769,,,,blue,,,null,,object_13b.png,object_07b.png,,,,,,,,,,,,,,,,,
1107.0999999940395,,rt_thecrossant_black1,915997,,,,black_plus_sign,,,49,,,,1,,,,,,,1,,,,,,,,,
null,,color_black1,916098,,,,black_plus_sign,,,null,,,,,,,,,,,,,,,,,,,,
null,,learn_phase(without_color)1,919601,,,,black_plus_sign,,,null,,object_11c.png,object_14c.png,,,,,,,,,,,,,,,,,
null,,black_cross(without_color)1,920700,,,,blue,,,null,,object_11c.png,object_14c.png,,,,,,,,,,,,,,,,,
null,,rt_plussign_withcolor1,921201,,,,blue,,,null,,object_11c.png,object_14c.png,,,,,,,,,,,,,,,,,
1148.2000000178814,,rt_thecrossant_black1,922107,,,,black_plus_sign,,,49,,,,1,,,,,,,1,,,,,,,,,
null,,color_black1,922210,,,,black_plus_sign,,,null,,,,,,,,,,,,,,,,,,,,
null,,learn_phase(without_color)1,925713,,,,black_plus_sign,,,null,,object_11b.png,object_04b.png,,,,,,,,,,,,,,,,,
null,,black_cross(without_color)1,926206,,,,green,,,null,,object_11b.png,object_04b.png,,,,,,,,,,,,,,,,,
null,,rt_plussign_withcolor1,926708,,,,green,,,null,,object_11b.png,object_04b.png,,,,,,,,,,,,,,,,,
1568.0999999940395,,rt_thecrossant_black1,928218,,,,black_plus_sign,,,50,,,,1,,,,,,,1,,,,,,,,,
null,,color_black1,928321,,,,black_plus_sign,,,null,,,,,,,,,,,,,,,,,,,,
null,,learn_phase(without_color)1,931829,,,,black_plus_sign,,,null,,object_06b.png,object_12c.png,,,,,,,,,,,,,,,,,
null,,black_cross(without_color)1,932408,,,,green,,,null,,object_06b.png,object_12c.png,,,,,,,,,,,,,,,,,
null,,rt_plussign_withcolor1,932909,,,,green,,,null,,object_06b.png,object_12c.png,,,,,,,,,,,,,,,,,
1292.800000011921,,rt_thecrossant_black1,934335,,,,black_plus_sign,,,50,,,,1,,,,,,,1,,,,,,,,,
null,,color_black1,934451,,,,black_plus_sign,,,null,,,,,,,,,,,,,,,,,,,,
null,,learn_phase(without_color)1,937954,,,,black_plus_sign,,,null,,object_15b.png,object_08c.png,,,,,,,,,,,,,,,,,
null,,black_cross(without_color)1,938820,,,,green,,,null,,object_15b.png,object_08c.png,,,,,,,,,,,,,,,,,
null,,rt_plussign_withcolor1,939322,,,,green,,,null,,object_15b.png,object_08c.png,,,,,,,,,,,,,,,,,
975.6000000238419,,rt_thecrossant_black1,940462,,,,black_plus_sign,,,50,,,,1,,,,,,,1,,,,,,,,,
null,,color_black1,940565,,,,black_plus_sign,,,null,,,,,,,,,,,,,,,,,,,,
null,,learn_phase(without_color)1,944067,,,,black_plus_sign,,,null,,object_05c.png,object_05a.png,,,,,,,,,,,,,,,,,
null,,black_cross(without_color)1,944641,,,,green,,,null,,object_05c.png,object_05a.png,,,,,,,,,,,,,,,,,
null,,rt_plussign_withcolor1,945142,,,,green,,,null,,object_05c.png,object_05a.png,,,,,,,,,,,,,,,,,
1486.800000011921,,rt_thecrossant_black1,946572,,,,black_plus_sign,,,50,,,,1,,,,,,,1,,,,,,,,,
null,,color_black1,946674,,,,black_plus_sign,,,null,,,,,,,,,,,,,,,,,,,,
null,,learn_phase(without_color)1,950177,,,,black_plus_sign,,,null,,object_15c.png,object_07a.png,,,,,,,,,,,,,,,,,
null,,black_cross(without_color)1,950603,,,,green,,,null,,object_15c.png,object_07a.png,,,,,,,,,,,,,,,,,
null,,rt_plussign_withcolor1,951105,,,,green,,,null,,object_15c.png,object_07a.png,,,,,,,,,,,,,,,,,
1133.2999999821186,,rt_thecrossant_black1,952683,,,,black_plus_sign,,,50,,,,1,,,,,,,1,,,,,,,,,
null,,color_black1,952791,,,,black_plus_sign,,,null,,,,,,,,,,,,,,,,,,,,
null,,learn_phase(without_color)1,956294,,,,black_plus_sign,,,null,,object_15a.png,object_08a.png,,,,,,,,,,,,,,,,,
null,,black_cross(without_color)1,956949,,,,green,,,null,,object_15a.png,object_08a.png,,,,,,,,,,,,,,,,,
null,,rt_plussign_withcolor1,957450,,,,green,,,null,,object_15a.png,object_08a.png,,,,,,,,,,,,,,,,,
943,,rt_thecrossant_black1,958811,,,,black_plus_sign,,,50,,,,1,,,,,,,1,,,,,,,,,
null,,color_black1,958914,,,,black_plus_sign,,,null,,,,,,,,,,,,,,,,,,,,
null,,learn_phase(without_color)1,962418,,,,black_plus_sign,,,null,,object_13a.png,object_03b.png,,,,,,,,,,,,,,,,,
null,,black_cross(without_color)1,962869,,,,blue,,,null,,object_13a.png,object_03b.png,,,,,,,,,,,,,,,,,
null,,rt_plussign_withcolor1,963370,,,,blue,,,null,,object_13a.png,object_03b.png,,,,,,,,,,,,,,,,,
1158.300000011921,,rt_thecrossant_black1,964924,,,,black_plus_sign,,,49,,,,1,,,,,,,1,,,,,,,,,
null,,color_black1,965027,,,,black_plus_sign,,,null,,,,,,,,,,,,,,,,,,,,
null,,learn_phase(without_color)1,968530,,,,black_plus_sign,,,null,,object_10c.png,object_12b.png,,,,,,,,,,,,,,,,,
null,,black_cross(without_color)1,969566,,,,green,,,null,,object_10c.png,object_12b.png,,,,,,,,,,,,,,,,,
null,,rt_plussign_withcolor1,970068,,,,green,,,null,,object_10c.png,object_12b.png,,,,,,,,,,,,,,,,,
976,,rt_thecrossant_black1,971038,,,,black_plus_sign,,,50,,,,1,,,,,,,1,,,,,,,,,
null,,color_black1,971140,,,,black_plus_sign,,,null,,,,,,,,,,,,,,,,,,,,
null,,thebreak,971244,,,,<p></p>,,,null,,,,,,,,,,,,,,,,,,,,
56746.70000001788,,intro_0,1027992,,,,instruct,,,32,,,,,,,,,,,,,,,,,,,,
9689.40000000596,,directmemory_phase1,1037683,,,,object_10c.png,,,49,,,,1,,object_12b.png,object_13a.png,object_13b.png,object_12b.png,,1,1,,,,,,,,
12584.200000017881,,directmemory_phase1,1050270,,,,object_14c.png,,,51,,,,1,,object_08a.png,object_05b.png,object_11c.png,object_11c.png,,1,1,,,,,,,,
null,,directmemory_phase1,1065273,,,,object_15a.png,,,null,,,,0,,object_12c.png,object_15b.png,object_08a.png,object_08a.png,,0.6666666666666666,0,,,,,,,,
null,,warning_page,1070277,,,,warning,,,null,,,,,,,,,,,,,,,,,,,,
10866.5,,directmemory_phase1,1081161,,,,object_15b.png,,,50,,,,1,,object_10a.png,object_08c.png,object_01a.png,object_08c.png,,0.75,1,,,,,,,,
11417.100000023842,,directmemory_phase1,1092580,,,,object_09a.png,,,51,,,,0,,object_15b.png,object_14b.png,object_05c.png,object_14b.png,,0.6,0,,,,,,,,
8329,,directmemory_phase1,1100912,,,,object_05a.png,,,50,,,,0,,object_05c.png,object_04c.png,object_03b.png,object_05c.png,,0.5,0,,,,,,,,
9498.699999988079,,directmemory_phase1,1110415,,,,object_05b.png,,,49,,,,1,,object_02c.png,object_08c.png,object_05a.png,object_02c.png,,0.5714285714285714,1,,,,,,,,
9346.40000000596,,directmemory_phase1,1119763,,,,object_04b.png,,,50,,,,1,,object_03b.png,object_11b.png,object_02a.png,object_11b.png,,0.625,1,,,,,,,,
10237.200000017881,,directmemory_phase1,1130003,,,,object_08b.png,,,49,,,,1,,object_01a.png,object_11b.png,object_15b.png,object_01a.png,,0.6666666666666666,1,,,,,,,,
13552.699999988079,,directmemory_phase1,1143558,,,,object_13b.png,,,51,,,,1,,object_02c.png,object_06b.png,object_07b.png,object_07b.png,,0.7,1,,,,,,,,
null,,directmemory_phase1,1158562,,,,object_15c.png,,,null,,,,0,,object_05b.png,object_07a.png,object_12c.png,object_07a.png,,0.6363636363636364,0,,,,,,,,
null,,warning_page,1163565,,,,warning,,,null,,,,,,,,,,,,,,,,,,,,
12871.600000023842,,directmemory_phase1,1176446,,,,object_10a.png,,,50,,,,1,,object_13b.png,object_02a.png,object_08a.png,object_02a.png,,0.6666666666666666,1,,,,,,,,
9088.799999982119,,directmemory_phase1,1185537,,,,object_06b.png,,,51,,,,0,,object_05a.png,object_12c.png,object_07b.png,object_12c.png,,0.6153846153846154,0,,,,,,,,
12696.09999999404,,directmemory_phase1,1198235,,,,object_03c.png,,,50,,,,0,,object_08a.png,object_08b.png,object_04c.png,object_04c.png,,0.5714285714285714,0,,,,,,,,
8640.40000000596,,directmemory_phase1,1206878,,,,object_03b.png,,,51,,,,0,,object_04b.png,object_13a.png,object_04c.png,object_13a.png,,0.5333333333333333,0,,,,,,,,
null,,thebreak,1206981,,,,<p></p>,,,null,,,,,,,,,,,,,,,,,,,,
1616.5,,intro_0,1208598,,,,instruct,,,32,,,,,,,,,,,,,,,,,,,,
null,,learn_phase(without_color)2,1212101,,,,black_plus_sign,,,null,,object_15a.png,object_08a.png,,,,,,,,,,,,,,,,,
null,,black_cross(without_color)2,1212832,,,,green,,,null,,object_15a.png,object_08a.png,,,,,,,,,,,,,,,,,
null,,rt_plussign_withcolor2,1213333,,,,green,,,null,,object_15a.png,object_08a.png,,,,,,,,,,,,,,,,,
1476.9000000059605,,rt_thecrossant_black2,1214607,,,,black_plus_sign,,,50,,,,1,,,,,,,1,,,,,,,,,
null,,color_black2,1214709,,,,black_plus_sign,,,null,,,,,,,,,,,,,,,,,,,,
null,,learn_phase(without_color)2,1218211,,,,black_plus_sign,,,null,,object_14b.png,object_09a.png,,,,,,,,,,,,,,,,,
null,,black_cross(without_color)2,1219099,,,,blue,,,null,,object_14b.png,object_09a.png,,,,,,,,,,,,,,,,,
null,,rt_plussign_withcolor2,1219600,,,,blue,,,null,,object_14b.png,object_09a.png,,,,,,,,,,,,,,,,,
1184.300000011921,,rt_thecrossant_black2,1220717,,,,black_plus_sign,,,49,,,,1,,,,,,,1,,,,,,,,,
null,,color_black2,1220820,,,,black_plus_sign,,,null,,,,,,,,,,,,,,,,,,,,
null,,learn_phase(without_color)2,1224323,,,,black_plus_sign,,,null,,object_03c.png,object_04c.png,,,,,,,,,,,,,,,,,
null,,black_cross(without_color)2,1225003,,,,green,,,null,,object_03c.png,object_04c.png,,,,,,,,,,,,,,,,,
null,,rt_plussign_withcolor2,1225504,,,,green,,,null,,object_03c.png,object_04c.png,,,,,,,,,,,,,,,,,
1169.7000000178814,,rt_thecrossant_black2,1226828,,,,black_plus_sign,,,50,,,,1,,,,,,,1,,,,,,,,,
null,,color_black2,1226930,,,,black_plus_sign,,,null,,,,,,,,,,,,,,,,,,,,
null,,learn_phase(without_color)2,1230432,,,,black_plus_sign,,,null,,object_10c.png,object_12b.png,,,,,,,,,,,,,,,,,
null,,black_cross(without_color)2,1230914,,,,green,,,null,,object_10c.png,object_12b.png,,,,,,,,,,,,,,,,,
null,,rt_plussign_withcolor2,1231417,,,,green,,,null,,object_10c.png,object_12b.png,,,,,,,,,,,,,,,,,
967.9000000059605,,rt_thecrossant_black2,1232941,,,,black_plus_sign,,,50,,,,1,,,,,,,1,,,,,,,,,
null,,color_black2,1233044,,,,black_plus_sign,,,null,,,,,,,,,,,,,,,,,,,,
null,,learn_phase(without_color)2,1236546,,,,black_plus_sign,,,null,,object_08c.png,object_15b.png,,,,,,,,,,,,,,,,,
null,,black_cross(without_color)2,1237503,,,,blue,,,null,,object_08c.png,object_15b.png,,,,,,,,,,,,,,,,,
null,,rt_plussign_withcolor2,1238005,,,,blue,,,null,,object_08c.png,object_15b.png,,,,,,,,,,,,,,,,,
1136.5999999940395,,rt_thecrossant_black2,1239053,,,,black_plus_sign,,,49,,,,1,,,,,,,1,,,,,,,,,
null,,color_black2,1239156,,,,black_plus_sign,,,null,,,,,,,,,,,,,,,,,,,,
null,,learn_phase(without_color)2,1242658,,,,black_plus_sign,,,null,,object_06b.png,object_12c.png,,,,,,,,,,,,,,,,,
null,,black_cross(without_color)2,1243719,,,,green,,,null,,object_06b.png,object_12c.png,,,,,,,,,,,,,,,,,
null,,rt_plussign_withcolor2,1244222,,,,green,,,null,,object_06b.png,object_12c.png,,,,,,,,,,,,,,,,,
1165.2999999821186,,rt_thecrossant_black2,1245164,,,,black_plus_sign,,,50,,,,1,,,,,,,1,,,,,,,,,
null,,color_black2,1245267,,,,black_plus_sign,,,null,,,,,,,,,,,,,,,,,,,,
null,,learn_phase(without_color)2,1248769,,,,black_plus_sign,,,null,,object_15c.png,object_07a.png,,,,,,,,,,,,,,,,,
null,,black_cross(without_color)2,1249408,,,,blue,,,null,,object_15c.png,object_07a.png,,,,,,,,,,,,,,,,,
null,,rt_plussign_withcolor2,1249910,,,,blue,,,null,,object_15c.png,object_07a.png,,,,,,,,,,,,,,,,,
null,,rt_thecrossant_black2,1251275,,,,black_plus_sign,,,null,,,,,,,,,,,1,,,,,,,,,
null,,color_black2,1251382,,,,black_plus_sign,,,null,,,,,,,,,,,,,,,,,,,,
null,,learn_phase(without_color)2,1254885,,,,black_plus_sign,,,null,,object_11b.png,object_04b.png,,,,,,,,,,,,,,,,,
null,,black_cross(without_color)2,1255962,,,,blue,,,null,,object_11b.png,object_04b.png,,,,,,,,,,,,,,,,,
null,,rt_plussign_withcolor2,1256464,,,,blue,,,null,,object_11b.png,object_04b.png,,,,,,,,,,,,,,,,,
1046.5,,rt_thecrossant_black2,1257392,,,,black_plus_sign,,,49,,,,1,,,,,,,1,,,,,,,,,
null,,color_black2,1257494,,,,black_plus_sign,,,null,,,,,,,,,,,,,,,,,,,,
null,,learn_phase(without_color)2,1260997,,,,black_plus_sign,,,null,,object_05c.png,object_05a.png,,,,,,,,,,,,,,,,,
null,,black_cross(without_color)2,1261541,,,,green,,,null,,object_05c.png,object_05a.png,,,,,,,,,,,,,,,,,
null,,rt_plussign_withcolor2,1262054,,,,green,,,null,,object_05c.png,object_05a.png,,,,,,,,,,,,,,,,,
1294.3999999761581,,rt_thecrossant_black2,1263516,,,,black_plus_sign,,,50,,,,1,,,,,,,1,,,,,,,,,
null,,color_black2,1263619,,,,black_plus_sign,,,null,,,,,,,,,,,,,,,,,,,,
null,,learn_phase(without_color)2,1267123,,,,black_plus_sign,,,null,,object_07b.png,object_13b.png,,,,,,,,,,,,,,,,,
null,,black_cross(without_color)2,1267738,,,,green,,,null,,object_07b.png,object_13b.png,,,,,,,,,,,,,,,,,
null,,rt_plussign_withcolor2,1268239,,,,green,,,null,,object_07b.png,object_13b.png,,,,,,,,,,,,,,,,,
888.5,,rt_thecrossant_black2,1269629,,,,black_plus_sign,,,50,,,,1,,,,,,,1,,,,,,,,,
null,,color_black2,1269731,,,,black_plus_sign,,,null,,,,,,,,,,,,,,,,,,,,
null,,learn_phase(without_color)2,1273233,,,,black_plus_sign,,,null,,object_14c.png,object_11c.png,,,,,,,,,,,,,,,,,
null,,black_cross(without_color)2,1273861,,,,blue,,,null,,object_14c.png,object_11c.png,,,,,,,,,,,,,,,,,
null,,rt_plussign_withcolor2,1274364,,,,blue,,,null,,object_14c.png,object_11c.png,,,,,,,,,,,,,,,,,
897.4000000059605,,rt_thecrossant_black2,1275742,,,,black_plus_sign,,,49,,,,1,,,,,,,1,,,,,,,,,
null,,color_black2,1275844,,,,black_plus_sign,,,null,,,,,,,,,,,,,,,,,,,,
null,,learn_phase(without_color)2,1279346,,,,black_plus_sign,,,null,,object_03b.png,object_13a.png,,,,,,,,,,,,,,,,,
null,,black_cross(without_color)2,1280129,,,,green,,,null,,object_03b.png,object_13a.png,,,,,,,,,,,,,,,,,
null,,rt_plussign_withcolor2,1280630,,,,green,,,null,,object_03b.png,object_13a.png,,,,,,,,,,,,,,,,,
912,,rt_thecrossant_black2,1281853,,,,black_plus_sign,,,50,,,,1,,,,,,,1,,,,,,,,,
null,,color_black2,1281956,,,,black_plus_sign,,,null,,,,,,,,,,,,,,,,,,,,
null,,learn_phase(without_color)2,1285458,,,,black_plus_sign,,,null,,object_08b.png,object_01a.png,,,,,,,,,,,,,,,,,
null,,black_cross(without_color)2,1286107,,,,blue,,,null,,object_08b.png,object_01a.png,,,,,,,,,,,,,,,,,
null,,rt_plussign_withcolor2,1286608,,,,blue,,,null,,object_08b.png,object_01a.png,,,,,,,,,,,,,,,,,
1503.7999999821186,,rt_thecrossant_black2,1287965,,,,black_plus_sign,,,49,,,,1,,,,,,,1,,,,,,,,,
null,,color_black2,1288068,,,,black_plus_sign,,,null,,,,,,,,,,,,,,,,,,,,
null,,learn_phase(without_color)2,1291572,,,,black_plus_sign,,,null,,object_02c.png,object_05b.png,,,,,,,,,,,,,,,,,
null,,black_cross(without_color)2,1292091,,,,green,,,null,,object_02c.png,object_05b.png,,,,,,,,,,,,,,,,,
null,,rt_plussign_withcolor2,1292606,,,,green,,,null,,object_02c.png,object_05b.png,,,,,,,,,,,,,,,,,
1243.5999999940395,,rt_thecrossant_black2,1294095,,,,black_plus_sign,,,50,,,,1,,,,,,,1,,,,,,,,,
null,,color_black2,1294198,,,,black_plus_sign,,,null,,,,,,,,,,,,,,,,,,,,
null,,learn_phase(without_color)2,1297701,,,,black_plus_sign,,,null,,object_02a.png,object_10a.png,,,,,,,,,,,,,,,,,
null,,black_cross(without_color)2,1298501,,,,green,,,null,,object_02a.png,object_10a.png,,,,,,,,,,,,,,,,,
null,,rt_plussign_withcolor2,1299004,,,,green,,,null,,object_02a.png,object_10a.png,,,,,,,,,,,,,,,,,
699.9000000059605,,rt_thecrossant_black2,1300223,,,,black_plus_sign,,,50,,,,1,,,,,,,1,,,,,,,,,
null,,color_black2,1300325,,,,black_plus_sign,,,null,,,,,,,,,,,,,,,,,,,,
null,,thebreak,1300429,,,,<p></p>,,,null,,,,,,,,,,,,,,,,,,,,
31144.19999998808,,intro_0,1331574,,,,instruct,,,32,,,,,,,,,,,,,,,,,,,,
4934.0999999940395,,directmemory_phase2,1336510,,,,object_09a.png,,,49,,,,1,,object_14b.png,object_13a.png,object_04b.png,object_14b.png,,0.5625,1,,,,,,,,
5054,,directmemory_phase2,1341566,,,,object_15b.png,,,50,,,,1,,object_15a.png,object_08c.png,object_05c.png,object_08c.png,,0.5882352941176471,1,,,,,,,,
4408.799999982119,,directmemory_phase2,1345977,,,,object_03b.png,,,51,,,,1,,object_07b.png,object_09a.png,object_13a.png,object_13a.png,,0.6111111111111112,1,,,,,,,,
7185.0999999940395,,directmemory_phase2,1353164,,,,object_13b.png,,,50,,,,1,,object_03b.png,object_07b.png,object_08c.png,object_07b.png,,0.631578947368421,1,,,,,,,,
6869.200000017881,,directmemory_phase2,1360036,,,,object_10c.png,,,51,,,,1,,object_02a.png,object_15b.png,object_12b.png,object_12b.png,,0.65,1,,,,,,,,
5358.4000000059605,,directmemory_phase2,1365396,,,,object_06b.png,,,51,,,,1,,object_02a.png,object_15a.png,object_12c.png,object_12c.png,,0.6666666666666666,1,,,,,,,,
7043.9000000059605,,directmemory_phase2,1372442,,,,object_15c.png,,,50,,,,1,,object_06b.png,object_07a.png,object_13a.png,object_07a.png,,0.6818181818181818,1,,,,,,,,
8294.59999999404,,directmemory_phase2,1380738,,,,object_05b.png,,,49,,,,1,,object_02c.png,object_07b.png,object_15c.png,object_02c.png,,0.6956521739130435,1,,,,,,,,
2641.0999999940395,,directmemory_phase2,1383381,,,,object_03c.png,,,50,,,,1,,object_05b.png,object_04c.png,object_13a.png,object_04c.png,,0.7083333333333334,1,,,,,,,,
11383.90000000596,,directmemory_phase2,1394767,,,,object_05a.png,,,49,,,,1,,object_05c.png,object_07b.png,object_09a.png,object_05c.png,,0.72,1,,,,,,,,
2851.5999999940395,,directmemory_phase2,1397621,,,,object_15a.png,,,50,,,,1,,object_03c.png,object_08a.png,object_01a.png,object_08a.png,,0.7307692307692307,1,,,,,,,,
5951.0999999940395,,directmemory_phase2,1403574,,,,object_10a.png,,,50,,,,1,,object_05a.png,object_02a.png,object_05c.png,object_02a.png,,0.7407407407407407,1,,,,,,,,
4672.699999988079,,directmemory_phase2,1408250,,,,object_08b.png,,,50,,,,1,,object_05b.png,object_01a.png,object_04c.png,object_01a.png,,0.75,1,,,,,,,,
6893.9000000059605,,directmemory_phase2,1415146,,,,object_04b.png,,,50,,,,1,,object_09a.png,object_11b.png,object_04c.png,object_11b.png,,0.7586206896551724,1,,,,,,,,
2494.2000000178814,,directmemory_phase2,1417642,,,,object_14c.png,,,49,,,,1,,object_11c.png,object_12c.png,object_04b.png,object_11c.png,,0.7666666666666667,1,,,,,,,,
null,,thebreak,1417745,,,,<p></p>,,,null,,,,,,,,,,,,,,,,,,,,
1777.300000011921,,intro_0,1419524,,,,instruct,,,32,,,,,,,,,,,,,,,,,,,,
null,,learn_phase(without_color)3,1423026,,,,black_plus_sign,,,null,,object_15c.png,object_07a.png,,,,,,,,,,,,,,,,,
null,,black_cross(without_color)3,1423709,,,,green,,,null,,object_15c.png,object_07a.png,,,,,,,,,,,,,,,,,
null,,rt_plussign_withcolor3,1424211,,,,green,,,null,,object_15c.png,object_07a.png,,,,,,,,,,,,,,,,,
1633,,rt_thecrossant_black3,1425533,,,,black_plus_sign,,,50,,,,1,,,,,,,1,,,,,,,,,
null,,color_black3,1425635,,,,black_plus_sign,,,null,,,,,,,,,,,,,,,,,,,,
null,,learn_phase(without_color)3,1429138,,,,black_plus_sign,,,null,,object_01a.png,object_08b.png,,,,,,,,,,,,,,,,,
null,,black_cross(without_color)3,1430191,,,,green,,,null,,object_01a.png,object_08b.png,,,,,,,,,,,,,,,,,
null,,rt_plussign_withcolor3,1430693,,,,green,,,null,,object_01a.png,object_08b.png,,,,,,,,,,,,,,,,,
1522.199999988079,,rt_thecrossant_black3,1431646,,,,black_plus_sign,,,50,,,,1,,,,,,,1,,,,,,,,,
null,,color_black3,1431749,,,,black_plus_sign,,,null,,,,,,,,,,,,,,,,,,,,
null,,learn_phase(without_color)3,1435253,,,,black_plus_sign,,,null,,object_10c.png,object_12b.png,,,,,,,,,,,,,,,,,
null,,black_cross(without_color)3,1436253,,,,green,,,null,,object_10c.png,object_12b.png,,,,,,,,,,,,,,,,,
null,,rt_plussign_withcolor3,1436755,,,,green,,,null,,object_10c.png,object_12b.png,,,,,,,,,,,,,,,,,
1491.4000000059605,,rt_thecrossant_black3,1437760,,,,black_plus_sign,,,50,,,,1,,,,,,,1,,,,,,,,,
null,,color_black3,1437862,,,,black_plus_sign,,,null,,,,,,,,,,,,,,,,,,,,
null,,learn_phase(without_color)3,1441364,,,,black_plus_sign,,,null,,object_08c.png,object_15b.png,,,,,,,,,,,,,,,,,
null,,black_cross(without_color)3,1442109,,,,green,,,null,,object_08c.png,object_15b.png,,,,,,,,,,,,,,,,,
null,,rt_plussign_withcolor3,1442612,,,,green,,,null,,object_08c.png,object_15b.png,,,,,,,,,,,,,,,,,
1255.4000000059605,,rt_thecrossant_black3,1443884,,,,black_plus_sign,,,50,,,,1,,,,,,,1,,,,,,,,,
null,,color_black3,1443996,,,,black_plus_sign,,,null,,,,,,,,,,,,,,,,,,,,
null,,learn_phase(without_color)3,1447498,,,,black_plus_sign,,,null,,object_02c.png,object_05b.png,,,,,,,,,,,,,,,,,
null,,black_cross(without_color)3,1448424,,,,green,,,null,,object_02c.png,object_05b.png,,,,,,,,,,,,,,,,,
null,,rt_plussign_withcolor3,1448927,,,,green,,,null,,object_02c.png,object_05b.png,,,,,,,,,,,,,,,,,
1016.4000000059605,,rt_thecrossant_black3,1450005,,,,black_plus_sign,,,50,,,,1,,,,,,,1,,,,,,,,,
null,,color_black3,1450108,,,,black_plus_sign,,,null,,,,,,,,,,,,,,,,,,,,
null,,learn_phase(without_color)3,1453611,,,,black_plus_sign,,,null,,object_10a.png,object_02a.png,,,,,,,,,,,,,,,,,
null,,black_cross(without_color)3,1454121,,,,green,,,null,,object_10a.png,object_02a.png,,,,,,,,,,,,,,,,,
null,,rt_plussign_withcolor3,1454623,,,,green,,,null,,object_10a.png,object_02a.png,,,,,,,,,,,,,,,,,
1177.4000000059605,,rt_thecrossant_black3,1456117,,,,black_plus_sign,,,50,,,,1,,,,,,,1,,,,,,,,,
null,,color_black3,1456219,,,,black_plus_sign,,,null,,,,,,,,,,,,,,,,,,,,
null,,learn_phase(without_color)3,1459722,,,,black_plus_sign,,,null,,object_08a.png,object_15a.png,,,,,,,,,,,,,,,,,
null,,black_cross(without_color)3,1460675,,,,green,,,null,,object_08a.png,object_15a.png,,,,,,,,,,,,,,,,,
null,,rt_plussign_withcolor3,1461177,,,,green,,,null,,object_08a.png,object_15a.png,,,,,,,,,,,,,,,,,
739.8000000119209,,rt_thecrossant_black3,1462230,,,,black_plus_sign,,,50,,,,1,,,,,,,1,,,,,,,,,
null,,color_black3,1462335,,,,black_plus_sign,,,null,,,,,,,,,,,,,,,,,,,,
null,,learn_phase(without_color)3,1465839,,,,black_plus_sign,,,null,,object_13a.png,object_03b.png,,,,,,,,,,,,,,,,,
null,,black_cross(without_color)3,1466736,,,,green,,,null,,object_13a.png,object_03b.png,,,,,,,,,,,,,,,,,
477,,rt_plussign_withcolor3,1467238,,,,green,,,50,,object_13a.png,object_03b.png,,,,,,,,,,,,,,,,,
null,,rt_thecrossant_black3,1468347,,,,black_plus_sign,,,null,,,,1,,,,,,,1,,,,,,,,,
null,,color_black3,1468449,,,,black_plus_sign,,,null,,,,,,,,,,,,,,,,,,,,
null,,learn_phase(without_color)3,1471952,,,,black_plus_sign,,,null,,object_05c.png,object_05a.png,,,,,,,,,,,,,,,,,
null,,black_cross(without_color)3,1472674,,,,green,,,null,,object_05c.png,object_05a.png,,,,,,,,,,,,,,,,,
null,,rt_plussign_withcolor3,1473176,,,,green,,,null,,object_05c.png,object_05a.png,,,,,,,,,,,,,,,,,
1214.7999999821186,,rt_thecrossant_black3,1474458,,,,black_plus_sign,,,50,,,,1,,,,,,,1,,,,,,,,,
null,,color_black3,1474561,,,,black_plus_sign,,,null,,,,,,,,,,,,,,,,,,,,
null,,learn_phase(without_color)3,1478066,,,,black_plus_sign,,,null,,object_07b.png,object_13b.png,,,,,,,,,,,,,,,,,
null,,black_cross(without_color)3,1478559,,,,blue,,,null,,object_07b.png,object_13b.png,,,,,,,,,,,,,,,,,
null,,rt_plussign_withcolor3,1479061,,,,blue,,,null,,object_07b.png,object_13b.png,,,,,,,,,,,,,,,,,
987,,rt_thecrossant_black3,1480575,,,,black_plus_sign,,,49,,,,1,,,,,,,1,,,,,,,,,
null,,color_black3,1480689,,,,black_plus_sign,,,null,,,,,,,,,,,,,,,,,,,,
null,,learn_phase(without_color)3,1484191,,,,black_plus_sign,,,null,,object_11c.png,object_14c.png,,,,,,,,,,,,,,,,,
null,,black_cross(without_color)3,1485010,,,,green,,,null,,object_11c.png,object_14c.png,,,,,,,,,,,,,,,,,
null,,rt_plussign_withcolor3,1485512,,,,green,,,null,,object_11c.png,object_14c.png,,,,,,,,,,,,,,,,,
689.7999999821186,,rt_thecrossant_black3,1486698,,,,black_plus_sign,,,50,,,,1,,,,,,,1,,,,,,,,,
null,,color_black3,1486801,,,,black_plus_sign,,,null,,,,,,,,,,,,,,,,,,,,
null,,learn_phase(without_color)3,1490303,,,,black_plus_sign,,,null,,object_11b.png,object_04b.png,,,,,,,,,,,,,,,,,
null,,black_cross(without_color)3,1490876,,,,blue,,,null,,object_11b.png,object_04b.png,,,,,,,,,,,,,,,,,
null,,rt_plussign_withcolor3,1491378,,,,blue,,,null,,object_11b.png,object_04b.png,,,,,,,,,,,,,,,,,
1040.6000000238419,,rt_thecrossant_black3,1492809,,,,black_plus_sign,,,49,,,,1,,,,,,,1,,,,,,,,,
null,,color_black3,1492911,,,,black_plus_sign,,,null,,,,,,,,,,,,,,,,,,,,
null,,learn_phase(without_color)3,1496414,,,,black_plus_sign,,,null,,object_14b.png,object_09a.png,,,,,,,,,,,,,,,,,
null,,black_cross(without_color)3,1496917,,,,green,,,null,,object_14b.png,object_09a.png,,,,,,,,,,,,,,,,,
null,,rt_plussign_withcolor3,1497419,,,,green,,,null,,object_14b.png,object_09a.png,,,,,,,,,,,,,,,,,
799,,rt_thecrossant_black3,1498921,,,,black_plus_sign,,,50,,,,1,,,,,,,1,,,,,,,,,
null,,color_black3,1499023,,,,black_plus_sign,,,null,,,,,,,,,,,,,,,,,,,,
null,,learn_phase(without_color)3,1502526,,,,black_plus_sign,,,null,,object_04c.png,object_03c.png,,,,,,,,,,,,,,,,,
null,,black_cross(without_color)3,1503487,,,,green,,,null,,object_04c.png,object_03c.png,,,,,,,,,,,,,,,,,
null,,rt_plussign_withcolor3,1503989,,,,green,,,null,,object_04c.png,object_03c.png,,,,,,,,,,,,,,,,,
937.5,,rt_thecrossant_black3,1505033,,,,black_plus_sign,,,50,,,,1,,,,,,,1,,,,,,,,,
null,,color_black3,1505145,,,,black_plus_sign,,,null,,,,,,,,,,,,,,,,,,,,
null,,learn_phase(without_color)3,1508649,,,,black_plus_sign,,,null,,object_06b.png,object_12c.png,,,,,,,,,,,,,,,,,
null,,black_cross(without_color)3,1509260,,,,green,,,null,,object_06b.png,object_12c.png,,,,,,,,,,,,,,,,,
null,,rt_plussign_withcolor3,1509763,,,,green,,,null,,object_06b.png,object_12c.png,,,,,,,,,,,,,,,,,
1205.4000000059605,,rt_thecrossant_black3,1511158,,,,black_plus_sign,,,50,,,,1,,,,,,,1,,,,,,,,,
null,,color_black3,1511260,,,,black_plus_sign,,,null,,,,,,,,,,,,,,,,,,,,
null,,thebreak,1511363,,,,<p></p>,,,null,,,,,,,,,,,,,,,,,,,,
9608,,intro_0,1520972,,,,instruct,,,32,,,,,,,,,,,,,,,,,,,,
7765.799999982119,,directmemory_phase3,1528739,,,,object_13b.png,,,49,,,,1,,object_07b.png,object_12c.png,object_03c.png,object_07b.png,,0.7741935483870968,1,,,,,,,,
9988.300000011921,,directmemory_phase3,1538731,,,,object_05b.png,,,49,,,,1,,object_02c.png,object_01a.png,object_13b.png,object_02c.png,,0.78125,1,,,,,,,,
8598.59999999404,,directmemory_phase3,1547333,,,,object_09a.png,,,51,,,,1,,object_07b.png,object_15b.png,object_14b.png,object_14b.png,,0.7878787878787878,1,,,,,,,,
5594.5,,directmemory_phase3,1552930,,,,object_03b.png,,,50,,,,1,,object_05b.png,object_13a.png,object_11b.png,object_13a.png,,0.7941176470588235,1,,,,,,,,
4303.4000000059605,,directmemory_phase3,1557236,,,,object_14c.png,,,49,,,,1,,object_11c.png,object_13a.png,object_03b.png,object_11c.png,,0.8,1,,,,,,,,
11188.59999999404,,directmemory_phase3,1568427,,,,object_05a.png,,,49,,,,1,,object_05c.png,object_08c.png,object_06b.png,object_05c.png,,0.8055555555555556,1,,,,,,,,
4460.5999999940395,,directmemory_phase3,1572890,,,,object_06b.png,,,51,,,,1,,object_02c.png,object_05b.png,object_12c.png,object_12c.png,,0.8108108108108109,1,,,,,,,,
5094.100000023842,,directmemory_phase3,1577987,,,,object_15c.png,,,51,,,,1,,object_13a.png,object_03c.png,object_07a.png,object_07a.png,,0.8157894736842105,1,,,,,,,,
3114.5,,directmemory_phase3,1581104,,,,object_15a.png,,,50,,,,1,,object_13b.png,object_08a.png,object_11b.png,object_08a.png,,0.8205128205128205,1,,,,,,,,
12591.59999999404,,directmemory_phase3,1593698,,,,object_15b.png,,,49,,,,1,,object_08c.png,object_07a.png,object_05b.png,object_08c.png,,0.825,1,,,,,,,,
7354.600000023842,,directmemory_phase3,1601055,,,,object_10c.png,,,49,,,,1,,object_12b.png,object_07a.png,object_15b.png,object_12b.png,,0.8292682926829268,1,,,,,,,,
7092.199999988079,,directmemory_phase3,1608150,,,,object_08b.png,,,51,,,,1,,object_13a.png,object_15b.png,object_01a.png,object_01a.png,,0.8333333333333334,1,,,,,,,,
7097.4000000059605,,directmemory_phase3,1615250,,,,object_04b.png,,,51,,,,1,,object_12b.png,object_13b.png,object_11b.png,object_11b.png,,0.8372093023255814,1,,,,,,,,
9907.299999982119,,directmemory_phase3,1625160,,,,object_10a.png,,,51,,,,1,,object_04c.png,object_08b.png,object_02a.png,object_02a.png,,0.8409090909090909,1,,,,,,,,
4428.199999988079,,directmemory_phase3,1629590,,,,object_03c.png,,,51,,,,1,,object_02c.png,object_09a.png,object_04c.png,object_04c.png,,0.8444444444444444,1,,,,,,,,
null,,thebreak,1629693,,,,<p></p>,,,null,,,,,,,,,,,,,,,,,,,,
260681.09999999404,,intro_0,1890376,,,,instruct,,,32,,,,,,,,,,,,,,,,,,,,
null,,learn_phase(without_color)4,1893879,,,,black_plus_sign,,,null,,object_12c.png,object_06b.png,,,,,,,,,,,,,,,,,
null,,black_cross(without_color)4,1894467,,,,green,,,null,,object_12c.png,object_06b.png,,,,,,,,,,,,,,,,,
null,,rt_plussign_withcolor4,1894969,,,,green,,,null,,object_12c.png,object_06b.png,,,,,,,,,,,,,,,,,
1709.800000011921,,rt_thecrossant_black4,1896400,,,,black_plus_sign,,,50,,,,1,,,,,,,1,,,,,,,,,
null,,color_black4,1896502,,,,black_plus_sign,,,null,,,,,,,,,,,,,,,,,,,,
null,,learn_phase(without_color)4,1900006,,,,black_plus_sign,,,null,,object_05b.png,object_02c.png,,,,,,,,,,,,,,,,,
null,,black_cross(without_color)4,1900499,,,,green,,,null,,object_05b.png,object_02c.png,,,,,,,,,,,,,,,,,
null,,rt_plussign_withcolor4,1901001,,,,green,,,null,,object_05b.png,object_02c.png,,,,,,,,,,,,,,,,,
817.8999999761581,,rt_thecrossant_black4,1902512,,,,black_plus_sign,,,50,,,,1,,,,,,,1,,,,,,,,,
null,,color_black4,1902615,,,,black_plus_sign,,,null,,,,,,,,,,,,,,,,,,,,
null,,learn_phase(without_color)4,1906118,,,,black_plus_sign,,,null,,object_13b.png,object_07b.png,,,,,,,,,,,,,,,,,
null,,black_cross(without_color)4,1906735,,,,green,,,null,,object_13b.png,object_07b.png,,,,,,,,,,,,,,,,,
null,,rt_plussign_withcolor4,1907237,,,,green,,,null,,object_13b.png,object_07b.png,,,,,,,,,,,,,,,,,
682.3999999761581,,rt_thecrossant_black4,1908624,,,,black_plus_sign,,,50,,,,1,,,,,,,1,,,,,,,,,
null,,color_black4,1908727,,,,black_plus_sign,,,null,,,,,,,,,,,,,,,,,,,,
null,,learn_phase(without_color)4,1912229,,,,black_plus_sign,,,null,,object_04c.png,object_03c.png,,,,,,,,,,,,,,,,,
null,,black_cross(without_color)4,1912735,,,,blue,,,null,,object_04c.png,object_03c.png,,,,,,,,,,,,,,,,,
null,,rt_plussign_withcolor4,1913237,,,,blue,,,null,,object_04c.png,object_03c.png,,,,,,,,,,,,,,,,,
1019.0999999940395,,rt_thecrossant_black4,1914736,,,,black_plus_sign,,,49,,,,1,,,,,,,1,,,,,,,,,
null,,color_black4,1914839,,,,black_plus_sign,,,null,,,,,,,,,,,,,,,,,,,,
null,,learn_phase(without_color)4,1918343,,,,black_plus_sign,,,null,,object_03b.png,object_13a.png,,,,,,,,,,,,,,,,,
null,,black_cross(without_color)4,1919118,,,,green,,,null,,object_03b.png,object_13a.png,,,,,,,,,,,,,,,,,
448.19999998807907,,rt_plussign_withcolor4,1919619,,,,green,,,50,,object_03b.png,object_13a.png,,,,,,,,,,,,,,,,,
null,,rt_thecrossant_black4,1920849,,,,black_plus_sign,,,null,,,,1,,,,,,,1,,,,,,,,,
null,,color_black4,1920952,,,,black_plus_sign,,,null,,,,,,,,,,,,,,,,,,,,
null,,learn_phase(without_color)4,1924455,,,,black_plus_sign,,,null,,object_10c.png,object_12b.png,,,,,,,,,,,,,,,,,
null,,black_cross(without_color)4,1925180,,,,green,,,null,,object_10c.png,object_12b.png,,,,,,,,,,,,,,,,,
null,,rt_plussign_withcolor4,1925682,,,,green,,,null,,object_10c.png,object_12b.png,,,,,,,,,,,,,,,,,
879.7000000178814,,rt_thecrossant_black4,1926963,,,,black_plus_sign,,,50,,,,1,,,,,,,1,,,,,,,,,
null,,color_black4,1927079,,,,black_plus_sign,,,null,,,,,,,,,,,,,,,,,,,,
null,,learn_phase(without_color)4,1930582,,,,black_plus_sign,,,null,,object_01a.png,object_08b.png,,,,,,,,,,,,,,,,,
null,,black_cross(without_color)4,1931036,,,,blue,,,null,,object_01a.png,object_08b.png,,,,,,,,,,,,,,,,,
null,,rt_plussign_withcolor4,1931540,,,,blue,,,null,,object_01a.png,object_08b.png,,,,,,,,,,,,,,,,,
1075.5,,rt_thecrossant_black4,1933091,,,,black_plus_sign,,,49,,,,1,,,,,,,1,,,,,,,,,
null,,color_black4,1933194,,,,black_plus_sign,,,null,,,,,,,,,,,,,,,,,,,,
null,,learn_phase(without_color)4,1936698,,,,black_plus_sign,,,null,,object_14c.png,object_11c.png,,,,,,,,,,,,,,,,,
null,,black_cross(without_color)4,1937169,,,,green,,,null,,object_14c.png,object_11c.png,,,,,,,,,,,,,,,,,
null,,rt_plussign_withcolor4,1937671,,,,green,,,null,,object_14c.png,object_11c.png,,,,,,,,,,,,,,,,,
750.2000000178814,,rt_thecrossant_black4,1939207,,,,black_plus_sign,,,50,,,,1,,,,,,,1,,,,,,,,,
null,,color_black4,1939309,,,,black_plus_sign,,,null,,,,,,,,,,,,,,,,,,,,
null,,learn_phase(without_color)4,1942813,,,,black_plus_sign,,,null,,object_15b.png,object_08c.png,,,,,,,,,,,,,,,,,
null,,black_cross(without_color)4,1943217,,,,blue,,,null,,object_15b.png,object_08c.png,,,,,,,,,,,,,,,,,
null,,rt_plussign_withcolor4,1943720,,,,blue,,,null,,object_15b.png,object_08c.png,,,,,,,,,,,,,,,,,
763.7999999821186,,rt_thecrossant_black4,1945321,,,,black_plus_sign,,,49,,,,1,,,,,,,1,,,,,,,,,
null,,color_black4,1945424,,,,black_plus_sign,,,null,,,,,,,,,,,,,,,,,,,,
null,,learn_phase(without_color)4,1948927,,,,black_plus_sign,,,null,,object_08a.png,object_15a.png,,,,,,,,,,,,,,,,,
null,,black_cross(without_color)4,1949693,,,,blue,,,null,,object_08a.png,object_15a.png,,,,,,,,,,,,,,,,,
null,,rt_plussign_withcolor4,1950195,,,,blue,,,null,,object_08a.png,object_15a.png,,,,,,,,,,,,,,,,,
624.3999999761581,,rt_thecrossant_black4,1951433,,,,black_plus_sign,,,49,,,,1,,,,,,,1,,,,,,,,,
null,,color_black4,1951550,,,,black_plus_sign,,,null,,,,,,,,,,,,,,,,,,,,
null,,learn_phase(without_color)4,1955054,,,,black_plus_sign,,,null,,object_04b.png,object_11b.png,,,,,,,,,,,,,,,,,
null,,black_cross(without_color)4,1955875,,,,blue,,,null,,object_04b.png,object_11b.png,,,,,,,,,,,,,,,,,
null,,rt_plussign_withcolor4,1956377,,,,blue,,,null,,object_04b.png,object_11b.png,,,,,,,,,,,,,,,,,
868.2999999821186,,rt_thecrossant_black4,1957561,,,,black_plus_sign,,,49,,,,1,,,,,,,1,,,,,,,,,
null,,color_black4,1957664,,,,black_plus_sign,,,null,,,,,,,,,,,,,,,,,,,,
null,,learn_phase(without_color)4,1961166,,,,black_plus_sign,,,null,,object_07a.png,object_15c.png,,,,,,,,,,,,,,,,,
null,,black_cross(without_color)4,1962206,,,,blue,,,null,,object_07a.png,object_15c.png,,,,,,,,,,,,,,,,,
null,,rt_plussign_withcolor4,1962708,,,,blue,,,null,,object_07a.png,object_15c.png,,,,,,,,,,,,,,,,,
1111.0999999940395,,rt_thecrossant_black4,1963674,,,,black_plus_sign,,,49,,,,1,,,,,,,1,,,,,,,,,
null,,color_black4,1963777,,,,black_plus_sign,,,null,,,,,,,,,,,,,,,,,,,,
null,,learn_phase(without_color)4,1967280,,,,black_plus_sign,,,null,,object_02a.png,object_10a.png,,,,,,,,,,,,,,,,,
null,,black_cross(without_color)4,1967798,,,,blue,,,null,,object_02a.png,object_10a.png,,,,,,,,,,,,,,,,,
null,,rt_plussign_withcolor4,1968300,,,,blue,,,null,,object_02a.png,object_10a.png,,,,,,,,,,,,,,,,,
1204.4000000059605,,rt_thecrossant_black4,1969786,,,,black_plus_sign,,,49,,,,1,,,,,,,1,,,,,,,,,
null,,color_black4,1969889,,,,black_plus_sign,,,null,,,,,,,,,,,,,,,,,,,,
null,,learn_phase(without_color)4,1973392,,,,black_plus_sign,,,null,,object_05a.png,object_05c.png,,,,,,,,,,,,,,,,,
null,,black_cross(without_color)4,1974024,,,,green,,,null,,object_05a.png,object_05c.png,,,,,,,,,,,,,,,,,
null,,rt_plussign_withcolor4,1974526,,,,green,,,null,,object_05a.png,object_05c.png,,,,,,,,,,,,,,,,,
695.9000000059605,,rt_thecrossant_black4,1975898,,,,black_plus_sign,,,50,,,,1,,,,,,,1,,,,,,,,,
null,,color_black4,1976000,,,,black_plus_sign,,,null,,,,,,,,,,,,,,,,,,,,
null,,learn_phase(without_color)4,1979515,,,,black_plus_sign,,,null,,object_09a.png,object_14b.png,,,,,,,,,,,,,,,,,
null,,black_cross(without_color)4,1980550,,,,green,,,null,,object_09a.png,object_14b.png,,,,,,,,,,,,,,,,,
495,,rt_plussign_withcolor4,1981052,,,,green,,,50,,object_09a.png,object_14b.png,,,,,,,,,,,,,,,,,
null,,rt_thecrossant_black4,1982022,,,,black_plus_sign,,,null,,,,1,,,,,,,1,,,,,,,,,
null,,color_black4,1982124,,,,black_plus_sign,,,null,,,,,,,,,,,,,,,,,,,,
null,,thebreak,1982228,,,,<p></p>,,,null,,,,,,,,,,,,,,,,,,,,
415613.8000000119,,intro_0,2397844,,,,instruct,,,32,,,,,,,,,,,,,,,,,,,,
14669.699999988079,,directmemory_phase4,2412515,,,,object_05a.png,,,49,,,,0,,object_10c.png,object_05c.png,object_14b.png,object_05c.png,,0.8260869565217391,0,,,,,,,,
8586.90000000596,,directmemory_phase4,2421105,,,,object_04b.png,,,51,,,,1,,object_08c.png,object_15a.png,object_11b.png,object_11b.png,,0.8297872340425532,1,,,,,,,,
2765.5999999940395,,directmemory_phase4,2423872,,,,object_15a.png,,,51,,,,1,,object_05c.png,object_09a.png,object_08a.png,object_08a.png,,0.8333333333333334,1,,,,,,,,
13629.100000023842,,directmemory_phase4,2437503,,,,object_05b.png,,,49,,,,1,,object_02c.png,object_08a.png,object_10a.png,object_02c.png,,0.8367346938775511,1,,,,,,,,
4244.9000000059605,,directmemory_phase4,2441750,,,,object_14c.png,,,51,,,,1,,object_08c.png,object_06b.png,object_11c.png,object_11c.png,,0.84,1,,,,,,,,
3016.7999999821186,,directmemory_phase4,2444769,,,,object_09a.png,,,51,,,,1,,object_08c.png,object_05a.png,object_14b.png,object_14b.png,,0.8431372549019608,1,,,,,,,,
3255.4000000059605,,directmemory_phase4,2448026,,,,object_15b.png,,,51,,,,1,,object_14b.png,object_10a.png,object_08c.png,object_08c.png,,0.8461538461538461,1,,,,,,,,
3873.4000000059605,,directmemory_phase4,2451901,,,,object_10c.png,,,49,,,,1,,object_12b.png,object_05c.png,object_05a.png,object_12b.png,,0.8490566037735849,1,,,,,,,,
9223.59999999404,,directmemory_phase4,2461128,,,,object_03c.png,,,51,,,,1,,object_07a.png,object_10c.png,object_04c.png,object_04c.png,,0.8518518518518519,1,,,,,,,,
2320,,directmemory_phase4,2463451,,,,object_08b.png,,,50,,,,1,,object_03b.png,object_01a.png,object_13a.png,object_01a.png,,0.8545454545454545,1,,,,,,,,
6578,,directmemory_phase4,2470031,,,,object_03b.png,,,50,,,,1,,object_15c.png,object_13a.png,object_12c.png,object_13a.png,,0.8571428571428571,1,,,,,,,,
7334.700000017881,,directmemory_phase4,2477369,,,,object_13b.png,,,50,,,,1,,object_10c.png,object_07b.png,object_07a.png,object_07b.png,,0.8596491228070176,1,,,,,,,,
2943.0999999940395,,directmemory_phase4,2480314,,,,object_10a.png,,,50,,,,1,,object_13b.png,object_02a.png,object_02c.png,object_02a.png,,0.8620689655172413,1,,,,,,,,
6412.0999999940395,,directmemory_phase4,2486729,,,,object_06b.png,,,51,,,,1,,object_07b.png,object_04b.png,object_12c.png,object_12c.png,,0.864406779661017,1,,,,,,,,
2575.0999999940395,,directmemory_phase4,2489307,,,,object_15c.png,,,49,,,,1,,object_07a.png,object_12b.png,object_15b.png,object_07a.png,,0.8666666666666667,1,,,,,,,,
null,,thebreak,2489410,,,,<p></p>,,,null,,,,,,,,,,,,,,,,,,,,
2978.5999999940395,,intro_0,2492390,,,,instruct,,,32,,,,,,,,,,,,,,,,,,,,
null,,learn_phase(without_color)5,2495893,,,,black_plus_sign,,,null,,object_11a.png,object_08a.png,,,,,,,,,,,,,,,,,
null,,black_cross(without_color)5,2496557,,,,blue,,,null,,object_11a.png,object_08a.png,,,,,,,,,,,,,,,,,
null,,rt_plussign_withcolor5,2497060,,,,blue,,,null,,object_11a.png,object_08a.png,,,,,,,,,,,,,,,,,
1698.2000000178814,,rt_thecrossant_black5,2498401,,,,black_plus_sign,,,49,,,,1,,,,,,,1,,,,,,,,,
null,,color_black5,2498504,,,,black_plus_sign,,,null,,,,,,,,,,,,,,,,,,,,
null,,learn_phase(without_color)5,2502007,,,,black_plus_sign,,,null,,object_07c.png,object_11b.png,,,,,,,,,,,,,,,,,
null,,black_cross(without_color)5,2502975,,,,blue,,,null,,object_07c.png,object_11b.png,,,,,,,,,,,,,,,,,
null,,rt_plussign_withcolor5,2503478,,,,blue,,,null,,object_07c.png,object_11b.png,,,,,,,,,,,,,,,,,
1118.699999988079,,rt_thecrossant_black5,2504514,,,,black_plus_sign,,,49,,,,1,,,,,,,1,,,,,,,,,
null,,color_black5,2504617,,,,black_plus_sign,,,null,,,,,,,,,,,,,,,,,,,,
null,,learn_phase(without_color)5,2508120,,,,black_plus_sign,,,null,,object_09c.png,object_04c.png,,,,,,,,,,,,,,,,,
null,,black_cross(without_color)5,2509010,,,,blue,,,null,,object_09c.png,object_04c.png,,,,,,,,,,,,,,,,,
null,,rt_plussign_withcolor5,2509513,,,,blue,,,null,,object_09c.png,object_04c.png,,,,,,,,,,,,,,,,,
1359.5999999940395,,rt_thecrossant_black5,2510627,,,,black_plus_sign,,,49,,,,1,,,,,,,1,,,,,,,,,
null,,color_black5,2510730,,,,black_plus_sign,,,null,,,,,,,,,,,,,,,,,,,,
null,,learn_phase(without_color)5,2514246,,,,black_plus_sign,,,null,,object_06a.png,object_07b.png,,,,,,,,,,,,,,,,,
null,,black_cross(without_color)5,2515161,,,,blue,,,null,,object_06a.png,object_07b.png,,,,,,,,,,,,,,,,,
null,,rt_plussign_withcolor5,2515664,,,,blue,,,null,,object_06a.png,object_07b.png,,,,,,,,,,,,,,,,,
1141.9000000059605,,rt_thecrossant_black5,2516755,,,,black_plus_sign,,,49,,,,1,,,,,,,1,,,,,,,,,
null,,color_black5,2516858,,,,black_plus_sign,,,null,,,,,,,,,,,,,,,,,,,,
null,,learn_phase(without_color)5,2520361,,,,black_plus_sign,,,null,,object_02c.png,object_09b.png,,,,,,,,,,,,,,,,,
null,,black_cross(without_color)5,2520868,,,,blue,,,null,,object_02c.png,object_09b.png,,,,,,,,,,,,,,,,,
null,,rt_plussign_withcolor5,2521370,,,,blue,,,null,,object_02c.png,object_09b.png,,,,,,,,,,,,,,,,,
1307.300000011921,,rt_thecrossant_black5,2522868,,,,black_plus_sign,,,49,,,,1,,,,,,,1,,,,,,,,,
null,,color_black5,2522971,,,,black_plus_sign,,,null,,,,,,,,,,,,,,,,,,,,
null,,learn_phase(without_color)5,2526473,,,,black_plus_sign,,,null,,object_10b.png,object_13a.png,,,,,,,,,,,,,,,,,
null,,black_cross(without_color)5,2527199,,,,blue,,,null,,object_10b.png,object_13a.png,,,,,,,,,,,,,,,,,
null,,rt_plussign_withcolor5,2527701,,,,blue,,,null,,object_10b.png,object_13a.png,,,,,,,,,,,,,,,,,
871.2999999821186,,rt_thecrossant_black5,2528980,,,,black_plus_sign,,,49,,,,1,,,,,,,1,,,,,,,,,
null,,color_black5,2529082,,,,black_plus_sign,,,null,,,,,,,,,,,,,,,,,,,,
null,,learn_phase(without_color)5,2532586,,,,black_plus_sign,,,null,,object_13c.png,object_05c.png,,,,,,,,,,,,,,,,,
null,,black_cross(without_color)5,2533519,,,,blue,,,null,,object_13c.png,object_05c.png,,,,,,,,,,,,,,,,,
493.09999999403954,,rt_plussign_withcolor5,2534021,,,,blue,,,49,,object_13c.png,object_05c.png,,,,,,,,,,,,,,,,,
null,,rt_thecrossant_black5,2535094,,,,black_plus_sign,,,null,,,,1,,,,,,,1,,,,,,,,,
null,,color_black5,2535196,,,,black_plus_sign,,,null,,,,,,,,,,,,,,,,,,,,
null,,learn_phase(without_color)5,2538700,,,,black_plus_sign,,,null,,object_14a.png,object_02a.png,,,,,,,,,,,,,,,,,
null,,black_cross(without_color)5,2539725,,,,green,,,null,,object_14a.png,object_02a.png,,,,,,,,,,,,,,,,,
null,,rt_plussign_withcolor5,2540231,,,,green,,,null,,object_14a.png,object_02a.png,,,,,,,,,,,,,,,,,
1768.5,,rt_thecrossant_black5,2541213,,,,black_plus_sign,,,50,,,,1,,,,,,,1,,,,,,,,,
null,,color_black5,2541314,,,,black_plus_sign,,,null,,,,,,,,,,,,,,,,,,,,
null,,learn_phase(without_color)5,2544820,,,,black_plus_sign,,,null,,object_12a.png,object_14b.png,,,,,,,,,,,,,,,,,
null,,black_cross(without_color)5,2545518,,,,blue,,,null,,object_12a.png,object_14b.png,,,,,,,,,,,,,,,,,
null,,rt_plussign_withcolor5,2546019,,,,blue,,,null,,object_12a.png,object_14b.png,,,,,,,,,,,,,,,,,
1188.5999999940395,,rt_thecrossant_black5,2547326,,,,black_plus_sign,,,49,,,,1,,,,,,,1,,,,,,,,,
null,,color_black5,2547429,,,,black_plus_sign,,,null,,,,,,,,,,,,,,,,,,,,
null,,learn_phase(without_color)5,2550931,,,,black_plus_sign,,,null,,object_08c.png,object_01c.png,,,,,,,,,,,,,,,,,
null,,black_cross(without_color)5,2551775,,,,green,,,null,,object_08c.png,object_01c.png,,,,,,,,,,,,,,,,,
null,,rt_plussign_withcolor5,2552279,,,,green,,,null,,object_08c.png,object_01c.png,,,,,,,,,,,,,,,,,
938.4000000059605,,rt_thecrossant_black5,2553441,,,,black_plus_sign,,,50,,,,1,,,,,,,1,,,,,,,,,
null,,color_black5,2553543,,,,black_plus_sign,,,null,,,,,,,,,,,,,,,,,,,,
null,,learn_phase(without_color)5,2557046,,,,black_plus_sign,,,null,,object_07a.png,object_02b.png,,,,,,,,,,,,,,,,,
null,,black_cross(without_color)5,2557776,,,,blue,,,null,,object_07a.png,object_02b.png,,,,,,,,,,,,,,,,,
null,,rt_plussign_withcolor5,2558277,,,,blue,,,null,,object_07a.png,object_02b.png,,,,,,,,,,,,,,,,,
1215.5999999940395,,rt_thecrossant_black5,2559553,,,,black_plus_sign,,,49,,,,1,,,,,,,1,,,,,,,,,
null,,color_black5,2559655,,,,black_plus_sign,,,null,,,,,,,,,,,,,,,,,,,,
null,,learn_phase(without_color)5,2563159,,,,black_plus_sign,,,null,,object_01a.png,object_01b.png,,,,,,,,,,,,,,,,,
null,,black_cross(without_color)5,2564074,,,,green,,,null,,object_01a.png,object_01b.png,,,,,,,,,,,,,,,,,
null,,rt_plussign_withcolor5,2564575,,,,green,,,null,,object_01a.png,object_01b.png,,,,,,,,,,,,,,,,,
1026.2999999821186,,rt_thecrossant_black5,2565666,,,,black_plus_sign,,,50,,,,1,,,,,,,1,,,,,,,,,
null,,color_black5,2565768,,,,black_plus_sign,,,null,,,,,,,,,,,,,,,,,,,,
null,,learn_phase(without_color)5,2569272,,,,black_plus_sign,,,null,,object_12b.png,object_04a.png,,,,,,,,,,,,,,,,,
null,,black_cross(without_color)5,2570090,,,,green,,,null,,object_12b.png,object_04a.png,,,,,,,,,,,,,,,,,
null,,rt_plussign_withcolor5,2570592,,,,green,,,null,,object_12b.png,object_04a.png,,,,,,,,,,,,,,,,,
1201.5,,rt_thecrossant_black5,2571780,,,,black_plus_sign,,,50,,,,1,,,,,,,1,,,,,,,,,
null,,color_black5,2571882,,,,black_plus_sign,,,null,,,,,,,,,,,,,,,,,,,,
null,,learn_phase(without_color)5,2575385,,,,black_plus_sign,,,null,,object_03a.png,object_12c.png,,,,,,,,,,,,,,,,,
null,,black_cross(without_color)5,2575847,,,,blue,,,null,,object_03a.png,object_12c.png,,,,,,,,,,,,,,,,,
null,,rt_plussign_withcolor5,2576349,,,,blue,,,null,,object_03a.png,object_12c.png,,,,,,,,,,,,,,,,,
1091.800000011921,,rt_thecrossant_black5,2577895,,,,black_plus_sign,,,49,,,,1,,,,,,,1,,,,,,,,,
null,,color_black5,2577998,,,,black_plus_sign,,,null,,,,,,,,,,,,,,,,,,,,
null,,learn_phase(without_color)5,2581505,,,,black_plus_sign,,,null,,object_06c.png,object_11c.png,,,,,,,,,,,,,,,,,
null,,black_cross(without_color)5,2582224,,,,blue,,,null,,object_06c.png,object_11c.png,,,,,,,,,,,,,,,,,
null,,rt_plussign_withcolor5,2582738,,,,blue,,,null,,object_06c.png,object_11c.png,,,,,,,,,,,,,,,,,
824.8000000119209,,rt_thecrossant_black5,2584025,,,,black_plus_sign,,,49,,,,1,,,,,,,1,,,,,,,,,
null,,color_black5,2584127,,,,black_plus_sign,,,null,,,,,,,,,,,,,,,,,,,,
null,,thebreak,2584230,,,,<p></p>,,,null,,,,,,,,,,,,,,,,,,,,
16630.20000001788,,intro_0,2600861,,,,instruct,,,32,,,,,,,,,,,,,,,,,,,,
7212.800000011921,,directmemory_phase5,2608076,,,,object_12a.png,,,51,,,,0,,object_11a.png,object_14b.png,object_07a.png,object_14b.png,,0.8524590163934426,0,,,,,,,,
10303.59999999404,,directmemory_phase5,2618383,,,,object_02a.png,,,50,,,,0,,object_14a.png,object_01b.png,object_14b.png,object_14a.png,,0.8387096774193549,0,,,,,,,,
9304.199999988079,,directmemory_phase5,2627690,,,,object_02b.png,,,50,,,,0,,object_01a.png,object_01b.png,object_07a.png,object_07a.png,,0.8253968253968254,0,,,,,,,,
5790.300000011921,,directmemory_phase5,2633483,,,,object_13a.png,,,51,,,,0,,object_02c.png,object_10b.png,object_04a.png,object_10b.png,,0.8125,0,,,,,,,,
5930.200000017881,,directmemory_phase5,2639415,,,,object_08c.png,,,51,,,,0,,object_05c.png,object_01c.png,object_03a.png,object_01c.png,,0.8,0,,,,,,,,
7511.0999999940395,,directmemory_phase5,2646929,,,,object_07b.png,,,49,,,,1,,object_06a.png,object_11a.png,object_13a.png,object_06a.png,,0.803030303030303,1,,,,,,,,
6528.0999999940395,,directmemory_phase5,2653460,,,,object_11c.png,,,49,,,,0,,object_02b.png,object_08a.png,object_06c.png,object_06c.png,,0.7910447761194029,0,,,,,,,,
4794.5999999940395,,directmemory_phase5,2658257,,,,object_01b.png,,,51,,,,1,,object_04c.png,object_02b.png,object_01a.png,object_01a.png,,0.7941176470588235,1,,,,,,,,
3509.4000000059605,,directmemory_phase5,2661770,,,,object_04a.png,,,50,,,,1,,object_01b.png,object_12b.png,object_01a.png,object_12b.png,,0.7971014492753623,1,,,,,,,,
2881.800000011921,,directmemory_phase5,2664654,,,,object_04c.png,,,50,,,,0,,object_09c.png,object_12a.png,object_14b.png,object_09c.png,,0.7857142857142857,0,,,,,,,,
3702.0999999940395,,directmemory_phase5,2668358,,,,object_13c.png,,,50,,,,0,,object_05c.png,object_02c.png,object_09c.png,object_05c.png,,0.7746478873239436,0,,,,,,,,
4348.5,,directmemory_phase5,2672710,,,,object_07c.png,,,50,,,,0,,object_04c.png,object_03a.png,object_11b.png,object_11b.png,,0.7638888888888888,0,,,,,,,,
5400.0999999940395,,directmemory_phase5,2678113,,,,object_08a.png,,,49,,,,0,,object_07c.png,object_12b.png,object_11a.png,object_11a.png,,0.7534246575342466,0,,,,,,,,
5177.0999999940395,,directmemory_phase5,2683293,,,,object_02c.png,,,51,,,,0,,object_09b.png,object_10b.png,object_12b.png,object_09b.png,,0.7432432432432432,0,,,,,,,,
4084.5,,directmemory_phase5,2687380,,,,object_12c.png,,,51,,,,0,,object_03a.png,object_01b.png,object_04c.png,object_03a.png,,0.7333333333333333,0,,,,,,,,
null,,thebreak,2687483,,,,<p></p>,,,null,,,,,,,,,,,,,,,,,,,,
23302.30000001192,,intro_0,2710789,,,,instruct,,,32,,,,,,,,,,,,,,,,,,,,
null,,learn_phase(without_color)6,2714291,,,,black_plus_sign,,,null,,object_13c.png,object_05c.png,,,,,,,,,,,,,,,,,
null,,black_cross(without_color)6,2714748,,,,green,,,null,,object_13c.png,object_05c.png,,,,,,,,,,,,,,,,,
null,,rt_plussign_withcolor6,2715251,,,,green,,,null,,object_13c.png,object_05c.png,,,,,,,,,,,,,,,,,
1302.800000011921,,rt_thecrossant_black6,2716799,,,,black_plus_sign,,,50,,,,1,,,,,,,1,,,,,,,,,
null,,color_black6,2716901,,,,black_plus_sign,,,null,,,,,,,,,,,,,,,,,,,,
null,,learn_phase(without_color)6,2720405,,,,black_plus_sign,,,null,,object_11b.png,object_07c.png,,,,,,,,,,,,,,,,,
null,,black_cross(without_color)6,2721048,,,,blue,,,null,,object_11b.png,object_07c.png,,,,,,,,,,,,,,,,,
null,,rt_plussign_withcolor6,2721550,,,,blue,,,null,,object_11b.png,object_07c.png,,,,,,,,,,,,,,,,,
767.9000000059605,,rt_thecrossant_black6,2722913,,,,black_plus_sign,,,49,,,,1,,,,,,,1,,,,,,,,,
null,,color_black6,2723016,,,,black_plus_sign,,,null,,,,,,,,,,,,,,,,,,,,
null,,learn_phase(without_color)6,2726519,,,,black_plus_sign,,,null,,object_14a.png,object_02a.png,,,,,,,,,,,,,,,,,
null,,black_cross(without_color)6,2727061,,,,blue,,,null,,object_14a.png,object_02a.png,,,,,,,,,,,,,,,,,
null,,rt_plussign_withcolor6,2727563,,,,blue,,,null,,object_14a.png,object_02a.png,,,,,,,,,,,,,,,,,
978.3000000119209,,rt_thecrossant_black6,2729026,,,,black_plus_sign,,,49,,,,1,,,,,,,1,,,,,,,,,
null,,color_black6,2729128,,,,black_plus_sign,,,null,,,,,,,,,,,,,,,,,,,,
null,,learn_phase(without_color)6,2732631,,,,black_plus_sign,,,null,,object_08a.png,object_11a.png,,,,,,,,,,,,,,,,,
null,,black_cross(without_color)6,2733082,,,,blue,,,null,,object_08a.png,object_11a.png,,,,,,,,,,,,,,,,,
null,,rt_plussign_withcolor6,2733584,,,,blue,,,null,,object_08a.png,object_11a.png,,,,,,,,,,,,,,,,,
811.4000000059605,,rt_thecrossant_black6,2735138,,,,black_plus_sign,,,49,,,,1,,,,,,,1,,,,,,,,,
null,,color_black6,2735240,,,,black_plus_sign,,,null,,,,,,,,,,,,,,,,,,,,
null,,learn_phase(without_color)6,2738743,,,,black_plus_sign,,,null,,object_09b.png,object_02c.png,,,,,,,,,,,,,,,,,
null,,black_cross(without_color)6,2739624,,,,blue,,,null,,object_09b.png,object_02c.png,,,,,,,,,,,,,,,,,
null,,rt_plussign_withcolor6,2740125,,,,blue,,,null,,object_09b.png,object_02c.png,,,,,,,,,,,,,,,,,
905.8000000119209,,rt_thecrossant_black6,2741249,,,,black_plus_sign,,,49,,,,1,,,,,,,1,,,,,,,,,
null,,color_black6,2741351,,,,black_plus_sign,,,null,,,,,,,,,,,,,,,,,,,,
null,,learn_phase(without_color)6,2744853,,,,black_plus_sign,,,null,,object_11c.png,object_06c.png,,,,,,,,,,,,,,,,,
null,,black_cross(without_color)6,2745620,,,,blue,,,null,,object_11c.png,object_06c.png,,,,,,,,,,,,,,,,,
null,,rt_plussign_withcolor6,2746122,,,,blue,,,null,,object_11c.png,object_06c.png,,,,,,,,,,,,,,,,,
1333.4000000059605,,rt_thecrossant_black6,2747361,,,,black_plus_sign,,,49,,,,1,,,,,,,1,,,,,,,,,
null,,color_black6,2747464,,,,black_plus_sign,,,null,,,,,,,,,,,,,,,,,,,,
null,,learn_phase(without_color)6,2750967,,,,black_plus_sign,,,null,,object_12c.png,object_03a.png,,,,,,,,,,,,,,,,,
null,,black_cross(without_color)6,2751468,,,,blue,,,null,,object_12c.png,object_03a.png,,,,,,,,,,,,,,,,,
null,,rt_plussign_withcolor6,2751970,,,,blue,,,null,,object_12c.png,object_03a.png,,,,,,,,,,,,,,,,,
1207.800000011921,,rt_thecrossant_black6,2753473,,,,black_plus_sign,,,49,,,,1,,,,,,,1,,,,,,,,,
null,,color_black6,2753576,,,,black_plus_sign,,,null,,,,,,,,,,,,,,,,,,,,
null,,learn_phase(without_color)6,2757079,,,,black_plus_sign,,,null,,object_01c.png,object_08c.png,,,,,,,,,,,,,,,,,
null,,black_cross(without_color)6,2757953,,,,green,,,null,,object_01c.png,object_08c.png,,,,,,,,,,,,,,,,,
null,,rt_plussign_withcolor6,2758456,,,,green,,,null,,object_01c.png,object_08c.png,,,,,,,,,,,,,,,,,
964.4000000059605,,rt_thecrossant_black6,2759587,,,,black_plus_sign,,,50,,,,1,,,,,,,1,,,,,,,,,
null,,color_black6,2759689,,,,black_plus_sign,,,null,,,,,,,,,,,,,,,,,,,,
null,,learn_phase(without_color)6,2763193,,,,black_plus_sign,,,null,,object_04a.png,object_12b.png,,,,,,,,,,,,,,,,,
null,,black_cross(without_color)6,2763819,,,,green,,,null,,object_04a.png,object_12b.png,,,,,,,,,,,,,,,,,
null,,rt_plussign_withcolor6,2764320,,,,green,,,null,,object_04a.png,object_12b.png,,,,,,,,,,,,,,,,,
1382.2000000178814,,rt_thecrossant_black6,2765697,,,,black_plus_sign,,,50,,,,1,,,,,,,1,,,,,,,,,
null,,color_black6,2765799,,,,black_plus_sign,,,null,,,,,,,,,,,,,,,,,,,,
null,,learn_phase(without_color)6,2769303,,,,black_plus_sign,,,null,,object_14b.png,object_12a.png,,,,,,,,,,,,,,,,,
null,,black_cross(without_color)6,2770049,,,,green,,,null,,object_14b.png,object_12a.png,,,,,,,,,,,,,,,,,
null,,rt_plussign_withcolor6,2770552,,,,green,,,null,,object_14b.png,object_12a.png,,,,,,,,,,,,,,,,,
1133.7999999821186,,rt_thecrossant_black6,2771810,,,,black_plus_sign,,,50,,,,1,,,,,,,1,,,,,,,,,
null,,color_black6,2771913,,,,black_plus_sign,,,null,,,,,,,,,,,,,,,,,,,,
null,,learn_phase(without_color)6,2775417,,,,black_plus_sign,,,null,,object_06a.png,object_07b.png,,,,,,,,,,,,,,,,,
null,,black_cross(without_color)6,2775893,,,,blue,,,null,,object_06a.png,object_07b.png,,,,,,,,,,,,,,,,,
null,,rt_plussign_withcolor6,2776394,,,,blue,,,null,,object_06a.png,object_07b.png,,,,,,,,,,,,,,,,,
1325.9000000059605,,rt_thecrossant_black6,2777923,,,,black_plus_sign,,,49,,,,1,,,,,,,1,,,,,,,,,
null,,color_black6,2778034,,,,black_plus_sign,,,null,,,,,,,,,,,,,,,,,,,,
null,,learn_phase(without_color)6,2781537,,,,black_plus_sign,,,null,,object_04c.png,object_09c.png,,,,,,,,,,,,,,,,,
null,,black_cross(without_color)6,2782451,,,,green,,,null,,object_04c.png,object_09c.png,,,,,,,,,,,,,,,,,
null,,rt_plussign_withcolor6,2782953,,,,green,,,null,,object_04c.png,object_09c.png,,,,,,,,,,,,,,,,,
1025.199999988079,,rt_thecrossant_black6,2784044,,,,black_plus_sign,,,50,,,,1,,,,,,,1,,,,,,,,,
null,,color_black6,2784148,,,,black_plus_sign,,,null,,,,,,,,,,,,,,,,,,,,
null,,learn_phase(without_color)6,2787651,,,,black_plus_sign,,,null,,object_01b.png,object_01a.png,,,,,,,,,,,,,,,,,
null,,black_cross(without_color)6,2788649,,,,green,,,null,,object_01b.png,object_01a.png,,,,,,,,,,,,,,,,,
null,,rt_plussign_withcolor6,2789151,,,,green,,,null,,object_01b.png,object_01a.png,,,,,,,,,,,,,,,,,
1659.5999999940395,,rt_thecrossant_black6,2790159,,,,black_plus_sign,,,50,,,,1,,,,,,,1,,,,,,,,,
null,,color_black6,2790261,,,,black_plus_sign,,,null,,,,,,,,,,,,,,,,,,,,
null,,learn_phase(without_color)6,2793764,,,,black_plus_sign,,,null,,object_13a.png,object_10b.png,,,,,,,,,,,,,,,,,
null,,black_cross(without_color)6,2794871,,,,blue,,,null,,object_13a.png,object_10b.png,,,,,,,,,,,,,,,,,
null,,rt_plussign_withcolor6,2795373,,,,blue,,,null,,object_13a.png,object_10b.png,,,,,,,,,,,,,,,,,
1417.5,,rt_thecrossant_black6,2796280,,,,black_plus_sign,,,49,,,,1,,,,,,,1,,,,,,,,,
null,,color_black6,2796382,,,,black_plus_sign,,,null,,,,,,,,,,,,,,,,,,,,
null,,learn_phase(without_color)6,2799886,,,,black_plus_sign,,,null,,object_07a.png,object_02b.png,,,,,,,,,,,,,,,,,
null,,black_cross(without_color)6,2800397,,,,green,,,null,,object_07a.png,object_02b.png,,,,,,,,,,,,,,,,,
null,,rt_plussign_withcolor6,2800899,,,,green,,,null,,object_07a.png,object_02b.png,,,,,,,,,,,,,,,,,
1982.4000000059605,,rt_thecrossant_black6,2802393,,,,black_plus_sign,,,50,,,,1,,,,,,,1,,,,,,,,,
null,,color_black6,2802495,,,,black_plus_sign,,,null,,,,,,,,,,,,,,,,,,,,
null,,thebreak,2802599,,,,<p></p>,,,null,,,,,,,,,,,,,,,,,,,,
23673,,intro_0,2826273,,,,instruct,,,32,,,,,,,,,,,,,,,,,,,,
4920.300000011921,,directmemory_phase6,2831196,,,,object_06a.png,,,49,,,,1,,object_07b.png,object_08c.png,object_14a.png,object_07b.png,,0.7368421052631579,1,,,,,,,,
5326.4000000059605,,directmemory_phase6,2836525,,,,object_14a.png,,,49,,,,1,,object_02a.png,object_02c.png,object_02b.png,object_02a.png,,0.7402597402597403,1,,,,,,,,
4164.5,,directmemory_phase6,2840693,,,,object_05c.png,,,51,,,,1,,object_04a.png,object_04c.png,object_13c.png,object_13c.png,,0.7435897435897436,1,,,,,,,,
6783,,directmemory_phase6,2847478,,,,object_14b.png,,,51,,,,1,,object_09c.png,object_04c.png,object_12a.png,object_12a.png,,0.7468354430379747,1,,,,,,,,
2707.699999988079,,directmemory_phase6,2850188,,,,object_04c.png,,,49,,,,1,,object_09c.png,object_01b.png,object_14b.png,object_09c.png,,0.75,1,,,,,,,,
3223.600000023842,,directmemory_phase6,2853415,,,,object_12c.png,,,49,,,,1,,object_03a.png,object_09c.png,object_07b.png,object_03a.png,,0.7530864197530864,1,,,,,,,,
5164.699999988079,,directmemory_phase6,2858581,,,,object_08a.png,,,50,,,,1,,object_14b.png,object_11a.png,object_01c.png,object_11a.png,,0.7560975609756098,1,,,,,,,,
6016.5999999940395,,directmemory_phase6,2864601,,,,object_13a.png,,,51,,,,1,,object_04a.png,object_04c.png,object_10b.png,object_10b.png,,0.7590361445783133,1,,,,,,,,
null,,directmemory_phase6,2879604,,,,object_09b.png,,,null,,,,0,,object_02c.png,object_12c.png,object_04a.png,object_02c.png,,0.75,0,,,,,,,,
null,,warning_page,2884620,,,,warning,,,null,,,,,,,,,,,,,,,,,,,,
2864.4000000059605,,directmemory_phase6,2887504,,,,object_08c.png,,,50,,,,1,,object_13a.png,object_01c.png,object_07c.png,object_01c.png,,0.7529411764705882,1,,,,,,,,
5805.5,,directmemory_phase6,2893315,,,,object_11b.png,,,50,,,,1,,object_04c.png,object_07c.png,object_10b.png,object_07c.png,,0.7558139534883721,1,,,,,,,,
4609,,directmemory_phase6,2897927,,,,object_07a.png,,,49,,,,1,,object_02b.png,object_10b.png,object_02c.png,object_02b.png,,0.7586206896551724,1,,,,,,,,
3266.800000011921,,directmemory_phase6,2901196,,,,object_01b.png,,,49,,,,1,,object_01a.png,object_07a.png,object_09c.png,object_01a.png,,0.7613636363636364,1,,,,,,,,
4120,,directmemory_phase6,2905319,,,,object_04a.png,,,50,,,,1,,object_11a.png,object_12b.png,object_02c.png,object_12b.png,,0.7640449438202247,1,,,,,,,,
2113.5,,directmemory_phase6,2907434,,,,object_11c.png,,,50,,,,1,,object_07a.png,object_06c.png,object_04a.png,object_06c.png,,0.7666666666666667,1,,,,,,,,
null,,thebreak,2907537,,,,<p></p>,,,null,,,,,,,,,,,,,,,,,,,,
10205.299999982119,,intro_0,2917745,,,,instruct,,,32,,,,,,,,,,,,,,,,,,,,
null,,learn_phase(without_color)7,2921247,,,,black_plus_sign,,,null,,object_04a.png,object_12b.png,,,,,,,,,,,,,,,,,
null,,black_cross(without_color)7,2922329,,,,green,,,null,,object_04a.png,object_12b.png,,,,,,,,,,,,,,,,,
null,,rt_plussign_withcolor7,2922831,,,,green,,,null,,object_04a.png,object_12b.png,,,,,,,,,,,,,,,,,
2043.9000000059605,,rt_thecrossant_black7,2923754,,,,black_plus_sign,,,50,,,,1,,,,,,,1,,,,,,,,,
null,,color_black7,2923858,,,,black_plus_sign,,,null,,,,,,,,,,,,,,,,,,,,
null,,learn_phase(without_color)7,2927361,,,,black_plus_sign,,,null,,object_07b.png,object_06a.png,,,,,,,,,,,,,,,,,
null,,black_cross(without_color)7,2927858,,,,blue,,,null,,object_07b.png,object_06a.png,,,,,,,,,,,,,,,,,
null,,rt_plussign_withcolor7,2928360,,,,blue,,,null,,object_07b.png,object_06a.png,,,,,,,,,,,,,,,,,
1381.699999988079,,rt_thecrossant_black7,2929868,,,,black_plus_sign,,,49,,,,1,,,,,,,1,,,,,,,,,
null,,color_black7,2929970,,,,black_plus_sign,,,null,,,,,,,,,,,,,,,,,,,,
null,,learn_phase(without_color)7,2933473,,,,black_plus_sign,,,null,,object_12a.png,object_14b.png,,,,,,,,,,,,,,,,,
null,,black_cross(without_color)7,2934203,,,,green,,,null,,object_12a.png,object_14b.png,,,,,,,,,,,,,,,,,
null,,rt_plussign_withcolor7,2934706,,,,green,,,null,,object_12a.png,object_14b.png,,,,,,,,,,,,,,,,,
696.0999999940395,,rt_thecrossant_black7,2935982,,,,black_plus_sign,,,50,,,,1,,,,,,,1,,,,,,,,,
null,,color_black7,2936085,,,,black_plus_sign,,,null,,,,,,,,,,,,,,,,,,,,
null,,learn_phase(without_color)7,2939591,,,,black_plus_sign,,,null,,object_07c.png,object_11b.png,,,,,,,,,,,,,,,,,
null,,black_cross(without_color)7,2940187,,,,green,,,null,,object_07c.png,object_11b.png,,,,,,,,,,,,,,,,,
null,,rt_plussign_withcolor7,2940689,,,,green,,,null,,object_07c.png,object_11b.png,,,,,,,,,,,,,,,,,
973.4000000059605,,rt_thecrossant_black7,2942100,,,,black_plus_sign,,,50,,,,1,,,,,,,1,,,,,,,,,
null,,color_black7,2942203,,,,black_plus_sign,,,null,,,,,,,,,,,,,,,,,,,,
null,,learn_phase(without_color)7,2945713,,,,black_plus_sign,,,null,,object_12c.png,object_03a.png,,,,,,,,,,,,,,,,,
null,,black_cross(without_color)7,2946698,,,,blue,,,null,,object_12c.png,object_03a.png,,,,,,,,,,,,,,,,,
null,,rt_plussign_withcolor7,2947201,,,,blue,,,null,,object_12c.png,object_03a.png,,,,,,,,,,,,,,,,,
941.7999999821186,,rt_thecrossant_black7,2948227,,,,black_plus_sign,,,49,,,,1,,,,,,,1,,,,,,,,,
null,,color_black7,2948330,,,,black_plus_sign,,,null,,,,,,,,,,,,,,,,,,,,
null,,learn_phase(without_color)7,2951833,,,,black_plus_sign,,,null,,object_07a.png,object_02b.png,,,,,,,,,,,,,,,,,
null,,black_cross(without_color)7,2952243,,,,green,,,null,,object_07a.png,object_02b.png,,,,,,,,,,,,,,,,,
null,,rt_plussign_withcolor7,2952746,,,,green,,,null,,object_07a.png,object_02b.png,,,,,,,,,,,,,,,,,
1354.699999988079,,rt_thecrossant_black7,2954341,,,,black_plus_sign,,,50,,,,1,,,,,,,1,,,,,,,,,
null,,color_black7,2954444,,,,black_plus_sign,,,null,,,,,,,,,,,,,,,,,,,,
null,,learn_phase(without_color)7,2957955,,,,black_plus_sign,,,null,,object_08a.png,object_11a.png,,,,,,,,,,,,,,,,,
null,,black_cross(without_color)7,2958712,,,,blue,,,null,,object_08a.png,object_11a.png,,,,,,,,,,,,,,,,,
null,,rt_plussign_withcolor7,2959219,,,,blue,,,null,,object_08a.png,object_11a.png,,,,,,,,,,,,,,,,,
528.4000000059605,,rt_thecrossant_black7,2960468,,,,black_plus_sign,,,49,,,,1,,,,,,,1,,,,,,,,,
null,,color_black7,2960571,,,,black_plus_sign,,,null,,,,,,,,,,,,,,,,,,,,
null,,learn_phase(without_color)7,2964075,,,,black_plus_sign,,,null,,object_09b.png,object_02c.png,,,,,,,,,,,,,,,,,
null,,black_cross(without_color)7,2964487,,,,blue,,,null,,object_09b.png,object_02c.png,,,,,,,,,,,,,,,,,
null,,rt_plussign_withcolor7,2964989,,,,blue,,,null,,object_09b.png,object_02c.png,,,,,,,,,,,,,,,,,
1038.9000000059605,,rt_thecrossant_black7,2966583,,,,black_plus_sign,,,49,,,,1,,,,,,,1,,,,,,,,,
null,,color_black7,2966693,,,,black_plus_sign,,,null,,,,,,,,,,,,,,,,,,,,
null,,learn_phase(without_color)7,2970195,,,,black_plus_sign,,,null,,object_09c.png,object_04c.png,,,,,,,,,,,,,,,,,
null,,black_cross(without_color)7,2971099,,,,blue,,,null,,object_09c.png,object_04c.png,,,,,,,,,,,,,,,,,
null,,rt_plussign_withcolor7,2971602,,,,blue,,,null,,object_09c.png,object_04c.png,,,,,,,,,,,,,,,,,
550.7999999821186,,rt_thecrossant_black7,2972702,,,,black_plus_sign,,,49,,,,1,,,,,,,1,,,,,,,,,
null,,color_black7,2972805,,,,black_plus_sign,,,null,,,,,,,,,,,,,,,,,,,,
null,,learn_phase(without_color)7,2976309,,,,black_plus_sign,,,null,,object_13a.png,object_10b.png,,,,,,,,,,,,,,,,,
null,,black_cross(without_color)7,2976796,,,,green,,,null,,object_13a.png,object_10b.png,,,,,,,,,,,,,,,,,
null,,rt_plussign_withcolor7,2977298,,,,green,,,null,,object_13a.png,object_10b.png,,,,,,,,,,,,,,,,,
1564.699999988079,,rt_thecrossant_black7,2978817,,,,black_plus_sign,,,50,,,,1,,,,,,,1,,,,,,,,,
null,,color_black7,2978921,,,,black_plus_sign,,,null,,,,,,,,,,,,,,,,,,,,
null,,learn_phase(without_color)7,2982424,,,,black_plus_sign,,,null,,object_06c.png,object_11c.png,,,,,,,,,,,,,,,,,
null,,black_cross(without_color)7,2982908,,,,green,,,null,,object_06c.png,object_11c.png,,,,,,,,,,,,,,,,,
null,,rt_plussign_withcolor7,2983410,,,,green,,,null,,object_06c.png,object_11c.png,,,,,,,,,,,,,,,,,
831.7000000178814,,rt_thecrossant_black7,2984930,,,,black_plus_sign,,,50,,,,1,,,,,,,1,,,,,,,,,
null,,color_black7,2985033,,,,black_plus_sign,,,null,,,,,,,,,,,,,,,,,,,,
null,,learn_phase(without_color)7,2988537,,,,black_plus_sign,,,null,,object_14a.png,object_02a.png,,,,,,,,,,,,,,,,,
null,,black_cross(without_color)7,2989206,,,,blue,,,null,,object_14a.png,object_02a.png,,,,,,,,,,,,,,,,,
null,,rt_plussign_withcolor7,2989709,,,,blue,,,null,,object_14a.png,object_02a.png,,,,,,,,,,,,,,,,,
697.2000000178814,,rt_thecrossant_black7,2991045,,,,black_plus_sign,,,49,,,,1,,,,,,,1,,,,,,,,,
null,,color_black7,2991147,,,,black_plus_sign,,,null,,,,,,,,,,,,,,,,,,,,
null,,learn_phase(without_color)7,2994652,,,,black_plus_sign,,,null,,object_13c.png,object_05c.png,,,,,,,,,,,,,,,,,
null,,black_cross(without_color)7,2995722,,,,green,,,null,,object_13c.png,object_05c.png,,,,,,,,,,,,,,,,,
null,,rt_plussign_withcolor7,2996224,,,,green,,,null,,object_13c.png,object_05c.png,,,,,,,,,,,,,,,,,
1046.199999988079,,rt_thecrossant_black7,2997160,,,,black_plus_sign,,,50,,,,1,,,,,,,1,,,,,,,,,
null,,color_black7,2997262,,,,black_plus_sign,,,null,,,,,,,,,,,,,,,,,,,,
null,,learn_phase(without_color)7,3000765,,,,black_plus_sign,,,null,,object_08c.png,object_01c.png,,,,,,,,,,,,,,,,,
null,,black_cross(without_color)7,3001796,,,,green,,,null,,object_08c.png,object_01c.png,,,,,,,,,,,,,,,,,
null,,rt_plussign_withcolor7,3002299,,,,green,,,null,,object_08c.png,object_01c.png,,,,,,,,,,,,,,,,,
1388.5999999940395,,rt_thecrossant_black7,3003274,,,,black_plus_sign,,,50,,,,1,,,,,,,1,,,,,,,,,
null,,color_black7,3003380,,,,black_plus_sign,,,null,,,,,,,,,,,,,,,,,,,,
null,,learn_phase(without_color)7,3006884,,,,black_plus_sign,,,null,,object_01a.png,object_01b.png,,,,,,,,,,,,,,,,,
null,,black_cross(without_color)7,3007946,,,,blue,,,null,,object_01a.png,object_01b.png,,,,,,,,,,,,,,,,,
null,,rt_plussign_withcolor7,3008449,,,,blue,,,null,,object_01a.png,object_01b.png,,,,,,,,,,,,,,,,,
1184.0999999940395,,rt_thecrossant_black7,3009418,,,,black_plus_sign,,,49,,,,1,,,,,,,1,,,,,,,,,
null,,color_black7,3009521,,,,black_plus_sign,,,null,,,,,,,,,,,,,,,,,,,,
null,,thebreak,3009624,,,,<p></p>,,,null,,,,,,,,,,,,,,,,,,,,
7107.5999999940395,,intro_0,3016733,,,,instruct,,,32,,,,,,,,,,,,,,,,,,,,
8640,,directmemory_phase7,3025375,,,,object_09b.png,,,49,,,,0,,object_02a.png,object_01b.png,object_02c.png,object_02c.png,,0.7582417582417582,0,,,,,,,,
3346.4000000059605,,directmemory_phase7,3028724,,,,object_11c.png,,,51,,,,1,,object_10b.png,object_05c.png,object_06c.png,object_06c.png,,0.7608695652173914,1,,,,,,,,
4020.800000011921,,directmemory_phase7,3032749,,,,object_13c.png,,,51,,,,1,,object_12b.png,object_06a.png,object_05c.png,object_05c.png,,0.7634408602150538,1,,,,,,,,
4500.5999999940395,,directmemory_phase7,3037252,,,,object_12b.png,,,51,,,,1,,object_03a.png,object_07b.png,object_04a.png,object_04a.png,,0.7659574468085106,1,,,,,,,,
2375.699999988079,,directmemory_phase7,3039631,,,,object_07b.png,,,49,,,,1,,object_06a.png,object_07c.png,object_08c.png,object_06a.png,,0.7684210526315789,1,,,,,,,,
3013.699999988079,,directmemory_phase7,3042647,,,,object_07c.png,,,49,,,,1,,object_11b.png,object_07a.png,object_04a.png,object_11b.png,,0.7708333333333334,1,,,,,,,,
7813.0999999940395,,directmemory_phase7,3050464,,,,object_08a.png,,,49,,,,1,,object_11a.png,object_07c.png,object_02c.png,object_11a.png,,0.7731958762886598,1,,,,,,,,
3935.699999988079,,directmemory_phase7,3054402,,,,object_01b.png,,,51,,,,1,,object_08a.png,object_13c.png,object_01a.png,object_01a.png,,0.7755102040816326,1,,,,,,,,
2486,,directmemory_phase7,3056891,,,,object_14b.png,,,51,,,,1,,object_06a.png,object_12c.png,object_12a.png,object_12a.png,,0.7777777777777778,1,,,,,,,,
2083.199999988079,,directmemory_phase7,3058977,,,,object_07a.png,,,51,,,,1,,object_11a.png,object_02c.png,object_02b.png,object_02b.png,,0.78,1,,,,,,,,
2826.300000011921,,directmemory_phase7,3061806,,,,object_10b.png,,,49,,,,1,,object_13a.png,object_08c.png,object_06a.png,object_13a.png,,0.7821782178217822,1,,,,,,,,
5223.399999976158,,directmemory_phase7,3067033,,,,object_12c.png,,,50,,,,1,,object_14b.png,object_03a.png,object_01c.png,object_03a.png,,0.7843137254901961,1,,,,,,,,
2089.0999999940395,,directmemory_phase7,3069125,,,,object_04c.png,,,51,,,,1,,object_14a.png,object_07b.png,object_09c.png,object_09c.png,,0.7864077669902912,1,,,,,,,,
3735.4000000059605,,directmemory_phase7,3072863,,,,object_08c.png,,,51,,,,1,,object_14a.png,object_07a.png,object_01c.png,object_01c.png,,0.7884615384615384,1,,,,,,,,
11594.799999982119,,directmemory_phase7,3084461,,,,object_02a.png,,,50,,,,1,,object_04c.png,object_14a.png,object_01c.png,object_14a.png,,0.7904761904761904,1,,,,,,,,
null,,thebreak,3084564,,,,<p></p>,,,null,,,,,,,,,,,,,,,,,,,,
24281.40000000596,,intro_0,3108847,,,,instruct,,,32,,,,,,,,,,,,,,,,,,,,
null,,learn_phase(without_color)8,3112349,,,,black_plus_sign,,,null,,object_11c.png,object_06c.png,,,,,,,,,,,,,,,,,
null,,black_cross(without_color)8,3112853,,,,blue,,,null,,object_11c.png,object_06c.png,,,,,,,,,,,,,,,,,
null,,rt_plussign_withcolor8,3113355,,,,blue,,,null,,object_11c.png,object_06c.png,,,,,,,,,,,,,,,,,
1088.300000011921,,rt_thecrossant_black8,3114858,,,,black_plus_sign,,,49,,,,1,,,,,,,1,,,,,,,,,
null,,color_black8,3114963,,,,black_plus_sign,,,null,,,,,,,,,,,,,,,,,,,,
null,,learn_phase(without_color)8,3118468,,,,black_plus_sign,,,null,,object_01b.png,object_01a.png,,,,,,,,,,,,,,,,,
null,,black_cross(without_color)8,3119077,,,,blue,,,null,,object_01b.png,object_01a.png,,,,,,,,,,,,,,,,,
null,,rt_plussign_withcolor8,3119581,,,,blue,,,null,,object_01b.png,object_01a.png,,,,,,,,,,,,,,,,,
1707.9000000059605,,rt_thecrossant_black8,3120976,,,,black_plus_sign,,,49,,,,1,,,,,,,1,,,,,,,,,
null,,color_black8,3121078,,,,black_plus_sign,,,null,,,,,,,,,,,,,,,,,,,,
null,,learn_phase(without_color)8,3124582,,,,black_plus_sign,,,null,,object_09c.png,object_04c.png,,,,,,,,,,,,,,,,,
null,,black_cross(without_color)8,3125605,,,,blue,,,null,,object_09c.png,object_04c.png,,,,,,,,,,,,,,,,,
null,,rt_plussign_withcolor8,3126125,,,,blue,,,null,,object_09c.png,object_04c.png,,,,,,,,,,,,,,,,,
973.1000000238419,,rt_thecrossant_black8,3127114,,,,black_plus_sign,,,49,,,,1,,,,,,,1,,,,,,,,,
null,,color_black8,3127217,,,,black_plus_sign,,,null,,,,,,,,,,,,,,,,,,,,
null,,learn_phase(without_color)8,3130721,,,,black_plus_sign,,,null,,object_11b.png,object_07c.png,,,,,,,,,,,,,,,,,
null,,black_cross(without_color)8,3131632,,,,green,,,null,,object_11b.png,object_07c.png,,,,,,,,,,,,,,,,,
null,,rt_plussign_withcolor8,3132134,,,,green,,,null,,object_11b.png,object_07c.png,,,,,,,,,,,,,,,,,
1352.800000011921,,rt_thecrossant_black8,3133234,,,,black_plus_sign,,,50,,,,1,,,,,,,1,,,,,,,,,
null,,color_black8,3133345,,,,black_plus_sign,,,null,,,,,,,,,,,,,,,,,,,,
null,,learn_phase(without_color)8,3136849,,,,black_plus_sign,,,null,,object_13a.png,object_10b.png,,,,,,,,,,,,,,,,,
null,,black_cross(without_color)8,3137636,,,,blue,,,null,,object_13a.png,object_10b.png,,,,,,,,,,,,,,,,,
null,,rt_plussign_withcolor8,3138139,,,,blue,,,null,,object_13a.png,object_10b.png,,,,,,,,,,,,,,,,,
1702.800000011921,,rt_thecrossant_black8,3139358,,,,black_plus_sign,,,49,,,,1,,,,,,,1,,,,,,,,,
null,,color_black8,3139461,,,,black_plus_sign,,,null,,,,,,,,,,,,,,,,,,,,
null,,learn_phase(without_color)8,3142964,,,,black_plus_sign,,,null,,object_08c.png,object_01c.png,,,,,,,,,,,,,,,,,
null,,black_cross(without_color)8,3143462,,,,blue,,,null,,object_08c.png,object_01c.png,,,,,,,,,,,,,,,,,
null,,rt_plussign_withcolor8,3143965,,,,blue,,,null,,object_08c.png,object_01c.png,,,,,,,,,,,,,,,,,
949.5999999940395,,rt_thecrossant_black8,3145474,,,,black_plus_sign,,,49,,,,1,,,,,,,1,,,,,,,,,
null,,color_black8,3145576,,,,black_plus_sign,,,null,,,,,,,,,,,,,,,,,,,,
null,,learn_phase(without_color)8,3149080,,,,black_plus_sign,,,null,,object_02c.png,object_09b.png,,,,,,,,,,,,,,,,,
null,,black_cross(without_color)8,3149610,,,,blue,,,null,,object_02c.png,object_09b.png,,,,,,,,,,,,,,,,,
null,,rt_plussign_withcolor8,3150113,,,,blue,,,null,,object_02c.png,object_09b.png,,,,,,,,,,,,,,,,,
682,,rt_thecrossant_black8,3151588,,,,black_plus_sign,,,49,,,,1,,,,,,,1,,,,,,,,,
null,,color_black8,3151691,,,,black_plus_sign,,,null,,,,,,,,,,,,,,,,,,,,
null,,learn_phase(without_color)8,3155194,,,,black_plus_sign,,,null,,object_07a.png,object_02b.png,,,,,,,,,,,,,,,,,
null,,black_cross(without_color)8,3156093,,,,green,,,null,,object_07a.png,object_02b.png,,,,,,,,,,,,,,,,,
null,,rt_plussign_withcolor8,3156594,,,,green,,,null,,object_07a.png,object_02b.png,,,,,,,,,,,,,,,,,
737.1000000238419,,rt_thecrossant_black8,3157706,,,,black_plus_sign,,,50,,,,1,,,,,,,1,,,,,,,,,
null,,color_black8,3157808,,,,black_plus_sign,,,null,,,,,,,,,,,,,,,,,,,,
null,,learn_phase(without_color)8,3161311,,,,black_plus_sign,,,null,,object_12c.png,object_03a.png,,,,,,,,,,,,,,,,,
null,,black_cross(without_color)8,3161720,,,,blue,,,null,,object_12c.png,object_03a.png,,,,,,,,,,,,,,,,,
null,,rt_plussign_withcolor8,3162222,,,,blue,,,null,,object_12c.png,object_03a.png,,,,,,,,,,,,,,,,,
1082,,rt_thecrossant_black8,3163817,,,,black_plus_sign,,,49,,,,1,,,,,,,1,,,,,,,,,
null,,color_black8,3163920,,,,black_plus_sign,,,null,,,,,,,,,,,,,,,,,,,,
null,,learn_phase(without_color)8,3167424,,,,black_plus_sign,,,null,,object_06a.png,object_07b.png,,,,,,,,,,,,,,,,,
null,,black_cross(without_color)8,3168010,,,,green,,,null,,object_06a.png,object_07b.png,,,,,,,,,,,,,,,,,
null,,rt_plussign_withcolor8,3168512,,,,green,,,null,,object_06a.png,object_07b.png,,,,,,,,,,,,,,,,,
1398.3999999761581,,rt_thecrossant_black8,3169951,,,,black_plus_sign,,,50,,,,1,,,,,,,1,,,,,,,,,
null,,color_black8,3170054,,,,black_plus_sign,,,null,,,,,,,,,,,,,,,,,,,,
null,,learn_phase(without_color)8,3173557,,,,black_plus_sign,,,null,,object_12a.png,object_14b.png,,,,,,,,,,,,,,,,,
null,,black_cross(without_color)8,3174626,,,,green,,,null,,object_12a.png,object_14b.png,,,,,,,,,,,,,,,,,
null,,rt_plussign_withcolor8,3175137,,,,green,,,null,,object_12a.png,object_14b.png,,,,,,,,,,,,,,,,,
835.5999999940395,,rt_thecrossant_black8,3176073,,,,black_plus_sign,,,50,,,,1,,,,,,,1,,,,,,,,,
null,,color_black8,3176176,,,,black_plus_sign,,,null,,,,,,,,,,,,,,,,,,,,
null,,learn_phase(without_color)8,3179679,,,,black_plus_sign,,,null,,object_08a.png,object_11a.png,,,,,,,,,,,,,,,,,
null,,black_cross(without_color)8,3180387,,,,green,,,null,,object_08a.png,object_11a.png,,,,,,,,,,,,,,,,,
null,,rt_plussign_withcolor8,3180890,,,,green,,,null,,object_08a.png,object_11a.png,,,,,,,,,,,,,,,,,
1464.9000000059605,,rt_thecrossant_black8,3182188,,,,black_plus_sign,,,50,,,,1,,,,,,,1,,,,,,,,,
null,,color_black8,3182290,,,,black_plus_sign,,,null,,,,,,,,,,,,,,,,,,,,
null,,learn_phase(without_color)8,3185793,,,,black_plus_sign,,,null,,object_12b.png,object_04a.png,,,,,,,,,,,,,,,,,
null,,black_cross(without_color)8,3186802,,,,blue,,,null,,object_12b.png,object_04a.png,,,,,,,,,,,,,,,,,
null,,rt_plussign_withcolor8,3187304,,,,blue,,,null,,object_12b.png,object_04a.png,,,,,,,,,,,,,,,,,
869.3999999761581,,rt_thecrossant_black8,3188301,,,,black_plus_sign,,,49,,,,1,,,,,,,1,,,,,,,,,
null,,color_black8,3188403,,,,black_plus_sign,,,null,,,,,,,,,,,,,,,,,,,,
null,,learn_phase(without_color)8,3191906,,,,black_plus_sign,,,null,,object_05c.png,object_13c.png,,,,,,,,,,,,,,,,,
null,,black_cross(without_color)8,3192452,,,,blue,,,null,,object_05c.png,object_13c.png,,,,,,,,,,,,,,,,,
null,,rt_plussign_withcolor8,3192954,,,,blue,,,null,,object_05c.png,object_13c.png,,,,,,,,,,,,,,,,,
1222.4000000059605,,rt_thecrossant_black8,3194413,,,,black_plus_sign,,,49,,,,1,,,,,,,1,,,,,,,,,
null,,color_black8,3194516,,,,black_plus_sign,,,null,,,,,,,,,,,,,,,,,,,,
null,,learn_phase(without_color)8,3198021,,,,black_plus_sign,,,null,,object_14a.png,object_02a.png,,,,,,,,,,,,,,,,,
null,,black_cross(without_color)8,3198562,,,,green,,,null,,object_14a.png,object_02a.png,,,,,,,,,,,,,,,,,
null,,rt_plussign_withcolor8,3199064,,,,green,,,null,,object_14a.png,object_02a.png,,,,,,,,,,,,,,,,,
1650.9000000059605,,rt_thecrossant_black8,3200529,,,,black_plus_sign,,,50,,,,1,,,,,,,1,,,,,,,,,
null,,color_black8,3200631,,,,black_plus_sign,,,null,,,,,,,,,,,,,,,,,,,,
null,,thebreak,3200735,,,,<p></p>,,,null,,,,,,,,,,,,,,,,,,,,
34958.90000000596,,intro_0,3235696,,,,instruct,,,32,,,,,,,,,,,,,,,,,,,,
8654.299999982119,,directmemory_phase8,3244351,,,,object_09b.png,,,49,,,,0,,object_03a.png,object_02c.png,object_04c.png,object_02c.png,,0.7830188679245284,0,,,,,,,,
4965.800000011921,,directmemory_phase8,3249320,,,,object_13c.png,,,51,,,,0,,object_07c.png,object_05c.png,object_07b.png,object_05c.png,,0.7757009345794392,0,,,,,,,,
5443.299999982119,,directmemory_phase8,3254767,,,,object_07c.png,,,49,,,,0,,object_10b.png,object_11b.png,object_07b.png,object_11b.png,,0.7685185185185185,0,,,,,,,,
6391.600000023842,,directmemory_phase8,3261162,,,,object_14a.png,,,51,,,,0,,object_02a.png,object_05c.png,object_06a.png,object_02a.png,,0.7614678899082569,0,,,,,,,,
3586.800000011921,,directmemory_phase8,3264751,,,,object_07b.png,,,51,,,,0,,object_06a.png,object_10b.png,object_08c.png,object_06a.png,,0.7545454545454545,0,,,,,,,,
6130.199999988079,,directmemory_phase8,3270884,,,,object_07a.png,,,50,,,,1,,object_01a.png,object_02b.png,object_12a.png,object_02b.png,,0.7567567567567568,1,,,,,,,,
11697.5,,directmemory_phase8,3282585,,,,object_01c.png,,,49,,,,1,,object_08c.png,object_12c.png,object_06a.png,object_08c.png,,0.7589285714285714,1,,,,,,,,
2703.800000011921,,directmemory_phase8,3285292,,,,object_12c.png,,,50,,,,1,,object_14b.png,object_03a.png,object_10b.png,object_03a.png,,0.7610619469026548,1,,,,,,,,
3936.5999999940395,,directmemory_phase8,3289232,,,,object_10b.png,,,50,,,,1,,object_01c.png,object_13a.png,object_02a.png,object_13a.png,,0.7631578947368421,1,,,,,,,,
5687.5999999940395,,directmemory_phase8,3294922,,,,object_09c.png,,,50,,,,1,,object_01c.png,object_04c.png,object_02a.png,object_04c.png,,0.7652173913043478,1,,,,,,,,
2626.699999988079,,directmemory_phase8,3297552,,,,object_01a.png,,,51,,,,1,,object_06a.png,object_12b.png,object_01b.png,object_01b.png,,0.7672413793103449,1,,,,,,,,
8164.9000000059605,,directmemory_phase8,3305719,,,,object_11a.png,,,50,,,,1,,object_14a.png,object_08a.png,object_01a.png,object_08a.png,,0.7692307692307693,1,,,,,,,,
1888.5,,directmemory_phase8,3307611,,,,object_04a.png,,,51,,,,1,,object_07a.png,object_01c.png,object_12b.png,object_12b.png,,0.7711864406779662,1,,,,,,,,
6149,,directmemory_phase8,3313762,,,,object_12a.png,,,51,,,,1,,object_12b.png,object_09b.png,object_14b.png,object_14b.png,,0.773109243697479,1,,,,,,,,
4025.9000000059605,,directmemory_phase8,3317791,,,,object_11c.png,,,49,,,,1,,object_06c.png,object_01c.png,object_07b.png,object_06c.png,,0.775,1,,,,,,,,
null,,thebreak,3317894,,,,<p></p>,,,null,,,,,,,,,,,,,,,,,,,,
10653,,intro_0,3328551,,,,instruct,,,32,,,,,,,,,,,,,,,,,,,,
77353.30000001192,,intro_1,3405906,,,,instruct,,,32,,,,,,,,,,,,,,,,,,,,
17721.29999998212,,intro_2,3423629,,,,instruct,,,32,,,,,,,,,,,,,,,,,,,,
