rt,responses,trial_type,time_elapsed,identifier_a,identifier_b,identifier_c,stimulus,button_pressed,response,key_press,stimulus_left,stimulus_right,practice_cumulative_accuracy,accuracy,stimulus_down_left,stimulus_down_mid,stimulus_down_right,stimulus_correct,prac_weighted_accuracy,cumulative_accuracy,failed_practice,weighted_accuracy,stimulus_middle,problems,smooth,distraction,strategies,easier,similar,comments,detectfocus,breakfocus,completion_code
7624.600000023842,{worker_id:5f489766dbc4a2364c0f4f93},id_enter,7627,object_15c.png; object_13b.png; object_02c.png; object_09c.png; object_01a.png; object_04a.png; object_11c.png; object_09a.png; object_12b.png; object_12a.png; object_14b.png; object_05c.png; object_05b.png; object_06c.png; object_13c.png,object_05a.png; object_09b.png; object_07b.png; object_14a.png; object_01b.png; object_08a.png; object_06b.png; object_01c.png; object_03c.png; object_11b.png; object_14c.png; object_04b.png; object_13a.png; object_02b.png; object_08b.png,object_08c.png; object_02a.png; object_12c.png; object_15a.png; object_06a.png; object_07a.png; object_03b.png; object_10b.png; object_03a.png; object_10a.png; object_07c.png; object_10c.png; object_15b.png; object_11a.png; object_04c.png,,,,,,,,,,,,,,,,,,,,,,,,,,,
19418.200000047684,,make_fullscreen,27047,,,,fullscreen,0,,,,,,,,,,,,,,,,,,,,,,,,,
6327.600000023842,,instruct_1,33377,,,,instruct,0,Next,,,,,,,,,,,,,,,,,,,,,,,,
31660.399999976158,,instruct_2,65039,,,,instruct,1,Next,,,,,,,,,,,,,,,,,,,,,,,,
6439.5,,instruct_3,71479,,,,instruct,1,Next,,,,,,,,,,,,,,,,,,,,,,,,
19296.900000095367,,instruct_4,90777,,,,instruct,1,Next,,,,,,,,,,,,,,,,,,,,,,,,
12768.100000023842,,instruct_5,103546,,,,instruct,1,Next,,,,,,,,,,,,,,,,,,,,,,,,
4843.700000047684,,instruct_6,108390,,,,instruct,1,Next,,,,,,,,,,,,,,,,,,,,,,,,
18315,,instruct_7,126706,,,,instruct,1,Next,,,,,,,,,,,,,,,,,,,,,,,,
null,,prac_atten_color_black,127081,,,,black_plus_sign,,,null,,,,,,,,,,,,,,,,,,,,,,,
724,,prac_atten_color,128113,,,,<p style='position:absolute;top: 50%;right: 50%;transform: translate(50%, -50%);font-size: 125px;color: blue;'>+</p>,,,49,,,,,,,,,,,,,,,,,,,,,,,
1276.2999999523163,,prac_atten_color_black,130115,,,,black_plus_sign,,,50,,,,,,,,,,,,,,,,,,,,,,,
null,,prac_atten_color_black,130489,,,,black_plus_sign,,,null,,,,,,,,,,,,,,,,,,,,,,,
null,,prac_atten_color,131571,,,,<p style='position:absolute;top: 50%;right: 50%;transform: translate(50%, -50%);font-size: 125px;color: green;'>+</p>,,,null,,,,,,,,,,,,,,,,,,,,,,,
1657.7999999523163,,prac_atten_color_black,133573,,,,black_plus_sign,,,50,,,,,,,,,,,,,,,,,,,,,,,
null,,prac_atten_color_black,133908,,,,black_plus_sign,,,null,,,,,,,,,,,,,,,,,,,,,,,
null,,prac_atten_color,134876,,,,<p style='position:absolute;top: 50%;right: 50%;transform: translate(50%, -50%);font-size: 125px;color: green;'>+</p>,,,null,,,,,,,,,,,,,,,,,,,,,,,
929.1999999284744,,prac_atten_color_black,136878,,,,black_plus_sign,,,50,,,,,,,,,,,,,,,,,,,,,,,
null,,prac_atten_color_black,137315,,,,black_plus_sign,,,null,,,,,,,,,,,,,,,,,,,,,,,
null,,prac_atten_color,137992,,,,<p style='position:absolute;top: 50%;right: 50%;transform: translate(50%, -50%);font-size: 125px;color: blue;'>+</p>,,,null,,,,,,,,,,,,,,,,,,,,,,,
615,,prac_atten_color_black,139995,,,,black_plus_sign,,,49,,,,,,,,,,,,,,,,,,,,,,,
null,,prac_atten_color_black,140721,,,,black_plus_sign,,,null,,,,,,,,,,,,,,,,,,,,,,,
null,,prac_atten_color,141162,,,,<p style='position:absolute;top: 50%;right: 50%;transform: translate(50%, -50%);font-size: 125px;color: green;'>+</p>,,,null,,,,,,,,,,,,,,,,,,,,,,,
null,,prac_atten_color_black,143164,,,,black_plus_sign,,,null,,,,,,,,,,,,,,,,,,,,,,,
8384.100000023842,,attentioncheck_help,151550,,,,instruct,,,32,,,,,,,,,,,,,,,,,,,,,,,
null,,prac_atten_color_black,152514,,,,black_plus_sign,,,null,,,,,,,,,,,,,,,,,,,,,,,
null,,prac_atten_color,153332,,,,<p style='position:absolute;top: 50%;right: 50%;transform: translate(50%, -50%);font-size: 125px;color: green;'>+</p>,,,null,,,,,,,,,,,,,,,,,,,,,,,
1200.6000000238419,,prac_atten_color_black,155334,,,,black_plus_sign,,,50,,,,,,,,,,,,,,,,,,,,,,,
null,,prac_atten_color_black,155919,,,,black_plus_sign,,,null,,,,,,,,,,,,,,,,,,,,,,,
null,,prac_atten_color,156415,,,,<p style='position:absolute;top: 50%;right: 50%;transform: translate(50%, -50%);font-size: 125px;color: blue;'>+</p>,,,null,,,,,,,,,,,,,,,,,,,,,,,
223.39999997615814,,prac_atten_color_black,158416,,,,black_plus_sign,,,49,,,,,,,,,,,,,,,,,,,,,,,
null,,prac_atten_color_black,159325,,,,black_plus_sign,,,null,,,,,,,,,,,,,,,,,,,,,,,
null,,prac_atten_color,159760,,,,<p style='position:absolute;top: 50%;right: 50%;transform: translate(50%, -50%);font-size: 125px;color: green;'>+</p>,,,null,,,,,,,,,,,,,,,,,,,,,,,
229.30000007152557,,prac_atten_color_black,161761,,,,black_plus_sign,,,50,,,,,,,,,,,,,,,,,,,,,,,
null,,prac_atten_color_black,162731,,,,black_plus_sign,,,null,,,,,,,,,,,,,,,,,,,,,,,
525.2000000476837,,prac_atten_color,163458,,,,<p style='position:absolute;top: 50%;right: 50%;transform: translate(50%, -50%);font-size: 125px;color: blue;'>+</p>,,,49,,,,,,,,,,,,,,,,,,,,,,,
null,,prac_atten_color_black,165461,,,,black_plus_sign,,,null,,,,,,,,,,,,,,,,,,,,,,,
null,,prac_atten_color_black,166139,,,,black_plus_sign,,,null,,,,,,,,,,,,,,,,,,,,,,,
841.3999999761581,,prac_atten_color,167135,,,,<p style='position:absolute;top: 50%;right: 50%;transform: translate(50%, -50%);font-size: 125px;color: blue;'>+</p>,,,49,,,,,,,,,,,,,,,,,,,,,,,
null,,prac_atten_color_black,169137,,,,black_plus_sign,,,null,,,,,,,,,,,,,,,,,,,,,,,
9768.5,,attentioncheck_feedback,178908,,,,cross_check_feedback,0,,,,,,,,,,,,,,,,,,,,,,,,,
7849.900000095367,,last_instruct,186758,,,,instruct,,,32,,,,,,,,,,,,,,,,,,,,,,,
null,,prac_learn_phase(without_color),190259,,,,black_plus_sign,,,null,object_05b.png,object_13a.png,,,,,,,,,,,,,,,,,,,,,
null,,prac_black_cross(without_color),191056,,,,green,,,null,object_05b.png,object_13a.png,,,,,,,,,,,,,,,,,,,,,
null,,prac_rt_plussign_withcolor,191558,,,,green,,,null,object_05b.png,object_13a.png,,,,,,,,,,,,,,,,,,,,,
null,,prac_rt_thecrossant_black,192767,,,,black_plus_sign,,,null,,,NaN,,,,,,,,,,,,,,,,,,,,
null,,prac_color_black,192868,,,,black_plus_sign,,,null,,,,,,,,,,,,,,,,,,,,,,,
null,,prac_learn_phase(without_color),196371,,,,black_plus_sign,,,null,object_09a.png,object_01c.png,,,,,,,,,,,,,,,,,,,,,
null,,black_cross(without_color)1,197461,,,,blue,,,null,object_05b.png,object_13a.png,,,,,,,,,,,,,,,,,,,,,
null,,prac_rt_plussign_withcolor,197964,,,,blue,,,null,object_09a.png,object_01c.png,,,,,,,,,,,,,,,,,,,,,
null,,prac_rt_thecrossant_black,199215,,,,black_plus_sign,,,null,,,NaN,,,,,,,,,,,,,,,,,,,,
null,,warning_page,204217,,,,warning,,,null,,,,,,,,,,,,,,,,,,,,,,,
null,,prac_color_black,204319,,,,black_plus_sign,,,null,,,,,,,,,,,,,,,,,,,,,,,
null,,prac_learn_phase(without_color),207820,,,,black_plus_sign,,,null,object_09b.png,object_13b.png,,,,,,,,,,,,,,,,,,,,,
null,,black_cross(without_color)1,208910,,,,blue,,,null,object_05b.png,object_13a.png,,,,,,,,,,,,,,,,,,,,,
224.39999997615814,,prac_rt_plussign_withcolor,209412,,,,green,,,50,object_09b.png,object_13b.png,,,,,,,,,,,,,,,,,,,,,
null,,prac_rt_thecrossant_black,210379,,,,black_plus_sign,,,null,,,1,1,,,,,,,,,,,,,,,,,,,
null,,prac_color_black,210481,,,,black_plus_sign,,,null,,,,,,,,,,,,,,,,,,,,,,,
null,,prac_learn_phase(without_color),213984,,,,black_plus_sign,,,null,object_01b.png,object_01a.png,,,,,,,,,,,,,,,,,,,,,
null,,black_cross(without_color)1,215075,,,,blue,,,null,object_05b.png,object_13a.png,,,,,,,,,,,,,,,,,,,,,
null,,prac_rt_plussign_withcolor,215576,,,,green,,,null,object_01b.png,object_01a.png,,,,,,,,,,,,,,,,,,,,,
1378.3999999761581,,prac_rt_thecrossant_black,216867,,,,black_plus_sign,,,50,,,1,1,,,,,,,,,,,,,,,,,,,
null,,prac_color_black,216970,,,,black_plus_sign,,,null,,,,,,,,,,,,,,,,,,,,,,,
7248.5,,instruct_dir_01,224221,,,,instruct,0,Next,,,,,,,,,,,,,,,,,,,,,,,,
7143.100000023842,,instruct_dir_2,231365,,,,instruct,1,Next,,,,,,,,,,,,,,,,,,,,,,,,
6027,,instruct_dir_3,237393,,,,instruct,1,Next,,,,,,,,,,,,,,,,,,,,,,,,
5523.200000047684,,instruct_dir_4,242917,,,,instruct,1,Start,,,,,,,,,,,,,,,,,,,,,,,,
null,,thebreak,243018,,,,<p></p>,,,null,,,,,,,,,,,,,,,,,,,,,,,
2523.7999999523163,,intro_0,245543,,,,instruct,,,32,,,,,,,,,,,,,,,,,,,,,,,
4501.700000047684,,prac_directmemory_phase,250046,,,,practice/object_01a.png,,,49,,,,1,practice/object_01b.png,practice/object_02b.png,practice/object_02a.png,practice/object_01b.png,1,1,,,,,,,,,,,,,
4211.300000071526,,prac_directmemory_phase,254261,,,,practice/object_04a.png,,,51,,,,1,practice/object_02b.png,practice/object_01a.png,practice/object_04b.png,practice/object_04b.png,1,1,,,,,,,,,,,,,
6395.899999976158,,prac_directmemory_phase,260658,,,,practice/object_02a.png,,,49,,,,0,practice/object_04b.png,practice/object_04a.png,practice/object_02b.png,practice/object_02b.png,0,0.6666666666666666,,,,,,,,,,,,,
2596.399999976158,,prac_directmemory_phase,263255,,,,practice/object_03a.png,,,51,,,,0,practice/object_03b.png,practice/object_02b.png,practice/object_04a.png,practice/object_03b.png,0,0.5,,,,,,,,,,,,,
5721.800000071526,,practice_feedback_force_restart,268979,,,,practice_feedback,0,,,,,,,,,,,,,1,,,,,,,,,,,,
9812.5,,last_instruct,278792,,,,instruct,,,32,,,,,,,,,,,,,,,,,,,,,,,
null,,prac_learn_phase(without_color),282293,,,,black_plus_sign,,,null,object_05b.png,object_13a.png,,,,,,,,,,,,,,,,,,,,,
null,,prac_black_cross(without_color),283171,,,,green,,,null,object_05b.png,object_13a.png,,,,,,,,,,,,,,,,,,,,,
null,,prac_rt_plussign_withcolor,283673,,,,green,,,null,object_05b.png,object_13a.png,,,,,,,,,,,,,,,,,,,,,
null,,prac_rt_thecrossant_black,284811,,,,black_plus_sign,,,null,,,1,,,,,,,,,,,,,,,,,,,,
null,,prac_color_black,284912,,,,black_plus_sign,,,null,,,,,,,,,,,,,,,,,,,,,,,
null,,prac_learn_phase(without_color),288414,,,,black_plus_sign,,,null,object_09a.png,object_01c.png,,,,,,,,,,,,,,,,,,,,,
null,,black_cross(without_color)1,289512,,,,blue,,,null,object_05b.png,object_13a.png,,,,,,,,,,,,,,,,,,,,,
null,,prac_rt_plussign_withcolor,290013,,,,blue,,,null,object_09a.png,object_01c.png,,,,,,,,,,,,,,,,,,,,,
1125.4000000953674,,prac_rt_thecrossant_black,291184,,,,black_plus_sign,,,49,,,1,1,,,,,,,,,,,,,,,,,,,
null,,prac_color_black,291287,,,,black_plus_sign,,,null,,,,,,,,,,,,,,,,,,,,,,,
null,,prac_learn_phase(without_color),294790,,,,black_plus_sign,,,null,object_09b.png,object_13b.png,,,,,,,,,,,,,,,,,,,,,
null,,black_cross(without_color)1,295879,,,,blue,,,null,object_05b.png,object_13a.png,,,,,,,,,,,,,,,,,,,,,
null,,prac_rt_plussign_withcolor,296381,,,,green,,,null,object_09b.png,object_13b.png,,,,,,,,,,,,,,,,,,,,,
1050.9000000953674,,prac_rt_thecrossant_black,297526,,,,black_plus_sign,,,50,,,1,1,,,,,,,,,,,,,,,,,,,
null,,prac_color_black,297628,,,,black_plus_sign,,,null,,,,,,,,,,,,,,,,,,,,,,,
null,,prac_learn_phase(without_color),301130,,,,black_plus_sign,,,null,object_01b.png,object_01a.png,,,,,,,,,,,,,,,,,,,,,
null,,black_cross(without_color)1,302219,,,,blue,,,null,object_05b.png,object_13a.png,,,,,,,,,,,,,,,,,,,,,
null,,prac_rt_plussign_withcolor,302720,,,,green,,,null,object_01b.png,object_01a.png,,,,,,,,,,,,,,,,,,,,,
1386.7000000476837,,prac_rt_thecrossant_black,303624,,,,black_plus_sign,,,50,,,1,1,,,,,,,,,,,,,,,,,,,
null,,prac_color_black,303727,,,,black_plus_sign,,,null,,,,,,,,,,,,,,,,,,,,,,,
6202.199999928474,,instruct_dir_01,309930,,,,instruct,0,Next,,,,,,,,,,,,,,,,,,,,,,,,
4556.699999928474,,instruct_dir_2,314488,,,,instruct,1,Next,,,,,,,,,,,,,,,,,,,,,,,,
2630.100000023842,,instruct_dir_3,317119,,,,instruct,1,Next,,,,,,,,,,,,,,,,,,,,,,,,
4347.799999952316,,instruct_dir_4,321467,,,,instruct,1,Start,,,,,,,,,,,,,,,,,,,,,,,,
null,,thebreak,321568,,,,<p></p>,,,null,,,,,,,,,,,,,,,,,,,,,,,
2093.899999976158,,intro_0,323662,,,,instruct,,,32,,,,,,,,,,,,,,,,,,,,,,,
2079.9000000953674,,prac_directmemory_phase,325743,,,,practice/object_01a.png,,,49,,,,1,practice/object_01b.png,practice/object_02b.png,practice/object_02a.png,practice/object_01b.png,1,1,,,,,,,,,,,,,
3494.5,,prac_directmemory_phase,329239,,,,practice/object_04a.png,,,51,,,,1,practice/object_02b.png,practice/object_01a.png,practice/object_04b.png,practice/object_04b.png,1,1,,,,,,,,,,,,,
3717.5999999046326,,prac_directmemory_phase,332959,,,,practice/object_02a.png,,,51,,,,1,practice/object_04b.png,practice/object_04a.png,practice/object_02b.png,practice/object_02b.png,1,1,,,,,,,,,,,,,
1783.9000000953674,,prac_directmemory_phase,334746,,,,practice/object_03a.png,,,49,,,,1,practice/object_03b.png,practice/object_02b.png,practice/object_04a.png,practice/object_03b.png,1,1,,,,,,,,,,,,,
4954.300000071526,,practice_feedback,339702,,,,practice_feedback,1,,,,,,,,,,,,,,,,,,,,,,,,,
10995,,proceed_actualTask,350698,,,,proceed_actualTask,1,Continue,,,,,,,,,,,,,,,,,,,,,,,,
9380,,last_inst,360078,,,,last_inst,,,32,,,,,,,,,,,,,,,,,,,,,,,
null,,learn_phase(without_color)1,363579,,,,black_plus_sign,,,null,object_05b.png,object_13a.png,,,,,,,,,,,,,,,,,,,,,
null,,black_cross(without_color)1,364670,,,,blue,,,null,object_05b.png,object_13a.png,,,,,,,,,,,,,,,,,,,,,
null,,rt_plussign_withcolor1,365171,,,,blue,,,null,object_05b.png,object_13a.png,,,,,,,,,,,,,,,,,,,,,
null,,rt_thecrossant_black1,366086,,,,black_plus_sign,,,null,,,,,,,,,,NaN,,,,,,,,,,,,,
null,,color_black1,366190,,,,black_plus_sign,,,null,,,,,,,,,,,,,,,,,,,,,,,
null,,learn_phase(without_color)1,369693,,,,black_plus_sign,,,null,object_09a.png,object_01c.png,,,,,,,,,,,,,,,,,,,,,
null,,black_cross(without_color)1,370583,,,,blue,,,null,object_09a.png,object_01c.png,,,,,,,,,,,,,,,,,,,,,
null,,rt_plussign_withcolor1,371084,,,,blue,,,null,object_09a.png,object_01c.png,,,,,,,,,,,,,,,,,,,,,
1715.5,,rt_thecrossant_black1,372198,,,,black_plus_sign,,,49,,,,1,,,,,,1,,,,,,,,,,,,,
null,,color_black1,372299,,,,black_plus_sign,,,null,,,,,,,,,,,,,,,,,,,,,,,
null,,learn_phase(without_color)1,375801,,,,black_plus_sign,,,null,object_09b.png,object_13b.png,,,,,,,,,,,,,,,,,,,,,
null,,black_cross(without_color)1,376382,,,,blue,,,null,object_09b.png,object_13b.png,,,,,,,,,,,,,,,,,,,,,
null,,rt_plussign_withcolor1,376884,,,,blue,,,null,object_09b.png,object_13b.png,,,,,,,,,,,,,,,,,,,,,
1367,,rt_thecrossant_black1,378307,,,,black_plus_sign,,,49,,,,1,,,,,,1,,,,,,,,,,,,,
null,,color_black1,378410,,,,black_plus_sign,,,null,,,,,,,,,,,,,,,,,,,,,,,
null,,learn_phase(without_color)1,381912,,,,black_plus_sign,,,null,object_01b.png,object_01a.png,,,,,,,,,,,,,,,,,,,,,
null,,black_cross(without_color)1,382958,,,,blue,,,null,object_01b.png,object_01a.png,,,,,,,,,,,,,,,,,,,,,
null,,rt_plussign_withcolor1,383460,,,,blue,,,null,object_01b.png,object_01a.png,,,,,,,,,,,,,,,,,,,,,
1022.9000000953674,,rt_thecrossant_black1,384418,,,,black_plus_sign,,,49,,,,1,,,,,,1,,,,,,,,,,,,,
null,,color_black1,384521,,,,black_plus_sign,,,null,,,,,,,,,,,,,,,,,,,,,,,
null,,learn_phase(without_color)1,388024,,,,black_plus_sign,,,null,object_13c.png,object_08b.png,,,,,,,,,,,,,,,,,,,,,
null,,black_cross(without_color)1,389075,,,,blue,,,null,object_13c.png,object_08b.png,,,,,,,,,,,,,,,,,,,,,
null,,rt_plussign_withcolor1,389576,,,,blue,,,null,object_13c.png,object_08b.png,,,,,,,,,,,,,,,,,,,,,
1372.9000000953674,,rt_thecrossant_black1,390529,,,,black_plus_sign,,,49,,,,1,,,,,,1,,,,,,,,,,,,,
null,,color_black1,390632,,,,black_plus_sign,,,null,,,,,,,,,,,,,,,,,,,,,,,
null,,learn_phase(without_color)1,394135,,,,black_plus_sign,,,null,object_11b.png,object_12a.png,,,,,,,,,,,,,,,,,,,,,
null,,black_cross(without_color)1,395035,,,,blue,,,null,object_11b.png,object_12a.png,,,,,,,,,,,,,,,,,,,,,
null,,rt_plussign_withcolor1,395537,,,,blue,,,null,object_11b.png,object_12a.png,,,,,,,,,,,,,,,,,,,,,
1242,,rt_thecrossant_black1,396642,,,,black_plus_sign,,,49,,,,1,,,,,,1,,,,,,,,,,,,,
null,,color_black1,396743,,,,black_plus_sign,,,null,,,,,,,,,,,,,,,,,,,,,,,
null,,learn_phase(without_color)1,400246,,,,black_plus_sign,,,null,object_02c.png,object_07b.png,,,,,,,,,,,,,,,,,,,,,
null,,black_cross(without_color)1,400760,,,,blue,,,null,object_02c.png,object_07b.png,,,,,,,,,,,,,,,,,,,,,
null,,rt_plussign_withcolor1,401262,,,,blue,,,null,object_02c.png,object_07b.png,,,,,,,,,,,,,,,,,,,,,
1437.5,,rt_thecrossant_black1,402753,,,,black_plus_sign,,,49,,,,1,,,,,,1,,,,,,,,,,,,,
null,,color_black1,402855,,,,black_plus_sign,,,null,,,,,,,,,,,,,,,,,,,,,,,
null,,learn_phase(without_color)1,406358,,,,black_plus_sign,,,null,object_05c.png,object_04b.png,,,,,,,,,,,,,,,,,,,,,
null,,black_cross(without_color)1,407171,,,,blue,,,null,object_05c.png,object_04b.png,,,,,,,,,,,,,,,,,,,,,
null,,rt_plussign_withcolor1,407672,,,,blue,,,null,object_05c.png,object_04b.png,,,,,,,,,,,,,,,,,,,,,
1018.5,,rt_thecrossant_black1,408865,,,,black_plus_sign,,,49,,,,1,,,,,,1,,,,,,,,,,,,,
null,,color_black1,408967,,,,black_plus_sign,,,null,,,,,,,,,,,,,,,,,,,,,,,
null,,learn_phase(without_color)1,412470,,,,black_plus_sign,,,null,object_02b.png,object_06c.png,,,,,,,,,,,,,,,,,,,,,
null,,black_cross(without_color)1,413290,,,,green,,,null,object_02b.png,object_06c.png,,,,,,,,,,,,,,,,,,,,,
null,,rt_plussign_withcolor1,413792,,,,green,,,null,object_02b.png,object_06c.png,,,,,,,,,,,,,,,,,,,,,
1315.5,,rt_thecrossant_black1,414985,,,,black_plus_sign,,,50,,,,1,,,,,,1,,,,,,,,,,,,,
null,,color_black1,415087,,,,black_plus_sign,,,null,,,,,,,,,,,,,,,,,,,,,,,
null,,learn_phase(without_color)1,418590,,,,black_plus_sign,,,null,object_14c.png,object_14b.png,,,,,,,,,,,,,,,,,,,,,
null,,black_cross(without_color)1,419135,,,,green,,,null,object_14c.png,object_14b.png,,,,,,,,,,,,,,,,,,,,,
null,,rt_plussign_withcolor1,419636,,,,green,,,null,object_14c.png,object_14b.png,,,,,,,,,,,,,,,,,,,,,
1295.3000000715256,,rt_thecrossant_black1,421097,,,,black_plus_sign,,,50,,,,1,,,,,,1,,,,,,,,,,,,,
null,,color_black1,421207,,,,black_plus_sign,,,null,,,,,,,,,,,,,,,,,,,,,,,
null,,learn_phase(without_color)1,424710,,,,black_plus_sign,,,null,object_04a.png,object_08a.png,,,,,,,,,,,,,,,,,,,,,
null,,black_cross(without_color)1,425672,,,,green,,,null,object_04a.png,object_08a.png,,,,,,,,,,,,,,,,,,,,,
null,,rt_plussign_withcolor1,426174,,,,green,,,null,object_04a.png,object_08a.png,,,,,,,,,,,,,,,,,,,,,
817.7999999523163,,rt_thecrossant_black1,427215,,,,black_plus_sign,,,50,,,,1,,,,,,1,,,,,,,,,,,,,
null,,color_black1,427317,,,,black_plus_sign,,,null,,,,,,,,,,,,,,,,,,,,,,,
null,,learn_phase(without_color)1,430820,,,,black_plus_sign,,,null,object_11c.png,object_06b.png,,,,,,,,,,,,,,,,,,,,,
null,,black_cross(without_color)1,431863,,,,blue,,,null,object_11c.png,object_06b.png,,,,,,,,,,,,,,,,,,,,,
null,,rt_plussign_withcolor1,432366,,,,blue,,,null,object_11c.png,object_06b.png,,,,,,,,,,,,,,,,,,,,,
1435.5999999046326,,rt_thecrossant_black1,433327,,,,black_plus_sign,,,49,,,,1,,,,,,1,,,,,,,,,,,,,
null,,color_black1,433430,,,,black_plus_sign,,,null,,,,,,,,,,,,,,,,,,,,,,,
null,,learn_phase(without_color)1,436932,,,,black_plus_sign,,,null,object_09c.png,object_14a.png,,,,,,,,,,,,,,,,,,,,,
null,,black_cross(without_color)1,437741,,,,green,,,null,object_09c.png,object_14a.png,,,,,,,,,,,,,,,,,,,,,
null,,rt_plussign_withcolor1,438243,,,,green,,,null,object_09c.png,object_14a.png,,,,,,,,,,,,,,,,,,,,,
1375.7000000476837,,rt_thecrossant_black1,439449,,,,black_plus_sign,,,50,,,,1,,,,,,1,,,,,,,,,,,,,
null,,color_black1,439552,,,,black_plus_sign,,,null,,,,,,,,,,,,,,,,,,,,,,,
null,,learn_phase(without_color)1,443056,,,,black_plus_sign,,,null,object_03c.png,object_12b.png,,,,,,,,,,,,,,,,,,,,,
null,,black_cross(without_color)1,443885,,,,blue,,,null,object_03c.png,object_12b.png,,,,,,,,,,,,,,,,,,,,,
null,,rt_plussign_withcolor1,444386,,,,blue,,,null,object_03c.png,object_12b.png,,,,,,,,,,,,,,,,,,,,,
1116.3999999761581,,rt_thecrossant_black1,445564,,,,black_plus_sign,,,49,,,,1,,,,,,1,,,,,,,,,,,,,
null,,color_black1,445666,,,,black_plus_sign,,,null,,,,,,,,,,,,,,,,,,,,,,,
null,,learn_phase(without_color)1,449170,,,,black_plus_sign,,,null,object_15c.png,object_05a.png,,,,,,,,,,,,,,,,,,,,,
null,,black_cross(without_color)1,450085,,,,blue,,,null,object_15c.png,object_05a.png,,,,,,,,,,,,,,,,,,,,,
null,,rt_plussign_withcolor1,450587,,,,blue,,,null,object_15c.png,object_05a.png,,,,,,,,,,,,,,,,,,,,,
1848.5999999046326,,rt_thecrossant_black1,451676,,,,black_plus_sign,,,49,,,,1,,,,,,1,,,,,,,,,,,,,
null,,color_black1,451778,,,,black_plus_sign,,,null,,,,,,,,,,,,,,,,,,,,,,,
null,,thebreak,451880,,,,<p></p>,,,null,,,,,,,,,,,,,,,,,,,,,,,
1629.2000000476837,,intro_0,453510,,,,instruct,,,32,,,,,,,,,,,,,,,,,,,,,,,
3735.399999976158,,directmemory_phase1,457247,,,,object_09c.png,,,49,,,,0,object_14b.png,object_14a.png,object_06b.png,object_14a.png,,0,,0,,,,,,,,,,,
3978.5999999046326,,directmemory_phase1,461229,,,,object_01a.png,,,50,,,,1,object_09a.png,object_01b.png,object_07b.png,object_01b.png,,0.5,,1,,,,,,,,,,,
4712.800000071526,,directmemory_phase1,465943,,,,object_05c.png,,,51,,,,1,object_14c.png,object_15c.png,object_04b.png,object_04b.png,,0.6666666666666666,,1,,,,,,,,,,,
2468.600000023842,,directmemory_phase1,468414,,,,object_02c.png,,,49,,,,1,object_07b.png,object_02b.png,object_06c.png,object_07b.png,,0.75,,1,,,,,,,,,,,
380.5,,directmemory_phase1,468797,,,,object_13c.png,,,49,,,,0,object_15c.png,object_08b.png,object_02b.png,object_08b.png,,0.6,,0,,,,,,,,,,,
6080.600000023842,,directmemory_phase1,474879,,,,object_12b.png,,,49,,,,1,object_03c.png,object_06b.png,object_13b.png,object_03c.png,,0.6666666666666666,,1,,,,,,,,,,,
4174.799999952316,,directmemory_phase1,479055,,,,object_15c.png,,,49,,,,1,object_05a.png,object_06b.png,object_09a.png,object_05a.png,,0.7142857142857143,,1,,,,,,,,,,,
5156.799999952316,,directmemory_phase1,484215,,,,object_06c.png,,,49,,,,1,object_02b.png,object_14a.png,object_04a.png,object_02b.png,,0.75,,1,,,,,,,,,,,
4452.899999976158,,directmemory_phase1,488670,,,,object_04a.png,,,50,,,,0,object_08a.png,object_04b.png,object_12a.png,object_08a.png,,0.6666666666666666,,0,,,,,,,,,,,
3703.399999976158,,directmemory_phase1,492376,,,,object_09a.png,,,51,,,,1,object_08a.png,object_04a.png,object_01c.png,object_01c.png,,0.7,,1,,,,,,,,,,,
2292.899999976158,,directmemory_phase1,494669,,,,object_12a.png,,,49,,,,1,object_11b.png,object_14c.png,object_09a.png,object_11b.png,,0.7272727272727273,,1,,,,,,,,,,,
3127.3000000715256,,directmemory_phase1,497798,,,,object_05b.png,,,50,,,,1,object_01a.png,object_13a.png,object_14c.png,object_13a.png,,0.75,,1,,,,,,,,,,,
2665.600000023842,,directmemory_phase1,500464,,,,object_11c.png,,,51,,,,1,object_07b.png,object_15c.png,object_06b.png,object_06b.png,,0.7692307692307693,,1,,,,,,,,,,,
5966,,directmemory_phase1,506431,,,,object_14b.png,,,50,,,,1,object_15c.png,object_14c.png,object_01b.png,object_14c.png,,0.7857142857142857,,1,,,,,,,,,,,
2581.100000023842,,directmemory_phase1,509015,,,,object_13b.png,,,49,,,,1,object_09b.png,object_06b.png,object_12a.png,object_09b.png,,0.8,,1,,,,,,,,,,,
null,,thebreak,509118,,,,<p></p>,,,null,,,,,,,,,,,,,,,,,,,,,,,
1830.8999999761581,,intro_0,510950,,,,instruct,,,32,,,,,,,,,,,,,,,,,,,,,,,
null,,learn_phase(without_color)2,514452,,,,black_plus_sign,,,null,object_14a.png,object_09c.png,,,,,,,,,,,,,,,,,,,,,
null,,black_cross(without_color)2,515032,,,,blue,,,null,object_14a.png,object_09c.png,,,,,,,,,,,,,,,,,,,,,
null,,rt_plussign_withcolor2,515533,,,,blue,,,null,object_14a.png,object_09c.png,,,,,,,,,,,,,,,,,,,,,
null,,rt_thecrossant_black2,516958,,,,black_plus_sign,,,null,,,,,,,,,,NaN,,,,,,,,,,,,,
null,,color_black2,517060,,,,black_plus_sign,,,null,,,,,,,,,,,,,,,,,,,,,,,
null,,learn_phase(without_color)2,520563,,,,black_plus_sign,,,null,object_09a.png,object_01c.png,,,,,,,,,,,,,,,,,,,,,
null,,black_cross(without_color)2,521588,,,,blue,,,null,object_09a.png,object_01c.png,,,,,,,,,,,,,,,,,,,,,
null,,rt_plussign_withcolor2,522090,,,,blue,,,null,object_09a.png,object_01c.png,,,,,,,,,,,,,,,,,,,,,
830.1000000238419,,rt_thecrossant_black2,523069,,,,black_plus_sign,,,49,,,,1,,,,,,1,,,,,,,,,,,,,
null,,color_black2,523171,,,,black_plus_sign,,,null,,,,,,,,,,,,,,,,,,,,,,,
null,,learn_phase(without_color)2,526674,,,,black_plus_sign,,,null,object_06b.png,object_11c.png,,,,,,,,,,,,,,,,,,,,,
null,,black_cross(without_color)2,527109,,,,blue,,,null,object_06b.png,object_11c.png,,,,,,,,,,,,,,,,,,,,,
null,,rt_plussign_withcolor2,527611,,,,blue,,,null,object_06b.png,object_11c.png,,,,,,,,,,,,,,,,,,,,,
1550.7999999523163,,rt_thecrossant_black2,529179,,,,black_plus_sign,,,49,,,,1,,,,,,1,,,,,,,,,,,,,
null,,color_black2,529281,,,,black_plus_sign,,,null,,,,,,,,,,,,,,,,,,,,,,,
null,,learn_phase(without_color)2,532785,,,,black_plus_sign,,,null,object_05c.png,object_04b.png,,,,,,,,,,,,,,,,,,,,,
null,,black_cross(without_color)2,533710,,,,blue,,,null,object_05c.png,object_04b.png,,,,,,,,,,,,,,,,,,,,,
null,,rt_plussign_withcolor2,534213,,,,blue,,,null,object_05c.png,object_04b.png,,,,,,,,,,,,,,,,,,,,,
695,,rt_thecrossant_black2,535292,,,,black_plus_sign,,,49,,,,1,,,,,,1,,,,,,,,,,,,,
null,,color_black2,535395,,,,black_plus_sign,,,null,,,,,,,,,,,,,,,,,,,,,,,
null,,learn_phase(without_color)2,538898,,,,black_plus_sign,,,null,object_08a.png,object_04a.png,,,,,,,,,,,,,,,,,,,,,
null,,black_cross(without_color)2,539668,,,,green,,,null,object_08a.png,object_04a.png,,,,,,,,,,,,,,,,,,,,,
null,,rt_plussign_withcolor2,540171,,,,green,,,null,object_08a.png,object_04a.png,,,,,,,,,,,,,,,,,,,,,
1952.6000000238419,,rt_thecrossant_black2,541412,,,,black_plus_sign,,,50,,,,1,,,,,,1,,,,,,,,,,,,,
null,,color_black2,541515,,,,black_plus_sign,,,null,,,,,,,,,,,,,,,,,,,,,,,
null,,learn_phase(without_color)2,545017,,,,black_plus_sign,,,null,object_11b.png,object_12a.png,,,,,,,,,,,,,,,,,,,,,
null,,black_cross(without_color)2,545605,,,,blue,,,null,object_11b.png,object_12a.png,,,,,,,,,,,,,,,,,,,,,
null,,rt_plussign_withcolor2,546107,,,,blue,,,null,object_11b.png,object_12a.png,,,,,,,,,,,,,,,,,,,,,
1342.2000000476837,,rt_thecrossant_black2,547523,,,,black_plus_sign,,,49,,,,1,,,,,,1,,,,,,,,,,,,,
null,,color_black2,547625,,,,black_plus_sign,,,null,,,,,,,,,,,,,,,,,,,,,,,
null,,learn_phase(without_color)2,551129,,,,black_plus_sign,,,null,object_07b.png,object_02c.png,,,,,,,,,,,,,,,,,,,,,
null,,black_cross(without_color)2,552036,,,,blue,,,null,object_07b.png,object_02c.png,,,,,,,,,,,,,,,,,,,,,
null,,rt_plussign_withcolor2,552538,,,,blue,,,null,object_07b.png,object_02c.png,,,,,,,,,,,,,,,,,,,,,
1217.3999999761581,,rt_thecrossant_black2,553636,,,,black_plus_sign,,,49,,,,1,,,,,,1,,,,,,,,,,,,,
null,,color_black2,553738,,,,black_plus_sign,,,null,,,,,,,,,,,,,,,,,,,,,,,
null,,learn_phase(without_color)2,557240,,,,black_plus_sign,,,null,object_15c.png,object_05a.png,,,,,,,,,,,,,,,,,,,,,
null,,black_cross(without_color)2,558333,,,,green,,,null,object_15c.png,object_05a.png,,,,,,,,,,,,,,,,,,,,,
null,,rt_plussign_withcolor2,558834,,,,green,,,null,object_15c.png,object_05a.png,,,,,,,,,,,,,,,,,,,,,
1409.6000000238419,,rt_thecrossant_black2,559746,,,,black_plus_sign,,,50,,,,1,,,,,,1,,,,,,,,,,,,,
null,,color_black2,559847,,,,black_plus_sign,,,null,,,,,,,,,,,,,,,,,,,,,,,
null,,learn_phase(without_color)2,563349,,,,black_plus_sign,,,null,object_12b.png,object_03c.png,,,,,,,,,,,,,,,,,,,,,
null,,black_cross(without_color)2,563819,,,,blue,,,null,object_12b.png,object_03c.png,,,,,,,,,,,,,,,,,,,,,
null,,rt_plussign_withcolor2,564320,,,,blue,,,null,object_12b.png,object_03c.png,,,,,,,,,,,,,,,,,,,,,
2586.7000000476837,,rt_thecrossant_black2,565854,,,,black_plus_sign,,,49,,,,1,,,,,,1,,,,,,,,,,,,,
null,,color_black2,565956,,,,black_plus_sign,,,null,,,,,,,,,,,,,,,,,,,,,,,
null,,learn_phase(without_color)2,569459,,,,black_plus_sign,,,null,object_02b.png,object_06c.png,,,,,,,,,,,,,,,,,,,,,
null,,black_cross(without_color)2,570327,,,,blue,,,null,object_02b.png,object_06c.png,,,,,,,,,,,,,,,,,,,,,
null,,rt_plussign_withcolor2,570829,,,,blue,,,null,object_02b.png,object_06c.png,,,,,,,,,,,,,,,,,,,,,
1042,,rt_thecrossant_black2,571965,,,,black_plus_sign,,,49,,,,1,,,,,,1,,,,,,,,,,,,,
null,,color_black2,572074,,,,black_plus_sign,,,null,,,,,,,,,,,,,,,,,,,,,,,
null,,learn_phase(without_color)2,575577,,,,black_plus_sign,,,null,object_14b.png,object_14c.png,,,,,,,,,,,,,,,,,,,,,
null,,black_cross(without_color)2,576194,,,,blue,,,null,object_14b.png,object_14c.png,,,,,,,,,,,,,,,,,,,,,
null,,rt_plussign_withcolor2,576696,,,,blue,,,null,object_14b.png,object_14c.png,,,,,,,,,,,,,,,,,,,,,
1610.9000000953674,,rt_thecrossant_black2,578082,,,,black_plus_sign,,,49,,,,1,,,,,,1,,,,,,,,,,,,,
null,,color_black2,578184,,,,black_plus_sign,,,null,,,,,,,,,,,,,,,,,,,,,,,
null,,learn_phase(without_color)2,581687,,,,black_plus_sign,,,null,object_08b.png,object_13c.png,,,,,,,,,,,,,,,,,,,,,
null,,black_cross(without_color)2,582164,,,,blue,,,null,object_08b.png,object_13c.png,,,,,,,,,,,,,,,,,,,,,
null,,rt_plussign_withcolor2,582666,,,,blue,,,null,object_08b.png,object_13c.png,,,,,,,,,,,,,,,,,,,,,
1047.2000000476837,,rt_thecrossant_black2,584193,,,,black_plus_sign,,,49,,,,1,,,,,,1,,,,,,,,,,,,,
null,,color_black2,584295,,,,black_plus_sign,,,null,,,,,,,,,,,,,,,,,,,,,,,
null,,learn_phase(without_color)2,587797,,,,black_plus_sign,,,null,object_13b.png,object_09b.png,,,,,,,,,,,,,,,,,,,,,
null,,black_cross(without_color)2,588592,,,,blue,,,null,object_13b.png,object_09b.png,,,,,,,,,,,,,,,,,,,,,
null,,rt_plussign_withcolor2,589094,,,,blue,,,null,object_13b.png,object_09b.png,,,,,,,,,,,,,,,,,,,,,
846.1000000238419,,rt_thecrossant_black2,590316,,,,black_plus_sign,,,49,,,,1,,,,,,1,,,,,,,,,,,,,
null,,color_black2,590419,,,,black_plus_sign,,,null,,,,,,,,,,,,,,,,,,,,,,,
null,,learn_phase(without_color)2,593923,,,,black_plus_sign,,,null,object_01b.png,object_01a.png,,,,,,,,,,,,,,,,,,,,,
null,,black_cross(without_color)2,594534,,,,blue,,,null,object_01b.png,object_01a.png,,,,,,,,,,,,,,,,,,,,,
null,,rt_plussign_withcolor2,595036,,,,blue,,,null,object_01b.png,object_01a.png,,,,,,,,,,,,,,,,,,,,,
1048,,rt_thecrossant_black2,596430,,,,black_plus_sign,,,49,,,,1,,,,,,1,,,,,,,,,,,,,
null,,color_black2,596533,,,,black_plus_sign,,,null,,,,,,,,,,,,,,,,,,,,,,,
null,,learn_phase(without_color)2,600036,,,,black_plus_sign,,,null,object_05b.png,object_13a.png,,,,,,,,,,,,,,,,,,,,,
null,,black_cross(without_color)2,600758,,,,green,,,null,object_05b.png,object_13a.png,,,,,,,,,,,,,,,,,,,,,
null,,rt_plussign_withcolor2,601260,,,,green,,,null,object_05b.png,object_13a.png,,,,,,,,,,,,,,,,,,,,,
1413.6000000238419,,rt_thecrossant_black2,602542,,,,black_plus_sign,,,50,,,,1,,,,,,1,,,,,,,,,,,,,
null,,color_black2,602644,,,,black_plus_sign,,,null,,,,,,,,,,,,,,,,,,,,,,,
null,,thebreak,602748,,,,<p></p>,,,null,,,,,,,,,,,,,,,,,,,,,,,
2034.0999999046326,,intro_0,604782,,,,instruct,,,32,,,,,,,,,,,,,,,,,,,,,,,
7871.600000023842,,directmemory_phase2,612655,,,,object_05a.png,,,51,,,,0,object_08c.png,object_10a.png,object_14a.png,object_08c.png,,0.75,,0,,,,,,,,,,,
5260,,directmemory_phase2,617918,,,,object_15a.png,,,51,,,,0,object_14a.png,object_02b.png,object_03b.png,object_14a.png,,0.7058823529411765,,0,,,,,,,,,,,
3173.8000000715256,,directmemory_phase2,621094,,,,object_02a.png,,,49,,,,0,object_03a.png,object_09b.png,object_03c.png,object_09b.png,,0.6666666666666666,,0,,,,,,,,,,,
6678.600000023842,,directmemory_phase2,627773,,,,object_08a.png,,,49,,,,0,object_08c.png,object_14a.png,object_07a.png,object_07a.png,,0.631578947368421,,0,,,,,,,,,,,
4639.399999976158,,directmemory_phase2,632414,,,,object_01c.png,,,49,,,,0,object_01b.png,object_10b.png,object_07a.png,object_10b.png,,0.6,,0,,,,,,,,,,,
3325.100000023842,,directmemory_phase2,635742,,,,object_03b.png,,,49,,,,0,object_10a.png,object_06b.png,object_03c.png,object_06b.png,,0.5714285714285714,,0,,,,,,,,,,,
3214.100000023842,,directmemory_phase2,638957,,,,object_11a.png,,,49,,,,0,object_08c.png,object_02b.png,object_07b.png,object_02b.png,,0.5454545454545454,,0,,,,,,,,,,,
14.899999976158142,,directmemory_phase2,638973,,,,object_13a.png,,,50,,,,1,object_02b.png,object_15b.png,object_07a.png,object_15b.png,,0.5652173913043478,,1,,,,,,,,,,,
3136,,directmemory_phase2,642109,,,,object_10c.png,,,49,,,,0,object_09b.png,object_15b.png,object_04b.png,object_04b.png,,0.5416666666666666,,0,,,,,,,,,,,
2743,,directmemory_phase2,644854,,,,object_12c.png,,,49,,,,0,object_11b.png,object_10c.png,object_07b.png,object_07b.png,,0.52,,0,,,,,,,,,,,
3191.5,,directmemory_phase2,648046,,,,object_04c.png,,,49,,,,0,object_08a.png,object_08c.png,object_08b.png,object_08b.png,,0.5,,0,,,,,,,,,,,
3471.5,,directmemory_phase2,651519,,,,object_06a.png,,,51,,,,0,object_01b.png,object_09b.png,object_15a.png,object_01b.png,,0.48148148148148145,,0,,,,,,,,,,,
6300.5,,directmemory_phase2,657822,,,,object_14c.png,,,50,,,,1,object_06b.png,object_07c.png,object_08c.png,object_07c.png,,0.5,,1,,,,,,,,,,,
5047,,directmemory_phase2,662870,,,,object_11b.png,,,51,,,,0,object_14c.png,object_10a.png,object_15a.png,object_10a.png,,0.4827586206896552,,0,,,,,,,,,,,
5038.100000023842,,directmemory_phase2,667909,,,,object_03a.png,,,49,,,,0,object_15a.png,object_03c.png,object_13a.png,object_03c.png,,0.4666666666666667,,0,,,,,,,,,,,
null,,thebreak,668011,,,,<p></p>,,,null,,,,,,,,,,,,,,,,,,,,,,,
2529.899999976158,,intro_0,670542,,,,instruct,,,32,,,,,,,,,,,,,,,,,,,,,,,
null,,learn_phase(without_color)3,674043,,,,black_plus_sign,,,null,object_09a.png,object_01c.png,,,,,,,,,,,,,,,,,,,,,
null,,black_cross(without_color)3,674724,,,,blue,,,null,object_09a.png,object_01c.png,,,,,,,,,,,,,,,,,,,,,
null,,rt_plussign_withcolor3,675225,,,,blue,,,null,object_09a.png,object_01c.png,,,,,,,,,,,,,,,,,,,,,
1766.2999999523163,,rt_thecrossant_black3,676548,,,,black_plus_sign,,,49,,,,1,,,,,,1,,,,,,,,,,,,,
null,,color_black3,676651,,,,black_plus_sign,,,null,,,,,,,,,,,,,,,,,,,,,,,
null,,learn_phase(without_color)3,680153,,,,black_plus_sign,,,null,object_13b.png,object_09b.png,,,,,,,,,,,,,,,,,,,,,
null,,black_cross(without_color)3,680681,,,,blue,,,null,object_13b.png,object_09b.png,,,,,,,,,,,,,,,,,,,,,
484,,rt_plussign_withcolor3,681182,,,,blue,,,49,object_13b.png,object_09b.png,,,,,,,,,,,,,,,,,,,,,
null,,rt_thecrossant_black3,682660,,,,black_plus_sign,,,null,,,,1,,,,,,1,,,,,,,,,,,,,
null,,color_black3,682761,,,,black_plus_sign,,,null,,,,,,,,,,,,,,,,,,,,,,,
null,,learn_phase(without_color)3,686263,,,,black_plus_sign,,,null,object_14b.png,object_14c.png,,,,,,,,,,,,,,,,,,,,,
null,,black_cross(without_color)3,686703,,,,green,,,null,object_14b.png,object_14c.png,,,,,,,,,,,,,,,,,,,,,
null,,rt_plussign_withcolor3,687216,,,,green,,,null,object_14b.png,object_14c.png,,,,,,,,,,,,,,,,,,,,,
1381.7999999523163,,rt_thecrossant_black3,688781,,,,black_plus_sign,,,50,,,,1,,,,,,1,,,,,,,,,,,,,
null,,color_black3,688882,,,,black_plus_sign,,,null,,,,,,,,,,,,,,,,,,,,,,,
null,,learn_phase(without_color)3,692385,,,,black_plus_sign,,,null,object_08a.png,object_04a.png,,,,,,,,,,,,,,,,,,,,,
null,,black_cross(without_color)3,693054,,,,green,,,null,object_08a.png,object_04a.png,,,,,,,,,,,,,,,,,,,,,
null,,rt_plussign_withcolor3,693556,,,,green,,,null,object_08a.png,object_04a.png,,,,,,,,,,,,,,,,,,,,,
745.6999999284744,,rt_thecrossant_black3,694895,,,,black_plus_sign,,,50,,,,1,,,,,,1,,,,,,,,,,,,,
null,,color_black3,694998,,,,black_plus_sign,,,null,,,,,,,,,,,,,,,,,,,,,,,
null,,learn_phase(without_color)3,698500,,,,black_plus_sign,,,null,object_05c.png,object_04b.png,,,,,,,,,,,,,,,,,,,,,
null,,black_cross(without_color)3,699121,,,,green,,,null,object_05c.png,object_04b.png,,,,,,,,,,,,,,,,,,,,,
null,,rt_plussign_withcolor3,699622,,,,green,,,null,object_05c.png,object_04b.png,,,,,,,,,,,,,,,,,,,,,
1077.5,,rt_thecrossant_black3,701005,,,,black_plus_sign,,,50,,,,1,,,,,,1,,,,,,,,,,,,,
null,,color_black3,701108,,,,black_plus_sign,,,null,,,,,,,,,,,,,,,,,,,,,,,
null,,learn_phase(without_color)3,704611,,,,black_plus_sign,,,null,object_07b.png,object_02c.png,,,,,,,,,,,,,,,,,,,,,
null,,black_cross(without_color)3,705559,,,,blue,,,null,object_07b.png,object_02c.png,,,,,,,,,,,,,,,,,,,,,
null,,rt_plussign_withcolor3,706061,,,,blue,,,null,object_07b.png,object_02c.png,,,,,,,,,,,,,,,,,,,,,
813.2000000476837,,rt_thecrossant_black3,707117,,,,black_plus_sign,,,49,,,,1,,,,,,1,,,,,,,,,,,,,
null,,color_black3,707226,,,,black_plus_sign,,,null,,,,,,,,,,,,,,,,,,,,,,,
null,,learn_phase(without_color)3,710728,,,,black_plus_sign,,,null,object_11b.png,object_12a.png,,,,,,,,,,,,,,,,,,,,,
null,,black_cross(without_color)3,711255,,,,blue,,,null,object_11b.png,object_12a.png,,,,,,,,,,,,,,,,,,,,,
null,,rt_plussign_withcolor3,711757,,,,blue,,,null,object_11b.png,object_12a.png,,,,,,,,,,,,,,,,,,,,,
1591.3999999761581,,rt_thecrossant_black3,713234,,,,black_plus_sign,,,49,,,,1,,,,,,1,,,,,,,,,,,,,
null,,color_black3,713337,,,,black_plus_sign,,,null,,,,,,,,,,,,,,,,,,,,,,,
null,,learn_phase(without_color)3,716840,,,,black_plus_sign,,,null,object_13c.png,object_08b.png,,,,,,,,,,,,,,,,,,,,,
null,,black_cross(without_color)3,717315,,,,green,,,null,object_13c.png,object_08b.png,,,,,,,,,,,,,,,,,,,,,
null,,rt_plussign_withcolor3,717816,,,,green,,,null,object_13c.png,object_08b.png,,,,,,,,,,,,,,,,,,,,,
1174.1000000238419,,rt_thecrossant_black3,719347,,,,black_plus_sign,,,50,,,,1,,,,,,1,,,,,,,,,,,,,
null,,color_black3,719455,,,,black_plus_sign,,,null,,,,,,,,,,,,,,,,,,,,,,,
null,,learn_phase(without_color)3,722959,,,,black_plus_sign,,,null,object_03c.png,object_12b.png,,,,,,,,,,,,,,,,,,,,,
null,,black_cross(without_color)3,723703,,,,green,,,null,object_03c.png,object_12b.png,,,,,,,,,,,,,,,,,,,,,
null,,rt_plussign_withcolor3,724204,,,,green,,,null,object_03c.png,object_12b.png,,,,,,,,,,,,,,,,,,,,,
1147,,rt_thecrossant_black3,725465,,,,black_plus_sign,,,50,,,,1,,,,,,1,,,,,,,,,,,,,
null,,color_black3,725576,,,,black_plus_sign,,,null,,,,,,,,,,,,,,,,,,,,,,,
null,,learn_phase(without_color)3,729085,,,,black_plus_sign,,,null,object_05a.png,object_15c.png,,,,,,,,,,,,,,,,,,,,,
null,,black_cross(without_color)3,729624,,,,blue,,,null,object_05a.png,object_15c.png,,,,,,,,,,,,,,,,,,,,,
null,,rt_plussign_withcolor3,730125,,,,blue,,,null,object_05a.png,object_15c.png,,,,,,,,,,,,,,,,,,,,,
1218,,rt_thecrossant_black3,731599,,,,black_plus_sign,,,49,,,,1,,,,,,1,,,,,,,,,,,,,
null,,color_black3,731702,,,,black_plus_sign,,,null,,,,,,,,,,,,,,,,,,,,,,,
null,,learn_phase(without_color)3,735205,,,,black_plus_sign,,,null,object_02b.png,object_06c.png,,,,,,,,,,,,,,,,,,,,,
null,,black_cross(without_color)3,735845,,,,blue,,,null,object_02b.png,object_06c.png,,,,,,,,,,,,,,,,,,,,,
null,,rt_plussign_withcolor3,736347,,,,blue,,,null,object_02b.png,object_06c.png,,,,,,,,,,,,,,,,,,,,,
1126.3999999761581,,rt_thecrossant_black3,737717,,,,black_plus_sign,,,49,,,,1,,,,,,1,,,,,,,,,,,,,
null,,color_black3,737821,,,,black_plus_sign,,,null,,,,,,,,,,,,,,,,,,,,,,,
null,,learn_phase(without_color)3,741323,,,,black_plus_sign,,,null,object_05b.png,object_13a.png,,,,,,,,,,,,,,,,,,,,,
null,,black_cross(without_color)3,742283,,,,blue,,,null,object_05b.png,object_13a.png,,,,,,,,,,,,,,,,,,,,,
null,,rt_plussign_withcolor3,742784,,,,blue,,,null,object_05b.png,object_13a.png,,,,,,,,,,,,,,,,,,,,,
1024.5,,rt_thecrossant_black3,743828,,,,black_plus_sign,,,49,,,,1,,,,,,1,,,,,,,,,,,,,
null,,color_black3,743930,,,,black_plus_sign,,,null,,,,,,,,,,,,,,,,,,,,,,,
null,,learn_phase(without_color)3,747433,,,,black_plus_sign,,,null,object_01b.png,object_01a.png,,,,,,,,,,,,,,,,,,,,,
null,,black_cross(without_color)3,747974,,,,green,,,null,object_01b.png,object_01a.png,,,,,,,,,,,,,,,,,,,,,
null,,rt_plussign_withcolor3,748475,,,,green,,,null,object_01b.png,object_01a.png,,,,,,,,,,,,,,,,,,,,,
1620.2000000476837,,rt_thecrossant_black3,749943,,,,black_plus_sign,,,50,,,,1,,,,,,1,,,,,,,,,,,,,
null,,color_black3,750045,,,,black_plus_sign,,,null,,,,,,,,,,,,,,,,,,,,,,,
null,,learn_phase(without_color)3,753549,,,,black_plus_sign,,,null,object_09c.png,object_14a.png,,,,,,,,,,,,,,,,,,,,,
null,,black_cross(without_color)3,754351,,,,blue,,,null,object_09c.png,object_14a.png,,,,,,,,,,,,,,,,,,,,,
null,,rt_plussign_withcolor3,754853,,,,blue,,,null,object_09c.png,object_14a.png,,,,,,,,,,,,,,,,,,,,,
1037.7000000476837,,rt_thecrossant_black3,756055,,,,black_plus_sign,,,49,,,,1,,,,,,1,,,,,,,,,,,,,
null,,color_black3,756158,,,,black_plus_sign,,,null,,,,,,,,,,,,,,,,,,,,,,,
null,,learn_phase(without_color)3,759661,,,,black_plus_sign,,,null,object_06b.png,object_11c.png,,,,,,,,,,,,,,,,,,,,,
null,,black_cross(without_color)3,760556,,,,green,,,null,object_06b.png,object_11c.png,,,,,,,,,,,,,,,,,,,,,
null,,rt_plussign_withcolor3,761057,,,,green,,,null,object_06b.png,object_11c.png,,,,,,,,,,,,,,,,,,,,,
1302.6000000238419,,rt_thecrossant_black3,762168,,,,black_plus_sign,,,50,,,,1,,,,,,1,,,,,,,,,,,,,
null,,color_black3,762271,,,,black_plus_sign,,,null,,,,,,,,,,,,,,,,,,,,,,,
null,,thebreak,762374,,,,<p></p>,,,null,,,,,,,,,,,,,,,,,,,,,,,
1703.5,,intro_0,764079,,,,instruct,,,32,,,,,,,,,,,,,,,,,,,,,,,
4085.9000000953674,,directmemory_phase3,768165,,,,object_09c.png,,,51,,,,1,object_11b.png,object_02c.png,object_14a.png,object_14a.png,,0.4838709677419355,,1,,,,,,,,,,,
4078.7000000476837,,directmemory_phase3,772245,,,,object_12b.png,,,51,,,,1,object_04b.png,object_05c.png,object_03c.png,object_03c.png,,0.5,,1,,,,,,,,,,,
2663.6999999284744,,directmemory_phase3,774910,,,,object_09a.png,,,50,,,,1,object_05c.png,object_01c.png,object_03c.png,object_01c.png,,0.5151515151515151,,1,,,,,,,,,,,
2412.2999999523163,,directmemory_phase3,777325,,,,object_01a.png,,,51,,,,1,object_01c.png,object_11c.png,object_01b.png,object_01b.png,,0.5294117647058824,,1,,,,,,,,,,,
2582.7000000476837,,directmemory_phase3,779909,,,,object_14b.png,,,49,,,,1,object_14c.png,object_13a.png,object_11c.png,object_14c.png,,0.5428571428571428,,1,,,,,,,,,,,
3120.600000023842,,directmemory_phase3,783031,,,,object_15c.png,,,49,,,,1,object_05a.png,object_11b.png,object_12a.png,object_05a.png,,0.5555555555555556,,1,,,,,,,,,,,
3997.5,,directmemory_phase3,787030,,,,object_04a.png,,,49,,,,1,object_08a.png,object_11b.png,object_12a.png,object_08a.png,,0.5675675675675675,,1,,,,,,,,,,,
1879.6999999284744,,directmemory_phase3,788911,,,,object_05b.png,,,49,,,,1,object_13a.png,object_14c.png,object_11c.png,object_13a.png,,0.5789473684210527,,1,,,,,,,,,,,
2022.0999999046326,,directmemory_phase3,790934,,,,object_11c.png,,,50,,,,1,object_12b.png,object_06b.png,object_11b.png,object_06b.png,,0.5897435897435898,,1,,,,,,,,,,,
1797.2999999523163,,directmemory_phase3,792734,,,,object_13b.png,,,49,,,,1,object_09b.png,object_03c.png,object_12b.png,object_09b.png,,0.6,,1,,,,,,,,,,,
2989,,directmemory_phase3,795726,,,,object_13c.png,,,49,,,,1,object_08b.png,object_04b.png,object_06c.png,object_08b.png,,0.6097560975609756,,1,,,,,,,,,,,
2436.8000000715256,,directmemory_phase3,798165,,,,object_05c.png,,,51,,,,1,object_07b.png,object_14b.png,object_04b.png,object_04b.png,,0.6190476190476191,,1,,,,,,,,,,,
3487.2000000476837,,directmemory_phase3,801654,,,,object_12a.png,,,50,,,,1,object_14b.png,object_11b.png,object_07b.png,object_11b.png,,0.627906976744186,,1,,,,,,,,,,,
1989.7000000476837,,directmemory_phase3,803646,,,,object_02c.png,,,51,,,,1,object_13a.png,object_13b.png,object_07b.png,object_07b.png,,0.6363636363636364,,1,,,,,,,,,,,
2917.5,,directmemory_phase3,806567,,,,object_06c.png,,,49,,,,1,object_02b.png,object_05a.png,object_04a.png,object_02b.png,,0.6444444444444445,,1,,,,,,,,,,,
null,,thebreak,806671,,,,<p></p>,,,null,,,,,,,,,,,,,,,,,,,,,,,
2038.1000000238419,,intro_0,808710,,,,instruct,,,32,,,,,,,,,,,,,,,,,,,,,,,
null,,learn_phase(without_color)4,812212,,,,black_plus_sign,,,null,object_14b.png,object_14c.png,,,,,,,,,,,,,,,,,,,,,
null,,black_cross(without_color)4,812934,,,,blue,,,null,object_14b.png,object_14c.png,,,,,,,,,,,,,,,,,,,,,
null,,rt_plussign_withcolor4,813436,,,,blue,,,null,object_14b.png,object_14c.png,,,,,,,,,,,,,,,,,,,,,
1290.6000000238419,,rt_thecrossant_black4,814725,,,,black_plus_sign,,,49,,,,1,,,,,,1,,,,,,,,,,,,,
null,,color_black4,814828,,,,black_plus_sign,,,null,,,,,,,,,,,,,,,,,,,,,,,
null,,learn_phase(without_color)4,818330,,,,black_plus_sign,,,null,object_01b.png,object_01a.png,,,,,,,,,,,,,,,,,,,,,
null,,black_cross(without_color)4,819335,,,,blue,,,null,object_01b.png,object_01a.png,,,,,,,,,,,,,,,,,,,,,
null,,rt_plussign_withcolor4,819836,,,,blue,,,null,object_01b.png,object_01a.png,,,,,,,,,,,,,,,,,,,,,
1427.3000000715256,,rt_thecrossant_black4,820835,,,,black_plus_sign,,,49,,,,1,,,,,,1,,,,,,,,,,,,,
null,,color_black4,820937,,,,black_plus_sign,,,null,,,,,,,,,,,,,,,,,,,,,,,
null,,learn_phase(without_color)4,824439,,,,black_plus_sign,,,null,object_09b.png,object_13b.png,,,,,,,,,,,,,,,,,,,,,
null,,black_cross(without_color)4,825224,,,,blue,,,null,object_09b.png,object_13b.png,,,,,,,,,,,,,,,,,,,,,
null,,rt_plussign_withcolor4,825725,,,,blue,,,null,object_09b.png,object_13b.png,,,,,,,,,,,,,,,,,,,,,
1446.7999999523163,,rt_thecrossant_black4,826945,,,,black_plus_sign,,,49,,,,1,,,,,,1,,,,,,,,,,,,,
null,,color_black4,827046,,,,black_plus_sign,,,null,,,,,,,,,,,,,,,,,,,,,,,
null,,learn_phase(without_color)4,830548,,,,black_plus_sign,,,null,object_05a.png,object_15c.png,,,,,,,,,,,,,,,,,,,,,
null,,black_cross(without_color)4,831282,,,,green,,,null,object_05a.png,object_15c.png,,,,,,,,,,,,,,,,,,,,,
null,,rt_plussign_withcolor4,831784,,,,green,,,null,object_05a.png,object_15c.png,,,,,,,,,,,,,,,,,,,,,
1309.7000000476837,,rt_thecrossant_black4,833054,,,,black_plus_sign,,,50,,,,1,,,,,,1,,,,,,,,,,,,,
null,,color_black4,833157,,,,black_plus_sign,,,null,,,,,,,,,,,,,,,,,,,,,,,
null,,learn_phase(without_color)4,836659,,,,black_plus_sign,,,null,object_14a.png,object_09c.png,,,,,,,,,,,,,,,,,,,,,
null,,black_cross(without_color)4,837647,,,,green,,,null,object_14a.png,object_09c.png,,,,,,,,,,,,,,,,,,,,,
null,,rt_plussign_withcolor4,838148,,,,green,,,null,object_14a.png,object_09c.png,,,,,,,,,,,,,,,,,,,,,
1239.8000000715256,,rt_thecrossant_black4,839166,,,,black_plus_sign,,,50,,,,1,,,,,,1,,,,,,,,,,,,,
null,,color_black4,839273,,,,black_plus_sign,,,null,,,,,,,,,,,,,,,,,,,,,,,
null,,learn_phase(without_color)4,842777,,,,black_plus_sign,,,null,object_01c.png,object_09a.png,,,,,,,,,,,,,,,,,,,,,
null,,black_cross(without_color)4,843660,,,,green,,,null,object_01c.png,object_09a.png,,,,,,,,,,,,,,,,,,,,,
null,,rt_plussign_withcolor4,844161,,,,green,,,null,object_01c.png,object_09a.png,,,,,,,,,,,,,,,,,,,,,
1303.8999999761581,,rt_thecrossant_black4,845282,,,,black_plus_sign,,,50,,,,1,,,,,,1,,,,,,,,,,,,,
null,,color_black4,845384,,,,black_plus_sign,,,null,,,,,,,,,,,,,,,,,,,,,,,
null,,learn_phase(without_color)4,848887,,,,black_plus_sign,,,null,object_06b.png,object_11c.png,,,,,,,,,,,,,,,,,,,,,
null,,black_cross(without_color)4,849841,,,,green,,,null,object_06b.png,object_11c.png,,,,,,,,,,,,,,,,,,,,,
null,,rt_plussign_withcolor4,850342,,,,green,,,null,object_06b.png,object_11c.png,,,,,,,,,,,,,,,,,,,,,
1482.2000000476837,,rt_thecrossant_black4,851392,,,,black_plus_sign,,,50,,,,1,,,,,,1,,,,,,,,,,,,,
null,,color_black4,851495,,,,black_plus_sign,,,null,,,,,,,,,,,,,,,,,,,,,,,
null,,learn_phase(without_color)4,854998,,,,black_plus_sign,,,null,object_07b.png,object_02c.png,,,,,,,,,,,,,,,,,,,,,
null,,black_cross(without_color)4,855751,,,,green,,,null,object_07b.png,object_02c.png,,,,,,,,,,,,,,,,,,,,,
null,,rt_plussign_withcolor4,856253,,,,green,,,null,object_07b.png,object_02c.png,,,,,,,,,,,,,,,,,,,,,
1700.6000000238419,,rt_thecrossant_black4,857505,,,,black_plus_sign,,,50,,,,1,,,,,,1,,,,,,,,,,,,,
null,,color_black4,857608,,,,black_plus_sign,,,null,,,,,,,,,,,,,,,,,,,,,,,
null,,learn_phase(without_color)4,861111,,,,black_plus_sign,,,null,object_12b.png,object_03c.png,,,,,,,,,,,,,,,,,,,,,
null,,black_cross(without_color)4,861757,,,,green,,,null,object_12b.png,object_03c.png,,,,,,,,,,,,,,,,,,,,,
null,,rt_plussign_withcolor4,862259,,,,green,,,null,object_12b.png,object_03c.png,,,,,,,,,,,,,,,,,,,,,
1396.1000000238419,,rt_thecrossant_black4,863618,,,,black_plus_sign,,,50,,,,1,,,,,,1,,,,,,,,,,,,,
null,,color_black4,863720,,,,black_plus_sign,,,null,,,,,,,,,,,,,,,,,,,,,,,
null,,learn_phase(without_color)4,867225,,,,black_plus_sign,,,null,object_04b.png,object_05c.png,,,,,,,,,,,,,,,,,,,,,
null,,black_cross(without_color)4,868241,,,,green,,,null,object_04b.png,object_05c.png,,,,,,,,,,,,,,,,,,,,,
null,,rt_plussign_withcolor4,868743,,,,green,,,null,object_04b.png,object_05c.png,,,,,,,,,,,,,,,,,,,,,
980,,rt_thecrossant_black4,869741,,,,black_plus_sign,,,50,,,,1,,,,,,1,,,,,,,,,,,,,
null,,color_black4,869843,,,,black_plus_sign,,,null,,,,,,,,,,,,,,,,,,,,,,,
null,,learn_phase(without_color)4,873346,,,,black_plus_sign,,,null,object_08a.png,object_04a.png,,,,,,,,,,,,,,,,,,,,,
null,,black_cross(without_color)4,873967,,,,green,,,null,object_08a.png,object_04a.png,,,,,,,,,,,,,,,,,,,,,
null,,rt_plussign_withcolor4,874471,,,,green,,,null,object_08a.png,object_04a.png,,,,,,,,,,,,,,,,,,,,,
1687.2000000476837,,rt_thecrossant_black4,875854,,,,black_plus_sign,,,50,,,,1,,,,,,1,,,,,,,,,,,,,
null,,color_black4,875956,,,,black_plus_sign,,,null,,,,,,,,,,,,,,,,,,,,,,,
null,,learn_phase(without_color)4,879459,,,,black_plus_sign,,,null,object_13c.png,object_08b.png,,,,,,,,,,,,,,,,,,,,,
null,,black_cross(without_color)4,879939,,,,green,,,null,object_13c.png,object_08b.png,,,,,,,,,,,,,,,,,,,,,
null,,rt_plussign_withcolor4,880441,,,,green,,,null,object_13c.png,object_08b.png,,,,,,,,,,,,,,,,,,,,,
1354.1000000238419,,rt_thecrossant_black4,881980,,,,black_plus_sign,,,50,,,,1,,,,,,1,,,,,,,,,,,,,
null,,color_black4,882082,,,,black_plus_sign,,,null,,,,,,,,,,,,,,,,,,,,,,,
null,,learn_phase(without_color)4,885585,,,,black_plus_sign,,,null,object_06c.png,object_02b.png,,,,,,,,,,,,,,,,,,,,,
null,,black_cross(without_color)4,886008,,,,blue,,,null,object_06c.png,object_02b.png,,,,,,,,,,,,,,,,,,,,,
null,,rt_plussign_withcolor4,886510,,,,blue,,,null,object_06c.png,object_02b.png,,,,,,,,,,,,,,,,,,,,,
1063.6999999284744,,rt_thecrossant_black4,888093,,,,black_plus_sign,,,49,,,,1,,,,,,1,,,,,,,,,,,,,
null,,color_black4,888195,,,,black_plus_sign,,,null,,,,,,,,,,,,,,,,,,,,,,,
null,,learn_phase(without_color)4,891699,,,,black_plus_sign,,,null,object_13a.png,object_05b.png,,,,,,,,,,,,,,,,,,,,,
null,,black_cross(without_color)4,892412,,,,blue,,,null,object_13a.png,object_05b.png,,,,,,,,,,,,,,,,,,,,,
null,,rt_plussign_withcolor4,892914,,,,blue,,,null,object_13a.png,object_05b.png,,,,,,,,,,,,,,,,,,,,,
762.3999999761581,,rt_thecrossant_black4,894207,,,,black_plus_sign,,,49,,,,1,,,,,,1,,,,,,,,,,,,,
null,,color_black4,894309,,,,black_plus_sign,,,null,,,,,,,,,,,,,,,,,,,,,,,
null,,learn_phase(without_color)4,897812,,,,black_plus_sign,,,null,object_11b.png,object_12a.png,,,,,,,,,,,,,,,,,,,,,
null,,black_cross(without_color)4,898722,,,,blue,,,null,object_11b.png,object_12a.png,,,,,,,,,,,,,,,,,,,,,
null,,rt_plussign_withcolor4,899224,,,,blue,,,null,object_11b.png,object_12a.png,,,,,,,,,,,,,,,,,,,,,
1111.1999999284744,,rt_thecrossant_black4,900318,,,,black_plus_sign,,,49,,,,1,,,,,,1,,,,,,,,,,,,,
null,,color_black4,900420,,,,black_plus_sign,,,null,,,,,,,,,,,,,,,,,,,,,,,
null,,thebreak,900522,,,,<p></p>,,,null,,,,,,,,,,,,,,,,,,,,,,,
2362.5,,intro_0,902886,,,,instruct,,,32,,,,,,,,,,,,,,,,,,,,,,,
3342.100000023842,,directmemory_phase4,906229,,,,object_07a.png,,,49,,,,0,object_15b.png,object_08a.png,object_03c.png,object_08a.png,,0.6304347826086957,,0,,,,,,,,,,,
6351,,directmemory_phase4,912582,,,,object_05a.png,,,49,,,,1,object_08c.png,object_02a.png,object_14a.png,object_08c.png,,0.6382978723404256,,1,,,,,,,,,,,
2996.1999999284744,,directmemory_phase4,915581,,,,object_04c.png,,,49,,,,0,object_03a.png,object_08b.png,object_08a.png,object_08b.png,,0.625,,0,,,,,,,,,,,
3166.2999999523163,,directmemory_phase4,918750,,,,object_12c.png,,,51,,,,0,object_07b.png,object_04b.png,object_11a.png,object_07b.png,,0.6122448979591837,,0,,,,,,,,,,,
4669.099999904633,,directmemory_phase4,923422,,,,object_11b.png,,,49,,,,1,object_10a.png,object_03b.png,object_06b.png,object_10a.png,,0.62,,1,,,,,,,,,,,
2741,,directmemory_phase4,926166,,,,object_03a.png,,,49,,,,0,object_12c.png,object_03c.png,object_06b.png,object_03c.png,,0.6078431372549019,,0,,,,,,,,,,,
5470.299999952316,,directmemory_phase4,931638,,,,object_04b.png,,,50,,,,1,object_06b.png,object_10c.png,object_11a.png,object_10c.png,,0.6153846153846154,,1,,,,,,,,,,,
3956.8000000715256,,directmemory_phase4,935597,,,,object_06a.png,,,50,,,,0,object_06b.png,object_03a.png,object_01b.png,object_01b.png,,0.6037735849056604,,0,,,,,,,,,,,
3379.7999999523163,,directmemory_phase4,938980,,,,object_03b.png,,,49,,,,0,object_02a.png,object_06b.png,object_14a.png,object_06b.png,,0.5925925925925926,,0,,,,,,,,,,,
6664.299999952316,,directmemory_phase4,945646,,,,object_09b.png,,,51,,,,1,object_15b.png,object_01b.png,object_02a.png,object_02a.png,,0.6,,1,,,,,,,,,,,
4446.299999952316,,directmemory_phase4,950094,,,,object_13a.png,,,51,,,,0,object_05a.png,object_15b.png,object_03a.png,object_15b.png,,0.5892857142857143,,0,,,,,,,,,,,
3718.399999976158,,directmemory_phase4,953813,,,,object_11a.png,,,49,,,,0,object_07c.png,object_02b.png,object_01c.png,object_02b.png,,0.5789473684210527,,0,,,,,,,,,,,
3862.5,,directmemory_phase4,957677,,,,object_15a.png,,,51,,,,0,object_14a.png,object_14c.png,object_12c.png,object_14a.png,,0.5689655172413793,,0,,,,,,,,,,,
2752.7000000476837,,directmemory_phase4,960431,,,,object_10b.png,,,51,,,,0,object_01c.png,object_08a.png,object_02a.png,object_01c.png,,0.559322033898305,,0,,,,,,,,,,,
6386.399999976158,,directmemory_phase4,966820,,,,object_14c.png,,,51,,,,1,object_03a.png,object_08a.png,object_07c.png,object_07c.png,,0.5666666666666667,,1,,,,,,,,,,,
null,,thebreak,966923,,,,<p></p>,,,null,,,,,,,,,,,,,,,,,,,,,,,
2124.100000023842,,intro_0,969049,,,,instruct,,,32,,,,,,,,,,,,,,,,,,,,,,,
null,,learn_phase(without_color)5,972551,,,,black_plus_sign,,,null,object_09b.png,object_02a.png,,,,,,,,,,,,,,,,,,,,,
null,,black_cross(without_color)5,973031,,,,green,,,null,object_09b.png,object_02a.png,,,,,,,,,,,,,,,,,,,,,
null,,rt_plussign_withcolor5,973532,,,,green,,,null,object_09b.png,object_02a.png,,,,,,,,,,,,,,,,,,,,,
1873.3999999761581,,rt_thecrossant_black5,975056,,,,black_plus_sign,,,50,,,,1,,,,,,1,,,,,,,,,,,,,
null,,color_black5,975157,,,,black_plus_sign,,,null,,,,,,,,,,,,,,,,,,,,,,,
null,,learn_phase(without_color)5,978660,,,,black_plus_sign,,,null,object_03a.png,object_03c.png,,,,,,,,,,,,,,,,,,,,,
null,,black_cross(without_color)5,979388,,,,blue,,,null,object_03a.png,object_03c.png,,,,,,,,,,,,,,,,,,,,,
null,,rt_plussign_withcolor5,979891,,,,blue,,,null,object_03a.png,object_03c.png,,,,,,,,,,,,,,,,,,,,,
1579.3000000715256,,rt_thecrossant_black5,981167,,,,black_plus_sign,,,49,,,,1,,,,,,1,,,,,,,,,,,,,
null,,color_black5,981270,,,,black_plus_sign,,,null,,,,,,,,,,,,,,,,,,,,,,,
null,,learn_phase(without_color)5,984773,,,,black_plus_sign,,,null,object_08a.png,object_07a.png,,,,,,,,,,,,,,,,,,,,,
null,,black_cross(without_color)5,985771,,,,green,,,null,object_08a.png,object_07a.png,,,,,,,,,,,,,,,,,,,,,
null,,rt_plussign_withcolor5,986274,,,,green,,,null,object_08a.png,object_07a.png,,,,,,,,,,,,,,,,,,,,,
1522.6999999284744,,rt_thecrossant_black5,987290,,,,black_plus_sign,,,50,,,,1,,,,,,1,,,,,,,,,,,,,
null,,color_black5,987392,,,,black_plus_sign,,,null,,,,,,,,,,,,,,,,,,,,,,,
null,,learn_phase(without_color)5,990895,,,,black_plus_sign,,,null,object_14c.png,object_07c.png,,,,,,,,,,,,,,,,,,,,,
null,,black_cross(without_color)5,991325,,,,green,,,null,object_14c.png,object_07c.png,,,,,,,,,,,,,,,,,,,,,
null,,rt_plussign_withcolor5,991826,,,,green,,,null,object_14c.png,object_07c.png,,,,,,,,,,,,,,,,,,,,,
1610.2999999523163,,rt_thecrossant_black5,993400,,,,black_plus_sign,,,50,,,,1,,,,,,1,,,,,,,,,,,,,
null,,color_black5,993502,,,,black_plus_sign,,,null,,,,,,,,,,,,,,,,,,,,,,,
null,,learn_phase(without_color)5,997006,,,,black_plus_sign,,,null,object_06b.png,object_03b.png,,,,,,,,,,,,,,,,,,,,,
null,,black_cross(without_color)5,997968,,,,green,,,null,object_06b.png,object_03b.png,,,,,,,,,,,,,,,,,,,,,
null,,rt_plussign_withcolor5,998469,,,,green,,,null,object_06b.png,object_03b.png,,,,,,,,,,,,,,,,,,,,,
1006,,rt_thecrossant_black5,999520,,,,black_plus_sign,,,50,,,,1,,,,,,1,,,,,,,,,,,,,
null,,color_black5,999622,,,,black_plus_sign,,,null,,,,,,,,,,,,,,,,,,,,,,,
null,,learn_phase(without_color)5,1003125,,,,black_plus_sign,,,null,object_05a.png,object_08c.png,,,,,,,,,,,,,,,,,,,,,
null,,black_cross(without_color)5,1003663,,,,green,,,null,object_05a.png,object_08c.png,,,,,,,,,,,,,,,,,,,,,
null,,rt_plussign_withcolor5,1004166,,,,green,,,null,object_05a.png,object_08c.png,,,,,,,,,,,,,,,,,,,,,
1312.8000000715256,,rt_thecrossant_black5,1005633,,,,black_plus_sign,,,50,,,,1,,,,,,1,,,,,,,,,,,,,
null,,color_black5,1005736,,,,black_plus_sign,,,null,,,,,,,,,,,,,,,,,,,,,,,
null,,learn_phase(without_color)5,1009238,,,,black_plus_sign,,,null,object_01c.png,object_10b.png,,,,,,,,,,,,,,,,,,,,,
null,,black_cross(without_color)5,1010334,,,,blue,,,null,object_01c.png,object_10b.png,,,,,,,,,,,,,,,,,,,,,
null,,rt_plussign_withcolor5,1010835,,,,blue,,,null,object_01c.png,object_10b.png,,,,,,,,,,,,,,,,,,,,,
925.2999999523163,,rt_thecrossant_black5,1011743,,,,black_plus_sign,,,49,,,,1,,,,,,1,,,,,,,,,,,,,
null,,color_black5,1011846,,,,black_plus_sign,,,null,,,,,,,,,,,,,,,,,,,,,,,
null,,learn_phase(without_color)5,1015349,,,,black_plus_sign,,,null,object_12c.png,object_07b.png,,,,,,,,,,,,,,,,,,,,,
null,,black_cross(without_color)5,1016149,,,,green,,,null,object_12c.png,object_07b.png,,,,,,,,,,,,,,,,,,,,,
null,,rt_plussign_withcolor5,1016650,,,,green,,,null,object_12c.png,object_07b.png,,,,,,,,,,,,,,,,,,,,,
1443,,rt_thecrossant_black5,1017855,,,,black_plus_sign,,,50,,,,1,,,,,,1,,,,,,,,,,,,,
null,,color_black5,1017957,,,,black_plus_sign,,,null,,,,,,,,,,,,,,,,,,,,,,,
null,,learn_phase(without_color)5,1021461,,,,black_plus_sign,,,null,object_04c.png,object_08b.png,,,,,,,,,,,,,,,,,,,,,
null,,black_cross(without_color)5,1022348,,,,blue,,,null,object_04c.png,object_08b.png,,,,,,,,,,,,,,,,,,,,,
null,,rt_plussign_withcolor5,1022850,,,,blue,,,null,object_04c.png,object_08b.png,,,,,,,,,,,,,,,,,,,,,
907.8000000715256,,rt_thecrossant_black5,1023966,,,,black_plus_sign,,,49,,,,1,,,,,,1,,,,,,,,,,,,,
null,,color_black5,1024073,,,,black_plus_sign,,,null,,,,,,,,,,,,,,,,,,,,,,,
null,,learn_phase(without_color)5,1027575,,,,black_plus_sign,,,null,object_02b.png,object_11a.png,,,,,,,,,,,,,,,,,,,,,
null,,black_cross(without_color)5,1028144,,,,green,,,null,object_02b.png,object_11a.png,,,,,,,,,,,,,,,,,,,,,
null,,rt_plussign_withcolor5,1028646,,,,green,,,null,object_02b.png,object_11a.png,,,,,,,,,,,,,,,,,,,,,
1304.1000000238419,,rt_thecrossant_black5,1030082,,,,black_plus_sign,,,50,,,,1,,,,,,1,,,,,,,,,,,,,
null,,color_black5,1030186,,,,black_plus_sign,,,null,,,,,,,,,,,,,,,,,,,,,,,
null,,learn_phase(without_color)5,1033689,,,,black_plus_sign,,,null,object_04b.png,object_10c.png,,,,,,,,,,,,,,,,,,,,,
null,,black_cross(without_color)5,1034500,,,,blue,,,null,object_04b.png,object_10c.png,,,,,,,,,,,,,,,,,,,,,
null,,rt_plussign_withcolor5,1035001,,,,blue,,,null,object_04b.png,object_10c.png,,,,,,,,,,,,,,,,,,,,,
1181.8999999761581,,rt_thecrossant_black5,1036195,,,,black_plus_sign,,,49,,,,1,,,,,,1,,,,,,,,,,,,,
null,,color_black5,1036298,,,,black_plus_sign,,,null,,,,,,,,,,,,,,,,,,,,,,,
null,,learn_phase(without_color)5,1039801,,,,black_plus_sign,,,null,object_06a.png,object_01b.png,,,,,,,,,,,,,,,,,,,,,
null,,black_cross(without_color)5,1040796,,,,blue,,,null,object_06a.png,object_01b.png,,,,,,,,,,,,,,,,,,,,,
null,,rt_plussign_withcolor5,1041298,,,,blue,,,null,object_06a.png,object_01b.png,,,,,,,,,,,,,,,,,,,,,
1103.1000000238419,,rt_thecrossant_black5,1042307,,,,black_plus_sign,,,49,,,,1,,,,,,1,,,,,,,,,,,,,
null,,color_black5,1042411,,,,black_plus_sign,,,null,,,,,,,,,,,,,,,,,,,,,,,
null,,learn_phase(without_color)5,1045914,,,,black_plus_sign,,,null,object_11b.png,object_10a.png,,,,,,,,,,,,,,,,,,,,,
null,,black_cross(without_color)5,1046409,,,,green,,,null,object_11b.png,object_10a.png,,,,,,,,,,,,,,,,,,,,,
null,,rt_plussign_withcolor5,1046912,,,,green,,,null,object_11b.png,object_10a.png,,,,,,,,,,,,,,,,,,,,,
1690,,rt_thecrossant_black5,1048423,,,,black_plus_sign,,,50,,,,1,,,,,,1,,,,,,,,,,,,,
null,,color_black5,1048526,,,,black_plus_sign,,,null,,,,,,,,,,,,,,,,,,,,,,,
null,,learn_phase(without_color)5,1052030,,,,black_plus_sign,,,null,object_15a.png,object_14a.png,,,,,,,,,,,,,,,,,,,,,
null,,black_cross(without_color)5,1052562,,,,blue,,,null,object_15a.png,object_14a.png,,,,,,,,,,,,,,,,,,,,,
null,,rt_plussign_withcolor5,1053064,,,,blue,,,null,object_15a.png,object_14a.png,,,,,,,,,,,,,,,,,,,,,
1426.3999999761581,,rt_thecrossant_black5,1054538,,,,black_plus_sign,,,49,,,,1,,,,,,1,,,,,,,,,,,,,
null,,color_black5,1054641,,,,black_plus_sign,,,null,,,,,,,,,,,,,,,,,,,,,,,
null,,learn_phase(without_color)5,1058145,,,,black_plus_sign,,,null,object_15b.png,object_13a.png,,,,,,,,,,,,,,,,,,,,,
null,,black_cross(without_color)5,1059233,,,,blue,,,null,object_15b.png,object_13a.png,,,,,,,,,,,,,,,,,,,,,
null,,rt_plussign_withcolor5,1059735,,,,blue,,,null,object_15b.png,object_13a.png,,,,,,,,,,,,,,,,,,,,,
1066.5,,rt_thecrossant_black5,1060652,,,,black_plus_sign,,,49,,,,1,,,,,,1,,,,,,,,,,,,,
null,,color_black5,1060755,,,,black_plus_sign,,,null,,,,,,,,,,,,,,,,,,,,,,,
null,,thebreak,1060857,,,,<p></p>,,,null,,,,,,,,,,,,,,,,,,,,,,,
1493.8000000715256,,intro_0,1062352,,,,instruct,,,32,,,,,,,,,,,,,,,,,,,,,,,
2667.9000000953674,,directmemory_phase5,1065021,,,,object_01a.png,,,49,,,,1,object_01b.png,object_04b.png,object_02c.png,object_01b.png,,0.5737704918032787,,1,,,,,,,,,,,
3325.3000000715256,,directmemory_phase5,1068350,,,,object_05c.png,,,51,,,,1,object_07b.png,object_13b.png,object_04b.png,object_04b.png,,0.5806451612903226,,1,,,,,,,,,,,
1725.5,,directmemory_phase5,1070078,,,,object_11c.png,,,49,,,,1,object_06b.png,object_14c.png,object_04a.png,object_06b.png,,0.5873015873015873,,1,,,,,,,,,,,
1771.8999999761581,,directmemory_phase5,1071853,,,,object_04a.png,,,49,,,,1,object_08a.png,object_06b.png,object_14b.png,object_08a.png,,0.59375,,1,,,,,,,,,,,
2831.399999976158,,directmemory_phase5,1074686,,,,object_14b.png,,,50,,,,1,object_09c.png,object_14c.png,object_07b.png,object_14c.png,,0.6,,1,,,,,,,,,,,
2091.7999999523163,,directmemory_phase5,1076780,,,,object_02c.png,,,51,,,,1,object_08a.png,object_15c.png,object_07b.png,object_07b.png,,0.6060606060606061,,1,,,,,,,,,,,
2464.4000000953674,,directmemory_phase5,1079246,,,,object_13b.png,,,50,,,,1,object_09a.png,object_09b.png,object_08a.png,object_09b.png,,0.6119402985074627,,1,,,,,,,,,,,
2060.4000000953674,,directmemory_phase5,1081309,,,,object_06c.png,,,49,,,,1,object_02b.png,object_14a.png,object_12a.png,object_02b.png,,0.6176470588235294,,1,,,,,,,,,,,
3515.899999976158,,directmemory_phase5,1084828,,,,object_15c.png,,,51,,,,1,object_01c.png,object_12b.png,object_05a.png,object_05a.png,,0.6231884057971014,,1,,,,,,,,,,,
4137.599999904633,,directmemory_phase5,1088967,,,,object_12b.png,,,51,,,,1,object_14c.png,object_06c.png,object_03c.png,object_03c.png,,0.6285714285714286,,1,,,,,,,,,,,
2826.100000023842,,directmemory_phase5,1091796,,,,object_13c.png,,,49,,,,1,object_08b.png,object_09b.png,object_15c.png,object_08b.png,,0.6338028169014085,,1,,,,,,,,,,,
3144.4000000953674,,directmemory_phase5,1094942,,,,object_05b.png,,,49,,,,1,object_13a.png,object_03c.png,object_12b.png,object_13a.png,,0.6388888888888888,,1,,,,,,,,,,,
1715.3999999761581,,directmemory_phase5,1096660,,,,object_12a.png,,,49,,,,1,object_11b.png,object_14c.png,object_09c.png,object_11b.png,,0.6438356164383562,,1,,,,,,,,,,,
3198.899999976158,,directmemory_phase5,1099860,,,,object_09a.png,,,50,,,,1,object_05b.png,object_01c.png,object_13a.png,object_01c.png,,0.6486486486486487,,1,,,,,,,,,,,
4486.200000047684,,directmemory_phase5,1104348,,,,object_09c.png,,,50,,,,1,object_05c.png,object_14a.png,object_01b.png,object_14a.png,,0.6533333333333333,,1,,,,,,,,,,,
null,,thebreak,1104451,,,,<p></p>,,,null,,,,,,,,,,,,,,,,,,,,,,,
1608.2000000476837,,intro_0,1106061,,,,instruct,,,32,,,,,,,,,,,,,,,,,,,,,,,
null,,learn_phase(without_color)6,1109564,,,,black_plus_sign,,,null,object_03c.png,object_03a.png,,,,,,,,,,,,,,,,,,,,,
null,,black_cross(without_color)6,1110068,,,,blue,,,null,object_03c.png,object_03a.png,,,,,,,,,,,,,,,,,,,,,
null,,rt_plussign_withcolor6,1110570,,,,blue,,,null,object_03c.png,object_03a.png,,,,,,,,,,,,,,,,,,,,,
1642.8000000715256,,rt_thecrossant_black6,1112086,,,,black_plus_sign,,,49,,,,1,,,,,,1,,,,,,,,,,,,,
null,,color_black6,1112187,,,,black_plus_sign,,,null,,,,,,,,,,,,,,,,,,,,,,,
null,,learn_phase(without_color)6,1115690,,,,black_plus_sign,,,null,object_07a.png,object_08a.png,,,,,,,,,,,,,,,,,,,,,
null,,black_cross(without_color)6,1116474,,,,blue,,,null,object_07a.png,object_08a.png,,,,,,,,,,,,,,,,,,,,,
null,,rt_plussign_withcolor6,1116976,,,,blue,,,null,object_07a.png,object_08a.png,,,,,,,,,,,,,,,,,,,,,
1014.3000000715256,,rt_thecrossant_black6,1118197,,,,black_plus_sign,,,49,,,,1,,,,,,1,,,,,,,,,,,,,
null,,color_black6,1118300,,,,black_plus_sign,,,null,,,,,,,,,,,,,,,,,,,,,,,
null,,learn_phase(without_color)6,1121803,,,,black_plus_sign,,,null,object_14a.png,object_15a.png,,,,,,,,,,,,,,,,,,,,,
null,,black_cross(without_color)6,1122420,,,,blue,,,null,object_14a.png,object_15a.png,,,,,,,,,,,,,,,,,,,,,
null,,rt_plussign_withcolor6,1122923,,,,blue,,,null,object_14a.png,object_15a.png,,,,,,,,,,,,,,,,,,,,,
1353.5,,rt_thecrossant_black6,1124311,,,,black_plus_sign,,,49,,,,1,,,,,,1,,,,,,,,,,,,,
null,,color_black6,1124413,,,,black_plus_sign,,,null,,,,,,,,,,,,,,,,,,,,,,,
null,,learn_phase(without_color)6,1127917,,,,black_plus_sign,,,null,object_07b.png,object_12c.png,,,,,,,,,,,,,,,,,,,,,
null,,black_cross(without_color)6,1128659,,,,green,,,null,object_07b.png,object_12c.png,,,,,,,,,,,,,,,,,,,,,
null,,rt_plussign_withcolor6,1129161,,,,green,,,null,object_07b.png,object_12c.png,,,,,,,,,,,,,,,,,,,,,
1528,,rt_thecrossant_black6,1130425,,,,black_plus_sign,,,50,,,,1,,,,,,1,,,,,,,,,,,,,
null,,color_black6,1130528,,,,black_plus_sign,,,null,,,,,,,,,,,,,,,,,,,,,,,
null,,learn_phase(without_color)6,1134031,,,,black_plus_sign,,,null,object_08c.png,object_05a.png,,,,,,,,,,,,,,,,,,,,,
null,,black_cross(without_color)6,1135059,,,,green,,,null,object_08c.png,object_05a.png,,,,,,,,,,,,,,,,,,,,,
null,,rt_plussign_withcolor6,1135562,,,,green,,,null,object_08c.png,object_05a.png,,,,,,,,,,,,,,,,,,,,,
1106.2999999523163,,rt_thecrossant_black6,1136539,,,,black_plus_sign,,,50,,,,1,,,,,,1,,,,,,,,,,,,,
null,,color_black6,1136645,,,,black_plus_sign,,,null,,,,,,,,,,,,,,,,,,,,,,,
null,,learn_phase(without_color)6,1140148,,,,black_plus_sign,,,null,object_10a.png,object_11b.png,,,,,,,,,,,,,,,,,,,,,
null,,black_cross(without_color)6,1141167,,,,blue,,,null,object_10a.png,object_11b.png,,,,,,,,,,,,,,,,,,,,,
null,,rt_plussign_withcolor6,1141668,,,,blue,,,null,object_10a.png,object_11b.png,,,,,,,,,,,,,,,,,,,,,
1675.3999999761581,,rt_thecrossant_black6,1142655,,,,black_plus_sign,,,49,,,,1,,,,,,1,,,,,,,,,,,,,
null,,color_black6,1142758,,,,black_plus_sign,,,null,,,,,,,,,,,,,,,,,,,,,,,
null,,learn_phase(without_color)6,1146261,,,,black_plus_sign,,,null,object_01c.png,object_10b.png,,,,,,,,,,,,,,,,,,,,,
null,,black_cross(without_color)6,1147114,,,,green,,,null,object_01c.png,object_10b.png,,,,,,,,,,,,,,,,,,,,,
null,,rt_plussign_withcolor6,1147617,,,,green,,,null,object_01c.png,object_10b.png,,,,,,,,,,,,,,,,,,,,,
1425.5,,rt_thecrossant_black6,1148768,,,,black_plus_sign,,,50,,,,1,,,,,,1,,,,,,,,,,,,,
null,,color_black6,1148870,,,,black_plus_sign,,,null,,,,,,,,,,,,,,,,,,,,,,,
null,,learn_phase(without_color)6,1152372,,,,black_plus_sign,,,null,object_06a.png,object_01b.png,,,,,,,,,,,,,,,,,,,,,
null,,black_cross(without_color)6,1153031,,,,green,,,null,object_06a.png,object_01b.png,,,,,,,,,,,,,,,,,,,,,
null,,rt_plussign_withcolor6,1153533,,,,green,,,null,object_06a.png,object_01b.png,,,,,,,,,,,,,,,,,,,,,
1204.1999999284744,,rt_thecrossant_black6,1154893,,,,black_plus_sign,,,50,,,,1,,,,,,1,,,,,,,,,,,,,
null,,color_black6,1154996,,,,black_plus_sign,,,null,,,,,,,,,,,,,,,,,,,,,,,
null,,learn_phase(without_color)6,1158499,,,,black_plus_sign,,,null,object_06b.png,object_03b.png,,,,,,,,,,,,,,,,,,,,,
null,,black_cross(without_color)6,1159224,,,,blue,,,null,object_06b.png,object_03b.png,,,,,,,,,,,,,,,,,,,,,
null,,rt_plussign_withcolor6,1159727,,,,blue,,,null,object_06b.png,object_03b.png,,,,,,,,,,,,,,,,,,,,,
1089.3999999761581,,rt_thecrossant_black6,1161006,,,,black_plus_sign,,,49,,,,1,,,,,,1,,,,,,,,,,,,,
null,,color_black6,1161109,,,,black_plus_sign,,,null,,,,,,,,,,,,,,,,,,,,,,,
null,,learn_phase(without_color)6,1164613,,,,black_plus_sign,,,null,object_15b.png,object_13a.png,,,,,,,,,,,,,,,,,,,,,
null,,black_cross(without_color)6,1165267,,,,green,,,null,object_15b.png,object_13a.png,,,,,,,,,,,,,,,,,,,,,
null,,rt_plussign_withcolor6,1165769,,,,green,,,null,object_15b.png,object_13a.png,,,,,,,,,,,,,,,,,,,,,
1433.5,,rt_thecrossant_black6,1167119,,,,black_plus_sign,,,50,,,,1,,,,,,1,,,,,,,,,,,,,
null,,color_black6,1167222,,,,black_plus_sign,,,null,,,,,,,,,,,,,,,,,,,,,,,
null,,learn_phase(without_color)6,1170726,,,,black_plus_sign,,,null,object_08b.png,object_04c.png,,,,,,,,,,,,,,,,,,,,,
null,,black_cross(without_color)6,1171297,,,,green,,,null,object_08b.png,object_04c.png,,,,,,,,,,,,,,,,,,,,,
null,,rt_plussign_withcolor6,1171799,,,,green,,,null,object_08b.png,object_04c.png,,,,,,,,,,,,,,,,,,,,,
1606,,rt_thecrossant_black6,1173233,,,,black_plus_sign,,,50,,,,1,,,,,,1,,,,,,,,,,,,,
null,,color_black6,1173335,,,,black_plus_sign,,,null,,,,,,,,,,,,,,,,,,,,,,,
null,,learn_phase(without_color)6,1176837,,,,black_plus_sign,,,null,object_04b.png,object_10c.png,,,,,,,,,,,,,,,,,,,,,
null,,black_cross(without_color)6,1177542,,,,blue,,,null,object_04b.png,object_10c.png,,,,,,,,,,,,,,,,,,,,,
null,,rt_plussign_withcolor6,1178044,,,,blue,,,null,object_04b.png,object_10c.png,,,,,,,,,,,,,,,,,,,,,
1317.3999999761581,,rt_thecrossant_black6,1179344,,,,black_plus_sign,,,49,,,,1,,,,,,1,,,,,,,,,,,,,
null,,color_black6,1179446,,,,black_plus_sign,,,null,,,,,,,,,,,,,,,,,,,,,,,
null,,learn_phase(without_color)6,1182948,,,,black_plus_sign,,,null,object_09b.png,object_02a.png,,,,,,,,,,,,,,,,,,,,,
null,,black_cross(without_color)6,1183995,,,,blue,,,null,object_09b.png,object_02a.png,,,,,,,,,,,,,,,,,,,,,
null,,rt_plussign_withcolor6,1184498,,,,blue,,,null,object_09b.png,object_02a.png,,,,,,,,,,,,,,,,,,,,,
1101.2999999523163,,rt_thecrossant_black6,1185456,,,,black_plus_sign,,,49,,,,1,,,,,,1,,,,,,,,,,,,,
null,,color_black6,1185558,,,,black_plus_sign,,,null,,,,,,,,,,,,,,,,,,,,,,,
null,,learn_phase(without_color)6,1189061,,,,black_plus_sign,,,null,object_02b.png,object_11a.png,,,,,,,,,,,,,,,,,,,,,
null,,black_cross(without_color)6,1189684,,,,green,,,null,object_02b.png,object_11a.png,,,,,,,,,,,,,,,,,,,,,
null,,rt_plussign_withcolor6,1190187,,,,green,,,null,object_02b.png,object_11a.png,,,,,,,,,,,,,,,,,,,,,
1639.8000000715256,,rt_thecrossant_black6,1191571,,,,black_plus_sign,,,50,,,,1,,,,,,1,,,,,,,,,,,,,
null,,color_black6,1191673,,,,black_plus_sign,,,null,,,,,,,,,,,,,,,,,,,,,,,
null,,learn_phase(without_color)6,1195175,,,,black_plus_sign,,,null,object_14c.png,object_07c.png,,,,,,,,,,,,,,,,,,,,,
null,,black_cross(without_color)6,1195988,,,,blue,,,null,object_14c.png,object_07c.png,,,,,,,,,,,,,,,,,,,,,
null,,rt_plussign_withcolor6,1196491,,,,blue,,,null,object_14c.png,object_07c.png,,,,,,,,,,,,,,,,,,,,,
1456,,rt_thecrossant_black6,1197683,,,,black_plus_sign,,,49,,,,1,,,,,,1,,,,,,,,,,,,,
null,,color_black6,1197785,,,,black_plus_sign,,,null,,,,,,,,,,,,,,,,,,,,,,,
null,,thebreak,1197895,,,,<p></p>,,,null,,,,,,,,,,,,,,,,,,,,,,,
1669.3999999761581,,intro_0,1199566,,,,instruct,,,32,,,,,,,,,,,,,,,,,,,,,,,
3884.899999976158,,directmemory_phase6,1203452,,,,object_07a.png,,,50,,,,1,object_10a.png,object_08a.png,object_14c.png,object_08a.png,,0.6578947368421053,,1,,,,,,,,,,,
4086.399999976158,,directmemory_phase6,1207540,,,,object_01b.png,,,51,,,,1,object_03b.png,object_05a.png,object_06a.png,object_06a.png,,0.6623376623376623,,1,,,,,,,,,,,
3136.2999999523163,,directmemory_phase6,1210677,,,,object_06b.png,,,51,,,,1,object_02a.png,object_03c.png,object_03b.png,object_03b.png,,0.6666666666666666,,1,,,,,,,,,,,
5548.100000023842,,directmemory_phase6,1216229,,,,object_08b.png,,,51,,,,1,object_10b.png,object_14a.png,object_04c.png,object_04c.png,,0.6708860759493671,,1,,,,,,,,,,,
3069.399999976158,,directmemory_phase6,1219301,,,,object_11b.png,,,49,,,,1,object_10a.png,object_11a.png,object_07b.png,object_10a.png,,0.675,,1,,,,,,,,,,,
2774,,directmemory_phase6,1222077,,,,object_10c.png,,,51,,,,1,object_07b.png,object_15b.png,object_04b.png,object_04b.png,,0.6790123456790124,,1,,,,,,,,,,,
4804.199999928474,,directmemory_phase6,1226885,,,,object_10b.png,,,49,,,,1,object_01c.png,object_11b.png,object_10c.png,object_01c.png,,0.6829268292682927,,1,,,,,,,,,,,
5070.299999952316,,directmemory_phase6,1231957,,,,object_13a.png,,,50,,,,1,object_14c.png,object_15b.png,object_03b.png,object_15b.png,,0.6867469879518072,,1,,,,,,,,,,,
2885.0999999046326,,directmemory_phase6,1234845,,,,object_02b.png,,,51,,,,1,object_15a.png,object_09b.png,object_11a.png,object_11a.png,,0.6904761904761905,,1,,,,,,,,,,,
6865.5,,directmemory_phase6,1241712,,,,object_14a.png,,,49,,,,1,object_15a.png,object_03a.png,object_06b.png,object_15a.png,,0.6941176470588235,,1,,,,,,,,,,,
2177.600000023842,,directmemory_phase6,1243893,,,,object_12c.png,,,51,,,,1,object_09b.png,object_03b.png,object_07b.png,object_07b.png,,0.6976744186046512,,1,,,,,,,,,,,
5591.099999904633,,directmemory_phase6,1249485,,,,object_05a.png,,,50,,,,1,object_04b.png,object_08c.png,object_07a.png,object_08c.png,,0.7011494252873564,,1,,,,,,,,,,,
8948.200000047684,,directmemory_phase6,1258436,,,,object_03c.png,,,49,,,,1,object_03a.png,object_02a.png,object_02b.png,object_03a.png,,0.7045454545454546,,1,,,,,,,,,,,
5670.600000023842,,directmemory_phase6,1264108,,,,object_09b.png,,,51,,,,1,object_03a.png,object_13a.png,object_02a.png,object_02a.png,,0.7078651685393258,,1,,,,,,,,,,,
2935.4000000953674,,directmemory_phase6,1267045,,,,object_14c.png,,,50,,,,1,object_09b.png,object_07c.png,object_06a.png,object_07c.png,,0.7111111111111111,,1,,,,,,,,,,,
null,,thebreak,1267149,,,,<p></p>,,,null,,,,,,,,,,,,,,,,,,,,,,,
1824.3000000715256,,intro_0,1268974,,,,instruct,,,32,,,,,,,,,,,,,,,,,,,,,,,
null,,learn_phase(without_color)7,1272477,,,,black_plus_sign,,,null,object_06b.png,object_03b.png,,,,,,,,,,,,,,,,,,,,,
null,,black_cross(without_color)7,1272974,,,,blue,,,null,object_06b.png,object_03b.png,,,,,,,,,,,,,,,,,,,,,
null,,rt_plussign_withcolor7,1273476,,,,blue,,,null,object_06b.png,object_03b.png,,,,,,,,,,,,,,,,,,,,,
null,,rt_thecrossant_black7,1274985,,,,black_plus_sign,,,null,,,,,,,,,,NaN,,,,,,,,,,,,,
null,,color_black7,1275087,,,,black_plus_sign,,,null,,,,,,,,,,,,,,,,,,,,,,,
null,,learn_phase(without_color)7,1278591,,,,black_plus_sign,,,null,object_01c.png,object_10b.png,,,,,,,,,,,,,,,,,,,,,
null,,black_cross(without_color)7,1279306,,,,blue,,,null,object_01c.png,object_10b.png,,,,,,,,,,,,,,,,,,,,,
null,,rt_plussign_withcolor7,1279809,,,,blue,,,null,object_01c.png,object_10b.png,,,,,,,,,,,,,,,,,,,,,
1293.3999999761581,,rt_thecrossant_black7,1281105,,,,black_plus_sign,,,49,,,,1,,,,,,1,,,,,,,,,,,,,
null,,color_black7,1281207,,,,black_plus_sign,,,null,,,,,,,,,,,,,,,,,,,,,,,
null,,learn_phase(without_color)7,1284710,,,,black_plus_sign,,,null,object_14a.png,object_15a.png,,,,,,,,,,,,,,,,,,,,,
null,,black_cross(without_color)7,1285414,,,,blue,,,null,object_14a.png,object_15a.png,,,,,,,,,,,,,,,,,,,,,
null,,rt_plussign_withcolor7,1285916,,,,blue,,,null,object_14a.png,object_15a.png,,,,,,,,,,,,,,,,,,,,,
1229.2999999523163,,rt_thecrossant_black7,1287217,,,,black_plus_sign,,,49,,,,1,,,,,,1,,,,,,,,,,,,,
null,,color_black7,1287320,,,,black_plus_sign,,,null,,,,,,,,,,,,,,,,,,,,,,,
null,,learn_phase(without_color)7,1290824,,,,black_plus_sign,,,null,object_10c.png,object_04b.png,,,,,,,,,,,,,,,,,,,,,
null,,black_cross(without_color)7,1291345,,,,blue,,,null,object_10c.png,object_04b.png,,,,,,,,,,,,,,,,,,,,,
null,,rt_plussign_withcolor7,1291847,,,,blue,,,null,object_10c.png,object_04b.png,,,,,,,,,,,,,,,,,,,,,
1485.5,,rt_thecrossant_black7,1293330,,,,black_plus_sign,,,49,,,,1,,,,,,1,,,,,,,,,,,,,
null,,color_black7,1293433,,,,black_plus_sign,,,null,,,,,,,,,,,,,,,,,,,,,,,
null,,learn_phase(without_color)7,1296935,,,,black_plus_sign,,,null,object_07b.png,object_12c.png,,,,,,,,,,,,,,,,,,,,,
null,,black_cross(without_color)7,1297972,,,,blue,,,null,object_07b.png,object_12c.png,,,,,,,,,,,,,,,,,,,,,
null,,rt_plussign_withcolor7,1298474,,,,blue,,,null,object_07b.png,object_12c.png,,,,,,,,,,,,,,,,,,,,,
915.5,,rt_thecrossant_black7,1299454,,,,black_plus_sign,,,49,,,,1,,,,,,1,,,,,,,,,,,,,
null,,color_black7,1299557,,,,black_plus_sign,,,null,,,,,,,,,,,,,,,,,,,,,,,
null,,learn_phase(without_color)7,1303060,,,,black_plus_sign,,,null,object_15b.png,object_13a.png,,,,,,,,,,,,,,,,,,,,,
null,,black_cross(without_color)7,1303729,,,,blue,,,null,object_15b.png,object_13a.png,,,,,,,,,,,,,,,,,,,,,
null,,rt_plussign_withcolor7,1304231,,,,blue,,,null,object_15b.png,object_13a.png,,,,,,,,,,,,,,,,,,,,,
1359.8000000715256,,rt_thecrossant_black7,1305567,,,,black_plus_sign,,,49,,,,1,,,,,,1,,,,,,,,,,,,,
null,,color_black7,1305669,,,,black_plus_sign,,,null,,,,,,,,,,,,,,,,,,,,,,,
null,,learn_phase(without_color)7,1309173,,,,black_plus_sign,,,null,object_14c.png,object_07c.png,,,,,,,,,,,,,,,,,,,,,
null,,black_cross(without_color)7,1310204,,,,green,,,null,object_14c.png,object_07c.png,,,,,,,,,,,,,,,,,,,,,
null,,rt_plussign_withcolor7,1310707,,,,green,,,null,object_14c.png,object_07c.png,,,,,,,,,,,,,,,,,,,,,
1183.6999999284744,,rt_thecrossant_black7,1311682,,,,black_plus_sign,,,50,,,,1,,,,,,1,,,,,,,,,,,,,
null,,color_black7,1311784,,,,black_plus_sign,,,null,,,,,,,,,,,,,,,,,,,,,,,
null,,learn_phase(without_color)7,1315289,,,,black_plus_sign,,,null,object_02b.png,object_11a.png,,,,,,,,,,,,,,,,,,,,,
null,,black_cross(without_color)7,1315991,,,,green,,,null,object_02b.png,object_11a.png,,,,,,,,,,,,,,,,,,,,,
null,,rt_plussign_withcolor7,1316493,,,,green,,,null,object_02b.png,object_11a.png,,,,,,,,,,,,,,,,,,,,,
1558.5,,rt_thecrossant_black7,1317796,,,,black_plus_sign,,,50,,,,1,,,,,,1,,,,,,,,,,,,,
null,,color_black7,1317898,,,,black_plus_sign,,,null,,,,,,,,,,,,,,,,,,,,,,,
null,,learn_phase(without_color)7,1321401,,,,black_plus_sign,,,null,object_04c.png,object_08b.png,,,,,,,,,,,,,,,,,,,,,
null,,black_cross(without_color)7,1322469,,,,green,,,null,object_04c.png,object_08b.png,,,,,,,,,,,,,,,,,,,,,
null,,rt_plussign_withcolor7,1322971,,,,green,,,null,object_04c.png,object_08b.png,,,,,,,,,,,,,,,,,,,,,
1295.7000000476837,,rt_thecrossant_black7,1323912,,,,black_plus_sign,,,50,,,,1,,,,,,1,,,,,,,,,,,,,
null,,color_black7,1324025,,,,black_plus_sign,,,null,,,,,,,,,,,,,,,,,,,,,,,
null,,learn_phase(without_color)7,1327527,,,,black_plus_sign,,,null,object_02a.png,object_09b.png,,,,,,,,,,,,,,,,,,,,,
null,,black_cross(without_color)7,1328072,,,,green,,,null,object_02a.png,object_09b.png,,,,,,,,,,,,,,,,,,,,,
null,,rt_plussign_withcolor7,1328573,,,,green,,,null,object_02a.png,object_09b.png,,,,,,,,,,,,,,,,,,,,,
1635.5,,rt_thecrossant_black7,1330035,,,,black_plus_sign,,,50,,,,1,,,,,,1,,,,,,,,,,,,,
null,,color_black7,1330138,,,,black_plus_sign,,,null,,,,,,,,,,,,,,,,,,,,,,,
null,,learn_phase(without_color)7,1333641,,,,black_plus_sign,,,null,object_08c.png,object_05a.png,,,,,,,,,,,,,,,,,,,,,
null,,black_cross(without_color)7,1334381,,,,blue,,,null,object_08c.png,object_05a.png,,,,,,,,,,,,,,,,,,,,,
null,,rt_plussign_withcolor7,1334883,,,,blue,,,null,object_08c.png,object_05a.png,,,,,,,,,,,,,,,,,,,,,
883.2000000476837,,rt_thecrossant_black7,1336149,,,,black_plus_sign,,,49,,,,1,,,,,,1,,,,,,,,,,,,,
null,,color_black7,1336251,,,,black_plus_sign,,,null,,,,,,,,,,,,,,,,,,,,,,,
null,,learn_phase(without_color)7,1339754,,,,black_plus_sign,,,null,object_11b.png,object_10a.png,,,,,,,,,,,,,,,,,,,,,
null,,black_cross(without_color)7,1340818,,,,blue,,,null,object_11b.png,object_10a.png,,,,,,,,,,,,,,,,,,,,,
null,,rt_plussign_withcolor7,1341320,,,,blue,,,null,object_11b.png,object_10a.png,,,,,,,,,,,,,,,,,,,,,
864.3000000715256,,rt_thecrossant_black7,1342260,,,,black_plus_sign,,,49,,,,1,,,,,,1,,,,,,,,,,,,,
null,,color_black7,1342362,,,,black_plus_sign,,,null,,,,,,,,,,,,,,,,,,,,,,,
null,,learn_phase(without_color)7,1345864,,,,black_plus_sign,,,null,object_03c.png,object_03a.png,,,,,,,,,,,,,,,,,,,,,
null,,black_cross(without_color)7,1346926,,,,blue,,,null,object_03c.png,object_03a.png,,,,,,,,,,,,,,,,,,,,,
null,,rt_plussign_withcolor7,1347428,,,,blue,,,null,object_03c.png,object_03a.png,,,,,,,,,,,,,,,,,,,,,
1713.8000000715256,,rt_thecrossant_black7,1348371,,,,black_plus_sign,,,49,,,,1,,,,,,1,,,,,,,,,,,,,
null,,color_black7,1348472,,,,black_plus_sign,,,null,,,,,,,,,,,,,,,,,,,,,,,
null,,learn_phase(without_color)7,1351975,,,,black_plus_sign,,,null,object_08a.png,object_07a.png,,,,,,,,,,,,,,,,,,,,,
null,,black_cross(without_color)7,1352777,,,,blue,,,null,object_08a.png,object_07a.png,,,,,,,,,,,,,,,,,,,,,
null,,rt_plussign_withcolor7,1353280,,,,blue,,,null,object_08a.png,object_07a.png,,,,,,,,,,,,,,,,,,,,,
1786.7999999523163,,rt_thecrossant_black7,1354484,,,,black_plus_sign,,,49,,,,1,,,,,,1,,,,,,,,,,,,,
null,,color_black7,1354586,,,,black_plus_sign,,,null,,,,,,,,,,,,,,,,,,,,,,,
null,,learn_phase(without_color)7,1358089,,,,black_plus_sign,,,null,object_06a.png,object_01b.png,,,,,,,,,,,,,,,,,,,,,
null,,black_cross(without_color)7,1358527,,,,green,,,null,object_06a.png,object_01b.png,,,,,,,,,,,,,,,,,,,,,
null,,rt_plussign_withcolor7,1359029,,,,green,,,null,object_06a.png,object_01b.png,,,,,,,,,,,,,,,,,,,,,
1425.6000000238419,,rt_thecrossant_black7,1360595,,,,black_plus_sign,,,50,,,,1,,,,,,1,,,,,,,,,,,,,
null,,color_black7,1360698,,,,black_plus_sign,,,null,,,,,,,,,,,,,,,,,,,,,,,
null,,thebreak,1360802,,,,<p></p>,,,null,,,,,,,,,,,,,,,,,,,,,,,
1904,,intro_0,1362708,,,,instruct,,,32,,,,,,,,,,,,,,,,,,,,,,,
5592.199999928474,,directmemory_phase7,1368302,,,,object_12b.png,,,50,,,,1,object_06c.png,object_03c.png,object_02b.png,object_03c.png,,0.7142857142857143,,1,,,,,,,,,,,
6212.5,,directmemory_phase7,1374517,,,,object_04a.png,,,51,,,,1,object_14c.png,object_02c.png,object_08a.png,object_08a.png,,0.717391304347826,,1,,,,,,,,,,,
3582.1999999284744,,directmemory_phase7,1378101,,,,object_09c.png,,,49,,,,1,object_14a.png,object_04b.png,object_12a.png,object_14a.png,,0.7204301075268817,,1,,,,,,,,,,,
4876.399999976158,,directmemory_phase7,1382980,,,,object_09a.png,,,51,,,,1,object_13a.png,object_05c.png,object_01c.png,object_01c.png,,0.723404255319149,,1,,,,,,,,,,,
2167.2999999523163,,directmemory_phase7,1385149,,,,object_05b.png,,,49,,,,1,object_13a.png,object_05a.png,object_09a.png,object_13a.png,,0.7263157894736842,,1,,,,,,,,,,,
5583.5,,directmemory_phase7,1390736,,,,object_06c.png,,,51,,,,1,object_08a.png,object_13b.png,object_02b.png,object_02b.png,,0.7291666666666666,,1,,,,,,,,,,,
4924.399999976158,,directmemory_phase7,1395662,,,,object_05c.png,,,49,,,,1,object_04b.png,object_01c.png,object_05b.png,object_04b.png,,0.7319587628865979,,1,,,,,,,,,,,
2739.5999999046326,,directmemory_phase7,1398404,,,,object_12a.png,,,50,,,,1,object_06c.png,object_11b.png,object_14a.png,object_11b.png,,0.7346938775510204,,1,,,,,,,,,,,
3932.899999976158,,directmemory_phase7,1402340,,,,object_14b.png,,,51,,,,1,object_02b.png,object_09c.png,object_14c.png,object_14c.png,,0.7373737373737373,,1,,,,,,,,,,,
3557.100000023842,,directmemory_phase7,1405900,,,,object_15c.png,,,49,,,,1,object_05a.png,object_03c.png,object_09a.png,object_05a.png,,0.74,,1,,,,,,,,,,,
2712.2000000476837,,directmemory_phase7,1408614,,,,object_13b.png,,,51,,,,1,object_02b.png,object_12b.png,object_09b.png,object_09b.png,,0.7425742574257426,,1,,,,,,,,,,,
1660.2000000476837,,directmemory_phase7,1410277,,,,object_11c.png,,,49,,,,1,object_06b.png,object_07b.png,object_12b.png,object_06b.png,,0.7450980392156863,,1,,,,,,,,,,,
2420.2999999523163,,directmemory_phase7,1412701,,,,object_01a.png,,,49,,,,1,object_01b.png,object_04b.png,object_12a.png,object_01b.png,,0.7475728155339806,,1,,,,,,,,,,,
6797.100000023842,,directmemory_phase7,1419502,,,,object_13c.png,,,50,,,,0,object_08b.png,object_03c.png,object_15c.png,object_08b.png,,0.7403846153846154,,0,,,,,,,,,,,
1506.3000000715256,,directmemory_phase7,1421011,,,,object_02c.png,,,49,,,,1,object_07b.png,object_01c.png,object_09c.png,object_07b.png,,0.7428571428571429,,1,,,,,,,,,,,
null,,thebreak,1421113,,,,<p></p>,,,null,,,,,,,,,,,,,,,,,,,,,,,
1802.7999999523163,,intro_0,1422916,,,,instruct,,,32,,,,,,,,,,,,,,,,,,,,,,,
null,,learn_phase(without_color)8,1426419,,,,black_plus_sign,,,null,object_10b.png,object_01c.png,,,,,,,,,,,,,,,,,,,,,
null,,black_cross(without_color)8,1427085,,,,blue,,,null,object_10b.png,object_01c.png,,,,,,,,,,,,,,,,,,,,,
null,,rt_plussign_withcolor8,1427587,,,,blue,,,null,object_10b.png,object_01c.png,,,,,,,,,,,,,,,,,,,,,
1981.7000000476837,,rt_thecrossant_black8,1428926,,,,black_plus_sign,,,49,,,,1,,,,,,1,,,,,,,,,,,,,
null,,color_black8,1429029,,,,black_plus_sign,,,null,,,,,,,,,,,,,,,,,,,,,,,
null,,learn_phase(without_color)8,1432533,,,,black_plus_sign,,,null,object_13a.png,object_15b.png,,,,,,,,,,,,,,,,,,,,,
null,,black_cross(without_color)8,1433028,,,,green,,,null,object_13a.png,object_15b.png,,,,,,,,,,,,,,,,,,,,,
null,,rt_plussign_withcolor8,1433531,,,,green,,,null,object_13a.png,object_15b.png,,,,,,,,,,,,,,,,,,,,,
1515.6000000238419,,rt_thecrossant_black8,1435042,,,,black_plus_sign,,,50,,,,1,,,,,,1,,,,,,,,,,,,,
null,,color_black8,1435144,,,,black_plus_sign,,,null,,,,,,,,,,,,,,,,,,,,,,,
null,,learn_phase(without_color)8,1438646,,,,black_plus_sign,,,null,object_02a.png,object_09b.png,,,,,,,,,,,,,,,,,,,,,
null,,black_cross(without_color)8,1439268,,,,green,,,null,object_02a.png,object_09b.png,,,,,,,,,,,,,,,,,,,,,
null,,rt_plussign_withcolor8,1439770,,,,green,,,null,object_02a.png,object_09b.png,,,,,,,,,,,,,,,,,,,,,
1049.6999999284744,,rt_thecrossant_black8,1441153,,,,black_plus_sign,,,50,,,,1,,,,,,1,,,,,,,,,,,,,
null,,color_black8,1441255,,,,black_plus_sign,,,null,,,,,,,,,,,,,,,,,,,,,,,
null,,learn_phase(without_color)8,1444758,,,,black_plus_sign,,,null,object_12c.png,object_07b.png,,,,,,,,,,,,,,,,,,,,,
null,,black_cross(without_color)8,1445176,,,,green,,,null,object_12c.png,object_07b.png,,,,,,,,,,,,,,,,,,,,,
null,,rt_plussign_withcolor8,1445678,,,,green,,,null,object_12c.png,object_07b.png,,,,,,,,,,,,,,,,,,,,,
988.7999999523163,,rt_thecrossant_black8,1447264,,,,black_plus_sign,,,50,,,,1,,,,,,1,,,,,,,,,,,,,
null,,color_black8,1447367,,,,black_plus_sign,,,null,,,,,,,,,,,,,,,,,,,,,,,
null,,learn_phase(without_color)8,1450870,,,,black_plus_sign,,,null,object_15a.png,object_14a.png,,,,,,,,,,,,,,,,,,,,,
null,,black_cross(without_color)8,1451706,,,,blue,,,null,object_15a.png,object_14a.png,,,,,,,,,,,,,,,,,,,,,
null,,rt_plussign_withcolor8,1452208,,,,blue,,,null,object_15a.png,object_14a.png,,,,,,,,,,,,,,,,,,,,,
686.1000000238419,,rt_thecrossant_black8,1453377,,,,black_plus_sign,,,49,,,,1,,,,,,1,,,,,,,,,,,,,
null,,color_black8,1453479,,,,black_plus_sign,,,null,,,,,,,,,,,,,,,,,,,,,,,
null,,learn_phase(without_color)8,1456982,,,,black_plus_sign,,,null,object_06b.png,object_03b.png,,,,,,,,,,,,,,,,,,,,,
null,,black_cross(without_color)8,1457686,,,,green,,,null,object_06b.png,object_03b.png,,,,,,,,,,,,,,,,,,,,,
null,,rt_plussign_withcolor8,1458189,,,,green,,,null,object_06b.png,object_03b.png,,,,,,,,,,,,,,,,,,,,,
1412.7999999523163,,rt_thecrossant_black8,1459489,,,,black_plus_sign,,,50,,,,1,,,,,,1,,,,,,,,,,,,,
null,,color_black8,1459592,,,,black_plus_sign,,,null,,,,,,,,,,,,,,,,,,,,,,,
null,,learn_phase(without_color)8,1463095,,,,black_plus_sign,,,null,object_08a.png,object_07a.png,,,,,,,,,,,,,,,,,,,,,
null,,black_cross(without_color)8,1464068,,,,blue,,,null,object_08a.png,object_07a.png,,,,,,,,,,,,,,,,,,,,,
null,,rt_plussign_withcolor8,1464571,,,,blue,,,null,object_08a.png,object_07a.png,,,,,,,,,,,,,,,,,,,,,
1241,,rt_thecrossant_black8,1465603,,,,black_plus_sign,,,49,,,,1,,,,,,1,,,,,,,,,,,,,
null,,color_black8,1465706,,,,black_plus_sign,,,null,,,,,,,,,,,,,,,,,,,,,,,
null,,learn_phase(without_color)8,1469211,,,,black_plus_sign,,,null,object_01b.png,object_06a.png,,,,,,,,,,,,,,,,,,,,,
null,,black_cross(without_color)8,1470177,,,,green,,,null,object_01b.png,object_06a.png,,,,,,,,,,,,,,,,,,,,,
null,,rt_plussign_withcolor8,1470678,,,,green,,,null,object_01b.png,object_06a.png,,,,,,,,,,,,,,,,,,,,,
1524.5,,rt_thecrossant_black8,1471717,,,,black_plus_sign,,,50,,,,1,,,,,,1,,,,,,,,,,,,,
null,,color_black8,1471819,,,,black_plus_sign,,,null,,,,,,,,,,,,,,,,,,,,,,,
null,,learn_phase(without_color)8,1475322,,,,black_plus_sign,,,null,object_11a.png,object_02b.png,,,,,,,,,,,,,,,,,,,,,
null,,black_cross(without_color)8,1476124,,,,blue,,,null,object_11a.png,object_02b.png,,,,,,,,,,,,,,,,,,,,,
null,,rt_plussign_withcolor8,1476626,,,,blue,,,null,object_11a.png,object_02b.png,,,,,,,,,,,,,,,,,,,,,
1456.2000000476837,,rt_thecrossant_black8,1477830,,,,black_plus_sign,,,49,,,,1,,,,,,1,,,,,,,,,,,,,
null,,color_black8,1477932,,,,black_plus_sign,,,null,,,,,,,,,,,,,,,,,,,,,,,
null,,learn_phase(without_color)8,1481434,,,,black_plus_sign,,,null,object_04b.png,object_10c.png,,,,,,,,,,,,,,,,,,,,,
null,,black_cross(without_color)8,1481916,,,,blue,,,null,object_04b.png,object_10c.png,,,,,,,,,,,,,,,,,,,,,
null,,rt_plussign_withcolor8,1482417,,,,blue,,,null,object_04b.png,object_10c.png,,,,,,,,,,,,,,,,,,,,,
1193.3999999761581,,rt_thecrossant_black8,1483941,,,,black_plus_sign,,,49,,,,1,,,,,,1,,,,,,,,,,,,,
null,,color_black8,1484044,,,,black_plus_sign,,,null,,,,,,,,,,,,,,,,,,,,,,,
null,,learn_phase(without_color)8,1487547,,,,black_plus_sign,,,null,object_07c.png,object_14c.png,,,,,,,,,,,,,,,,,,,,,
null,,black_cross(without_color)8,1488286,,,,blue,,,null,object_07c.png,object_14c.png,,,,,,,,,,,,,,,,,,,,,
null,,rt_plussign_withcolor8,1488788,,,,blue,,,null,object_07c.png,object_14c.png,,,,,,,,,,,,,,,,,,,,,
1114.3999999761581,,rt_thecrossant_black8,1490055,,,,black_plus_sign,,,49,,,,1,,,,,,1,,,,,,,,,,,,,
null,,color_black8,1490158,,,,black_plus_sign,,,null,,,,,,,,,,,,,,,,,,,,,,,
null,,learn_phase(without_color)8,1493662,,,,black_plus_sign,,,null,object_11b.png,object_10a.png,,,,,,,,,,,,,,,,,,,,,
null,,black_cross(without_color)8,1494661,,,,green,,,null,object_11b.png,object_10a.png,,,,,,,,,,,,,,,,,,,,,
null,,rt_plussign_withcolor8,1495163,,,,green,,,null,object_11b.png,object_10a.png,,,,,,,,,,,,,,,,,,,,,
1268,,rt_thecrossant_black8,1496170,,,,black_plus_sign,,,50,,,,1,,,,,,1,,,,,,,,,,,,,
null,,color_black8,1496274,,,,black_plus_sign,,,null,,,,,,,,,,,,,,,,,,,,,,,
null,,learn_phase(without_color)8,1499777,,,,black_plus_sign,,,null,object_05a.png,object_08c.png,,,,,,,,,,,,,,,,,,,,,
null,,black_cross(without_color)8,1500384,,,,green,,,null,object_05a.png,object_08c.png,,,,,,,,,,,,,,,,,,,,,
null,,rt_plussign_withcolor8,1500886,,,,green,,,null,object_05a.png,object_08c.png,,,,,,,,,,,,,,,,,,,,,
1662.6999999284744,,rt_thecrossant_black8,1502284,,,,black_plus_sign,,,50,,,,1,,,,,,1,,,,,,,,,,,,,
null,,color_black8,1502387,,,,black_plus_sign,,,null,,,,,,,,,,,,,,,,,,,,,,,
null,,learn_phase(without_color)8,1505891,,,,black_plus_sign,,,null,object_04c.png,object_08b.png,,,,,,,,,,,,,,,,,,,,,
null,,black_cross(without_color)8,1506506,,,,green,,,null,object_04c.png,object_08b.png,,,,,,,,,,,,,,,,,,,,,
null,,rt_plussign_withcolor8,1507008,,,,green,,,null,object_04c.png,object_08b.png,,,,,,,,,,,,,,,,,,,,,
1092.1000000238419,,rt_thecrossant_black8,1508399,,,,black_plus_sign,,,50,,,,1,,,,,,1,,,,,,,,,,,,,
null,,color_black8,1508502,,,,black_plus_sign,,,null,,,,,,,,,,,,,,,,,,,,,,,
null,,learn_phase(without_color)8,1512005,,,,black_plus_sign,,,null,object_03a.png,object_03c.png,,,,,,,,,,,,,,,,,,,,,
null,,black_cross(without_color)8,1512971,,,,blue,,,null,object_03a.png,object_03c.png,,,,,,,,,,,,,,,,,,,,,
null,,rt_plussign_withcolor8,1513474,,,,blue,,,null,object_03a.png,object_03c.png,,,,,,,,,,,,,,,,,,,,,
1002.0999999046326,,rt_thecrossant_black8,1514514,,,,black_plus_sign,,,49,,,,1,,,,,,1,,,,,,,,,,,,,
null,,color_black8,1514617,,,,black_plus_sign,,,null,,,,,,,,,,,,,,,,,,,,,,,
null,,thebreak,1514727,,,,<p></p>,,,null,,,,,,,,,,,,,,,,,,,,,,,
3098.399999976158,,intro_0,1517827,,,,instruct,,,32,,,,,,,,,,,,,,,,,,,,,,,
11377.799999952316,,directmemory_phase8,1529206,,,,object_15b.png,,,51,,,,1,object_04b.png,object_12c.png,object_13a.png,object_13a.png,,0.7452830188679245,,1,,,,,,,,,,,
6805.099999904633,,directmemory_phase8,1536013,,,,object_14a.png,,,51,,,,0,object_15a.png,object_06a.png,object_08a.png,object_15a.png,,0.7383177570093458,,0,,,,,,,,,,,
6163.100000023842,,directmemory_phase8,1542179,,,,object_03a.png,,,51,,,,1,object_09b.png,object_12c.png,object_03c.png,object_03c.png,,0.7407407407407407,,1,,,,,,,,,,,
2048.600000023842,,directmemory_phase8,1544229,,,,object_10b.png,,,51,,,,1,object_13a.png,object_07c.png,object_01c.png,object_01c.png,,0.7431192660550459,,1,,,,,,,,,,,
2309.8000000715256,,directmemory_phase8,1546541,,,,object_10c.png,,,51,,,,1,object_07b.png,object_08c.png,object_04b.png,object_04b.png,,0.7454545454545455,,1,,,,,,,,,,,
4107.699999928474,,directmemory_phase8,1550652,,,,object_07b.png,,,50,,,,1,object_09b.png,object_12c.png,object_07c.png,object_12c.png,,0.7477477477477478,,1,,,,,,,,,,,
2127.7999999523163,,directmemory_phase8,1552781,,,,object_02a.png,,,50,,,,1,object_10c.png,object_09b.png,object_02b.png,object_09b.png,,0.75,,1,,,,,,,,,,,
5091.299999952316,,directmemory_phase8,1557876,,,,object_08b.png,,,51,,,,1,object_08c.png,object_01b.png,object_04c.png,object_04c.png,,0.7522123893805309,,1,,,,,,,,,,,
1839.1000000238419,,directmemory_phase8,1559717,,,,object_08a.png,,,49,,,,1,object_07a.png,object_10c.png,object_14c.png,object_07a.png,,0.7543859649122807,,1,,,,,,,,,,,
2931.5999999046326,,directmemory_phase8,1562652,,,,object_08c.png,,,51,,,,1,object_02b.png,object_10c.png,object_05a.png,object_05a.png,,0.7565217391304347,,1,,,,,,,,,,,
2936.0999999046326,,directmemory_phase8,1565590,,,,object_10a.png,,,49,,,,1,object_11b.png,object_01b.png,object_02a.png,object_11b.png,,0.7586206896551724,,1,,,,,,,,,,,
2756,,directmemory_phase8,1568349,,,,object_01b.png,,,50,,,,1,object_05a.png,object_06a.png,object_03a.png,object_06a.png,,0.7606837606837606,,1,,,,,,,,,,,
3292.399999976158,,directmemory_phase8,1571645,,,,object_11a.png,,,51,,,,1,object_11b.png,object_10a.png,object_02b.png,object_02b.png,,0.7627118644067796,,1,,,,,,,,,,,
3860.399999976158,,directmemory_phase8,1575509,,,,object_07c.png,,,51,,,,1,object_14a.png,object_15b.png,object_14c.png,object_14c.png,,0.7647058823529411,,1,,,,,,,,,,,
1595,,directmemory_phase8,1577107,,,,object_03b.png,,,49,,,,1,object_06b.png,object_02b.png,object_06a.png,object_06b.png,,0.7666666666666667,,1,,,,,,,,,,,
null,,thebreak,1577209,,,,<p></p>,,,null,,,,,,,,,,,,,,,,,,,,,,,
3250.5,,intro_0,1580461,,,,instruct,,,32,,,,,,,,,,,,,,,,,,,,,,,
12766.699999928474,,intro_1,1593229,,,,instruct,,,32,,,,,,,,,,,,,,,,,,,,,,,
5261.400000095367,,intro_2,1598492,,,,instruct,,,32,,,,,,,,,,,,,,,,,,,,,,,
,,intro_3,1612151,,,,instruct,,,,,,,,,,,,,,,,,,,,,,,,,,
8652.199999928474,,intro_4,1620805,,,,instruct,,,32,,,,,,,,,,,,,,,,,,,,,,,
10398.299999952316,,inference_phase,1631205,,,,object_09a.png,,,50,object_04b.png,object_07a.png,,0,,,,object_10b.png,,0,,,object_10b.png,,,,,,,,,,
8724.799999952316,,inference_phase,1639934,,,,object_03a.png,,,51,object_12a.png,object_12b.png,,0,,,,object_12b.png,,0,,,object_14a.png,,,,,,,,,,
6613.400000095367,,inference_phase,1646549,,,,object_15a.png,,,49,object_09c.png,object_06c.png,,1,,,,object_09c.png,,0.3333333333333333,,,object_01c.png,,,,,,,,,,
5947.5,,inference_phase,1652500,,,,object_04c.png,,,49,object_13c.png,object_02c.png,,1,,,,object_13c.png,,0.5,,,object_14a.png,,,,,,,,,,
6126.600000023842,,inference_phase,1658628,,,,object_15b.png,,,49,object_05b.png,object_02c.png,,1,,,,object_05b.png,,0.6,,,object_07b.png,,,,,,,,,,
5362,,inference_phase,1663991,,,,object_13b.png,,,50,object_03c.png,object_15b.png,,0,,,,object_02a.png,,0.5,,,object_02a.png,,,,,,,,,,
5427.299999952316,,inference_phase,1669420,,,,object_14b.png,,,51,object_06b.png,object_07c.png,,0,,,,object_07c.png,,0.42857142857142855,,,object_15a.png,,,,,,,,,,
2718.3000000715256,,inference_phase,1672140,,,,object_12c.png,,,51,object_05b.png,object_02c.png,,0,,,,object_02c.png,,0.375,,,object_02b.png,,,,,,,,,,
3062.6999999284744,,inference_phase,1675206,,,,object_10c.png,,,49,object_05c.png,object_09c.png,,1,,,,object_05c.png,,0.4444444444444444,,,object_01c.png,,,,,,,,,,
2689.5,,inference_phase,1677899,,,,object_10a.png,,,49,object_12a.png,object_11c.png,,1,,,,object_12a.png,,0.5,,,object_06b.png,,,,,,,,,,
4150.800000071526,,inference_phase,1682051,,,,object_03b.png,,,51,object_15c.png,object_11c.png,,0,,,,object_11c.png,,0.45454545454545453,,,object_09b.png,,,,,,,,,,
2257,,inference_phase,1684310,,,,object_01a.png,,,49,object_06a.png,object_07c.png,,1,,,,object_06a.png,,0.5,,,object_09b.png,,,,,,,,,,
3715.100000023842,,inference_phase,1688029,,,,object_07a.png,,,49,object_04a.png,object_12a.png,,1,,,,object_04a.png,,0.5384615384615384,,,object_04b.png,,,,,,,,,,
5764.099999904633,,inference_phase,1693796,,,,object_06c.png,,,50,object_13a.png,object_02a.png,,0,,,,object_11a.png,,0.5,,,object_11a.png,,,,,,,,,,
5950.5,,inference_phase,1699748,,,,object_08c.png,,,49,object_15c.png,object_11c.png,,1,,,,object_15c.png,,0.5333333333333333,,,object_11b.png,,,,,,,,,,
,,survey,1808647,,,,survey-questions,,,,,,,,,,,,,,,,,none,high,no,I used a lot of what some might call earthy language in my mind to imagine the connection between the two pieces and once I started to do that I think my score improved a lot,not really,No,It was kinda fun,,,
8251.200000047684,,thank_you,1816899,,,,<p> Congratulations, you are all done!</p><p> <strong>Please click space on your keyboard to end the experiment!</strong> The secret code to enter at the beginning screen is: <strong>CIMBPENS</strong></p><p> Please make sure to submit the HIT and email uciccnl@gmail.com if you had any issues! </p>,,,32,,,,,,,,,,,,,,,,,,,,,6,0,C78LSMTN
