rt,responses,trial_type,time_elapsed,identifier_a,identifier_b,identifier_c,stimulus,button_pressed,response,key_press,stimulus_left,stimulus_right,practice_cumulative_accuracy,accuracy,stimulus_down_left,stimulus_down_mid,stimulus_down_right,stimulus_correct,prac_weighted_accuracy,cumulative_accuracy,weighted_accuracy,stimulus_middle,problems,smooth,distraction,strategies,easier,similar,comments,detectfocus,breakfocus,completion_code
8747.899999976158,{worker_id:651c2cc23704dc10500ae77c},id_enter,8752,object_09b.png; object_05a.png; object_07a.png; object_14a.png; object_01c.png; object_05b.png; object_01b.png; object_01a.png; object_09c.png; object_15b.png; object_15c.png; object_06c.png; object_10b.png; object_14b.png; object_12c.png,object_15a.png; object_02a.png; object_03b.png; object_08c.png; object_03c.png; object_04b.png; object_02b.png; object_06b.png; object_07b.png; object_13a.png; object_04a.png; object_08b.png; object_04c.png; object_06a.png; object_11c.png,object_02c.png; object_10c.png; object_13c.png; object_14c.png; object_11a.png; object_13b.png; object_09a.png; object_12a.png; object_12b.png; object_03a.png; object_10a.png; object_11b.png; object_07c.png; object_08a.png; object_05c.png,,,,,,,,,,,,,,,,,,,,,,,,,,
20477.09999999404,,make_fullscreen,29231,,,,fullscreen,0,,,,,,,,,,,,,,,,,,,,,,,,
5957.199999988079,,instruct_1,35191,,,,instruct,0,Next,,,,,,,,,,,,,,,,,,,,,,,
18125.80000001192,,instruct_2,53318,,,,instruct,1,Next,,,,,,,,,,,,,,,,,,,,,,,
8449,,instruct_3,61769,,,,instruct,1,Next,,,,,,,,,,,,,,,,,,,,,,,
24873.20000001788,,instruct_4,86643,,,,instruct,1,Next,,,,,,,,,,,,,,,,,,,,,,,
12010.300000011921,,instruct_5,98655,,,,instruct,1,Next,,,,,,,,,,,,,,,,,,,,,,,
4601.5,,instruct_6,103257,,,,instruct,1,Next,,,,,,,,,,,,,,,,,,,,,,,
38288.59999999404,,instruct_7,141548,,,,instruct,1,Next,,,,,,,,,,,,,,,,,,,,,,,
null,,prac_atten_color_black,141921,,,,black_plus_sign,,,null,,,,,,,,,,,,,,,,,,,,,,
881.8000000119209,,prac_atten_color,142955,,,,<p style='position:absolute;top: 50%;right: 50%;transform: translate(50%, -50%);font-size: 125px;color: blue;'>+</p>,,,49,,,,,,,,,,,,,,,,,,,,,,
null,,prac_atten_color_black,144957,,,,black_plus_sign,,,null,,,,,,,,,,,,,,,,,,,,,,
null,,prac_atten_color_black,145331,,,,black_plus_sign,,,null,,,,,,,,,,,,,,,,,,,,,,
null,,prac_atten_color,145954,,,,<p style='position:absolute;top: 50%;right: 50%;transform: translate(50%, -50%);font-size: 125px;color: green;'>+</p>,,,null,,,,,,,,,,,,,,,,,,,,,,
166.40000000596046,,prac_atten_color_black,147957,,,,black_plus_sign,,,50,,,,,,,,,,,,,,,,,,,,,,
null,,prac_atten_color_black,148740,,,,black_plus_sign,,,null,,,,,,,,,,,,,,,,,,,,,,
746.2999999821186,,prac_atten_color,149597,,,,<p style='position:absolute;top: 50%;right: 50%;transform: translate(50%, -50%);font-size: 125px;color: green;'>+</p>,,,50,,,,,,,,,,,,,,,,,,,,,,
null,,prac_atten_color_black,151599,,,,black_plus_sign,,,null,,,,,,,,,,,,,,,,,,,,,,
null,,prac_atten_color_black,152153,,,,black_plus_sign,,,null,,,,,,,,,,,,,,,,,,,,,,
340.30000001192093,,prac_atten_color,153197,,,,<p style='position:absolute;top: 50%;right: 50%;transform: translate(50%, -50%);font-size: 125px;color: blue;'>+</p>,,,49,,,,,,,,,,,,,,,,,,,,,,
null,,prac_atten_color_black,155199,,,,black_plus_sign,,,null,,,,,,,,,,,,,,,,,,,,,,
null,,prac_atten_color_black,155562,,,,black_plus_sign,,,null,,,,,,,,,,,,,,,,,,,,,,
469,,prac_atten_color,156541,,,,<p style='position:absolute;top: 50%;right: 50%;transform: translate(50%, -50%);font-size: 125px;color: green;'>+</p>,,,50,,,,,,,,,,,,,,,,,,,,,,
null,,prac_atten_color_black,158544,,,,black_plus_sign,,,null,,,,,,,,,,,,,,,,,,,,,,
null,,prac_atten_color_black,158969,,,,black_plus_sign,,,null,,,,,,,,,,,,,,,,,,,,,,
721.7000000178814,,prac_atten_color,159988,,,,<p style='position:absolute;top: 50%;right: 50%;transform: translate(50%, -50%);font-size: 125px;color: green;'>+</p>,,,50,,,,,,,,,,,,,,,,,,,,,,
null,,prac_atten_color_black,161991,,,,black_plus_sign,,,null,,,,,,,,,,,,,,,,,,,,,,
null,,prac_atten_color_black,162375,,,,black_plus_sign,,,null,,,,,,,,,,,,,,,,,,,,,,
632.8000000119209,,prac_atten_color,163039,,,,<p style='position:absolute;top: 50%;right: 50%;transform: translate(50%, -50%);font-size: 125px;color: blue;'>+</p>,,,49,,,,,,,,,,,,,,,,,,,,,,
null,,prac_atten_color_black,165041,,,,black_plus_sign,,,null,,,,,,,,,,,,,,,,,,,,,,
null,,prac_atten_color_black,165782,,,,black_plus_sign,,,null,,,,,,,,,,,,,,,,,,,,,,
null,,prac_atten_color,166562,,,,<p style='position:absolute;top: 50%;right: 50%;transform: translate(50%, -50%);font-size: 125px;color: green;'>+</p>,,,null,,,,,,,,,,,,,,,,,,,,,,
82.19999998807907,,prac_atten_color_black,168564,,,,black_plus_sign,,,50,,,,,,,,,,,,,,,,,,,,,,
null,,prac_atten_color_black,169191,,,,black_plus_sign,,,null,,,,,,,,,,,,,,,,,,,,,,
678.7000000178814,,prac_atten_color,170069,,,,<p style='position:absolute;top: 50%;right: 50%;transform: translate(50%, -50%);font-size: 125px;color: blue;'>+</p>,,,49,,,,,,,,,,,,,,,,,,,,,,
null,,prac_atten_color_black,172071,,,,black_plus_sign,,,null,,,,,,,,,,,,,,,,,,,,,,
null,,prac_atten_color_black,172600,,,,black_plus_sign,,,null,,,,,,,,,,,,,,,,,,,,,,
null,,prac_atten_color,173182,,,,<p style='position:absolute;top: 50%;right: 50%;transform: translate(50%, -50%);font-size: 125px;color: blue;'>+</p>,,,null,,,,,,,,,,,,,,,,,,,,,,
157.59999999403954,,prac_atten_color_black,175184,,,,black_plus_sign,,,49,,,,,,,,,,,,,,,,,,,,,,
15638.300000011921,,attentioncheck_feedback,190825,,,,cross_check_feedback,0,,,,,,,,,,,,,,,,,,,,,,,,
12944,,last_instruct,203771,,,,instruct,,,32,,,,,,,,,,,,,,,,,,,,,,
null,,prac_learn_phase(without_color),207273,,,,black_plus_sign,,,null,object_07b.png,object_09c.png,,,,,,,,,,,,,,,,,,,,
null,,prac_black_cross(without_color),207841,,,,green,,,null,object_07b.png,object_09c.png,,,,,,,,,,,,,,,,,,,,
null,,prac_rt_plussign_withcolor,208343,,,,green,,,null,object_07b.png,object_09c.png,,,,,,,,,,,,,,,,,,,,
null,,prac_rt_thecrossant_black,209791,,,,black_plus_sign,,,null,,,NaN,,,,,,,,,,,,,,,,,,,
null,,prac_color_black,209895,,,,black_plus_sign,,,null,,,,,,,,,,,,,,,,,,,,,,
null,,prac_learn_phase(without_color),213398,,,,black_plus_sign,,,null,object_13a.png,object_15b.png,,,,,,,,,,,,,,,,,,,,
null,,black_cross(without_color)1,214454,,,,blue,,,null,object_07b.png,object_09c.png,,,,,,,,,,,,,,,,,,,,
null,,prac_rt_plussign_withcolor,214957,,,,green,,,null,object_13a.png,object_15b.png,,,,,,,,,,,,,,,,,,,,
null,,prac_rt_thecrossant_black,216027,,,,black_plus_sign,,,null,,,NaN,,,,,,,,,,,,,,,,,,,
null,,warning_page,221032,,,,warning,,,null,,,,,,,,,,,,,,,,,,,,,,
null,,prac_color_black,221134,,,,black_plus_sign,,,null,,,,,,,,,,,,,,,,,,,,,,
null,,prac_learn_phase(without_color),224638,,,,black_plus_sign,,,null,object_09b.png,object_15a.png,,,,,,,,,,,,,,,,,,,,
null,,black_cross(without_color)1,225693,,,,blue,,,null,object_07b.png,object_09c.png,,,,,,,,,,,,,,,,,,,,
null,,prac_rt_plussign_withcolor,226195,,,,green,,,null,object_09b.png,object_15a.png,,,,,,,,,,,,,,,,,,,,
null,,prac_rt_thecrossant_black,227422,,,,black_plus_sign,,,null,,,NaN,,,,,,,,,,,,,,,,,,,
null,,warning_page,232425,,,,warning,,,null,,,,,,,,,,,,,,,,,,,,,,
null,,prac_color_black,232526,,,,black_plus_sign,,,null,,,,,,,,,,,,,,,,,,,,,,
null,,prac_learn_phase(without_color),236030,,,,black_plus_sign,,,null,object_12c.png,object_11c.png,,,,,,,,,,,,,,,,,,,,
null,,black_cross(without_color)1,237085,,,,blue,,,null,object_07b.png,object_09c.png,,,,,,,,,,,,,,,,,,,,
null,,prac_rt_plussign_withcolor,237587,,,,green,,,null,object_12c.png,object_11c.png,,,,,,,,,,,,,,,,,,,,
1052.0999999940395,,prac_rt_thecrossant_black,238898,,,,black_plus_sign,,,50,,,1,1,,,,,,,,,,,,,,,,,,
null,,prac_color_black,239002,,,,black_plus_sign,,,null,,,,,,,,,,,,,,,,,,,,,,
11105.699999988079,,instruct_dir_01,250110,,,,instruct,0,Next,,,,,,,,,,,,,,,,,,,,,,,
18760.5,,instruct_dir_2,268872,,,,instruct,1,Next,,,,,,,,,,,,,,,,,,,,,,,
8476.699999988079,,instruct_dir_3,277350,,,,instruct,1,Next,,,,,,,,,,,,,,,,,,,,,,,
9387.300000011921,,instruct_dir_4,286738,,,,instruct,1,Start,,,,,,,,,,,,,,,,,,,,,,,
null,,thebreak,286842,,,,<p></p>,,,null,,,,,,,,,,,,,,,,,,,,,,
10551.40000000596,,intro_0,297395,,,,instruct,,,32,,,,,,,,,,,,,,,,,,,,,,
2571.2999999821186,,prac_directmemory_phase,299968,,,,practice/object_03a.png,,,49,,,,0,practice/object_02a.png,practice/object_03b.png,practice/object_02b.png,practice/object_03b.png,0,0,,,,,,,,,,,,
3578.9000000059605,,prac_directmemory_phase,303552,,,,practice/object_01a.png,,,50,,,,1,practice/object_03a.png,practice/object_01b.png,practice/object_04b.png,practice/object_01b.png,1,0.5,,,,,,,,,,,,
2287.9000000059605,,prac_directmemory_phase,305842,,,,practice/object_02a.png,,,49,,,,1,practice/object_02b.png,practice/object_03b.png,practice/object_03a.png,practice/object_02b.png,1,0.6666666666666666,,,,,,,,,,,,
2286,,prac_directmemory_phase,308131,,,,practice/object_04a.png,,,51,,,,1,practice/object_01b.png,practice/object_03a.png,practice/object_04b.png,practice/object_04b.png,1,0.75,,,,,,,,,,,,
9442.899999976158,,practice_feedback,317577,,,,practice_feedback,1,,,,,,,,,,,,,,,,,,,,,,,,
3893,,proceed_actualTask,321471,,,,proceed_actualTask,1,Continue,,,,,,,,,,,,,,,,,,,,,,,
10461.799999982119,,last_inst,331934,,,,last_inst,,,32,,,,,,,,,,,,,,,,,,,,,,
null,,learn_phase(without_color)1,335436,,,,black_plus_sign,,,null,object_07b.png,object_09c.png,,,,,,,,,,,,,,,,,,,,
null,,black_cross(without_color)1,336492,,,,blue,,,null,object_07b.png,object_09c.png,,,,,,,,,,,,,,,,,,,,
null,,rt_plussign_withcolor1,336994,,,,blue,,,null,object_07b.png,object_09c.png,,,,,,,,,,,,,,,,,,,,
1112,,rt_thecrossant_black1,337944,,,,black_plus_sign,,,49,,,,1,,,,,,1,,,,,,,,,,,,
null,,color_black1,338048,,,,black_plus_sign,,,null,,,,,,,,,,,,,,,,,,,,,,
null,,learn_phase(without_color)1,341552,,,,black_plus_sign,,,null,object_13a.png,object_15b.png,,,,,,,,,,,,,,,,,,,,
null,,black_cross(without_color)1,342027,,,,blue,,,null,object_13a.png,object_15b.png,,,,,,,,,,,,,,,,,,,,
null,,rt_plussign_withcolor1,342529,,,,blue,,,null,object_13a.png,object_15b.png,,,,,,,,,,,,,,,,,,,,
923.2000000178814,,rt_thecrossant_black1,344058,,,,black_plus_sign,,,49,,,,1,,,,,,1,,,,,,,,,,,,
null,,color_black1,344161,,,,black_plus_sign,,,null,,,,,,,,,,,,,,,,,,,,,,
null,,learn_phase(without_color)1,347664,,,,black_plus_sign,,,null,object_09b.png,object_15a.png,,,,,,,,,,,,,,,,,,,,
null,,black_cross(without_color)1,348255,,,,green,,,null,object_09b.png,object_15a.png,,,,,,,,,,,,,,,,,,,,
null,,rt_plussign_withcolor1,348764,,,,green,,,null,object_09b.png,object_15a.png,,,,,,,,,,,,,,,,,,,,
591.3000000119209,,rt_thecrossant_black1,350179,,,,black_plus_sign,,,50,,,,1,,,,,,1,,,,,,,,,,,,
null,,color_black1,350281,,,,black_plus_sign,,,null,,,,,,,,,,,,,,,,,,,,,,
null,,learn_phase(without_color)1,353785,,,,black_plus_sign,,,null,object_12c.png,object_11c.png,,,,,,,,,,,,,,,,,,,,
null,,black_cross(without_color)1,354551,,,,blue,,,null,object_12c.png,object_11c.png,,,,,,,,,,,,,,,,,,,,
null,,rt_plussign_withcolor1,355053,,,,blue,,,null,object_12c.png,object_11c.png,,,,,,,,,,,,,,,,,,,,
1014.5,,rt_thecrossant_black1,356293,,,,black_plus_sign,,,49,,,,1,,,,,,1,,,,,,,,,,,,
null,,color_black1,356396,,,,black_plus_sign,,,null,,,,,,,,,,,,,,,,,,,,,,
null,,learn_phase(without_color)1,359898,,,,black_plus_sign,,,null,object_08b.png,object_06c.png,,,,,,,,,,,,,,,,,,,,
null,,black_cross(without_color)1,360678,,,,blue,,,null,object_08b.png,object_06c.png,,,,,,,,,,,,,,,,,,,,
null,,rt_plussign_withcolor1,361181,,,,blue,,,null,object_08b.png,object_06c.png,,,,,,,,,,,,,,,,,,,,
1449.5,,rt_thecrossant_black1,362407,,,,black_plus_sign,,,49,,,,1,,,,,,1,,,,,,,,,,,,
null,,color_black1,362510,,,,black_plus_sign,,,null,,,,,,,,,,,,,,,,,,,,,,
null,,learn_phase(without_color)1,366014,,,,black_plus_sign,,,null,object_02a.png,object_05a.png,,,,,,,,,,,,,,,,,,,,
null,,black_cross(without_color)1,366999,,,,blue,,,null,object_02a.png,object_05a.png,,,,,,,,,,,,,,,,,,,,
null,,rt_plussign_withcolor1,367501,,,,blue,,,null,object_02a.png,object_05a.png,,,,,,,,,,,,,,,,,,,,
1375,,rt_thecrossant_black1,368522,,,,black_plus_sign,,,49,,,,1,,,,,,1,,,,,,,,,,,,
null,,color_black1,368624,,,,black_plus_sign,,,null,,,,,,,,,,,,,,,,,,,,,,
null,,learn_phase(without_color)1,372127,,,,black_plus_sign,,,null,object_15c.png,object_04a.png,,,,,,,,,,,,,,,,,,,,
null,,black_cross(without_color)1,372859,,,,green,,,null,object_15c.png,object_04a.png,,,,,,,,,,,,,,,,,,,,
null,,rt_plussign_withcolor1,373362,,,,green,,,null,object_15c.png,object_04a.png,,,,,,,,,,,,,,,,,,,,
1754.7999999821186,,rt_thecrossant_black1,374634,,,,black_plus_sign,,,50,,,,1,,,,,,1,,,,,,,,,,,,
null,,color_black1,374737,,,,black_plus_sign,,,null,,,,,,,,,,,,,,,,,,,,,,
null,,learn_phase(without_color)1,378240,,,,black_plus_sign,,,null,object_14a.png,object_08c.png,,,,,,,,,,,,,,,,,,,,
null,,black_cross(without_color)1,379216,,,,green,,,null,object_14a.png,object_08c.png,,,,,,,,,,,,,,,,,,,,
null,,rt_plussign_withcolor1,379718,,,,green,,,null,object_14a.png,object_08c.png,,,,,,,,,,,,,,,,,,,,
1151.9000000059605,,rt_thecrossant_black1,380748,,,,black_plus_sign,,,50,,,,1,,,,,,1,,,,,,,,,,,,
null,,color_black1,380852,,,,black_plus_sign,,,null,,,,,,,,,,,,,,,,,,,,,,
null,,learn_phase(without_color)1,384355,,,,black_plus_sign,,,null,object_10b.png,object_04c.png,,,,,,,,,,,,,,,,,,,,
null,,black_cross(without_color)1,384773,,,,blue,,,null,object_10b.png,object_04c.png,,,,,,,,,,,,,,,,,,,,
null,,rt_plussign_withcolor1,385275,,,,blue,,,null,object_10b.png,object_04c.png,,,,,,,,,,,,,,,,,,,,
1711.0999999940395,,rt_thecrossant_black1,386863,,,,black_plus_sign,,,49,,,,1,,,,,,1,,,,,,,,,,,,
null,,color_black1,386967,,,,black_plus_sign,,,null,,,,,,,,,,,,,,,,,,,,,,
null,,learn_phase(without_color)1,390470,,,,black_plus_sign,,,null,object_14b.png,object_06a.png,,,,,,,,,,,,,,,,,,,,
null,,black_cross(without_color)1,391387,,,,green,,,null,object_14b.png,object_06a.png,,,,,,,,,,,,,,,,,,,,
null,,rt_plussign_withcolor1,391889,,,,green,,,null,object_14b.png,object_06a.png,,,,,,,,,,,,,,,,,,,,
874.5,,rt_thecrossant_black1,392977,,,,black_plus_sign,,,50,,,,1,,,,,,1,,,,,,,,,,,,
null,,color_black1,393080,,,,black_plus_sign,,,null,,,,,,,,,,,,,,,,,,,,,,
null,,learn_phase(without_color)1,396583,,,,black_plus_sign,,,null,object_05b.png,object_04b.png,,,,,,,,,,,,,,,,,,,,
null,,black_cross(without_color)1,397182,,,,green,,,null,object_05b.png,object_04b.png,,,,,,,,,,,,,,,,,,,,
null,,rt_plussign_withcolor1,397695,,,,green,,,null,object_05b.png,object_04b.png,,,,,,,,,,,,,,,,,,,,
1346.300000011921,,rt_thecrossant_black1,399102,,,,black_plus_sign,,,50,,,,1,,,,,,1,,,,,,,,,,,,
null,,color_black1,399205,,,,black_plus_sign,,,null,,,,,,,,,,,,,,,,,,,,,,
null,,learn_phase(without_color)1,402709,,,,black_plus_sign,,,null,object_07a.png,object_03b.png,,,,,,,,,,,,,,,,,,,,
null,,black_cross(without_color)1,403139,,,,green,,,null,object_07a.png,object_03b.png,,,,,,,,,,,,,,,,,,,,
null,,rt_plussign_withcolor1,403642,,,,green,,,null,object_07a.png,object_03b.png,,,,,,,,,,,,,,,,,,,,
1077.9000000059605,,rt_thecrossant_black1,405218,,,,black_plus_sign,,,50,,,,1,,,,,,1,,,,,,,,,,,,
null,,color_black1,405322,,,,black_plus_sign,,,null,,,,,,,,,,,,,,,,,,,,,,
null,,learn_phase(without_color)1,408824,,,,black_plus_sign,,,null,object_01b.png,object_02b.png,,,,,,,,,,,,,,,,,,,,
null,,black_cross(without_color)1,409620,,,,green,,,null,object_01b.png,object_02b.png,,,,,,,,,,,,,,,,,,,,
null,,rt_plussign_withcolor1,410122,,,,green,,,null,object_01b.png,object_02b.png,,,,,,,,,,,,,,,,,,,,
785.9000000059605,,rt_thecrossant_black1,411332,,,,black_plus_sign,,,50,,,,1,,,,,,1,,,,,,,,,,,,
null,,color_black1,411436,,,,black_plus_sign,,,null,,,,,,,,,,,,,,,,,,,,,,
null,,learn_phase(without_color)1,414939,,,,black_plus_sign,,,null,object_06b.png,object_01a.png,,,,,,,,,,,,,,,,,,,,
null,,black_cross(without_color)1,415366,,,,green,,,null,object_06b.png,object_01a.png,,,,,,,,,,,,,,,,,,,,
null,,rt_plussign_withcolor1,415868,,,,green,,,null,object_06b.png,object_01a.png,,,,,,,,,,,,,,,,,,,,
1222.199999988079,,rt_thecrossant_black1,417446,,,,black_plus_sign,,,50,,,,1,,,,,,1,,,,,,,,,,,,
null,,color_black1,417548,,,,black_plus_sign,,,null,,,,,,,,,,,,,,,,,,,,,,
null,,learn_phase(without_color)1,421052,,,,black_plus_sign,,,null,object_03c.png,object_01c.png,,,,,,,,,,,,,,,,,,,,
null,,black_cross(without_color)1,422031,,,,green,,,null,object_03c.png,object_01c.png,,,,,,,,,,,,,,,,,,,,
null,,rt_plussign_withcolor1,422534,,,,green,,,null,object_03c.png,object_01c.png,,,,,,,,,,,,,,,,,,,,
719.4000000059605,,rt_thecrossant_black1,423560,,,,black_plus_sign,,,50,,,,1,,,,,,1,,,,,,,,,,,,
null,,color_black1,423664,,,,black_plus_sign,,,null,,,,,,,,,,,,,,,,,,,,,,
null,,thebreak,423769,,,,<p></p>,,,null,,,,,,,,,,,,,,,,,,,,,,
2757,,intro_0,426528,,,,instruct,,,32,,,,,,,,,,,,,,,,,,,,,,
3536.899999976158,,directmemory_phase1,430067,,,,object_07a.png,,,50,,,,0,object_04a.png,object_06c.png,object_03b.png,object_03b.png,,0,0,,,,,,,,,,,
2308.0999999940395,,directmemory_phase1,432380,,,,object_06c.png,,,49,,,,1,object_08b.png,object_02b.png,object_07a.png,object_08b.png,,0.5,1,,,,,,,,,,,
2683.9000000059605,,directmemory_phase1,435067,,,,object_12c.png,,,50,,,,1,object_09c.png,object_11c.png,object_08b.png,object_11c.png,,0.6666666666666666,1,,,,,,,,,,,
2680.2000000178814,,directmemory_phase1,437750,,,,object_14b.png,,,51,,,,1,object_06b.png,object_06c.png,object_06a.png,object_06a.png,,0.75,1,,,,,,,,,,,
3011.800000011921,,directmemory_phase1,440766,,,,object_09c.png,,,51,,,,0,object_07b.png,object_15a.png,object_09b.png,object_07b.png,,0.6,0,,,,,,,,,,,
1902.0999999940395,,directmemory_phase1,442672,,,,object_10b.png,,,50,,,,1,object_15c.png,object_04c.png,object_15a.png,object_04c.png,,0.6666666666666666,1,,,,,,,,,,,
1767.2000000178814,,directmemory_phase1,444441,,,,object_14a.png,,,49,,,,1,object_08c.png,object_04c.png,object_07a.png,object_08c.png,,0.7142857142857143,1,,,,,,,,,,,
2521.5999999940395,,directmemory_phase1,446966,,,,object_01c.png,,,51,,,,0,object_07a.png,object_03c.png,object_04c.png,object_03c.png,,0.625,0,,,,,,,,,,,
3330.5999999940395,,directmemory_phase1,450299,,,,object_15b.png,,,51,,,,0,object_06c.png,object_13a.png,object_04b.png,object_13a.png,,0.5555555555555556,0,,,,,,,,,,,
2715.0999999940395,,directmemory_phase1,453018,,,,object_15c.png,,,51,,,,0,object_15b.png,object_04a.png,object_06b.png,object_04a.png,,0.5,0,,,,,,,,,,,
3230.199999988079,,directmemory_phase1,456252,,,,object_01b.png,,,49,,,,1,object_02b.png,object_08c.png,object_09c.png,object_02b.png,,0.5454545454545454,1,,,,,,,,,,,
2712.2000000178814,,directmemory_phase1,458968,,,,object_01a.png,,,50,,,,0,object_02a.png,object_15c.png,object_06b.png,object_06b.png,,0.5,0,,,,,,,,,,,
2592.5,,directmemory_phase1,461564,,,,object_09b.png,,,50,,,,0,object_15a.png,object_04a.png,object_14b.png,object_15a.png,,0.46153846153846156,0,,,,,,,,,,,
2260.0999999940395,,directmemory_phase1,463826,,,,object_05b.png,,,51,,,,1,object_08b.png,object_01c.png,object_04b.png,object_04b.png,,0.5,1,,,,,,,,,,,
2909.300000011921,,directmemory_phase1,466739,,,,object_05a.png,,,49,,,,0,object_13a.png,object_05b.png,object_02a.png,object_02a.png,,0.4666666666666667,0,,,,,,,,,,,
null,,thebreak,466843,,,,<p></p>,,,null,,,,,,,,,,,,,,,,,,,,,,
2129.7999999821186,,intro_0,468974,,,,instruct,,,32,,,,,,,,,,,,,,,,,,,,,,
null,,learn_phase(without_color)2,472476,,,,black_plus_sign,,,null,object_03b.png,object_07a.png,,,,,,,,,,,,,,,,,,,,
null,,black_cross(without_color)2,472999,,,,green,,,null,object_03b.png,object_07a.png,,,,,,,,,,,,,,,,,,,,
null,,rt_plussign_withcolor2,473502,,,,green,,,null,object_03b.png,object_07a.png,,,,,,,,,,,,,,,,,,,,
864.3999999761581,,rt_thecrossant_black2,474985,,,,black_plus_sign,,,50,,,,1,,,,,,1,,,,,,,,,,,,
null,,color_black2,475087,,,,black_plus_sign,,,null,,,,,,,,,,,,,,,,,,,,,,
null,,learn_phase(without_color)2,478590,,,,black_plus_sign,,,null,object_15a.png,object_09b.png,,,,,,,,,,,,,,,,,,,,
null,,black_cross(without_color)2,479339,,,,green,,,null,object_15a.png,object_09b.png,,,,,,,,,,,,,,,,,,,,
null,,rt_plussign_withcolor2,479842,,,,green,,,null,object_15a.png,object_09b.png,,,,,,,,,,,,,,,,,,,,
751.9000000059605,,rt_thecrossant_black2,481098,,,,black_plus_sign,,,50,,,,1,,,,,,1,,,,,,,,,,,,
null,,color_black2,481201,,,,black_plus_sign,,,null,,,,,,,,,,,,,,,,,,,,,,
null,,learn_phase(without_color)2,484705,,,,black_plus_sign,,,null,object_15c.png,object_04a.png,,,,,,,,,,,,,,,,,,,,
null,,black_cross(without_color)2,485721,,,,green,,,null,object_15c.png,object_04a.png,,,,,,,,,,,,,,,,,,,,
null,,rt_plussign_withcolor2,486223,,,,green,,,null,object_15c.png,object_04a.png,,,,,,,,,,,,,,,,,,,,
1017.0999999940395,,rt_thecrossant_black2,487213,,,,black_plus_sign,,,50,,,,1,,,,,,1,,,,,,,,,,,,
null,,color_black2,487316,,,,black_plus_sign,,,null,,,,,,,,,,,,,,,,,,,,,,
null,,learn_phase(without_color)2,490821,,,,black_plus_sign,,,null,object_14b.png,object_06a.png,,,,,,,,,,,,,,,,,,,,
null,,black_cross(without_color)2,491643,,,,blue,,,null,object_14b.png,object_06a.png,,,,,,,,,,,,,,,,,,,,
492.90000000596046,,rt_plussign_withcolor2,492144,,,,blue,,,49,object_14b.png,object_06a.png,,,,,,,,,,,,,,,,,,,,
null,,rt_thecrossant_black2,493328,,,,black_plus_sign,,,null,,,,1,,,,,,1,,,,,,,,,,,,
null,,color_black2,493433,,,,black_plus_sign,,,null,,,,,,,,,,,,,,,,,,,,,,
null,,learn_phase(without_color)2,496936,,,,black_plus_sign,,,null,object_06c.png,object_08b.png,,,,,,,,,,,,,,,,,,,,
null,,black_cross(without_color)2,497931,,,,green,,,null,object_06c.png,object_08b.png,,,,,,,,,,,,,,,,,,,,
null,,rt_plussign_withcolor2,498434,,,,green,,,null,object_06c.png,object_08b.png,,,,,,,,,,,,,,,,,,,,
1130.199999988079,,rt_thecrossant_black2,499444,,,,black_plus_sign,,,50,,,,1,,,,,,1,,,,,,,,,,,,
null,,color_black2,499547,,,,black_plus_sign,,,null,,,,,,,,,,,,,,,,,,,,,,
null,,learn_phase(without_color)2,503048,,,,black_plus_sign,,,null,object_11c.png,object_12c.png,,,,,,,,,,,,,,,,,,,,
null,,black_cross(without_color)2,503608,,,,green,,,null,object_11c.png,object_12c.png,,,,,,,,,,,,,,,,,,,,
null,,rt_plussign_withcolor2,504110,,,,green,,,null,object_11c.png,object_12c.png,,,,,,,,,,,,,,,,,,,,
1454.6000000238419,,rt_thecrossant_black2,505556,,,,black_plus_sign,,,50,,,,1,,,,,,1,,,,,,,,,,,,
null,,color_black2,505659,,,,black_plus_sign,,,null,,,,,,,,,,,,,,,,,,,,,,
null,,learn_phase(without_color)2,509163,,,,black_plus_sign,,,null,object_07b.png,object_09c.png,,,,,,,,,,,,,,,,,,,,
null,,black_cross(without_color)2,509869,,,,blue,,,null,object_07b.png,object_09c.png,,,,,,,,,,,,,,,,,,,,
null,,rt_plussign_withcolor2,510372,,,,blue,,,null,object_07b.png,object_09c.png,,,,,,,,,,,,,,,,,,,,
1192.5,,rt_thecrossant_black2,511672,,,,black_plus_sign,,,50,,,,0,,,,,,0.8571428571428571,,,,,,,,,,,,
null,,color_black2,511774,,,,black_plus_sign,,,null,,,,,,,,,,,,,,,,,,,,,,
null,,learn_phase(without_color)2,515277,,,,black_plus_sign,,,null,object_13a.png,object_15b.png,,,,,,,,,,,,,,,,,,,,
null,,black_cross(without_color)2,515804,,,,blue,,,null,object_13a.png,object_15b.png,,,,,,,,,,,,,,,,,,,,
null,,rt_plussign_withcolor2,516307,,,,blue,,,null,object_13a.png,object_15b.png,,,,,,,,,,,,,,,,,,,,
1122.5,,rt_thecrossant_black2,517785,,,,black_plus_sign,,,49,,,,1,,,,,,0.875,,,,,,,,,,,,
null,,color_black2,517888,,,,black_plus_sign,,,null,,,,,,,,,,,,,,,,,,,,,,
null,,learn_phase(without_color)2,521392,,,,black_plus_sign,,,null,object_05a.png,object_02a.png,,,,,,,,,,,,,,,,,,,,
null,,black_cross(without_color)2,522495,,,,blue,,,null,object_05a.png,object_02a.png,,,,,,,,,,,,,,,,,,,,
null,,rt_plussign_withcolor2,522997,,,,blue,,,null,object_05a.png,object_02a.png,,,,,,,,,,,,,,,,,,,,
913.6999999880791,,rt_thecrossant_black2,523900,,,,black_plus_sign,,,49,,,,1,,,,,,0.8888888888888888,,,,,,,,,,,,
null,,color_black2,524003,,,,black_plus_sign,,,null,,,,,,,,,,,,,,,,,,,,,,
null,,learn_phase(without_color)2,527506,,,,black_plus_sign,,,null,object_01c.png,object_03c.png,,,,,,,,,,,,,,,,,,,,
null,,black_cross(without_color)2,528552,,,,green,,,null,object_01c.png,object_03c.png,,,,,,,,,,,,,,,,,,,,
null,,rt_plussign_withcolor2,529054,,,,green,,,null,object_01c.png,object_03c.png,,,,,,,,,,,,,,,,,,,,
1496.7999999821186,,rt_thecrossant_black2,530014,,,,black_plus_sign,,,50,,,,1,,,,,,0.9,,,,,,,,,,,,
null,,color_black2,530118,,,,black_plus_sign,,,null,,,,,,,,,,,,,,,,,,,,,,
null,,learn_phase(without_color)2,533620,,,,black_plus_sign,,,null,object_14a.png,object_08c.png,,,,,,,,,,,,,,,,,,,,
null,,black_cross(without_color)2,534030,,,,green,,,null,object_14a.png,object_08c.png,,,,,,,,,,,,,,,,,,,,
null,,rt_plussign_withcolor2,534532,,,,green,,,null,object_14a.png,object_08c.png,,,,,,,,,,,,,,,,,,,,
1521.800000011921,,rt_thecrossant_black2,536129,,,,black_plus_sign,,,50,,,,1,,,,,,0.9090909090909091,,,,,,,,,,,,
null,,color_black2,536231,,,,black_plus_sign,,,null,,,,,,,,,,,,,,,,,,,,,,
null,,learn_phase(without_color)2,539735,,,,black_plus_sign,,,null,object_06b.png,object_01a.png,,,,,,,,,,,,,,,,,,,,
null,,black_cross(without_color)2,540738,,,,green,,,null,object_06b.png,object_01a.png,,,,,,,,,,,,,,,,,,,,
null,,rt_plussign_withcolor2,541242,,,,green,,,null,object_06b.png,object_01a.png,,,,,,,,,,,,,,,,,,,,
955,,rt_thecrossant_black2,542244,,,,black_plus_sign,,,50,,,,1,,,,,,0.9166666666666666,,,,,,,,,,,,
null,,color_black2,542347,,,,black_plus_sign,,,null,,,,,,,,,,,,,,,,,,,,,,
null,,learn_phase(without_color)2,545850,,,,black_plus_sign,,,null,object_01b.png,object_02b.png,,,,,,,,,,,,,,,,,,,,
null,,black_cross(without_color)2,546467,,,,blue,,,null,object_01b.png,object_02b.png,,,,,,,,,,,,,,,,,,,,
null,,rt_plussign_withcolor2,546971,,,,blue,,,null,object_01b.png,object_02b.png,,,,,,,,,,,,,,,,,,,,
1477.7999999821186,,rt_thecrossant_black2,548360,,,,black_plus_sign,,,49,,,,1,,,,,,0.9230769230769231,,,,,,,,,,,,
null,,color_black2,548464,,,,black_plus_sign,,,null,,,,,,,,,,,,,,,,,,,,,,
null,,learn_phase(without_color)2,551967,,,,black_plus_sign,,,null,object_04c.png,object_10b.png,,,,,,,,,,,,,,,,,,,,
null,,black_cross(without_color)2,552866,,,,blue,,,null,object_04c.png,object_10b.png,,,,,,,,,,,,,,,,,,,,
null,,rt_plussign_withcolor2,553368,,,,blue,,,null,object_04c.png,object_10b.png,,,,,,,,,,,,,,,,,,,,
1452.7000000178814,,rt_thecrossant_black2,554475,,,,black_plus_sign,,,49,,,,1,,,,,,0.9285714285714286,,,,,,,,,,,,
null,,color_black2,554578,,,,black_plus_sign,,,null,,,,,,,,,,,,,,,,,,,,,,
null,,learn_phase(without_color)2,558081,,,,black_plus_sign,,,null,object_04b.png,object_05b.png,,,,,,,,,,,,,,,,,,,,
null,,black_cross(without_color)2,559176,,,,green,,,null,object_04b.png,object_05b.png,,,,,,,,,,,,,,,,,,,,
null,,rt_plussign_withcolor2,559678,,,,green,,,null,object_04b.png,object_05b.png,,,,,,,,,,,,,,,,,,,,
1358.5999999940395,,rt_thecrossant_black2,560588,,,,black_plus_sign,,,50,,,,1,,,,,,0.9333333333333333,,,,,,,,,,,,
null,,color_black2,560692,,,,black_plus_sign,,,null,,,,,,,,,,,,,,,,,,,,,,
null,,thebreak,560796,,,,<p></p>,,,null,,,,,,,,,,,,,,,,,,,,,,
43470.40000000596,,intro_0,604268,,,,instruct,,,32,,,,,,,,,,,,,,,,,,,,,,
6014.299999982119,,directmemory_phase2,610285,,,,object_09a.png,,,49,,,,0,object_13c.png,object_02b.png,object_04c.png,object_02b.png,,0.4375,0,,,,,,,,,,,
3109.0999999940395,,directmemory_phase2,613397,,,,object_13a.png,,,49,,,,0,object_04a.png,object_03a.png,object_14c.png,object_03a.png,,0.4117647058823529,0,,,,,,,,,,,
3185.5,,directmemory_phase2,616585,,,,object_13c.png,,,50,,,,1,object_10a.png,object_03b.png,object_06a.png,object_03b.png,,0.4444444444444444,1,,,,,,,,,,,
4140.300000011921,,directmemory_phase2,620729,,,,object_08c.png,,,49,,,,0,object_04a.png,object_14c.png,object_07c.png,object_14c.png,,0.42105263157894735,0,,,,,,,,,,,
3451.2000000178814,,directmemory_phase2,624184,,,,object_02a.png,,,50,,,,0,object_12a.png,object_08c.png,object_10c.png,object_10c.png,,0.4,0,,,,,,,,,,,
3748.5,,directmemory_phase2,627935,,,,object_07b.png,,,49,,,,0,object_03a.png,object_08b.png,object_12b.png,object_12b.png,,0.38095238095238093,0,,,,,,,,,,,
3435.699999988079,,directmemory_phase2,631372,,,,object_08a.png,,,51,,,,0,object_06a.png,object_15a.png,object_12b.png,object_06a.png,,0.36363636363636365,0,,,,,,,,,,,
3400.5999999940395,,directmemory_phase2,634776,,,,object_04c.png,,,50,,,,0,object_07c.png,object_13c.png,object_06a.png,object_07c.png,,0.34782608695652173,0,,,,,,,,,,,
4247.300000011921,,directmemory_phase2,639027,,,,object_15a.png,,,51,,,,0,object_02a.png,object_02c.png,object_09a.png,object_02c.png,,0.3333333333333333,0,,,,,,,,,,,
4684.799999982119,,directmemory_phase2,643714,,,,object_08b.png,,,51,,,,0,object_06b.png,object_11b.png,object_14c.png,object_11b.png,,0.32,0,,,,,,,,,,,
2955.5999999940395,,directmemory_phase2,646672,,,,object_10a.png,,,49,,,,0,object_08b.png,object_07c.png,object_04a.png,object_04a.png,,0.3076923076923077,0,,,,,,,,,,,
3356,,directmemory_phase2,650031,,,,object_11a.png,,,51,,,,0,object_03a.png,object_03c.png,object_04a.png,object_03c.png,,0.2962962962962963,0,,,,,,,,,,,
4699.5,,directmemory_phase2,654734,,,,object_11c.png,,,49,,,,0,object_03c.png,object_05c.png,object_03a.png,object_05c.png,,0.2857142857142857,0,,,,,,,,,,,
3182.300000011921,,directmemory_phase2,657920,,,,object_06b.png,,,50,,,,1,object_04a.png,object_12a.png,object_12b.png,object_12a.png,,0.3103448275862069,1,,,,,,,,,,,
4726.800000011921,,directmemory_phase2,662651,,,,object_04b.png,,,49,,,,0,object_11b.png,object_08b.png,object_13b.png,object_13b.png,,0.3,0,,,,,,,,,,,
null,,thebreak,662754,,,,<p></p>,,,null,,,,,,,,,,,,,,,,,,,,,,
2489.0999999940395,,intro_0,665245,,,,instruct,,,32,,,,,,,,,,,,,,,,,,,,,,
null,,learn_phase(without_color)3,668748,,,,black_plus_sign,,,null,object_04b.png,object_05b.png,,,,,,,,,,,,,,,,,,,,
null,,black_cross(without_color)3,669399,,,,blue,,,null,object_04b.png,object_05b.png,,,,,,,,,,,,,,,,,,,,
null,,rt_plussign_withcolor3,669900,,,,blue,,,null,object_04b.png,object_05b.png,,,,,,,,,,,,,,,,,,,,
1618.199999988079,,rt_thecrossant_black3,671253,,,,black_plus_sign,,,49,,,,1,,,,,,1,,,,,,,,,,,,
null,,color_black3,671355,,,,black_plus_sign,,,null,,,,,,,,,,,,,,,,,,,,,,
null,,learn_phase(without_color)3,674859,,,,black_plus_sign,,,null,object_12c.png,object_11c.png,,,,,,,,,,,,,,,,,,,,
null,,black_cross(without_color)3,675402,,,,green,,,null,object_12c.png,object_11c.png,,,,,,,,,,,,,,,,,,,,
null,,rt_plussign_withcolor3,675905,,,,green,,,null,object_12c.png,object_11c.png,,,,,,,,,,,,,,,,,,,,
1256.3999999761581,,rt_thecrossant_black3,677367,,,,black_plus_sign,,,50,,,,1,,,,,,1,,,,,,,,,,,,
null,,color_black3,677470,,,,black_plus_sign,,,null,,,,,,,,,,,,,,,,,,,,,,
null,,learn_phase(without_color)3,680973,,,,black_plus_sign,,,null,object_14b.png,object_06a.png,,,,,,,,,,,,,,,,,,,,
null,,black_cross(without_color)3,681622,,,,blue,,,null,object_14b.png,object_06a.png,,,,,,,,,,,,,,,,,,,,
null,,rt_plussign_withcolor3,682125,,,,blue,,,null,object_14b.png,object_06a.png,,,,,,,,,,,,,,,,,,,,
990.5999999940395,,rt_thecrossant_black3,683483,,,,black_plus_sign,,,49,,,,1,,,,,,1,,,,,,,,,,,,
null,,color_black3,683585,,,,black_plus_sign,,,null,,,,,,,,,,,,,,,,,,,,,,
null,,learn_phase(without_color)3,687090,,,,black_plus_sign,,,null,object_04c.png,object_10b.png,,,,,,,,,,,,,,,,,,,,
null,,black_cross(without_color)3,687783,,,,blue,,,null,object_04c.png,object_10b.png,,,,,,,,,,,,,,,,,,,,
null,,rt_plussign_withcolor3,688296,,,,blue,,,null,object_04c.png,object_10b.png,,,,,,,,,,,,,,,,,,,,
1015.1999999880791,,rt_thecrossant_black3,689611,,,,black_plus_sign,,,49,,,,1,,,,,,1,,,,,,,,,,,,
null,,color_black3,689714,,,,black_plus_sign,,,null,,,,,,,,,,,,,,,,,,,,,,
null,,learn_phase(without_color)3,693217,,,,black_plus_sign,,,null,object_15b.png,object_13a.png,,,,,,,,,,,,,,,,,,,,
null,,black_cross(without_color)3,693873,,,,blue,,,null,object_15b.png,object_13a.png,,,,,,,,,,,,,,,,,,,,
null,,rt_plussign_withcolor3,694375,,,,blue,,,null,object_15b.png,object_13a.png,,,,,,,,,,,,,,,,,,,,
1087.6000000238419,,rt_thecrossant_black3,695726,,,,black_plus_sign,,,49,,,,1,,,,,,1,,,,,,,,,,,,
null,,color_black3,695829,,,,black_plus_sign,,,null,,,,,,,,,,,,,,,,,,,,,,
null,,learn_phase(without_color)3,699333,,,,black_plus_sign,,,null,object_03b.png,object_07a.png,,,,,,,,,,,,,,,,,,,,
null,,black_cross(without_color)3,700207,,,,green,,,null,object_03b.png,object_07a.png,,,,,,,,,,,,,,,,,,,,
null,,rt_plussign_withcolor3,700709,,,,green,,,null,object_03b.png,object_07a.png,,,,,,,,,,,,,,,,,,,,
898.7999999821186,,rt_thecrossant_black3,701842,,,,black_plus_sign,,,50,,,,1,,,,,,1,,,,,,,,,,,,
null,,color_black3,701946,,,,black_plus_sign,,,null,,,,,,,,,,,,,,,,,,,,,,
null,,learn_phase(without_color)3,705449,,,,black_plus_sign,,,null,object_09b.png,object_15a.png,,,,,,,,,,,,,,,,,,,,
null,,black_cross(without_color)3,706318,,,,green,,,null,object_09b.png,object_15a.png,,,,,,,,,,,,,,,,,,,,
481,,rt_plussign_withcolor3,706820,,,,green,,,50,object_09b.png,object_15a.png,,,,,,,,,,,,,,,,,,,,
null,,rt_thecrossant_black3,707957,,,,black_plus_sign,,,null,,,,1,,,,,,1,,,,,,,,,,,,
null,,color_black3,708062,,,,black_plus_sign,,,null,,,,,,,,,,,,,,,,,,,,,,
null,,learn_phase(without_color)3,711565,,,,black_plus_sign,,,null,object_01b.png,object_02b.png,,,,,,,,,,,,,,,,,,,,
null,,black_cross(without_color)3,712217,,,,blue,,,null,object_01b.png,object_02b.png,,,,,,,,,,,,,,,,,,,,
null,,rt_plussign_withcolor3,712720,,,,blue,,,null,object_01b.png,object_02b.png,,,,,,,,,,,,,,,,,,,,
1224.300000011921,,rt_thecrossant_black3,714074,,,,black_plus_sign,,,49,,,,1,,,,,,1,,,,,,,,,,,,
null,,color_black3,714178,,,,black_plus_sign,,,null,,,,,,,,,,,,,,,,,,,,,,
null,,learn_phase(without_color)3,717683,,,,black_plus_sign,,,null,object_06b.png,object_01a.png,,,,,,,,,,,,,,,,,,,,
null,,black_cross(without_color)3,718693,,,,blue,,,null,object_06b.png,object_01a.png,,,,,,,,,,,,,,,,,,,,
null,,rt_plussign_withcolor3,719198,,,,blue,,,null,object_06b.png,object_01a.png,,,,,,,,,,,,,,,,,,,,
1077.8999999761581,,rt_thecrossant_black3,720193,,,,black_plus_sign,,,49,,,,1,,,,,,1,,,,,,,,,,,,
null,,color_black3,720296,,,,black_plus_sign,,,null,,,,,,,,,,,,,,,,,,,,,,
null,,learn_phase(without_color)3,723799,,,,black_plus_sign,,,null,object_09c.png,object_07b.png,,,,,,,,,,,,,,,,,,,,
null,,black_cross(without_color)3,724729,,,,blue,,,null,object_09c.png,object_07b.png,,,,,,,,,,,,,,,,,,,,
null,,rt_plussign_withcolor3,725232,,,,blue,,,null,object_09c.png,object_07b.png,,,,,,,,,,,,,,,,,,,,
1172.4000000059605,,rt_thecrossant_black3,726308,,,,black_plus_sign,,,49,,,,1,,,,,,1,,,,,,,,,,,,
null,,color_black3,726412,,,,black_plus_sign,,,null,,,,,,,,,,,,,,,,,,,,,,
null,,learn_phase(without_color)3,729916,,,,black_plus_sign,,,null,object_02a.png,object_05a.png,,,,,,,,,,,,,,,,,,,,
null,,black_cross(without_color)3,730803,,,,blue,,,null,object_02a.png,object_05a.png,,,,,,,,,,,,,,,,,,,,
null,,rt_plussign_withcolor3,731305,,,,blue,,,null,object_02a.png,object_05a.png,,,,,,,,,,,,,,,,,,,,
1422.7000000178814,,rt_thecrossant_black3,732423,,,,black_plus_sign,,,49,,,,1,,,,,,1,,,,,,,,,,,,
null,,color_black3,732526,,,,black_plus_sign,,,null,,,,,,,,,,,,,,,,,,,,,,
null,,learn_phase(without_color)3,736028,,,,black_plus_sign,,,null,object_03c.png,object_01c.png,,,,,,,,,,,,,,,,,,,,
null,,black_cross(without_color)3,736435,,,,green,,,null,object_03c.png,object_01c.png,,,,,,,,,,,,,,,,,,,,
null,,rt_plussign_withcolor3,736937,,,,green,,,null,object_03c.png,object_01c.png,,,,,,,,,,,,,,,,,,,,
1392.199999988079,,rt_thecrossant_black3,738536,,,,black_plus_sign,,,50,,,,1,,,,,,1,,,,,,,,,,,,
null,,color_black3,738640,,,,black_plus_sign,,,null,,,,,,,,,,,,,,,,,,,,,,
null,,learn_phase(without_color)3,742144,,,,black_plus_sign,,,null,object_06c.png,object_08b.png,,,,,,,,,,,,,,,,,,,,
null,,black_cross(without_color)3,743124,,,,green,,,null,object_06c.png,object_08b.png,,,,,,,,,,,,,,,,,,,,
null,,rt_plussign_withcolor3,743637,,,,green,,,null,object_06c.png,object_08b.png,,,,,,,,,,,,,,,,,,,,
695,,rt_thecrossant_black3,744665,,,,black_plus_sign,,,50,,,,1,,,,,,1,,,,,,,,,,,,
null,,color_black3,744768,,,,black_plus_sign,,,null,,,,,,,,,,,,,,,,,,,,,,
null,,learn_phase(without_color)3,748270,,,,black_plus_sign,,,null,object_15c.png,object_04a.png,,,,,,,,,,,,,,,,,,,,
null,,black_cross(without_color)3,748845,,,,green,,,null,object_15c.png,object_04a.png,,,,,,,,,,,,,,,,,,,,
null,,rt_plussign_withcolor3,749348,,,,green,,,null,object_15c.png,object_04a.png,,,,,,,,,,,,,,,,,,,,
1092.2999999821186,,rt_thecrossant_black3,750779,,,,black_plus_sign,,,50,,,,1,,,,,,1,,,,,,,,,,,,
null,,color_black3,750883,,,,black_plus_sign,,,null,,,,,,,,,,,,,,,,,,,,,,
null,,learn_phase(without_color)3,754388,,,,black_plus_sign,,,null,object_14a.png,object_08c.png,,,,,,,,,,,,,,,,,,,,
null,,black_cross(without_color)3,755004,,,,green,,,null,object_14a.png,object_08c.png,,,,,,,,,,,,,,,,,,,,
466.90000000596046,,rt_plussign_withcolor3,755506,,,,green,,,50,object_14a.png,object_08c.png,,,,,,,,,,,,,,,,,,,,
null,,rt_thecrossant_black3,756896,,,,black_plus_sign,,,null,,,,1,,,,,,1,,,,,,,,,,,,
null,,color_black3,756999,,,,black_plus_sign,,,null,,,,,,,,,,,,,,,,,,,,,,
null,,thebreak,757103,,,,<p></p>,,,null,,,,,,,,,,,,,,,,,,,,,,
3856.699999988079,,intro_0,760962,,,,instruct,,,32,,,,,,,,,,,,,,,,,,,,,,
2484.4000000059605,,directmemory_phase3,763448,,,,object_05b.png,,,51,,,,0,object_04b.png,object_07b.png,object_05a.png,object_04b.png,,0.2903225806451613,0,,,,,,,,,,,
3588,,directmemory_phase3,767040,,,,object_10b.png,,,51,,,,1,object_03c.png,object_01b.png,object_04c.png,object_04c.png,,0.3125,1,,,,,,,,,,,
3357.7999999821186,,directmemory_phase3,770400,,,,object_15b.png,,,51,,,,1,object_06b.png,object_01c.png,object_13a.png,object_13a.png,,0.3333333333333333,1,,,,,,,,,,,
3628.5,,directmemory_phase3,774033,,,,object_12c.png,,,50,,,,1,object_01b.png,object_11c.png,object_03c.png,object_11c.png,,0.35294117647058826,1,,,,,,,,,,,
2825.5,,directmemory_phase3,776862,,,,object_15c.png,,,49,,,,1,object_04a.png,object_08c.png,object_10b.png,object_04a.png,,0.37142857142857144,1,,,,,,,,,,,
1979.800000011921,,directmemory_phase3,778845,,,,object_14b.png,,,49,,,,1,object_06a.png,object_07b.png,object_01a.png,object_06a.png,,0.3888888888888889,1,,,,,,,,,,,
3313,,directmemory_phase3,782162,,,,object_01c.png,,,49,,,,0,object_06b.png,object_14b.png,object_03c.png,object_03c.png,,0.3783783783783784,0,,,,,,,,,,,
3338.300000011921,,directmemory_phase3,785503,,,,object_06c.png,,,50,,,,1,object_09b.png,object_08b.png,object_03c.png,object_08b.png,,0.39473684210526316,1,,,,,,,,,,,
2608.5999999940395,,directmemory_phase3,788116,,,,object_09b.png,,,49,,,,1,object_15a.png,object_04a.png,object_10b.png,object_15a.png,,0.41025641025641024,1,,,,,,,,,,,
3628.800000011921,,directmemory_phase3,791748,,,,object_07a.png,,,50,,,,1,object_05a.png,object_03b.png,object_04c.png,object_03b.png,,0.425,1,,,,,,,,,,,
3194.5,,directmemory_phase3,794947,,,,object_14a.png,,,51,,,,1,object_04a.png,object_06c.png,object_08c.png,object_08c.png,,0.43902439024390244,1,,,,,,,,,,,
3167.9000000059605,,directmemory_phase3,798119,,,,object_05a.png,,,51,,,,0,object_02a.png,object_02b.png,object_15b.png,object_02a.png,,0.42857142857142855,0,,,,,,,,,,,
2466.0999999940395,,directmemory_phase3,800588,,,,object_09c.png,,,49,,,,0,object_15a.png,object_05b.png,object_07b.png,object_07b.png,,0.4186046511627907,0,,,,,,,,,,,
3491.2000000178814,,directmemory_phase3,804083,,,,object_01a.png,,,50,,,,1,object_05b.png,object_06b.png,object_08c.png,object_06b.png,,0.4318181818181818,1,,,,,,,,,,,
3062.4000000059605,,directmemory_phase3,807149,,,,object_01b.png,,,49,,,,0,object_02a.png,object_09c.png,object_02b.png,object_02b.png,,0.4222222222222222,0,,,,,,,,,,,
null,,thebreak,807253,,,,<p></p>,,,null,,,,,,,,,,,,,,,,,,,,,,
2160.7000000178814,,intro_0,809416,,,,instruct,,,32,,,,,,,,,,,,,,,,,,,,,,
null,,learn_phase(without_color)4,812919,,,,black_plus_sign,,,null,object_15a.png,object_09b.png,,,,,,,,,,,,,,,,,,,,
null,,black_cross(without_color)4,813502,,,,green,,,null,object_15a.png,object_09b.png,,,,,,,,,,,,,,,,,,,,
null,,rt_plussign_withcolor4,814004,,,,green,,,null,object_15a.png,object_09b.png,,,,,,,,,,,,,,,,,,,,
1463.6000000238419,,rt_thecrossant_black4,815427,,,,black_plus_sign,,,50,,,,1,,,,,,1,,,,,,,,,,,,
null,,color_black4,815531,,,,black_plus_sign,,,null,,,,,,,,,,,,,,,,,,,,,,
null,,learn_phase(without_color)4,819034,,,,black_plus_sign,,,null,object_04c.png,object_10b.png,,,,,,,,,,,,,,,,,,,,
null,,black_cross(without_color)4,819496,,,,green,,,null,object_04c.png,object_10b.png,,,,,,,,,,,,,,,,,,,,
null,,rt_plussign_withcolor4,819998,,,,green,,,null,object_04c.png,object_10b.png,,,,,,,,,,,,,,,,,,,,
1227,,rt_thecrossant_black4,821543,,,,black_plus_sign,,,50,,,,1,,,,,,1,,,,,,,,,,,,
null,,color_black4,821645,,,,black_plus_sign,,,null,,,,,,,,,,,,,,,,,,,,,,
null,,learn_phase(without_color)4,825149,,,,black_plus_sign,,,null,object_06a.png,object_14b.png,,,,,,,,,,,,,,,,,,,,
null,,black_cross(without_color)4,825892,,,,green,,,null,object_06a.png,object_14b.png,,,,,,,,,,,,,,,,,,,,
null,,rt_plussign_withcolor4,826394,,,,green,,,null,object_06a.png,object_14b.png,,,,,,,,,,,,,,,,,,,,
782.3000000119209,,rt_thecrossant_black4,827657,,,,black_plus_sign,,,50,,,,1,,,,,,1,,,,,,,,,,,,
null,,color_black4,827766,,,,black_plus_sign,,,null,,,,,,,,,,,,,,,,,,,,,,
null,,learn_phase(without_color)4,831269,,,,black_plus_sign,,,null,object_08b.png,object_06c.png,,,,,,,,,,,,,,,,,,,,
null,,black_cross(without_color)4,831992,,,,green,,,null,object_08b.png,object_06c.png,,,,,,,,,,,,,,,,,,,,
null,,rt_plussign_withcolor4,832495,,,,green,,,null,object_08b.png,object_06c.png,,,,,,,,,,,,,,,,,,,,
1298.9000000059605,,rt_thecrossant_black4,833779,,,,black_plus_sign,,,50,,,,1,,,,,,1,,,,,,,,,,,,
null,,color_black4,833883,,,,black_plus_sign,,,null,,,,,,,,,,,,,,,,,,,,,,
null,,learn_phase(without_color)4,837386,,,,black_plus_sign,,,null,object_15c.png,object_04a.png,,,,,,,,,,,,,,,,,,,,
null,,black_cross(without_color)4,838323,,,,blue,,,null,object_15c.png,object_04a.png,,,,,,,,,,,,,,,,,,,,
null,,rt_plussign_withcolor4,838825,,,,blue,,,null,object_15c.png,object_04a.png,,,,,,,,,,,,,,,,,,,,
1225.2000000178814,,rt_thecrossant_black4,839895,,,,black_plus_sign,,,49,,,,1,,,,,,1,,,,,,,,,,,,
null,,color_black4,839997,,,,black_plus_sign,,,null,,,,,,,,,,,,,,,,,,,,,,
null,,learn_phase(without_color)4,843501,,,,black_plus_sign,,,null,object_11c.png,object_12c.png,,,,,,,,,,,,,,,,,,,,
null,,black_cross(without_color)4,844535,,,,green,,,null,object_11c.png,object_12c.png,,,,,,,,,,,,,,,,,,,,
null,,rt_plussign_withcolor4,845037,,,,green,,,null,object_11c.png,object_12c.png,,,,,,,,,,,,,,,,,,,,
1202.5,,rt_thecrossant_black4,846010,,,,black_plus_sign,,,50,,,,1,,,,,,1,,,,,,,,,,,,
null,,color_black4,846113,,,,black_plus_sign,,,null,,,,,,,,,,,,,,,,,,,,,,
null,,learn_phase(without_color)4,849616,,,,black_plus_sign,,,null,object_13a.png,object_15b.png,,,,,,,,,,,,,,,,,,,,
null,,black_cross(without_color)4,850463,,,,blue,,,null,object_13a.png,object_15b.png,,,,,,,,,,,,,,,,,,,,
null,,rt_plussign_withcolor4,850966,,,,blue,,,null,object_13a.png,object_15b.png,,,,,,,,,,,,,,,,,,,,
1428.5999999940395,,rt_thecrossant_black4,852125,,,,black_plus_sign,,,49,,,,1,,,,,,1,,,,,,,,,,,,
null,,color_black4,852229,,,,black_plus_sign,,,null,,,,,,,,,,,,,,,,,,,,,,
null,,learn_phase(without_color)4,855733,,,,black_plus_sign,,,null,object_08c.png,object_14a.png,,,,,,,,,,,,,,,,,,,,
null,,black_cross(without_color)4,856316,,,,blue,,,null,object_08c.png,object_14a.png,,,,,,,,,,,,,,,,,,,,
null,,rt_plussign_withcolor4,856818,,,,blue,,,null,object_08c.png,object_14a.png,,,,,,,,,,,,,,,,,,,,
1491.800000011921,,rt_thecrossant_black4,858242,,,,black_plus_sign,,,49,,,,1,,,,,,1,,,,,,,,,,,,
null,,color_black4,858346,,,,black_plus_sign,,,null,,,,,,,,,,,,,,,,,,,,,,
null,,learn_phase(without_color)4,861849,,,,black_plus_sign,,,null,object_02a.png,object_05a.png,,,,,,,,,,,,,,,,,,,,
null,,black_cross(without_color)4,862637,,,,blue,,,null,object_02a.png,object_05a.png,,,,,,,,,,,,,,,,,,,,
null,,rt_plussign_withcolor4,863140,,,,blue,,,null,object_02a.png,object_05a.png,,,,,,,,,,,,,,,,,,,,
998.9000000059605,,rt_thecrossant_black4,864357,,,,black_plus_sign,,,49,,,,1,,,,,,1,,,,,,,,,,,,
null,,color_black4,864471,,,,black_plus_sign,,,null,,,,,,,,,,,,,,,,,,,,,,
null,,learn_phase(without_color)4,867975,,,,black_plus_sign,,,null,object_05b.png,object_04b.png,,,,,,,,,,,,,,,,,,,,
null,,black_cross(without_color)4,868399,,,,blue,,,null,object_05b.png,object_04b.png,,,,,,,,,,,,,,,,,,,,
null,,rt_plussign_withcolor4,868901,,,,blue,,,null,object_05b.png,object_04b.png,,,,,,,,,,,,,,,,,,,,
1170.0999999940395,,rt_thecrossant_black4,870482,,,,black_plus_sign,,,49,,,,1,,,,,,1,,,,,,,,,,,,
null,,color_black4,870586,,,,black_plus_sign,,,null,,,,,,,,,,,,,,,,,,,,,,
null,,learn_phase(without_color)4,874089,,,,black_plus_sign,,,null,object_02b.png,object_01b.png,,,,,,,,,,,,,,,,,,,,
null,,black_cross(without_color)4,875039,,,,blue,,,null,object_02b.png,object_01b.png,,,,,,,,,,,,,,,,,,,,
null,,rt_plussign_withcolor4,875541,,,,blue,,,null,object_02b.png,object_01b.png,,,,,,,,,,,,,,,,,,,,
1042.300000011921,,rt_thecrossant_black4,876608,,,,black_plus_sign,,,49,,,,1,,,,,,1,,,,,,,,,,,,
null,,color_black4,876712,,,,black_plus_sign,,,null,,,,,,,,,,,,,,,,,,,,,,
null,,learn_phase(without_color)4,880216,,,,black_plus_sign,,,null,object_07a.png,object_03b.png,,,,,,,,,,,,,,,,,,,,
null,,black_cross(without_color)4,880883,,,,green,,,null,object_07a.png,object_03b.png,,,,,,,,,,,,,,,,,,,,
null,,rt_plussign_withcolor4,881392,,,,green,,,null,object_07a.png,object_03b.png,,,,,,,,,,,,,,,,,,,,
1365.2000000178814,,rt_thecrossant_black4,882732,,,,black_plus_sign,,,50,,,,1,,,,,,1,,,,,,,,,,,,
null,,color_black4,882835,,,,black_plus_sign,,,null,,,,,,,,,,,,,,,,,,,,,,
null,,learn_phase(without_color)4,886339,,,,black_plus_sign,,,null,object_01a.png,object_06b.png,,,,,,,,,,,,,,,,,,,,
null,,black_cross(without_color)4,887325,,,,blue,,,null,object_01a.png,object_06b.png,,,,,,,,,,,,,,,,,,,,
null,,rt_plussign_withcolor4,887827,,,,blue,,,null,object_01a.png,object_06b.png,,,,,,,,,,,,,,,,,,,,
954.4000000059605,,rt_thecrossant_black4,888849,,,,black_plus_sign,,,49,,,,1,,,,,,1,,,,,,,,,,,,
null,,color_black4,888953,,,,black_plus_sign,,,null,,,,,,,,,,,,,,,,,,,,,,
null,,learn_phase(without_color)4,892456,,,,black_plus_sign,,,null,object_01c.png,object_03c.png,,,,,,,,,,,,,,,,,,,,
null,,black_cross(without_color)4,893400,,,,green,,,null,object_01c.png,object_03c.png,,,,,,,,,,,,,,,,,,,,
null,,rt_plussign_withcolor4,893903,,,,green,,,null,object_01c.png,object_03c.png,,,,,,,,,,,,,,,,,,,,
1327.4000000059605,,rt_thecrossant_black4,894965,,,,black_plus_sign,,,50,,,,1,,,,,,1,,,,,,,,,,,,
null,,color_black4,895067,,,,black_plus_sign,,,null,,,,,,,,,,,,,,,,,,,,,,
null,,learn_phase(without_color)4,898571,,,,black_plus_sign,,,null,object_09c.png,object_07b.png,,,,,,,,,,,,,,,,,,,,
null,,black_cross(without_color)4,899579,,,,green,,,null,object_09c.png,object_07b.png,,,,,,,,,,,,,,,,,,,,
null,,rt_plussign_withcolor4,900081,,,,green,,,null,object_09c.png,object_07b.png,,,,,,,,,,,,,,,,,,,,
1442.2999999821186,,rt_thecrossant_black4,901079,,,,black_plus_sign,,,50,,,,1,,,,,,1,,,,,,,,,,,,
null,,color_black4,901182,,,,black_plus_sign,,,null,,,,,,,,,,,,,,,,,,,,,,
null,,thebreak,901286,,,,<p></p>,,,null,,,,,,,,,,,,,,,,,,,,,,
4989.300000011921,,intro_0,906278,,,,instruct,,,32,,,,,,,,,,,,,,,,,,,,,,
3279.2999999821186,,directmemory_phase4,909559,,,,object_11a.png,,,50,,,,0,object_04c.png,object_12a.png,object_03c.png,object_03c.png,,0.41304347826086957,0,,,,,,,,,,,
2960,,directmemory_phase4,912521,,,,object_12a.png,,,49,,,,0,object_14c.png,object_06b.png,object_13a.png,object_06b.png,,0.40425531914893614,0,,,,,,,,,,,
2425.2999999821186,,directmemory_phase4,914951,,,,object_07c.png,,,51,,,,0,object_04c.png,object_04b.png,object_03a.png,object_04c.png,,0.3958333333333333,0,,,,,,,,,,,
3116,,directmemory_phase4,918071,,,,object_03b.png,,,49,,,,1,object_13c.png,object_10c.png,object_08b.png,object_13c.png,,0.40816326530612246,1,,,,,,,,,,,
4125.9000000059605,,directmemory_phase4,922199,,,,object_04a.png,,,51,,,,0,object_06b.png,object_10a.png,object_10c.png,object_10a.png,,0.4,0,,,,,,,,,,,
3604.600000023842,,directmemory_phase4,925807,,,,object_08a.png,,,51,,,,1,object_08b.png,object_07c.png,object_06a.png,object_06a.png,,0.4117647058823529,1,,,,,,,,,,,
2533.0999999940395,,directmemory_phase4,928344,,,,object_09a.png,,,50,,,,1,object_10c.png,object_02b.png,object_02a.png,object_02b.png,,0.4230769230769231,1,,,,,,,,,,,
3695.4000000059605,,directmemory_phase4,932043,,,,object_08b.png,,,51,,,,0,object_03b.png,object_11b.png,object_12b.png,object_11b.png,,0.41509433962264153,0,,,,,,,,,,,
3540.9000000059605,,directmemory_phase4,935588,,,,object_07b.png,,,51,,,,1,object_10a.png,object_02a.png,object_12b.png,object_12b.png,,0.42592592592592593,1,,,,,,,,,,,
3739.7999999821186,,directmemory_phase4,939331,,,,object_13a.png,,,50,,,,0,object_03a.png,object_11b.png,object_03c.png,object_03a.png,,0.41818181818181815,0,,,,,,,,,,,
3404,,directmemory_phase4,942738,,,,object_14c.png,,,50,,,,0,object_08c.png,object_03b.png,object_12a.png,object_08c.png,,0.4107142857142857,0,,,,,,,,,,,
4172.799999982119,,directmemory_phase4,946915,,,,object_05c.png,,,49,,,,1,object_11c.png,object_08b.png,object_13c.png,object_11c.png,,0.42105263157894735,1,,,,,,,,,,,
3500.2999999821186,,directmemory_phase4,950419,,,,object_02a.png,,,49,,,,0,object_08a.png,object_06b.png,object_10c.png,object_10c.png,,0.41379310344827586,0,,,,,,,,,,,
3776,,directmemory_phase4,954199,,,,object_02c.png,,,50,,,,1,object_14c.png,object_15a.png,object_03c.png,object_15a.png,,0.423728813559322,1,,,,,,,,,,,
3168.2999999821186,,directmemory_phase4,957371,,,,object_13b.png,,,51,,,,0,object_04b.png,object_08c.png,object_11a.png,object_04b.png,,0.4166666666666667,0,,,,,,,,,,,
null,,thebreak,957475,,,,<p></p>,,,null,,,,,,,,,,,,,,,,,,,,,,
2051.300000011921,,intro_0,959528,,,,instruct,,,32,,,,,,,,,,,,,,,,,,,,,,
null,,learn_phase(without_color)5,963031,,,,black_plus_sign,,,null,object_11a.png,object_03c.png,,,,,,,,,,,,,,,,,,,,
null,,black_cross(without_color)5,964082,,,,blue,,,null,object_11a.png,object_03c.png,,,,,,,,,,,,,,,,,,,,
null,,rt_plussign_withcolor5,964585,,,,blue,,,null,object_11a.png,object_03c.png,,,,,,,,,,,,,,,,,,,,
1561.7999999821186,,rt_thecrossant_black5,965552,,,,black_plus_sign,,,49,,,,1,,,,,,1,,,,,,,,,,,,
null,,color_black5,965655,,,,black_plus_sign,,,null,,,,,,,,,,,,,,,,,,,,,,
null,,learn_phase(without_color)5,969159,,,,black_plus_sign,,,null,object_06b.png,object_12a.png,,,,,,,,,,,,,,,,,,,,
null,,black_cross(without_color)5,970227,,,,green,,,null,object_06b.png,object_12a.png,,,,,,,,,,,,,,,,,,,,
null,,rt_plussign_withcolor5,970733,,,,green,,,null,object_06b.png,object_12a.png,,,,,,,,,,,,,,,,,,,,
1272.300000011921,,rt_thecrossant_black5,971669,,,,black_plus_sign,,,50,,,,1,,,,,,1,,,,,,,,,,,,
null,,color_black5,971772,,,,black_plus_sign,,,null,,,,,,,,,,,,,,,,,,,,,,
null,,learn_phase(without_color)5,975276,,,,black_plus_sign,,,null,object_10c.png,object_02a.png,,,,,,,,,,,,,,,,,,,,
null,,black_cross(without_color)5,976314,,,,green,,,null,object_10c.png,object_02a.png,,,,,,,,,,,,,,,,,,,,
null,,rt_plussign_withcolor5,976817,,,,green,,,null,object_10c.png,object_02a.png,,,,,,,,,,,,,,,,,,,,
1380,,rt_thecrossant_black5,977785,,,,black_plus_sign,,,50,,,,1,,,,,,1,,,,,,,,,,,,
null,,color_black5,977888,,,,black_plus_sign,,,null,,,,,,,,,,,,,,,,,,,,,,
null,,learn_phase(without_color)5,981393,,,,black_plus_sign,,,null,object_05c.png,object_11c.png,,,,,,,,,,,,,,,,,,,,
null,,black_cross(without_color)5,982014,,,,green,,,null,object_05c.png,object_11c.png,,,,,,,,,,,,,,,,,,,,
null,,rt_plussign_withcolor5,982516,,,,green,,,null,object_05c.png,object_11c.png,,,,,,,,,,,,,,,,,,,,
1490.1000000238419,,rt_thecrossant_black5,983901,,,,black_plus_sign,,,50,,,,1,,,,,,1,,,,,,,,,,,,
null,,color_black5,984004,,,,black_plus_sign,,,null,,,,,,,,,,,,,,,,,,,,,,
null,,learn_phase(without_color)5,987508,,,,black_plus_sign,,,null,object_11b.png,object_08b.png,,,,,,,,,,,,,,,,,,,,
null,,black_cross(without_color)5,988551,,,,green,,,null,object_11b.png,object_08b.png,,,,,,,,,,,,,,,,,,,,
null,,rt_plussign_withcolor5,989054,,,,green,,,null,object_11b.png,object_08b.png,,,,,,,,,,,,,,,,,,,,
1065.0999999940395,,rt_thecrossant_black5,990017,,,,black_plus_sign,,,50,,,,1,,,,,,1,,,,,,,,,,,,
null,,color_black5,990126,,,,black_plus_sign,,,null,,,,,,,,,,,,,,,,,,,,,,
null,,learn_phase(without_color)5,993630,,,,black_plus_sign,,,null,object_13a.png,object_03a.png,,,,,,,,,,,,,,,,,,,,
null,,black_cross(without_color)5,994574,,,,green,,,null,object_13a.png,object_03a.png,,,,,,,,,,,,,,,,,,,,
null,,rt_plussign_withcolor5,995077,,,,green,,,null,object_13a.png,object_03a.png,,,,,,,,,,,,,,,,,,,,
1382.5999999940395,,rt_thecrossant_black5,996139,,,,black_plus_sign,,,50,,,,1,,,,,,1,,,,,,,,,,,,
null,,color_black5,996243,,,,black_plus_sign,,,null,,,,,,,,,,,,,,,,,,,,,,
null,,learn_phase(without_color)5,999747,,,,black_plus_sign,,,null,object_08c.png,object_14c.png,,,,,,,,,,,,,,,,,,,,
null,,black_cross(without_color)5,1000638,,,,blue,,,null,object_08c.png,object_14c.png,,,,,,,,,,,,,,,,,,,,
null,,rt_plussign_withcolor5,1001140,,,,blue,,,null,object_08c.png,object_14c.png,,,,,,,,,,,,,,,,,,,,
1410.5,,rt_thecrossant_black5,1002255,,,,black_plus_sign,,,49,,,,1,,,,,,1,,,,,,,,,,,,
null,,color_black5,1002358,,,,black_plus_sign,,,null,,,,,,,,,,,,,,,,,,,,,,
null,,learn_phase(without_color)5,1005861,,,,black_plus_sign,,,null,object_10a.png,object_04a.png,,,,,,,,,,,,,,,,,,,,
null,,black_cross(without_color)5,1006306,,,,blue,,,null,object_10a.png,object_04a.png,,,,,,,,,,,,,,,,,,,,
null,,rt_plussign_withcolor5,1006808,,,,blue,,,null,object_10a.png,object_04a.png,,,,,,,,,,,,,,,,,,,,
1330.1000000238419,,rt_thecrossant_black5,1008370,,,,black_plus_sign,,,49,,,,1,,,,,,1,,,,,,,,,,,,
null,,color_black5,1008473,,,,black_plus_sign,,,null,,,,,,,,,,,,,,,,,,,,,,
null,,learn_phase(without_color)5,1011977,,,,black_plus_sign,,,null,object_02c.png,object_15a.png,,,,,,,,,,,,,,,,,,,,
null,,black_cross(without_color)5,1012715,,,,green,,,null,object_02c.png,object_15a.png,,,,,,,,,,,,,,,,,,,,
null,,rt_plussign_withcolor5,1013218,,,,green,,,null,object_02c.png,object_15a.png,,,,,,,,,,,,,,,,,,,,
896.5999999940395,,rt_thecrossant_black5,1014487,,,,black_plus_sign,,,50,,,,1,,,,,,1,,,,,,,,,,,,
null,,color_black5,1014590,,,,black_plus_sign,,,null,,,,,,,,,,,,,,,,,,,,,,
null,,learn_phase(without_color)5,1018094,,,,black_plus_sign,,,null,object_12b.png,object_07b.png,,,,,,,,,,,,,,,,,,,,
null,,black_cross(without_color)5,1018593,,,,green,,,null,object_12b.png,object_07b.png,,,,,,,,,,,,,,,,,,,,
null,,rt_plussign_withcolor5,1019102,,,,green,,,null,object_12b.png,object_07b.png,,,,,,,,,,,,,,,,,,,,
1251.2999999821186,,rt_thecrossant_black5,1020609,,,,black_plus_sign,,,50,,,,1,,,,,,1,,,,,,,,,,,,
null,,color_black5,1020712,,,,black_plus_sign,,,null,,,,,,,,,,,,,,,,,,,,,,
null,,learn_phase(without_color)5,1024215,,,,black_plus_sign,,,null,object_13c.png,object_03b.png,,,,,,,,,,,,,,,,,,,,
null,,black_cross(without_color)5,1024656,,,,blue,,,null,object_13c.png,object_03b.png,,,,,,,,,,,,,,,,,,,,
null,,rt_plussign_withcolor5,1025158,,,,blue,,,null,object_13c.png,object_03b.png,,,,,,,,,,,,,,,,,,,,
928,,rt_thecrossant_black5,1026723,,,,black_plus_sign,,,49,,,,1,,,,,,1,,,,,,,,,,,,
null,,color_black5,1026827,,,,black_plus_sign,,,null,,,,,,,,,,,,,,,,,,,,,,
null,,learn_phase(without_color)5,1030330,,,,black_plus_sign,,,null,object_06a.png,object_08a.png,,,,,,,,,,,,,,,,,,,,
null,,black_cross(without_color)5,1030928,,,,green,,,null,object_06a.png,object_08a.png,,,,,,,,,,,,,,,,,,,,
null,,rt_plussign_withcolor5,1031431,,,,green,,,null,object_06a.png,object_08a.png,,,,,,,,,,,,,,,,,,,,
917.9000000059605,,rt_thecrossant_black5,1032839,,,,black_plus_sign,,,50,,,,1,,,,,,1,,,,,,,,,,,,
null,,color_black5,1032943,,,,black_plus_sign,,,null,,,,,,,,,,,,,,,,,,,,,,
null,,learn_phase(without_color)5,1036447,,,,black_plus_sign,,,null,object_13b.png,object_04b.png,,,,,,,,,,,,,,,,,,,,
null,,black_cross(without_color)5,1037086,,,,blue,,,null,object_13b.png,object_04b.png,,,,,,,,,,,,,,,,,,,,
null,,rt_plussign_withcolor5,1037588,,,,blue,,,null,object_13b.png,object_04b.png,,,,,,,,,,,,,,,,,,,,
942,,rt_thecrossant_black5,1038954,,,,black_plus_sign,,,49,,,,1,,,,,,1,,,,,,,,,,,,
null,,color_black5,1039057,,,,black_plus_sign,,,null,,,,,,,,,,,,,,,,,,,,,,
null,,learn_phase(without_color)5,1042561,,,,black_plus_sign,,,null,object_07c.png,object_04c.png,,,,,,,,,,,,,,,,,,,,
null,,black_cross(without_color)5,1043351,,,,blue,,,null,object_07c.png,object_04c.png,,,,,,,,,,,,,,,,,,,,
424.09999999403954,,rt_plussign_withcolor5,1043854,,,,blue,,,49,object_07c.png,object_04c.png,,,,,,,,,,,,,,,,,,,,
null,,rt_thecrossant_black5,1045070,,,,black_plus_sign,,,null,,,,1,,,,,,1,,,,,,,,,,,,
null,,color_black5,1045173,,,,black_plus_sign,,,null,,,,,,,,,,,,,,,,,,,,,,
null,,learn_phase(without_color)5,1048676,,,,black_plus_sign,,,null,object_09a.png,object_02b.png,,,,,,,,,,,,,,,,,,,,
null,,black_cross(without_color)5,1049446,,,,blue,,,null,object_09a.png,object_02b.png,,,,,,,,,,,,,,,,,,,,
null,,rt_plussign_withcolor5,1049949,,,,blue,,,null,object_09a.png,object_02b.png,,,,,,,,,,,,,,,,,,,,
1177.300000011921,,rt_thecrossant_black5,1051186,,,,black_plus_sign,,,49,,,,1,,,,,,1,,,,,,,,,,,,
null,,color_black5,1051289,,,,black_plus_sign,,,null,,,,,,,,,,,,,,,,,,,,,,
null,,thebreak,1051394,,,,<p></p>,,,null,,,,,,,,,,,,,,,,,,,,,,
4401.4000000059605,,intro_0,1055798,,,,instruct,,,32,,,,,,,,,,,,,,,,,,,,,,
3169.4000000059605,,directmemory_phase5,1058970,,,,object_15c.png,,,50,,,,0,object_03b.png,object_05b.png,object_04a.png,object_04a.png,,0.4098360655737705,0,,,,,,,,,,,
1813.5,,directmemory_phase5,1060787,,,,object_10b.png,,,49,,,,0,object_02b.png,object_07a.png,object_04c.png,object_04c.png,,0.4032258064516129,0,,,,,,,,,,,
2826.5,,directmemory_phase5,1063618,,,,object_05a.png,,,49,,,,1,object_02a.png,object_04b.png,object_01a.png,object_02a.png,,0.4126984126984127,1,,,,,,,,,,,
2096,,directmemory_phase5,1065718,,,,object_14a.png,,,49,,,,0,object_01a.png,object_08c.png,object_08b.png,object_08c.png,,0.40625,0,,,,,,,,,,,
2902.9000000059605,,directmemory_phase5,1068625,,,,object_06c.png,,,51,,,,0,object_01c.png,object_08b.png,object_15a.png,object_08b.png,,0.4,0,,,,,,,,,,,
2728.7999999821186,,directmemory_phase5,1071358,,,,object_01b.png,,,51,,,,0,object_02b.png,object_04b.png,object_15b.png,object_02b.png,,0.3939393939393939,0,,,,,,,,,,,
3374.5,,directmemory_phase5,1074737,,,,object_01c.png,,,51,,,,0,object_05b.png,object_03c.png,object_13a.png,object_03c.png,,0.3880597014925373,0,,,,,,,,,,,
2513.9000000059605,,directmemory_phase5,1077255,,,,object_12c.png,,,49,,,,1,object_11c.png,object_08c.png,object_15b.png,object_11c.png,,0.39705882352941174,1,,,,,,,,,,,
2033.199999988079,,directmemory_phase5,1079292,,,,object_05b.png,,,50,,,,1,object_07a.png,object_04b.png,object_08c.png,object_04b.png,,0.4057971014492754,1,,,,,,,,,,,
2788,,directmemory_phase5,1082084,,,,object_07a.png,,,50,,,,1,object_15c.png,object_03b.png,object_15a.png,object_03b.png,,0.4142857142857143,1,,,,,,,,,,,
1638.3999999761581,,directmemory_phase5,1083726,,,,object_14b.png,,,49,,,,1,object_06a.png,object_06b.png,object_09b.png,object_06a.png,,0.4225352112676056,1,,,,,,,,,,,
1974.5,,directmemory_phase5,1085704,,,,object_01a.png,,,50,,,,1,object_07a.png,object_06b.png,object_04a.png,object_06b.png,,0.4305555555555556,1,,,,,,,,,,,
2340.800000011921,,directmemory_phase5,1088050,,,,object_09c.png,,,51,,,,1,object_15a.png,object_14b.png,object_07b.png,object_07b.png,,0.4383561643835616,1,,,,,,,,,,,
1762.5,,directmemory_phase5,1089816,,,,object_15b.png,,,49,,,,0,object_05b.png,object_13a.png,object_03b.png,object_13a.png,,0.43243243243243246,0,,,,,,,,,,,
2652.5,,directmemory_phase5,1092471,,,,object_09b.png,,,50,,,,0,object_15a.png,object_04b.png,object_05b.png,object_15a.png,,0.4266666666666667,0,,,,,,,,,,,
null,,thebreak,1092576,,,,<p></p>,,,null,,,,,,,,,,,,,,,,,,,,,,
1979.5999999940395,,intro_0,1094558,,,,instruct,,,32,,,,,,,,,,,,,,,,,,,,,,
null,,learn_phase(without_color)6,1098061,,,,black_plus_sign,,,null,object_03b.png,object_13c.png,,,,,,,,,,,,,,,,,,,,
null,,black_cross(without_color)6,1098924,,,,blue,,,null,object_03b.png,object_13c.png,,,,,,,,,,,,,,,,,,,,
null,,rt_plussign_withcolor6,1099427,,,,blue,,,null,object_03b.png,object_13c.png,,,,,,,,,,,,,,,,,,,,
1266.5,,rt_thecrossant_black6,1100570,,,,black_plus_sign,,,49,,,,1,,,,,,1,,,,,,,,,,,,
null,,color_black6,1100673,,,,black_plus_sign,,,null,,,,,,,,,,,,,,,,,,,,,,
null,,learn_phase(without_color)6,1104177,,,,black_plus_sign,,,null,object_13b.png,object_04b.png,,,,,,,,,,,,,,,,,,,,
null,,black_cross(without_color)6,1105204,,,,green,,,null,object_13b.png,object_04b.png,,,,,,,,,,,,,,,,,,,,
null,,rt_plussign_withcolor6,1105706,,,,green,,,null,object_13b.png,object_04b.png,,,,,,,,,,,,,,,,,,,,
1340.300000011921,,rt_thecrossant_black6,1106686,,,,black_plus_sign,,,50,,,,1,,,,,,1,,,,,,,,,,,,
null,,color_black6,1106788,,,,black_plus_sign,,,null,,,,,,,,,,,,,,,,,,,,,,
null,,learn_phase(without_color)6,1110294,,,,black_plus_sign,,,null,object_05c.png,object_11c.png,,,,,,,,,,,,,,,,,,,,
null,,black_cross(without_color)6,1110883,,,,blue,,,null,object_05c.png,object_11c.png,,,,,,,,,,,,,,,,,,,,
null,,rt_plussign_withcolor6,1111385,,,,blue,,,null,object_05c.png,object_11c.png,,,,,,,,,,,,,,,,,,,,
1569,,rt_thecrossant_black6,1112803,,,,black_plus_sign,,,49,,,,1,,,,,,1,,,,,,,,,,,,
null,,color_black6,1112906,,,,black_plus_sign,,,null,,,,,,,,,,,,,,,,,,,,,,
null,,learn_phase(without_color)6,1116411,,,,black_plus_sign,,,null,object_02c.png,object_15a.png,,,,,,,,,,,,,,,,,,,,
null,,black_cross(without_color)6,1117384,,,,green,,,null,object_02c.png,object_15a.png,,,,,,,,,,,,,,,,,,,,
null,,rt_plussign_withcolor6,1117887,,,,green,,,null,object_02c.png,object_15a.png,,,,,,,,,,,,,,,,,,,,
895.7999999821186,,rt_thecrossant_black6,1118921,,,,black_plus_sign,,,50,,,,1,,,,,,1,,,,,,,,,,,,
null,,color_black6,1119023,,,,black_plus_sign,,,null,,,,,,,,,,,,,,,,,,,,,,
null,,learn_phase(without_color)6,1122528,,,,black_plus_sign,,,null,object_07b.png,object_12b.png,,,,,,,,,,,,,,,,,,,,
null,,black_cross(without_color)6,1123252,,,,green,,,null,object_07b.png,object_12b.png,,,,,,,,,,,,,,,,,,,,
null,,rt_plussign_withcolor6,1123754,,,,green,,,null,object_07b.png,object_12b.png,,,,,,,,,,,,,,,,,,,,
1390.0999999940395,,rt_thecrossant_black6,1125036,,,,black_plus_sign,,,50,,,,1,,,,,,1,,,,,,,,,,,,
null,,color_black6,1125140,,,,black_plus_sign,,,null,,,,,,,,,,,,,,,,,,,,,,
null,,learn_phase(without_color)6,1128643,,,,black_plus_sign,,,null,object_14c.png,object_08c.png,,,,,,,,,,,,,,,,,,,,
null,,black_cross(without_color)6,1129643,,,,blue,,,null,object_14c.png,object_08c.png,,,,,,,,,,,,,,,,,,,,
null,,rt_plussign_withcolor6,1130159,,,,blue,,,null,object_14c.png,object_08c.png,,,,,,,,,,,,,,,,,,,,
966.2999999821186,,rt_thecrossant_black6,1131165,,,,black_plus_sign,,,49,,,,1,,,,,,1,,,,,,,,,,,,
null,,color_black6,1131269,,,,black_plus_sign,,,null,,,,,,,,,,,,,,,,,,,,,,
null,,learn_phase(without_color)6,1134773,,,,black_plus_sign,,,null,object_10c.png,object_02a.png,,,,,,,,,,,,,,,,,,,,
null,,black_cross(without_color)6,1135477,,,,blue,,,null,object_10c.png,object_02a.png,,,,,,,,,,,,,,,,,,,,
null,,rt_plussign_withcolor6,1135980,,,,blue,,,null,object_10c.png,object_02a.png,,,,,,,,,,,,,,,,,,,,
1545.0999999940395,,rt_thecrossant_black6,1137294,,,,black_plus_sign,,,49,,,,1,,,,,,1,,,,,,,,,,,,
null,,color_black6,1137398,,,,black_plus_sign,,,null,,,,,,,,,,,,,,,,,,,,,,
null,,learn_phase(without_color)6,1140902,,,,black_plus_sign,,,null,object_08a.png,object_06a.png,,,,,,,,,,,,,,,,,,,,
null,,black_cross(without_color)6,1141619,,,,blue,,,null,object_08a.png,object_06a.png,,,,,,,,,,,,,,,,,,,,
null,,rt_plussign_withcolor6,1142123,,,,blue,,,null,object_08a.png,object_06a.png,,,,,,,,,,,,,,,,,,,,
1146.5999999940395,,rt_thecrossant_black6,1143421,,,,black_plus_sign,,,49,,,,1,,,,,,1,,,,,,,,,,,,
null,,color_black6,1143525,,,,black_plus_sign,,,null,,,,,,,,,,,,,,,,,,,,,,
null,,learn_phase(without_color)6,1147028,,,,black_plus_sign,,,null,object_04c.png,object_07c.png,,,,,,,,,,,,,,,,,,,,
null,,black_cross(without_color)6,1147702,,,,green,,,null,object_04c.png,object_07c.png,,,,,,,,,,,,,,,,,,,,
null,,rt_plussign_withcolor6,1148205,,,,green,,,null,object_04c.png,object_07c.png,,,,,,,,,,,,,,,,,,,,
1066.800000011921,,rt_thecrossant_black6,1149536,,,,black_plus_sign,,,50,,,,1,,,,,,1,,,,,,,,,,,,
null,,color_black6,1149639,,,,black_plus_sign,,,null,,,,,,,,,,,,,,,,,,,,,,
null,,learn_phase(without_color)6,1153143,,,,black_plus_sign,,,null,object_03c.png,object_11a.png,,,,,,,,,,,,,,,,,,,,
null,,black_cross(without_color)6,1153742,,,,green,,,null,object_03c.png,object_11a.png,,,,,,,,,,,,,,,,,,,,
null,,rt_plussign_withcolor6,1154245,,,,green,,,null,object_03c.png,object_11a.png,,,,,,,,,,,,,,,,,,,,
1010.9000000059605,,rt_thecrossant_black6,1155653,,,,black_plus_sign,,,50,,,,1,,,,,,1,,,,,,,,,,,,
null,,color_black6,1155757,,,,black_plus_sign,,,null,,,,,,,,,,,,,,,,,,,,,,
null,,learn_phase(without_color)6,1159262,,,,black_plus_sign,,,null,object_13a.png,object_03a.png,,,,,,,,,,,,,,,,,,,,
null,,black_cross(without_color)6,1160199,,,,blue,,,null,object_13a.png,object_03a.png,,,,,,,,,,,,,,,,,,,,
null,,rt_plussign_withcolor6,1160702,,,,blue,,,null,object_13a.png,object_03a.png,,,,,,,,,,,,,,,,,,,,
901.7000000178814,,rt_thecrossant_black6,1161771,,,,black_plus_sign,,,49,,,,1,,,,,,1,,,,,,,,,,,,
null,,color_black6,1161874,,,,black_plus_sign,,,null,,,,,,,,,,,,,,,,,,,,,,
null,,learn_phase(without_color)6,1165379,,,,black_plus_sign,,,null,object_02b.png,object_09a.png,,,,,,,,,,,,,,,,,,,,
null,,black_cross(without_color)6,1166007,,,,green,,,null,object_02b.png,object_09a.png,,,,,,,,,,,,,,,,,,,,
null,,rt_plussign_withcolor6,1166510,,,,green,,,null,object_02b.png,object_09a.png,,,,,,,,,,,,,,,,,,,,
1482,,rt_thecrossant_black6,1167888,,,,black_plus_sign,,,50,,,,1,,,,,,1,,,,,,,,,,,,
null,,color_black6,1168002,,,,black_plus_sign,,,null,,,,,,,,,,,,,,,,,,,,,,
null,,learn_phase(without_color)6,1171506,,,,black_plus_sign,,,null,object_10a.png,object_04a.png,,,,,,,,,,,,,,,,,,,,
null,,black_cross(without_color)6,1171937,,,,green,,,null,object_10a.png,object_04a.png,,,,,,,,,,,,,,,,,,,,
null,,rt_plussign_withcolor6,1172440,,,,green,,,null,object_10a.png,object_04a.png,,,,,,,,,,,,,,,,,,,,
1012.4000000059605,,rt_thecrossant_black6,1174015,,,,black_plus_sign,,,50,,,,1,,,,,,1,,,,,,,,,,,,
null,,color_black6,1174118,,,,black_plus_sign,,,null,,,,,,,,,,,,,,,,,,,,,,
null,,learn_phase(without_color)6,1177623,,,,black_plus_sign,,,null,object_11b.png,object_08b.png,,,,,,,,,,,,,,,,,,,,
null,,black_cross(without_color)6,1178109,,,,green,,,null,object_11b.png,object_08b.png,,,,,,,,,,,,,,,,,,,,
null,,rt_plussign_withcolor6,1178611,,,,green,,,null,object_11b.png,object_08b.png,,,,,,,,,,,,,,,,,,,,
888.5999999940395,,rt_thecrossant_black6,1180131,,,,black_plus_sign,,,50,,,,1,,,,,,1,,,,,,,,,,,,
null,,color_black6,1180234,,,,black_plus_sign,,,null,,,,,,,,,,,,,,,,,,,,,,
null,,learn_phase(without_color)6,1183738,,,,black_plus_sign,,,null,object_06b.png,object_12a.png,,,,,,,,,,,,,,,,,,,,
null,,black_cross(without_color)6,1184441,,,,blue,,,null,object_06b.png,object_12a.png,,,,,,,,,,,,,,,,,,,,
null,,rt_plussign_withcolor6,1184944,,,,blue,,,null,object_06b.png,object_12a.png,,,,,,,,,,,,,,,,,,,,
951.8999999761581,,rt_thecrossant_black6,1186247,,,,black_plus_sign,,,49,,,,1,,,,,,1,,,,,,,,,,,,
null,,color_black6,1186350,,,,black_plus_sign,,,null,,,,,,,,,,,,,,,,,,,,,,
null,,thebreak,1186454,,,,<p></p>,,,null,,,,,,,,,,,,,,,,,,,,,,
5432.4000000059605,,intro_0,1191889,,,,instruct,,,32,,,,,,,,,,,,,,,,,,,,,,
2768.2000000178814,,directmemory_phase6,1194660,,,,object_03b.png,,,51,,,,0,object_13c.png,object_12a.png,object_06b.png,object_13c.png,,0.42105263157894735,0,,,,,,,,,,,
1950,,directmemory_phase6,1196613,,,,object_02b.png,,,49,,,,1,object_09a.png,object_10c.png,object_08b.png,object_09a.png,,0.42857142857142855,1,,,,,,,,,,,
2498.4000000059605,,directmemory_phase6,1199115,,,,object_04c.png,,,49,,,,1,object_07c.png,object_02c.png,object_07b.png,object_07c.png,,0.4358974358974359,1,,,,,,,,,,,
2435.5999999940395,,directmemory_phase6,1201554,,,,object_04a.png,,,49,,,,1,object_10a.png,object_12a.png,object_03b.png,object_10a.png,,0.4430379746835443,1,,,,,,,,,,,
2615.0999999940395,,directmemory_phase6,1204173,,,,object_06b.png,,,51,,,,0,object_12a.png,object_13b.png,object_04a.png,object_12a.png,,0.4375,0,,,,,,,,,,,
2345.300000011921,,directmemory_phase6,1206523,,,,object_06a.png,,,50,,,,1,object_03b.png,object_08a.png,object_09a.png,object_08a.png,,0.4444444444444444,1,,,,,,,,,,,
2554.699999988079,,directmemory_phase6,1209082,,,,object_08c.png,,,49,,,,1,object_14c.png,object_08a.png,object_04a.png,object_14c.png,,0.45121951219512196,1,,,,,,,,,,,
2803.0999999940395,,directmemory_phase6,1211889,,,,object_12b.png,,,49,,,,0,object_08a.png,object_07b.png,object_02a.png,object_07b.png,,0.4457831325301205,0,,,,,,,,,,,
3215.5,,directmemory_phase6,1215109,,,,object_13b.png,,,51,,,,0,object_04b.png,object_08c.png,object_02c.png,object_04b.png,,0.44047619047619047,0,,,,,,,,,,,
2913.9000000059605,,directmemory_phase6,1218026,,,,object_08b.png,,,51,,,,1,object_02c.png,object_02a.png,object_11b.png,object_11b.png,,0.4470588235294118,1,,,,,,,,,,,
3270.699999988079,,directmemory_phase6,1221300,,,,object_10c.png,,,49,,,,1,object_02a.png,object_04a.png,object_13b.png,object_02a.png,,0.45348837209302323,1,,,,,,,,,,,
3189.4000000059605,,directmemory_phase6,1224494,,,,object_15a.png,,,49,,,,0,object_10a.png,object_04a.png,object_02c.png,object_02c.png,,0.4482758620689655,0,,,,,,,,,,,
3635.5999999940395,,directmemory_phase6,1228134,,,,object_13a.png,,,51,,,,0,object_02a.png,object_03a.png,object_12b.png,object_03a.png,,0.4431818181818182,0,,,,,,,,,,,
3509.399999976158,,directmemory_phase6,1231649,,,,object_03c.png,,,51,,,,1,object_07c.png,object_04c.png,object_11a.png,object_11a.png,,0.449438202247191,1,,,,,,,,,,,
3102.300000011921,,directmemory_phase6,1234755,,,,object_05c.png,,,50,,,,0,object_11c.png,object_03b.png,object_02c.png,object_11c.png,,0.4444444444444444,0,,,,,,,,,,,
null,,thebreak,1234860,,,,<p></p>,,,null,,,,,,,,,,,,,,,,,,,,,,
4471.4000000059605,,intro_0,1239334,,,,instruct,,,32,,,,,,,,,,,,,,,,,,,,,,
null,,learn_phase(without_color)7,1242852,,,,black_plus_sign,,,null,object_05c.png,object_11c.png,,,,,,,,,,,,,,,,,,,,
null,,black_cross(without_color)7,1243944,,,,green,,,null,object_05c.png,object_11c.png,,,,,,,,,,,,,,,,,,,,
null,,rt_plussign_withcolor7,1244446,,,,green,,,null,object_05c.png,object_11c.png,,,,,,,,,,,,,,,,,,,,
1463.0999999940395,,rt_thecrossant_black7,1245360,,,,black_plus_sign,,,50,,,,1,,,,,,1,,,,,,,,,,,,
null,,color_black7,1245463,,,,black_plus_sign,,,null,,,,,,,,,,,,,,,,,,,,,,
null,,learn_phase(without_color)7,1248967,,,,black_plus_sign,,,null,object_13c.png,object_03b.png,,,,,,,,,,,,,,,,,,,,
null,,black_cross(without_color)7,1249967,,,,blue,,,null,object_13c.png,object_03b.png,,,,,,,,,,,,,,,,,,,,
null,,rt_plussign_withcolor7,1250470,,,,blue,,,null,object_13c.png,object_03b.png,,,,,,,,,,,,,,,,,,,,
1424.7000000178814,,rt_thecrossant_black7,1251476,,,,black_plus_sign,,,49,,,,1,,,,,,1,,,,,,,,,,,,
null,,color_black7,1251581,,,,black_plus_sign,,,null,,,,,,,,,,,,,,,,,,,,,,
null,,learn_phase(without_color)7,1255085,,,,black_plus_sign,,,null,object_09a.png,object_02b.png,,,,,,,,,,,,,,,,,,,,
null,,black_cross(without_color)7,1255555,,,,blue,,,null,object_09a.png,object_02b.png,,,,,,,,,,,,,,,,,,,,
null,,rt_plussign_withcolor7,1256058,,,,blue,,,null,object_09a.png,object_02b.png,,,,,,,,,,,,,,,,,,,,
1564.7000000178814,,rt_thecrossant_black7,1257594,,,,black_plus_sign,,,49,,,,1,,,,,,1,,,,,,,,,,,,
null,,color_black7,1257697,,,,black_plus_sign,,,null,,,,,,,,,,,,,,,,,,,,,,
null,,learn_phase(without_color)7,1261202,,,,black_plus_sign,,,null,object_12b.png,object_07b.png,,,,,,,,,,,,,,,,,,,,
null,,black_cross(without_color)7,1262162,,,,blue,,,null,object_12b.png,object_07b.png,,,,,,,,,,,,,,,,,,,,
null,,rt_plussign_withcolor7,1262669,,,,blue,,,null,object_12b.png,object_07b.png,,,,,,,,,,,,,,,,,,,,
733.9000000059605,,rt_thecrossant_black7,1263716,,,,black_plus_sign,,,49,,,,1,,,,,,1,,,,,,,,,,,,
null,,color_black7,1263819,,,,black_plus_sign,,,null,,,,,,,,,,,,,,,,,,,,,,
null,,learn_phase(without_color)7,1267325,,,,black_plus_sign,,,null,object_08c.png,object_14c.png,,,,,,,,,,,,,,,,,,,,
null,,black_cross(without_color)7,1268081,,,,green,,,null,object_08c.png,object_14c.png,,,,,,,,,,,,,,,,,,,,
null,,rt_plussign_withcolor7,1268584,,,,green,,,null,object_08c.png,object_14c.png,,,,,,,,,,,,,,,,,,,,
1743.9000000059605,,rt_thecrossant_black7,1269834,,,,black_plus_sign,,,50,,,,1,,,,,,1,,,,,,,,,,,,
null,,color_black7,1269936,,,,black_plus_sign,,,null,,,,,,,,,,,,,,,,,,,,,,
null,,learn_phase(without_color)7,1273439,,,,black_plus_sign,,,null,object_08b.png,object_11b.png,,,,,,,,,,,,,,,,,,,,
null,,black_cross(without_color)7,1274197,,,,blue,,,null,object_08b.png,object_11b.png,,,,,,,,,,,,,,,,,,,,
null,,rt_plussign_withcolor7,1274700,,,,blue,,,null,object_08b.png,object_11b.png,,,,,,,,,,,,,,,,,,,,
1188.3999999761581,,rt_thecrossant_black7,1275948,,,,black_plus_sign,,,49,,,,1,,,,,,1,,,,,,,,,,,,
null,,color_black7,1276054,,,,black_plus_sign,,,null,,,,,,,,,,,,,,,,,,,,,,
null,,learn_phase(without_color)7,1279559,,,,black_plus_sign,,,null,object_10c.png,object_02a.png,,,,,,,,,,,,,,,,,,,,
null,,black_cross(without_color)7,1280639,,,,blue,,,null,object_10c.png,object_02a.png,,,,,,,,,,,,,,,,,,,,
null,,rt_plussign_withcolor7,1281141,,,,blue,,,null,object_10c.png,object_02a.png,,,,,,,,,,,,,,,,,,,,
1018,,rt_thecrossant_black7,1282067,,,,black_plus_sign,,,49,,,,1,,,,,,1,,,,,,,,,,,,
null,,color_black7,1282170,,,,black_plus_sign,,,null,,,,,,,,,,,,,,,,,,,,,,
null,,learn_phase(without_color)7,1285675,,,,black_plus_sign,,,null,object_07c.png,object_04c.png,,,,,,,,,,,,,,,,,,,,
null,,black_cross(without_color)7,1286654,,,,green,,,null,object_07c.png,object_04c.png,,,,,,,,,,,,,,,,,,,,
null,,rt_plussign_withcolor7,1287156,,,,green,,,null,object_07c.png,object_04c.png,,,,,,,,,,,,,,,,,,,,
1524.5999999940395,,rt_thecrossant_black7,1288182,,,,black_plus_sign,,,50,,,,1,,,,,,1,,,,,,,,,,,,
null,,color_black7,1288285,,,,black_plus_sign,,,null,,,,,,,,,,,,,,,,,,,,,,
null,,learn_phase(without_color)7,1291790,,,,black_plus_sign,,,null,object_08a.png,object_06a.png,,,,,,,,,,,,,,,,,,,,
null,,black_cross(without_color)7,1292372,,,,green,,,null,object_08a.png,object_06a.png,,,,,,,,,,,,,,,,,,,,
null,,rt_plussign_withcolor7,1292875,,,,green,,,null,object_08a.png,object_06a.png,,,,,,,,,,,,,,,,,,,,
1433.800000011921,,rt_thecrossant_black7,1294313,,,,black_plus_sign,,,50,,,,1,,,,,,1,,,,,,,,,,,,
null,,color_black7,1294416,,,,black_plus_sign,,,null,,,,,,,,,,,,,,,,,,,,,,
null,,learn_phase(without_color)7,1297922,,,,black_plus_sign,,,null,object_04b.png,object_13b.png,,,,,,,,,,,,,,,,,,,,
null,,black_cross(without_color)7,1298688,,,,green,,,null,object_04b.png,object_13b.png,,,,,,,,,,,,,,,,,,,,
null,,rt_plussign_withcolor7,1299191,,,,green,,,null,object_04b.png,object_13b.png,,,,,,,,,,,,,,,,,,,,
1073.3999999761581,,rt_thecrossant_black7,1300450,,,,black_plus_sign,,,50,,,,1,,,,,,1,,,,,,,,,,,,
null,,color_black7,1300553,,,,black_plus_sign,,,null,,,,,,,,,,,,,,,,,,,,,,
null,,learn_phase(without_color)7,1304073,,,,black_plus_sign,,,null,object_13a.png,object_03a.png,,,,,,,,,,,,,,,,,,,,
null,,black_cross(without_color)7,1305068,,,,blue,,,null,object_13a.png,object_03a.png,,,,,,,,,,,,,,,,,,,,
null,,rt_plussign_withcolor7,1305574,,,,blue,,,null,object_13a.png,object_03a.png,,,,,,,,,,,,,,,,,,,,
980.0999999940395,,rt_thecrossant_black7,1306587,,,,black_plus_sign,,,49,,,,1,,,,,,1,,,,,,,,,,,,
null,,color_black7,1306690,,,,black_plus_sign,,,null,,,,,,,,,,,,,,,,,,,,,,
null,,learn_phase(without_color)7,1310194,,,,black_plus_sign,,,null,object_10a.png,object_04a.png,,,,,,,,,,,,,,,,,,,,
null,,black_cross(without_color)7,1311070,,,,blue,,,null,object_10a.png,object_04a.png,,,,,,,,,,,,,,,,,,,,
null,,rt_plussign_withcolor7,1311573,,,,blue,,,null,object_10a.png,object_04a.png,,,,,,,,,,,,,,,,,,,,
1521.0999999940395,,rt_thecrossant_black7,1312705,,,,black_plus_sign,,,49,,,,1,,,,,,1,,,,,,,,,,,,
null,,color_black7,1312808,,,,black_plus_sign,,,null,,,,,,,,,,,,,,,,,,,,,,
null,,learn_phase(without_color)7,1316312,,,,black_plus_sign,,,null,object_12a.png,object_06b.png,,,,,,,,,,,,,,,,,,,,
null,,black_cross(without_color)7,1316971,,,,green,,,null,object_12a.png,object_06b.png,,,,,,,,,,,,,,,,,,,,
null,,rt_plussign_withcolor7,1317474,,,,green,,,null,object_12a.png,object_06b.png,,,,,,,,,,,,,,,,,,,,
1199,,rt_thecrossant_black7,1318823,,,,black_plus_sign,,,50,,,,1,,,,,,1,,,,,,,,,,,,
null,,color_black7,1318927,,,,black_plus_sign,,,null,,,,,,,,,,,,,,,,,,,,,,
null,,learn_phase(without_color)7,1322431,,,,black_plus_sign,,,null,object_11a.png,object_03c.png,,,,,,,,,,,,,,,,,,,,
null,,black_cross(without_color)7,1322888,,,,green,,,null,object_11a.png,object_03c.png,,,,,,,,,,,,,,,,,,,,
null,,rt_plussign_withcolor7,1323391,,,,green,,,null,object_11a.png,object_03c.png,,,,,,,,,,,,,,,,,,,,
1070.4000000059605,,rt_thecrossant_black7,1324940,,,,black_plus_sign,,,50,,,,1,,,,,,1,,,,,,,,,,,,
null,,color_black7,1325045,,,,black_plus_sign,,,null,,,,,,,,,,,,,,,,,,,,,,
null,,learn_phase(without_color)7,1328549,,,,black_plus_sign,,,null,object_15a.png,object_02c.png,,,,,,,,,,,,,,,,,,,,
null,,black_cross(without_color)7,1329461,,,,green,,,null,object_15a.png,object_02c.png,,,,,,,,,,,,,,,,,,,,
null,,rt_plussign_withcolor7,1329963,,,,green,,,null,object_15a.png,object_02c.png,,,,,,,,,,,,,,,,,,,,
909.8000000119209,,rt_thecrossant_black7,1331059,,,,black_plus_sign,,,50,,,,1,,,,,,1,,,,,,,,,,,,
null,,color_black7,1331163,,,,black_plus_sign,,,null,,,,,,,,,,,,,,,,,,,,,,
null,,thebreak,1331266,,,,<p></p>,,,null,,,,,,,,,,,,,,,,,,,,,,
4608.799999982119,,intro_0,1335878,,,,instruct,,,32,,,,,,,,,,,,,,,,,,,,,,
3406.5,,directmemory_phase7,1339287,,,,object_14b.png,,,50,,,,0,object_06a.png,object_13a.png,object_15b.png,object_06a.png,,0.43956043956043955,0,,,,,,,,,,,
2562.199999988079,,directmemory_phase7,1341854,,,,object_15c.png,,,51,,,,0,object_04a.png,object_04c.png,object_07a.png,object_04a.png,,0.43478260869565216,0,,,,,,,,,,,
2553.800000011921,,directmemory_phase7,1344413,,,,object_09b.png,,,50,,,,1,object_14b.png,object_15a.png,object_04b.png,object_15a.png,,0.44086021505376344,1,,,,,,,,,,,
2190.300000011921,,directmemory_phase7,1346606,,,,object_06c.png,,,51,,,,0,object_01a.png,object_08b.png,object_08c.png,object_08b.png,,0.43617021276595747,0,,,,,,,,,,,
3002.4000000059605,,directmemory_phase7,1349612,,,,object_09c.png,,,49,,,,0,object_08c.png,object_01b.png,object_07b.png,object_07b.png,,0.43157894736842106,0,,,,,,,,,,,
2197.2000000178814,,directmemory_phase7,1351813,,,,object_12c.png,,,51,,,,1,object_04b.png,object_10b.png,object_11c.png,object_11c.png,,0.4375,1,,,,,,,,,,,
2131.100000023842,,directmemory_phase7,1353948,,,,object_05b.png,,,49,,,,0,object_06b.png,object_09c.png,object_04b.png,object_04b.png,,0.4329896907216495,0,,,,,,,,,,,
1741.5,,directmemory_phase7,1355693,,,,object_07a.png,,,50,,,,0,object_15a.png,object_14b.png,object_03b.png,object_03b.png,,0.42857142857142855,0,,,,,,,,,,,
1821.0999999940395,,directmemory_phase7,1357519,,,,object_10b.png,,,51,,,,1,object_08c.png,object_01b.png,object_04c.png,object_04c.png,,0.43434343434343436,1,,,,,,,,,,,
2685.5,,directmemory_phase7,1360208,,,,object_15b.png,,,51,,,,0,object_13a.png,object_04b.png,object_09c.png,object_13a.png,,0.43,0,,,,,,,,,,,
2976.4000000059605,,directmemory_phase7,1363189,,,,object_01c.png,,,51,,,,0,object_14b.png,object_03c.png,object_06a.png,object_03c.png,,0.42574257425742573,0,,,,,,,,,,,
2599.4000000059605,,directmemory_phase7,1365793,,,,object_01a.png,,,51,,,,1,object_04c.png,object_06c.png,object_06b.png,object_06b.png,,0.43137254901960786,1,,,,,,,,,,,
3485.199999988079,,directmemory_phase7,1369282,,,,object_14a.png,,,50,,,,0,object_15a.png,object_05b.png,object_08c.png,object_08c.png,,0.42718446601941745,0,,,,,,,,,,,
2817.2000000178814,,directmemory_phase7,1372104,,,,object_01b.png,,,50,,,,1,object_09c.png,object_02b.png,object_15a.png,object_02b.png,,0.4326923076923077,1,,,,,,,,,,,
3187.4000000059605,,directmemory_phase7,1375296,,,,object_05a.png,,,51,,,,0,object_05b.png,object_02a.png,object_04a.png,object_02a.png,,0.42857142857142855,0,,,,,,,,,,,
null,,thebreak,1375402,,,,<p></p>,,,null,,,,,,,,,,,,,,,,,,,,,,
2267.7000000178814,,intro_0,1377673,,,,instruct,,,32,,,,,,,,,,,,,,,,,,,,,,
null,,learn_phase(without_color)8,1381176,,,,black_plus_sign,,,null,object_13b.png,object_04b.png,,,,,,,,,,,,,,,,,,,,
null,,black_cross(without_color)8,1381844,,,,blue,,,null,object_13b.png,object_04b.png,,,,,,,,,,,,,,,,,,,,
null,,rt_plussign_withcolor8,1382346,,,,blue,,,null,object_13b.png,object_04b.png,,,,,,,,,,,,,,,,,,,,
1164.5,,rt_thecrossant_black8,1383686,,,,black_plus_sign,,,49,,,,1,,,,,,1,,,,,,,,,,,,
null,,color_black8,1383790,,,,black_plus_sign,,,null,,,,,,,,,,,,,,,,,,,,,,
null,,learn_phase(without_color)8,1387295,,,,black_plus_sign,,,null,object_03a.png,object_13a.png,,,,,,,,,,,,,,,,,,,,
null,,black_cross(without_color)8,1388171,,,,blue,,,null,object_03a.png,object_13a.png,,,,,,,,,,,,,,,,,,,,
null,,rt_plussign_withcolor8,1388674,,,,blue,,,null,object_03a.png,object_13a.png,,,,,,,,,,,,,,,,,,,,
1198.5,,rt_thecrossant_black8,1389803,,,,black_plus_sign,,,49,,,,1,,,,,,1,,,,,,,,,,,,
null,,color_black8,1389906,,,,black_plus_sign,,,null,,,,,,,,,,,,,,,,,,,,,,
null,,learn_phase(without_color)8,1393411,,,,black_plus_sign,,,null,object_15a.png,object_02c.png,,,,,,,,,,,,,,,,,,,,
null,,black_cross(without_color)8,1394398,,,,blue,,,null,object_15a.png,object_02c.png,,,,,,,,,,,,,,,,,,,,
null,,rt_plussign_withcolor8,1394900,,,,blue,,,null,object_15a.png,object_02c.png,,,,,,,,,,,,,,,,,,,,
1477.7000000178814,,rt_thecrossant_black8,1395922,,,,black_plus_sign,,,49,,,,1,,,,,,1,,,,,,,,,,,,
null,,color_black8,1396025,,,,black_plus_sign,,,null,,,,,,,,,,,,,,,,,,,,,,
null,,learn_phase(without_color)8,1399530,,,,black_plus_sign,,,null,object_03c.png,object_11a.png,,,,,,,,,,,,,,,,,,,,
null,,black_cross(without_color)8,1399963,,,,blue,,,null,object_03c.png,object_11a.png,,,,,,,,,,,,,,,,,,,,
null,,rt_plussign_withcolor8,1400465,,,,blue,,,null,object_03c.png,object_11a.png,,,,,,,,,,,,,,,,,,,,
1378.0999999940395,,rt_thecrossant_black8,1402042,,,,black_plus_sign,,,49,,,,1,,,,,,1,,,,,,,,,,,,
null,,color_black8,1402145,,,,black_plus_sign,,,null,,,,,,,,,,,,,,,,,,,,,,
null,,learn_phase(without_color)8,1405650,,,,black_plus_sign,,,null,object_10c.png,object_02a.png,,,,,,,,,,,,,,,,,,,,
null,,black_cross(without_color)8,1406377,,,,blue,,,null,object_10c.png,object_02a.png,,,,,,,,,,,,,,,,,,,,
null,,rt_plussign_withcolor8,1406880,,,,blue,,,null,object_10c.png,object_02a.png,,,,,,,,,,,,,,,,,,,,
801.6000000238419,,rt_thecrossant_black8,1408159,,,,black_plus_sign,,,49,,,,1,,,,,,1,,,,,,,,,,,,
null,,color_black8,1408270,,,,black_plus_sign,,,null,,,,,,,,,,,,,,,,,,,,,,
null,,learn_phase(without_color)8,1411774,,,,black_plus_sign,,,null,object_08c.png,object_14c.png,,,,,,,,,,,,,,,,,,,,
null,,black_cross(without_color)8,1412662,,,,green,,,null,object_08c.png,object_14c.png,,,,,,,,,,,,,,,,,,,,
null,,rt_plussign_withcolor8,1413165,,,,green,,,null,object_08c.png,object_14c.png,,,,,,,,,,,,,,,,,,,,
1314.5999999940395,,rt_thecrossant_black8,1414285,,,,black_plus_sign,,,50,,,,1,,,,,,1,,,,,,,,,,,,
null,,color_black8,1414388,,,,black_plus_sign,,,null,,,,,,,,,,,,,,,,,,,,,,
null,,learn_phase(without_color)8,1417892,,,,black_plus_sign,,,null,object_09a.png,object_02b.png,,,,,,,,,,,,,,,,,,,,
null,,black_cross(without_color)8,1418453,,,,blue,,,null,object_09a.png,object_02b.png,,,,,,,,,,,,,,,,,,,,
null,,rt_plussign_withcolor8,1418957,,,,blue,,,null,object_09a.png,object_02b.png,,,,,,,,,,,,,,,,,,,,
1301.300000011921,,rt_thecrossant_black8,1420403,,,,black_plus_sign,,,49,,,,1,,,,,,1,,,,,,,,,,,,
null,,color_black8,1420507,,,,black_plus_sign,,,null,,,,,,,,,,,,,,,,,,,,,,
null,,learn_phase(without_color)8,1424012,,,,black_plus_sign,,,null,object_11c.png,object_05c.png,,,,,,,,,,,,,,,,,,,,
null,,black_cross(without_color)8,1424807,,,,blue,,,null,object_11c.png,object_05c.png,,,,,,,,,,,,,,,,,,,,
null,,rt_plussign_withcolor8,1425310,,,,blue,,,null,object_11c.png,object_05c.png,,,,,,,,,,,,,,,,,,,,
897,,rt_thecrossant_black8,1426521,,,,black_plus_sign,,,49,,,,1,,,,,,1,,,,,,,,,,,,
null,,color_black8,1426623,,,,black_plus_sign,,,null,,,,,,,,,,,,,,,,,,,,,,
null,,learn_phase(without_color)8,1430127,,,,black_plus_sign,,,null,object_12b.png,object_07b.png,,,,,,,,,,,,,,,,,,,,
null,,black_cross(without_color)8,1430873,,,,blue,,,null,object_12b.png,object_07b.png,,,,,,,,,,,,,,,,,,,,
null,,rt_plussign_withcolor8,1431377,,,,blue,,,null,object_12b.png,object_07b.png,,,,,,,,,,,,,,,,,,,,
1058.0999999940395,,rt_thecrossant_black8,1432637,,,,black_plus_sign,,,49,,,,1,,,,,,1,,,,,,,,,,,,
null,,color_black8,1432740,,,,black_plus_sign,,,null,,,,,,,,,,,,,,,,,,,,,,
null,,learn_phase(without_color)8,1436245,,,,black_plus_sign,,,null,object_06a.png,object_08a.png,,,,,,,,,,,,,,,,,,,,
null,,black_cross(without_color)8,1436911,,,,blue,,,null,object_06a.png,object_08a.png,,,,,,,,,,,,,,,,,,,,
null,,rt_plussign_withcolor8,1437414,,,,blue,,,null,object_06a.png,object_08a.png,,,,,,,,,,,,,,,,,,,,
1017.8000000119209,,rt_thecrossant_black8,1438755,,,,black_plus_sign,,,49,,,,1,,,,,,1,,,,,,,,,,,,
null,,color_black8,1438859,,,,black_plus_sign,,,null,,,,,,,,,,,,,,,,,,,,,,
null,,learn_phase(without_color)8,1442363,,,,black_plus_sign,,,null,object_11b.png,object_08b.png,,,,,,,,,,,,,,,,,,,,
null,,black_cross(without_color)8,1443156,,,,blue,,,null,object_11b.png,object_08b.png,,,,,,,,,,,,,,,,,,,,
null,,rt_plussign_withcolor8,1443659,,,,blue,,,null,object_11b.png,object_08b.png,,,,,,,,,,,,,,,,,,,,
1036.7000000178814,,rt_thecrossant_black8,1444873,,,,black_plus_sign,,,49,,,,1,,,,,,1,,,,,,,,,,,,
null,,color_black8,1444976,,,,black_plus_sign,,,null,,,,,,,,,,,,,,,,,,,,,,
null,,learn_phase(without_color)8,1448481,,,,black_plus_sign,,,null,object_13c.png,object_03b.png,,,,,,,,,,,,,,,,,,,,
null,,black_cross(without_color)8,1449160,,,,green,,,null,object_13c.png,object_03b.png,,,,,,,,,,,,,,,,,,,,
null,,rt_plussign_withcolor8,1449663,,,,green,,,null,object_13c.png,object_03b.png,,,,,,,,,,,,,,,,,,,,
1262.5999999940395,,rt_thecrossant_black8,1450992,,,,black_plus_sign,,,50,,,,1,,,,,,1,,,,,,,,,,,,
null,,color_black8,1451095,,,,black_plus_sign,,,null,,,,,,,,,,,,,,,,,,,,,,
null,,learn_phase(without_color)8,1454600,,,,black_plus_sign,,,null,object_07c.png,object_04c.png,,,,,,,,,,,,,,,,,,,,
null,,black_cross(without_color)8,1455261,,,,green,,,null,object_07c.png,object_04c.png,,,,,,,,,,,,,,,,,,,,
null,,rt_plussign_withcolor8,1455765,,,,green,,,null,object_07c.png,object_04c.png,,,,,,,,,,,,,,,,,,,,
1153.5999999940395,,rt_thecrossant_black8,1457110,,,,black_plus_sign,,,50,,,,1,,,,,,1,,,,,,,,,,,,
null,,color_black8,1457213,,,,black_plus_sign,,,null,,,,,,,,,,,,,,,,,,,,,,
null,,learn_phase(without_color)8,1460718,,,,black_plus_sign,,,null,object_12a.png,object_06b.png,,,,,,,,,,,,,,,,,,,,
null,,black_cross(without_color)8,1461488,,,,green,,,null,object_12a.png,object_06b.png,,,,,,,,,,,,,,,,,,,,
null,,rt_plussign_withcolor8,1461991,,,,green,,,null,object_12a.png,object_06b.png,,,,,,,,,,,,,,,,,,,,
1071.0999999940395,,rt_thecrossant_black8,1463226,,,,black_plus_sign,,,50,,,,1,,,,,,1,,,,,,,,,,,,
null,,color_black8,1463329,,,,black_plus_sign,,,null,,,,,,,,,,,,,,,,,,,,,,
null,,learn_phase(without_color)8,1466834,,,,black_plus_sign,,,null,object_04a.png,object_10a.png,,,,,,,,,,,,,,,,,,,,
null,,black_cross(without_color)8,1467579,,,,green,,,null,object_04a.png,object_10a.png,,,,,,,,,,,,,,,,,,,,
null,,rt_plussign_withcolor8,1468081,,,,green,,,null,object_04a.png,object_10a.png,,,,,,,,,,,,,,,,,,,,
1207.4000000059605,,rt_thecrossant_black8,1469343,,,,black_plus_sign,,,50,,,,1,,,,,,1,,,,,,,,,,,,
null,,color_black8,1469446,,,,black_plus_sign,,,null,,,,,,,,,,,,,,,,,,,,,,
null,,thebreak,1469551,,,,<p></p>,,,null,,,,,,,,,,,,,,,,,,,,,,
4064.7999999821186,,intro_0,1473619,,,,instruct,,,32,,,,,,,,,,,,,,,,,,,,,,
2553,,directmemory_phase8,1476175,,,,object_02a.png,,,51,,,,1,object_11a.png,object_06a.png,object_10c.png,object_10c.png,,0.4339622641509434,1,,,,,,,,,,,
2687.7999999821186,,directmemory_phase8,1478868,,,,object_06a.png,,,51,,,,1,object_03a.png,object_07b.png,object_08a.png,object_08a.png,,0.4392523364485981,1,,,,,,,,,,,
1674.5,,directmemory_phase8,1480547,,,,object_11b.png,,,49,,,,1,object_08b.png,object_07b.png,object_08a.png,object_08b.png,,0.4444444444444444,1,,,,,,,,,,,
2413.0999999940395,,directmemory_phase8,1482966,,,,object_02b.png,,,51,,,,1,object_11b.png,object_07b.png,object_09a.png,object_09a.png,,0.44954128440366975,1,,,,,,,,,,,
3446.800000011921,,directmemory_phase8,1486417,,,,object_14c.png,,,51,,,,1,object_13a.png,object_12a.png,object_08c.png,object_08c.png,,0.45454545454545453,1,,,,,,,,,,,
2607.600000023842,,directmemory_phase8,1489029,,,,object_02c.png,,,51,,,,1,object_04b.png,object_09a.png,object_15a.png,object_15a.png,,0.4594594594594595,1,,,,,,,,,,,
1742.3999999761581,,directmemory_phase8,1490776,,,,object_12b.png,,,50,,,,1,object_11b.png,object_07b.png,object_04b.png,object_07b.png,,0.4642857142857143,1,,,,,,,,,,,
3066,,directmemory_phase8,1493847,,,,object_11a.png,,,51,,,,0,object_13c.png,object_03c.png,object_04c.png,object_03c.png,,0.46017699115044247,0,,,,,,,,,,,
3129,,directmemory_phase8,1496982,,,,object_04c.png,,,51,,,,1,object_02c.png,object_08b.png,object_07c.png,object_07c.png,,0.4649122807017544,1,,,,,,,,,,,
2210.7999999821186,,directmemory_phase8,1499197,,,,object_04a.png,,,49,,,,1,object_10a.png,object_12a.png,object_03c.png,object_10a.png,,0.46956521739130436,1,,,,,,,,,,,
2988,,directmemory_phase8,1502190,,,,object_13b.png,,,50,,,,0,object_02b.png,object_11b.png,object_04b.png,object_04b.png,,0.46551724137931033,0,,,,,,,,,,,
3352,,directmemory_phase8,1505547,,,,object_11c.png,,,50,,,,1,object_07b.png,object_05c.png,object_02c.png,object_05c.png,,0.4700854700854701,1,,,,,,,,,,,
3130.4000000059605,,directmemory_phase8,1508682,,,,object_03b.png,,,51,,,,1,object_11a.png,object_02b.png,object_13c.png,object_13c.png,,0.4745762711864407,1,,,,,,,,,,,
2533.5,,directmemory_phase8,1511220,,,,object_03a.png,,,51,,,,1,object_02a.png,object_13c.png,object_13a.png,object_13a.png,,0.4789915966386555,1,,,,,,,,,,,
3042.7999999821186,,directmemory_phase8,1514268,,,,object_06b.png,,,50,,,,0,object_07c.png,object_13a.png,object_12a.png,object_12a.png,,0.475,0,,,,,,,,,,,
null,,thebreak,1514372,,,,<p></p>,,,null,,,,,,,,,,,,,,,,,,,,,,
7820.699999988079,,intro_0,1522195,,,,instruct,,,32,,,,,,,,,,,,,,,,,,,,,,
25792.20000001788,,intro_1,1547989,,,,instruct,,,32,,,,,,,,,,,,,,,,,,,,,,
8692.40000000596,,intro_2,1556683,,,,instruct,,,32,,,,,,,,,,,,,,,,,,,,,,
,,intro_3,1594814,,,,instruct,,,,,,,,,,,,,,,,,,,,,,,,,
11854,,intro_4,1606670,,,,instruct,,,32,,,,,,,,,,,,,,,,,,,,,,
4712.199999988079,,inference_phase,1611385,,,,object_01c.png,,,49,object_13a.png,object_11a.png,,0,,,,object_11a.png,,0,,object_07c.png,,,,,,,,,,
4227.199999988079,,inference_phase,1615617,,,,object_14c.png,,,50,object_01b.png,object_02a.png,,0,,,,object_14a.png,,0,,object_14a.png,,,,,,,,,,
3288.0999999940395,,inference_phase,1618910,,,,object_09b.png,,,50,object_13a.png,object_02c.png,,1,,,,object_02c.png,,0.3333333333333333,,object_09a.png,,,,,,,,,,
4378.300000011921,,inference_phase,1623291,,,,object_11b.png,,,51,object_01b.png,object_06c.png,,0,,,,object_06c.png,,0.25,,object_06a.png,,,,,,,,,,
3879,,inference_phase,1627173,,,,object_01b.png,,,51,object_06b.png,object_09a.png,,0,,,,object_09a.png,,0.2,,object_12b.png,,,,,,,,,,
2735,,inference_phase,1629912,,,,object_14b.png,,,51,object_03c.png,object_08a.png,,0,,,,object_08a.png,,0.16666666666666666,,object_03a.png,,,,,,,,,,
4762.799999982119,,inference_phase,1634679,,,,object_12a.png,,,51,object_01a.png,object_14a.png,,0,,,,object_01a.png,,0.14285714285714285,,object_15a.png,,,,,,,,,,
3845.300000011921,,inference_phase,1638528,,,,object_05b.png,,,50,object_15a.png,object_13b.png,,1,,,,object_13b.png,,0.25,,object_13c.png,,,,,,,,,,
2596.4000000059605,,inference_phase,1641129,,,,object_13c.png,,,49,object_07a.png,object_14a.png,,1,,,,object_07a.png,,0.3333333333333333,,object_06b.png,,,,,,,,,,
4869.300000011921,,inference_phase,1646002,,,,object_05a.png,,,49,object_04b.png,object_11a.png,,0,,,,object_10c.png,,0.3,,object_10c.png,,,,,,,,,,
3836,,inference_phase,1649842,,,,object_07c.png,,,49,object_06c.png,object_10b.png,,0,,,,object_10b.png,,0.2727272727272727,,object_07b.png,,,,,,,,,,
2614,,inference_phase,1652461,,,,object_05c.png,,,50,object_10b.png,object_13a.png,,0,,,,object_12c.png,,0.25,,object_12c.png,,,,,,,,,,
3329,,inference_phase,1655795,,,,object_10a.png,,,51,object_05a.png,object_03c.png,,0,,,,object_15c.png,,0.23076923076923078,,object_15c.png,,,,,,,,,,
3101.0999999940395,,inference_phase,1658900,,,,object_15b.png,,,50,object_06a.png,object_10a.png,,0,,,,object_03a.png,,0.21428571428571427,,object_03a.png,,,,,,,,,,
3339.4000000059605,,inference_phase,1662243,,,,object_09c.png,,,51,object_02a.png,object_12b.png,,0,,,,object_12b.png,,0.2,,object_03a.png,,,,,,,,,,
,,survey,1759948,,,,survey-questions,,,,,,,,,,,,,,,,none,high,no,none,all were difficult,no ,very difficult,,,
35118.79999998212,,thank_you,1795069,,,,<p> Congratulations, you are all done!</p><p> <strong>Please click space on your keyboard to end the experiment!</strong> The secret code to enter at the beginning screen is: C78LSMTN</p><p> Please make sure to submit the HIT and email uciccnl@gmail.com if you had any issues! </p>,,,32,,,,,,,,,,,,,,,,,,,,0,0,C78LSMTN
