rt,responses,trial_type,time_elapsed,identifier_a,identifier_b,identifier_c,stimulus,button_pressed,response,key_press,stimulus_left,stimulus_right,accuracy,practice_cumulative_accuracy,stimulus_down_left,stimulus_down_mid,stimulus_down_right,stimulus_correct,prac_weighted_accuracy,cumulative_accuracy,weighted_accuracy,tooquick
7913.900000035763,{worker_id:hyr},id_enter,7916,object_10a.png; object_13c.png; object_13b.png; object_10c.png; object_01a.png; object_08a.png; object_02c.png; object_07b.png; object_05b.png; object_04a.png; object_12a.png; object_03c.png; object_09c.png; object_08c.png; object_02a.png,object_03b.png; object_11a.png; object_12c.png; object_04b.png; object_06c.png; object_15c.png; object_03a.png; object_09b.png; object_05a.png; object_04c.png; object_02b.png; object_14a.png; object_08b.png; object_06a.png; object_14b.png,object_15b.png; object_11c.png; object_01b.png; object_14c.png; object_12b.png; object_15a.png; object_05c.png; object_13a.png; object_07a.png; object_11b.png; object_07c.png; object_06b.png; object_09a.png; object_01c.png; object_10b.png,,,,,,,,,,,,,,,,
28967.80000001192,,make_fullscreen,36889,,,,fullscreen,0,,,,,,,,,,,,,,
4900.300000011921,,instruct_1,41793,,,,instruct,0,Next,,,,,,,,,,,,,
17971.19999998808,,instruct_2,59768,,,,instruct,0,Previous,,,,,,,,,,,,,
4185.599999964237,,instruct_1,63956,,,,instruct,0,Next,,,,,,,,,,,,,
12099.899999976158,,instruct_2,76058,,,,instruct,1,Next,,,,,,,,,,,,,
10691.100000023842,,instruct_3,86751,,,,instruct,1,Next,,,,,,,,,,,,,
41663.30000001192,,instruct_4,128417,,,,instruct,1,Next,,,,,,,,,,,,,
10299.700000047684,,instruct_5,138718,,,,instruct,1,Next,,,,,,,,,,,,,
4565.300000011921,,instruct_6,143286,,,,instruct,1,Next,,,,,,,,,,,,,
40584.10000002384,,instruct_7,183872,,,,instruct,1,Next,,,,,,,,,,,,,
null,,prac_atten_color_black,184459,,,,black_plus_sign,,,null,,,,,,,,,,,,
672.5,,prac_atten_color,185281,,,,<p style='position:absolute;top: 50%;right: 50%;transform: translate(50%, -50%);font-size: 125px;color: blue;'>+</p>,,,49,,,,,,,,,,,,
null,,prac_atten_color_black,187284,,,,black_plus_sign,,,null,,,,,,,,,,,,
null,,prac_atten_color_black,187870,,,,black_plus_sign,,,null,,,,,,,,,,,,
519.1000000238419,,prac_atten_color,188700,,,,<p style='position:absolute;top: 50%;right: 50%;transform: translate(50%, -50%);font-size: 125px;color: green;'>+</p>,,,50,,,,,,,,,,,,
null,,prac_atten_color_black,190703,,,,black_plus_sign,,,null,,,,,,,,,,,,
null,,prac_atten_color_black,191280,,,,black_plus_sign,,,null,,,,,,,,,,,,
null,,prac_atten_color,191813,,,,<p style='position:absolute;top: 50%;right: 50%;transform: translate(50%, -50%);font-size: 125px;color: green;'>+</p>,,,null,,,,,,,,,,,,
190.70000004768372,,prac_atten_color_black,193817,,,,black_plus_sign,,,50,,,,,,,,,,,,
null,,prac_atten_color_black,194691,,,,black_plus_sign,,,null,,,,,,,,,,,,
690.5,,prac_atten_color,195525,,,,<p style='position:absolute;top: 50%;right: 50%;transform: translate(50%, -50%);font-size: 125px;color: blue;'>+</p>,,,49,,,,,,,,,,,,
null,,prac_atten_color_black,197529,,,,black_plus_sign,,,null,,,,,,,,,,,,
null,,prac_atten_color_black,198103,,,,black_plus_sign,,,null,,,,,,,,,,,,
null,,prac_atten_color,198535,,,,<p style='position:absolute;top: 50%;right: 50%;transform: translate(50%, -50%);font-size: 125px;color: green;'>+</p>,,,null,,,,,,,,,,,,
18.100000023841858,,prac_atten_color_black,200537,,,,black_plus_sign,,,50,,,,,,,,,,,,
null,,prac_atten_color_black,201513,,,,black_plus_sign,,,null,,,,,,,,,,,,
null,,prac_atten_color,201935,,,,<p style='position:absolute;top: 50%;right: 50%;transform: translate(50%, -50%);font-size: 125px;color: green;'>+</p>,,,null,,,,,,,,,,,,
496.2999999523163,,prac_atten_color_black,203938,,,,black_plus_sign,,,50,,,,,,,,,,,,
null,,prac_atten_color_black,204923,,,,black_plus_sign,,,null,,,,,,,,,,,,
660.8999999761581,,prac_atten_color,205725,,,,<p style='position:absolute;top: 50%;right: 50%;transform: translate(50%, -50%);font-size: 125px;color: blue;'>+</p>,,,49,,,,,,,,,,,,
null,,prac_atten_color_black,207728,,,,black_plus_sign,,,null,,,,,,,,,,,,
null,,prac_atten_color_black,208335,,,,black_plus_sign,,,null,,,,,,,,,,,,
576.6999999880791,,prac_atten_color,209409,,,,<p style='position:absolute;top: 50%;right: 50%;transform: translate(50%, -50%);font-size: 125px;color: green;'>+</p>,,,50,,,,,,,,,,,,
null,,prac_atten_color_black,211412,,,,black_plus_sign,,,null,,,,,,,,,,,,
null,,prac_atten_color_black,211747,,,,black_plus_sign,,,null,,,,,,,,,,,,
461.60000002384186,,prac_atten_color,212619,,,,<p style='position:absolute;top: 50%;right: 50%;transform: translate(50%, -50%);font-size: 125px;color: blue;'>+</p>,,,49,,,,,,,,,,,,
null,,prac_atten_color_black,214622,,,,black_plus_sign,,,null,,,,,,,,,,,,
null,,prac_atten_color_black,215157,,,,black_plus_sign,,,null,,,,,,,,,,,,
671.3999999761581,,prac_atten_color,215855,,,,<p style='position:absolute;top: 50%;right: 50%;transform: translate(50%, -50%);font-size: 125px;color: blue;'>+</p>,,,49,,,,,,,,,,,,
null,,prac_atten_color_black,217858,,,,black_plus_sign,,,null,,,,,,,,,,,,
5079.5,,attentioncheck_feedback,222940,,,,cross_check_feedback,0,,,,,,,,,,,,,,
10201.5,,last_instruct,233143,,,,instruct,,,32,,,,,,,,,,,,
null,,prac_learn_phase(without_color),236647,,,,black_plus_sign,,,null,object_14a.png,object_03c.png,,,,,,,,,,
null,,prac_black_cross(without_color),237231,,,,green,,,null,object_14a.png,object_03c.png,,,,,,,,,,
null,,prac_rt_plussign_withcolor,237735,,,,green,,,null,object_14a.png,object_03c.png,,,,,,,,,,
1574.800000011921,,prac_rt_thecrossant_black,239158,,,,black_plus_sign,,,49,,,0,0,,,,,,,,
null,,prac_color_black,239262,,,,black_plus_sign,,,null,,,,,,,,,,,,
null,,prac_learn_phase(without_color),242767,,,,black_plus_sign,,,null,object_08a.png,object_15c.png,,,,,,,,,,
null,,black_cross(without_color)1,243841,,,,blue,,,null,object_14a.png,object_03c.png,,,,,,,,,,
null,,prac_rt_plussign_withcolor,244343,,,,blue,,,null,object_08a.png,object_15c.png,,,,,,,,,,
1009.8999999761581,,prac_rt_thecrossant_black,245798,,,,black_plus_sign,,,49,,,1,0.5,,,,,,,,
null,,prac_color_black,245901,,,,black_plus_sign,,,null,,,,,,,,,,,,
null,,prac_learn_phase(without_color),249406,,,,black_plus_sign,,,null,object_06a.png,object_08c.png,,,,,,,,,,
null,,black_cross(without_color)1,250481,,,,blue,,,null,object_14a.png,object_03c.png,,,,,,,,,,
null,,prac_rt_plussign_withcolor,250984,,,,green,,,null,object_06a.png,object_08c.png,,,,,,,,,,
784.3000000119209,,prac_rt_thecrossant_black,252102,,,,black_plus_sign,,,50,,,1,0.6666666666666666,,,,,,,,
null,,prac_color_black,252205,,,,black_plus_sign,,,null,,,,,,,,,,,,
null,,prac_learn_phase(without_color),255709,,,,black_plus_sign,,,null,object_02c.png,object_03a.png,,,,,,,,,,
null,,black_cross(without_color)1,256783,,,,blue,,,null,object_14a.png,object_03c.png,,,,,,,,,,
null,,prac_rt_plussign_withcolor,257286,,,,green,,,null,object_02c.png,object_03a.png,,,,,,,,,,
1086.7000000476837,,prac_rt_thecrossant_black,258688,,,,black_plus_sign,,,50,,,1,0.75,,,,,,,,
null,,prac_color_black,258791,,,,black_plus_sign,,,null,,,,,,,,,,,,
1167.300000011921,,instruct_dir_01,259962,,,,instruct,0,Next,,,,,,,,,,,,,
9116.699999988079,,instruct_dir_2,269081,,,,instruct,0,Previous,,,,,,,,,,,,,
13414,,instruct_dir_01,282497,,,,instruct,0,Next,,,,,,,,,,,,,
1514.800000011921,,instruct_dir_2,284014,,,,instruct,1,Next,,,,,,,,,,,,,
2648.400000035763,,instruct_dir_3,286665,,,,instruct,1,Next,,,,,,,,,,,,,
5006.200000047684,,instruct_dir_4,291673,,,,instruct,1,Start,,,,,,,,,,,,,
null,,thebreak,291776,,,,<p></p>,,,null,,,,,,,,,,,,
2087.2999999523163,,intro_0,293865,,,,instruct,,,32,,,,,,,,,,,,
6114,,prac_directmemory_phase,299981,,,,practice/object_02a.png,,,50,,,1,,practice/object_03a.png,practice/object_02b.png,practice/object_01b.png,practice/object_02b.png,1,1,,
4845.399999976158,,prac_directmemory_phase,304830,,,,practice/object_03a.png,,,50,,,1,,practice/object_02a.png,practice/object_03b.png,practice/object_04b.png,practice/object_03b.png,1,1,,
2060.899999976158,,prac_directmemory_phase,306894,,,,practice/object_04a.png,,,51,,,1,,practice/object_01b.png,practice/object_01a.png,practice/object_04b.png,practice/object_04b.png,1,1,,
4871.299999952316,,prac_directmemory_phase,311768,,,,practice/object_01a.png,,,50,,,1,,practice/object_03a.png,practice/object_01b.png,practice/object_03b.png,practice/object_01b.png,1,1,,
10095.699999988079,,practice_feedback,321867,,,,practice_feedback,1,,,,,,,,,,,,,,
5088.399999976158,,proceed_actualTask,326957,,,,proceed_actualTask,1,Continue,,,,,,,,,,,,,
38176.40000003576,,last_inst,365136,,,,last_inst,,,32,,,,,,,,,,,,
null,,learn_phase(without_color)1,368639,,,,black_plus_sign,,,null,object_14a.png,object_03c.png,,,,,,,,,,
null,,black_cross(without_color)1,369714,,,,blue,,,null,object_14a.png,object_03c.png,,,,,,,,,,
null,,rt_plussign_withcolor1,370218,,,,blue,,,null,object_14a.png,object_03c.png,,,,,,,,,,
1139.8999999761581,,rt_thecrossant_black1,371151,,,,black_plus_sign,,,50,,,0,,,,,,,0,,
null,,color_black1,371254,,,,black_plus_sign,,,null,,,,,,,,,,,,
null,,learn_phase(without_color)1,374758,,,,black_plus_sign,,,null,object_08a.png,object_15c.png,,,,,,,,,,
null,,black_cross(without_color)1,375434,,,,blue,,,null,object_08a.png,object_15c.png,,,,,,,,,,
null,,rt_plussign_withcolor1,375936,,,,blue,,,null,object_08a.png,object_15c.png,,,,,,,,,,
788.1000000238419,,rt_thecrossant_black1,377268,,,,black_plus_sign,,,49,,,1,,,,,,,0.5,,
null,,color_black1,377371,,,,black_plus_sign,,,null,,,,,,,,,,,,
null,,learn_phase(without_color)1,380876,,,,black_plus_sign,,,null,object_06a.png,object_08c.png,,,,,,,,,,
null,,black_cross(without_color)1,381813,,,,blue,,,null,object_06a.png,object_08c.png,,,,,,,,,,
null,,rt_plussign_withcolor1,382316,,,,blue,,,null,object_06a.png,object_08c.png,,,,,,,,,,
1153.699999988079,,rt_thecrossant_black1,383386,,,,black_plus_sign,,,50,,,0,,,,,,,0.3333333333333333,,
null,,color_black1,383489,,,,black_plus_sign,,,null,,,,,,,,,,,,
null,,learn_phase(without_color)1,386993,,,,black_plus_sign,,,null,object_02c.png,object_03a.png,,,,,,,,,,
null,,black_cross(without_color)1,387792,,,,green,,,null,object_02c.png,object_03a.png,,,,,,,,,,
null,,rt_plussign_withcolor1,388294,,,,green,,,null,object_02c.png,object_03a.png,,,,,,,,,,
1090.5,,rt_thecrossant_black1,389503,,,,black_plus_sign,,,50,,,1,,,,,,,0.5,,
null,,color_black1,389606,,,,black_plus_sign,,,null,,,,,,,,,,,,
null,,learn_phase(without_color)1,393110,,,,black_plus_sign,,,null,object_12a.png,object_02b.png,,,,,,,,,,
null,,black_cross(without_color)1,393520,,,,green,,,null,object_12a.png,object_02b.png,,,,,,,,,,
null,,rt_plussign_withcolor1,394022,,,,green,,,null,object_12a.png,object_02b.png,,,,,,,,,,
null,,rt_thecrossant_black1,395620,,,,black_plus_sign,,,null,,,,,,,,,,0.5,,
null,,color_black1,395724,,,,black_plus_sign,,,null,,,,,,,,,,,,
null,,learn_phase(without_color)1,399229,,,,black_plus_sign,,,null,object_08b.png,object_09c.png,,,,,,,,,,
null,,black_cross(without_color)1,400260,,,,blue,,,null,object_08b.png,object_09c.png,,,,,,,,,,
null,,rt_plussign_withcolor1,400763,,,,blue,,,null,object_08b.png,object_09c.png,,,,,,,,,,
781.1000000238419,,rt_thecrossant_black1,401739,,,,black_plus_sign,,,49,,,1,,,,,,,0.6,,
null,,color_black1,401844,,,,black_plus_sign,,,null,,,,,,,,,,,,
null,,learn_phase(without_color)1,405349,,,,black_plus_sign,,,null,object_14b.png,object_02a.png,,,,,,,,,,
null,,black_cross(without_color)1,405787,,,,green,,,null,object_14b.png,object_02a.png,,,,,,,,,,
null,,rt_plussign_withcolor1,406291,,,,green,,,null,object_14b.png,object_02a.png,,,,,,,,,,
1429.6000000238419,,rt_thecrossant_black1,407860,,,,black_plus_sign,,,50,,,1,,,,,,,0.6666666666666666,,
null,,color_black1,407963,,,,black_plus_sign,,,null,,,,,,,,,,,,
null,,learn_phase(without_color)1,411468,,,,black_plus_sign,,,null,object_09b.png,object_07b.png,,,,,,,,,,
null,,black_cross(without_color)1,412331,,,,blue,,,null,object_09b.png,object_07b.png,,,,,,,,,,
null,,rt_plussign_withcolor1,412834,,,,blue,,,null,object_09b.png,object_07b.png,,,,,,,,,,
749.0999999642372,,rt_thecrossant_black1,413979,,,,black_plus_sign,,,50,,,0,,,,,,,0.5714285714285714,,
null,,color_black1,414083,,,,black_plus_sign,,,null,,,,,,,,,,,,
null,,learn_phase(without_color)1,417588,,,,black_plus_sign,,,null,object_13c.png,object_11a.png,,,,,,,,,,
null,,black_cross(without_color)1,418027,,,,green,,,null,object_13c.png,object_11a.png,,,,,,,,,,
null,,rt_plussign_withcolor1,418530,,,,green,,,null,object_13c.png,object_11a.png,,,,,,,,,,
1036.9000000357628,,rt_thecrossant_black1,420098,,,,black_plus_sign,,,50,,,1,,,,,,,0.625,,
null,,color_black1,420203,,,,black_plus_sign,,,null,,,,,,,,,,,,
null,,learn_phase(without_color)1,423708,,,,black_plus_sign,,,null,object_01a.png,object_06c.png,,,,,,,,,,
null,,black_cross(without_color)1,424531,,,,green,,,null,object_01a.png,object_06c.png,,,,,,,,,,
417.2000000476837,,rt_plussign_withcolor1,425034,,,,green,,,50,object_01a.png,object_06c.png,,,,,,,,,,
null,,rt_thecrossant_black1,426220,,,,black_plus_sign,,,null,,,1,,,,,,,0.6666666666666666,,
null,,color_black1,426324,,,,black_plus_sign,,,null,,,,,,,,,,,,
null,,learn_phase(without_color)1,429829,,,,black_plus_sign,,,null,object_04c.png,object_04a.png,,,,,,,,,,
null,,black_cross(without_color)1,430899,,,,green,,,null,object_04c.png,object_04a.png,,,,,,,,,,
null,,rt_plussign_withcolor1,431402,,,,green,,,null,object_04c.png,object_04a.png,,,,,,,,,,
1046,,rt_thecrossant_black1,432340,,,,black_plus_sign,,,50,,,1,,,,,,,0.7,,
null,,color_black1,432443,,,,black_plus_sign,,,null,,,,,,,,,,,,
null,,learn_phase(without_color)1,435947,,,,black_plus_sign,,,null,object_12c.png,object_13b.png,,,,,,,,,,
null,,black_cross(without_color)1,437044,,,,green,,,null,object_12c.png,object_13b.png,,,,,,,,,,
null,,rt_plussign_withcolor1,437546,,,,green,,,null,object_12c.png,object_13b.png,,,,,,,,,,
1573.5,,rt_thecrossant_black1,438457,,,,black_plus_sign,,,50,,,1,,,,,,,0.7272727272727273,,
null,,color_black1,438561,,,,black_plus_sign,,,null,,,,,,,,,,,,
null,,learn_phase(without_color)1,442065,,,,black_plus_sign,,,null,object_05b.png,object_05a.png,,,,,,,,,,
null,,black_cross(without_color)1,443045,,,,blue,,,null,object_05b.png,object_05a.png,,,,,,,,,,
null,,rt_plussign_withcolor1,443548,,,,blue,,,null,object_05b.png,object_05a.png,,,,,,,,,,
1580.199999988079,,rt_thecrossant_black1,444575,,,,black_plus_sign,,,49,,,1,,,,,,,0.75,,
null,,color_black1,444678,,,,black_plus_sign,,,null,,,,,,,,,,,,
null,,learn_phase(without_color)1,448182,,,,black_plus_sign,,,null,object_03b.png,object_10a.png,,,,,,,,,,
null,,black_cross(without_color)1,448735,,,,blue,,,null,object_03b.png,object_10a.png,,,,,,,,,,
null,,rt_plussign_withcolor1,449238,,,,blue,,,null,object_03b.png,object_10a.png,,,,,,,,,,
1269.699999988079,,rt_thecrossant_black1,450693,,,,black_plus_sign,,,49,,,1,,,,,,,0.7692307692307693,,
null,,color_black1,450795,,,,black_plus_sign,,,null,,,,,,,,,,,,
null,,learn_phase(without_color)1,454299,,,,black_plus_sign,,,null,object_10c.png,object_04b.png,,,,,,,,,,
null,,black_cross(without_color)1,455381,,,,green,,,null,object_10c.png,object_04b.png,,,,,,,,,,
null,,rt_plussign_withcolor1,455884,,,,green,,,null,object_10c.png,object_04b.png,,,,,,,,,,
1234.800000011921,,rt_thecrossant_black1,456808,,,,black_plus_sign,,,50,,,1,,,,,,,0.7857142857142857,,
null,,color_black1,456912,,,,black_plus_sign,,,null,,,,,,,,,,,,
null,,thebreak,457017,,,,<p></p>,,,null,,,,,,,,,,,,
1325.7999999523163,,intro_0,458344,,,,instruct,,,32,,,,,,,,,,,,
10152.800000011921,,directmemory_phase1,468499,,,,object_10c.png,,,49,,,0,,object_05b.png,object_04b.png,object_15c.png,object_04b.png,,0,0,
5162.800000011921,,directmemory_phase1,473665,,,,object_02a.png,,,50,,,1,,object_02c.png,object_14b.png,object_02b.png,object_14b.png,,0.5,1,
1492.1000000238419,,directmemory_phase1,475160,,,,object_12a.png,,,49,,,1,,object_02b.png,object_03a.png,object_10a.png,object_02b.png,,0.6666666666666666,1,
4636.899999976158,,directmemory_phase1,479800,,,,object_10a.png,,,49,,,1,,object_03b.png,object_08b.png,object_08a.png,object_03b.png,,0.75,1,
3260.7999999523163,,directmemory_phase1,483063,,,,object_02c.png,,,50,,,0,,object_15c.png,object_08a.png,object_03a.png,object_03a.png,,0.6,0,
5115.399999976158,,directmemory_phase1,488181,,,,object_05b.png,,,50,,,1,,object_04a.png,object_05a.png,object_03a.png,object_05a.png,,0.6666666666666666,1,
6913.399999976158,,directmemory_phase1,495097,,,,object_08c.png,,,51,,,1,,object_14a.png,object_12a.png,object_06a.png,object_06a.png,,0.7142857142857143,1,
12467.199999988079,,directmemory_phase1,507567,,,,object_13c.png,,,51,,,0,,object_13b.png,object_11a.png,object_08b.png,object_11a.png,,0.625,0,
2739.199999988079,,directmemory_phase1,510309,,,,object_13b.png,,,51,,,1,,object_03b.png,object_10a.png,object_12c.png,object_12c.png,,0.6666666666666666,1,
5763,,directmemory_phase1,516075,,,,object_04a.png,,,50,,,0,,object_04c.png,object_03b.png,object_08a.png,object_04c.png,,0.6,0,
2923,,directmemory_phase1,518999,,,,object_07b.png,,,49,,,1,,object_09b.png,object_14a.png,object_13b.png,object_09b.png,,0.6363636363636364,1,
null,,directmemory_phase1,534003,,,,object_08a.png,,,null,,,0,,object_02c.png,object_15c.png,object_03a.png,object_15c.png,,0.5833333333333334,0,
null,,warning_page,539007,,,,warning,,,null,,,,,,,,,,,,
3789.699999988079,,directmemory_phase1,542806,,,,object_03c.png,,,49,,,0,,object_05a.png,object_02c.png,object_14a.png,object_14a.png,,0.5384615384615384,0,
1955.800000011921,,directmemory_phase1,544764,,,,object_01a.png,,,51,,,1,,object_08b.png,object_07b.png,object_06c.png,object_06c.png,,0.5714285714285714,1,
3418.5,,directmemory_phase1,548186,,,,object_09c.png,,,50,,,0,,object_08b.png,object_11a.png,object_07b.png,object_08b.png,,0.5333333333333333,0,
null,,thebreak,548289,,,,<p></p>,,,null,,,,,,,,,,,,
1110.1000000238419,,intro_0,549401,,,,instruct,,,32,,,,,,,,,,,,
null,,learn_phase(without_color)2,552904,,,,black_plus_sign,,,null,object_06a.png,object_08c.png,,,,,,,,,,
null,,black_cross(without_color)2,553733,,,,green,,,null,object_06a.png,object_08c.png,,,,,,,,,,
null,,rt_plussign_withcolor2,554235,,,,green,,,null,object_06a.png,object_08c.png,,,,,,,,,,
1313.300000011921,,rt_thecrossant_black2,555413,,,,black_plus_sign,,,50,,,1,,,,,,,1,,
null,,color_black2,555516,,,,black_plus_sign,,,null,,,,,,,,,,,,
null,,learn_phase(without_color)2,559021,,,,black_plus_sign,,,null,object_03c.png,object_14a.png,,,,,,,,,,
null,,black_cross(without_color)2,560024,,,,green,,,null,object_03c.png,object_14a.png,,,,,,,,,,
null,,rt_plussign_withcolor2,560527,,,,green,,,null,object_03c.png,object_14a.png,,,,,,,,,,
1188,,rt_thecrossant_black2,561531,,,,black_plus_sign,,,50,,,1,,,,,,,1,,
null,,color_black2,561634,,,,black_plus_sign,,,null,,,,,,,,,,,,
null,,learn_phase(without_color)2,565139,,,,black_plus_sign,,,null,object_12c.png,object_13b.png,,,,,,,,,,
null,,black_cross(without_color)2,565937,,,,blue,,,null,object_12c.png,object_13b.png,,,,,,,,,,
null,,rt_plussign_withcolor2,566440,,,,blue,,,null,object_12c.png,object_13b.png,,,,,,,,,,
1522.1000000238419,,rt_thecrossant_black2,567648,,,,black_plus_sign,,,49,,,1,,,,,,,1,,
null,,color_black2,567753,,,,black_plus_sign,,,null,,,,,,,,,,,,
null,,learn_phase(without_color)2,571257,,,,black_plus_sign,,,null,object_04b.png,object_10c.png,,,,,,,,,,
null,,black_cross(without_color)2,571827,,,,green,,,null,object_04b.png,object_10c.png,,,,,,,,,,
null,,rt_plussign_withcolor2,572331,,,,green,,,null,object_04b.png,object_10c.png,,,,,,,,,,
1273,,rt_thecrossant_black2,573769,,,,black_plus_sign,,,50,,,1,,,,,,,1,,
null,,color_black2,573874,,,,black_plus_sign,,,null,,,,,,,,,,,,
null,,learn_phase(without_color)2,577378,,,,black_plus_sign,,,null,object_11a.png,object_13c.png,,,,,,,,,,
null,,black_cross(without_color)2,577993,,,,green,,,null,object_11a.png,object_13c.png,,,,,,,,,,
null,,rt_plussign_withcolor2,578496,,,,green,,,null,object_11a.png,object_13c.png,,,,,,,,,,
993.9000000357628,,rt_thecrossant_black2,579889,,,,black_plus_sign,,,50,,,1,,,,,,,1,,
null,,color_black2,579992,,,,black_plus_sign,,,null,,,,,,,,,,,,
null,,learn_phase(without_color)2,583497,,,,black_plus_sign,,,null,object_14b.png,object_02a.png,,,,,,,,,,
null,,black_cross(without_color)2,584527,,,,green,,,null,object_14b.png,object_02a.png,,,,,,,,,,
500.80000001192093,,rt_plussign_withcolor2,585029,,,,green,,,50,object_14b.png,object_02a.png,,,,,,,,,,
null,,rt_thecrossant_black2,586007,,,,black_plus_sign,,,null,,,1,,,,,,,1,,
null,,color_black2,586111,,,,black_plus_sign,,,null,,,,,,,,,,,,
null,,learn_phase(without_color)2,589615,,,,black_plus_sign,,,null,object_02c.png,object_03a.png,,,,,,,,,,
null,,black_cross(without_color)2,590044,,,,blue,,,null,object_02c.png,object_03a.png,,,,,,,,,,
null,,rt_plussign_withcolor2,590547,,,,blue,,,null,object_02c.png,object_03a.png,,,,,,,,,,
1532.9000000357628,,rt_thecrossant_black2,592125,,,,black_plus_sign,,,49,,,1,,,,,,,1,,
null,,color_black2,592228,,,,black_plus_sign,,,null,,,,,,,,,,,,
null,,learn_phase(without_color)2,595733,,,,black_plus_sign,,,null,object_03b.png,object_10a.png,,,,,,,,,,
null,,black_cross(without_color)2,596800,,,,blue,,,null,object_03b.png,object_10a.png,,,,,,,,,,
null,,rt_plussign_withcolor2,597304,,,,blue,,,null,object_03b.png,object_10a.png,,,,,,,,,,
958.8000000119209,,rt_thecrossant_black2,598243,,,,black_plus_sign,,,49,,,1,,,,,,,1,,
null,,color_black2,598346,,,,black_plus_sign,,,null,,,,,,,,,,,,
null,,learn_phase(without_color)2,601850,,,,black_plus_sign,,,null,object_05b.png,object_05a.png,,,,,,,,,,
null,,black_cross(without_color)2,602476,,,,green,,,null,object_05b.png,object_05a.png,,,,,,,,,,
null,,rt_plussign_withcolor2,602979,,,,green,,,null,object_05b.png,object_05a.png,,,,,,,,,,
1194.9000000357628,,rt_thecrossant_black2,604362,,,,black_plus_sign,,,50,,,1,,,,,,,1,,
null,,color_black2,604465,,,,black_plus_sign,,,null,,,,,,,,,,,,
null,,learn_phase(without_color)2,607970,,,,black_plus_sign,,,null,object_08b.png,object_09c.png,,,,,,,,,,
null,,black_cross(without_color)2,608392,,,,blue,,,null,object_08b.png,object_09c.png,,,,,,,,,,
null,,rt_plussign_withcolor2,608895,,,,blue,,,null,object_08b.png,object_09c.png,,,,,,,,,,
913.4000000357628,,rt_thecrossant_black2,610480,,,,black_plus_sign,,,49,,,1,,,,,,,1,,
null,,color_black2,610583,,,,black_plus_sign,,,null,,,,,,,,,,,,
null,,learn_phase(without_color)2,614088,,,,black_plus_sign,,,null,object_02b.png,object_12a.png,,,,,,,,,,
null,,black_cross(without_color)2,614611,,,,blue,,,null,object_02b.png,object_12a.png,,,,,,,,,,
null,,rt_plussign_withcolor2,615114,,,,blue,,,null,object_02b.png,object_12a.png,,,,,,,,,,
1403.800000011921,,rt_thecrossant_black2,616598,,,,black_plus_sign,,,49,,,1,,,,,,,1,,
null,,color_black2,616701,,,,black_plus_sign,,,null,,,,,,,,,,,,
null,,learn_phase(without_color)2,620206,,,,black_plus_sign,,,null,object_15c.png,object_08a.png,,,,,,,,,,
null,,black_cross(without_color)2,621273,,,,green,,,null,object_15c.png,object_08a.png,,,,,,,,,,
null,,rt_plussign_withcolor2,621776,,,,green,,,null,object_15c.png,object_08a.png,,,,,,,,,,
886,,rt_thecrossant_black2,622717,,,,black_plus_sign,,,50,,,1,,,,,,,1,,
null,,color_black2,622821,,,,black_plus_sign,,,null,,,,,,,,,,,,
null,,learn_phase(without_color)2,626326,,,,black_plus_sign,,,null,object_04a.png,object_04c.png,,,,,,,,,,
null,,black_cross(without_color)2,626863,,,,blue,,,null,object_04a.png,object_04c.png,,,,,,,,,,
null,,rt_plussign_withcolor2,627366,,,,blue,,,null,object_04a.png,object_04c.png,,,,,,,,,,
1510.699999988079,,rt_thecrossant_black2,628837,,,,black_plus_sign,,,49,,,1,,,,,,,1,,
null,,color_black2,628940,,,,black_plus_sign,,,null,,,,,,,,,,,,
null,,learn_phase(without_color)2,632445,,,,black_plus_sign,,,null,object_09b.png,object_07b.png,,,,,,,,,,
null,,black_cross(without_color)2,633265,,,,green,,,null,object_09b.png,object_07b.png,,,,,,,,,,
null,,rt_plussign_withcolor2,633769,,,,green,,,null,object_09b.png,object_07b.png,,,,,,,,,,
1397.9000000357628,,rt_thecrossant_black2,634957,,,,black_plus_sign,,,50,,,1,,,,,,,1,,
null,,color_black2,635061,,,,black_plus_sign,,,null,,,,,,,,,,,,
null,,learn_phase(without_color)2,638566,,,,black_plus_sign,,,null,object_06c.png,object_01a.png,,,,,,,,,,
null,,black_cross(without_color)2,639621,,,,green,,,null,object_06c.png,object_01a.png,,,,,,,,,,
null,,rt_plussign_withcolor2,640125,,,,green,,,null,object_06c.png,object_01a.png,,,,,,,,,,
1265.6000000238419,,rt_thecrossant_black2,641077,,,,black_plus_sign,,,50,,,1,,,,,,,1,,
null,,color_black2,641181,,,,black_plus_sign,,,null,,,,,,,,,,,,
null,,thebreak,641285,,,,<p></p>,,,null,,,,,,,,,,,,
1341.1000000238419,,intro_0,642628,,,,instruct,,,32,,,,,,,,,,,,
3116.199999988079,,directmemory_phase2,645747,,,,object_10c.png,,,49,,,1,,object_04b.png,object_04c.png,object_12a.png,object_04b.png,,0.5625,1,
3359.099999964237,,directmemory_phase2,649109,,,,object_04a.png,,,50,,,1,,object_01a.png,object_04c.png,object_11a.png,object_04c.png,,0.5882352941176471,1,
1578.300000011921,,directmemory_phase2,650690,,,,object_09c.png,,,50,,,1,,object_04a.png,object_08b.png,object_02b.png,object_08b.png,,0.6111111111111112,1,
7556.300000011921,,directmemory_phase2,658250,,,,object_01a.png,,,49,,,0,,object_03c.png,object_06c.png,object_09b.png,object_06c.png,,0.5789473684210527,0,
2274.100000023842,,directmemory_phase2,660527,,,,object_08c.png,,,50,,,1,,object_12a.png,object_06a.png,object_03b.png,object_06a.png,,0.6,1,
1444.6000000238419,,directmemory_phase2,661975,,,,object_12a.png,,,50,,,1,,object_05b.png,object_02b.png,object_03a.png,object_02b.png,,0.6190476190476191,1,
1856.300000011921,,directmemory_phase2,663833,,,,object_08a.png,,,50,,,1,,object_04a.png,object_15c.png,object_02b.png,object_15c.png,,0.6363636363636364,1,
2163.899999976158,,directmemory_phase2,666000,,,,object_05b.png,,,51,,,1,,object_08b.png,object_10a.png,object_05a.png,object_05a.png,,0.6521739130434783,1,
1218.2000000476837,,directmemory_phase2,667221,,,,object_10a.png,,,51,,,1,,object_15c.png,object_09c.png,object_03b.png,object_03b.png,,0.6666666666666666,1,
5714,,directmemory_phase2,672938,,,,object_13c.png,,,51,,,1,,object_05a.png,object_03c.png,object_11a.png,object_11a.png,,0.68,1,
3036,,directmemory_phase2,675975,,,,object_13b.png,,,49,,,1,,object_12c.png,object_02b.png,object_08c.png,object_12c.png,,0.6923076923076923,1,
4765.5,,directmemory_phase2,680744,,,,object_02c.png,,,50,,,1,,object_09c.png,object_03a.png,object_04c.png,object_03a.png,,0.7037037037037037,1,
4314.800000011921,,directmemory_phase2,685062,,,,object_03c.png,,,49,,,1,,object_14a.png,object_11a.png,object_13c.png,object_14a.png,,0.7142857142857143,1,
2107,,directmemory_phase2,687172,,,,object_02a.png,,,49,,,1,,object_14b.png,object_14a.png,object_12a.png,object_14b.png,,0.7241379310344828,1,
1638.800000011921,,directmemory_phase2,688813,,,,object_07b.png,,,50,,,0,,object_04b.png,object_04a.png,object_09b.png,object_09b.png,,0.7,0,
null,,thebreak,688918,,,,<p></p>,,,null,,,,,,,,,,,,
3175.899999976158,,intro_0,692095,,,,instruct,,,32,,,,,,,,,,,,
null,,learn_phase(without_color)3,695598,,,,black_plus_sign,,,null,object_14b.png,object_02a.png,,,,,,,,,,
null,,black_cross(without_color)3,696632,,,,blue,,,null,object_14b.png,object_02a.png,,,,,,,,,,
null,,rt_plussign_withcolor3,697136,,,,blue,,,null,object_14b.png,object_02a.png,,,,,,,,,,
1958.699999988079,,rt_thecrossant_black3,698109,,,,black_plus_sign,,,49,,,1,,,,,,,1,,
null,,color_black3,698212,,,,black_plus_sign,,,null,,,,,,,,,,,,
null,,learn_phase(without_color)3,701717,,,,black_plus_sign,,,null,object_15c.png,object_08a.png,,,,,,,,,,
null,,black_cross(without_color)3,702384,,,,green,,,null,object_15c.png,object_08a.png,,,,,,,,,,
null,,rt_plussign_withcolor3,702887,,,,green,,,null,object_15c.png,object_08a.png,,,,,,,,,,
1333.5,,rt_thecrossant_black3,704228,,,,black_plus_sign,,,50,,,1,,,,,,,1,,
null,,color_black3,704332,,,,black_plus_sign,,,null,,,,,,,,,,,,
null,,learn_phase(without_color)3,707837,,,,black_plus_sign,,,null,object_10c.png,object_04b.png,,,,,,,,,,
null,,black_cross(without_color)3,708368,,,,blue,,,null,object_10c.png,object_04b.png,,,,,,,,,,
null,,rt_plussign_withcolor3,708872,,,,blue,,,null,object_10c.png,object_04b.png,,,,,,,,,,
1326.199999988079,,rt_thecrossant_black3,710348,,,,black_plus_sign,,,49,,,1,,,,,,,1,,
null,,color_black3,710452,,,,black_plus_sign,,,null,,,,,,,,,,,,
null,,learn_phase(without_color)3,713957,,,,black_plus_sign,,,null,object_09c.png,object_08b.png,,,,,,,,,,
null,,black_cross(without_color)3,714938,,,,green,,,null,object_09c.png,object_08b.png,,,,,,,,,,
null,,rt_plussign_withcolor3,715441,,,,green,,,null,object_09c.png,object_08b.png,,,,,,,,,,
956,,rt_thecrossant_black3,716467,,,,black_plus_sign,,,50,,,1,,,,,,,1,,
null,,color_black3,716571,,,,black_plus_sign,,,null,,,,,,,,,,,,
null,,learn_phase(without_color)3,720076,,,,black_plus_sign,,,null,object_04c.png,object_04a.png,,,,,,,,,,
null,,black_cross(without_color)3,720986,,,,blue,,,null,object_04c.png,object_04a.png,,,,,,,,,,
null,,rt_plussign_withcolor3,721489,,,,blue,,,null,object_04c.png,object_04a.png,,,,,,,,,,
1478.8999999761581,,rt_thecrossant_black3,722586,,,,black_plus_sign,,,49,,,1,,,,,,,1,,
null,,color_black3,722691,,,,black_plus_sign,,,null,,,,,,,,,,,,
null,,learn_phase(without_color)3,726196,,,,black_plus_sign,,,null,object_11a.png,object_13c.png,,,,,,,,,,
null,,black_cross(without_color)3,727096,,,,blue,,,null,object_11a.png,object_13c.png,,,,,,,,,,
null,,rt_plussign_withcolor3,727598,,,,blue,,,null,object_11a.png,object_13c.png,,,,,,,,,,
1379.9000000357628,,rt_thecrossant_black3,728705,,,,black_plus_sign,,,49,,,1,,,,,,,1,,
null,,color_black3,728809,,,,black_plus_sign,,,null,,,,,,,,,,,,
null,,learn_phase(without_color)3,732315,,,,black_plus_sign,,,null,object_05a.png,object_05b.png,,,,,,,,,,
null,,black_cross(without_color)3,732900,,,,blue,,,null,object_05a.png,object_05b.png,,,,,,,,,,
null,,rt_plussign_withcolor3,733403,,,,blue,,,null,object_05a.png,object_05b.png,,,,,,,,,,
1168.5999999642372,,rt_thecrossant_black3,734826,,,,black_plus_sign,,,49,,,1,,,,,,,1,,
null,,color_black3,734930,,,,black_plus_sign,,,null,,,,,,,,,,,,
null,,learn_phase(without_color)3,738435,,,,black_plus_sign,,,null,object_03a.png,object_02c.png,,,,,,,,,,
null,,black_cross(without_color)3,739478,,,,blue,,,null,object_03a.png,object_02c.png,,,,,,,,,,
null,,rt_plussign_withcolor3,739981,,,,blue,,,null,object_03a.png,object_02c.png,,,,,,,,,,
800.6000000238419,,rt_thecrossant_black3,740946,,,,black_plus_sign,,,49,,,1,,,,,,,1,,
null,,color_black3,741050,,,,black_plus_sign,,,null,,,,,,,,,,,,
null,,learn_phase(without_color)3,744555,,,,black_plus_sign,,,null,object_06c.png,object_01a.png,,,,,,,,,,
null,,black_cross(without_color)3,745169,,,,green,,,null,object_06c.png,object_01a.png,,,,,,,,,,
null,,rt_plussign_withcolor3,745672,,,,green,,,null,object_06c.png,object_01a.png,,,,,,,,,,
1164.5,,rt_thecrossant_black3,747065,,,,black_plus_sign,,,50,,,1,,,,,,,1,,
null,,color_black3,747170,,,,black_plus_sign,,,null,,,,,,,,,,,,
null,,learn_phase(without_color)3,750674,,,,black_plus_sign,,,null,object_03b.png,object_10a.png,,,,,,,,,,
null,,black_cross(without_color)3,751566,,,,blue,,,null,object_03b.png,object_10a.png,,,,,,,,,,
null,,rt_plussign_withcolor3,752069,,,,blue,,,null,object_03b.png,object_10a.png,,,,,,,,,,
990.5,,rt_thecrossant_black3,753185,,,,black_plus_sign,,,49,,,1,,,,,,,1,,
null,,color_black3,753289,,,,black_plus_sign,,,null,,,,,,,,,,,,
null,,learn_phase(without_color)3,756794,,,,black_plus_sign,,,null,object_12a.png,object_02b.png,,,,,,,,,,
null,,black_cross(without_color)3,757655,,,,blue,,,null,object_12a.png,object_02b.png,,,,,,,,,,
null,,rt_plussign_withcolor3,758159,,,,blue,,,null,object_12a.png,object_02b.png,,,,,,,,,,
1708.3999999761581,,rt_thecrossant_black3,759306,,,,black_plus_sign,,,49,,,1,,,,,,,1,,
null,,color_black3,759410,,,,black_plus_sign,,,null,,,,,,,,,,,,
null,,learn_phase(without_color)3,762914,,,,black_plus_sign,,,null,object_12c.png,object_13b.png,,,,,,,,,,
null,,black_cross(without_color)3,763586,,,,blue,,,null,object_12c.png,object_13b.png,,,,,,,,,,
null,,rt_plussign_withcolor3,764090,,,,blue,,,null,object_12c.png,object_13b.png,,,,,,,,,,
1462.300000011921,,rt_thecrossant_black3,765426,,,,black_plus_sign,,,49,,,1,,,,,,,1,,
null,,color_black3,765529,,,,black_plus_sign,,,null,,,,,,,,,,,,
null,,learn_phase(without_color)3,769034,,,,black_plus_sign,,,null,object_07b.png,object_09b.png,,,,,,,,,,
null,,black_cross(without_color)3,769643,,,,green,,,null,object_07b.png,object_09b.png,,,,,,,,,,
null,,rt_plussign_withcolor3,770147,,,,green,,,null,object_07b.png,object_09b.png,,,,,,,,,,
1005.3000000119209,,rt_thecrossant_black3,771547,,,,black_plus_sign,,,50,,,1,,,,,,,1,,
null,,color_black3,771651,,,,black_plus_sign,,,null,,,,,,,,,,,,
null,,learn_phase(without_color)3,775156,,,,black_plus_sign,,,null,object_08c.png,object_06a.png,,,,,,,,,,
null,,black_cross(without_color)3,776067,,,,blue,,,null,object_08c.png,object_06a.png,,,,,,,,,,
null,,rt_plussign_withcolor3,776570,,,,blue,,,null,object_08c.png,object_06a.png,,,,,,,,,,
1179.5999999642372,,rt_thecrossant_black3,777666,,,,black_plus_sign,,,49,,,1,,,,,,,1,,
null,,color_black3,777770,,,,black_plus_sign,,,null,,,,,,,,,,,,
null,,learn_phase(without_color)3,781274,,,,black_plus_sign,,,null,object_03c.png,object_14a.png,,,,,,,,,,
null,,black_cross(without_color)3,782009,,,,blue,,,null,object_03c.png,object_14a.png,,,,,,,,,,
null,,rt_plussign_withcolor3,782513,,,,blue,,,null,object_03c.png,object_14a.png,,,,,,,,,,
1209.5999999642372,,rt_thecrossant_black3,783785,,,,black_plus_sign,,,49,,,1,,,,,,,1,,
null,,color_black3,783889,,,,black_plus_sign,,,null,,,,,,,,,,,,
null,,thebreak,783994,,,,<p></p>,,,null,,,,,,,,,,,,
864.6999999880791,,intro_0,784861,,,,instruct,,,32,,,,,,,,,,,,
3666.2000000476837,,directmemory_phase3,788529,,,,object_02a.png,,,50,,,1,,object_13c.png,object_14b.png,object_06a.png,object_14b.png,,0.7096774193548387,1,
3493.100000023842,,directmemory_phase3,792026,,,,object_09c.png,,,49,,,1,,object_08b.png,object_02b.png,object_03c.png,object_08b.png,,0.71875,1,
3592.800000011921,,directmemory_phase3,795622,,,,object_12a.png,,,51,,,1,,object_08b.png,object_10a.png,object_02b.png,object_02b.png,,0.7272727272727273,1,
1786.8999999761581,,directmemory_phase3,797412,,,,object_07b.png,,,50,,,1,,object_10a.png,object_09b.png,object_08b.png,object_09b.png,,0.7352941176470589,1,
1300.699999988079,,directmemory_phase3,798716,,,,object_05b.png,,,49,,,1,,object_05a.png,object_11a.png,object_01a.png,object_05a.png,,0.7428571428571429,1,
2273.399999976158,,directmemory_phase3,800993,,,,object_02c.png,,,49,,,1,,object_03a.png,object_06c.png,object_13b.png,object_03a.png,,0.75,1,
2230.099999964237,,directmemory_phase3,803226,,,,object_04a.png,,,49,,,1,,object_04c.png,object_02b.png,object_10c.png,object_04c.png,,0.7567567567567568,1,
3482,,directmemory_phase3,806711,,,,object_08c.png,,,49,,,1,,object_06a.png,object_12c.png,object_09c.png,object_06a.png,,0.7631578947368421,1,
1639.4000000357628,,directmemory_phase3,808353,,,,object_10a.png,,,50,,,1,,object_10c.png,object_03b.png,object_05a.png,object_03b.png,,0.7692307692307693,1,
2422.399999976158,,directmemory_phase3,810778,,,,object_13b.png,,,51,,,1,,object_05a.png,object_04a.png,object_12c.png,object_12c.png,,0.775,1,
1568.699999988079,,directmemory_phase3,812350,,,,object_01a.png,,,50,,,1,,object_04a.png,object_06c.png,object_03b.png,object_06c.png,,0.7804878048780488,1,
4267.099999964237,,directmemory_phase3,816621,,,,object_13c.png,,,49,,,1,,object_11a.png,object_06c.png,object_12a.png,object_11a.png,,0.7857142857142857,1,
4495.100000023842,,directmemory_phase3,821120,,,,object_08a.png,,,51,,,1,,object_06a.png,object_12a.png,object_15c.png,object_15c.png,,0.7906976744186046,1,
3439.199999988079,,directmemory_phase3,824562,,,,object_10c.png,,,49,,,1,,object_04b.png,object_03a.png,object_05b.png,object_04b.png,,0.7954545454545454,1,
1672.9000000357628,,directmemory_phase3,826237,,,,object_03c.png,,,50,,,1,,object_07b.png,object_14a.png,object_09b.png,object_14a.png,,0.8,1,
null,,thebreak,826342,,,,<p></p>,,,null,,,,,,,,,,,,
1759.699999988079,,intro_0,828104,,,,instruct,,,32,,,,,,,,,,,,
null,,learn_phase(without_color)4,831501,,,,black_plus_sign,,,null,object_04b.png,object_10c.png,,,,,,,,,,
null,,black_cross(without_color)4,832131,,,,blue,,,null,object_04b.png,object_10c.png,,,,,,,,,,
null,,rt_plussign_withcolor4,832634,,,,blue,,,null,object_04b.png,object_10c.png,,,,,,,,,,
880.1999999880791,,rt_thecrossant_black4,834013,,,,black_plus_sign,,,49,,,1,,,,,,,1,,
null,,color_black4,834116,,,,black_plus_sign,,,null,,,,,,,,,,,,
null,,learn_phase(without_color)4,837622,,,,black_plus_sign,,,null,object_13c.png,object_11a.png,,,,,,,,,,
null,,black_cross(without_color)4,838165,,,,green,,,null,object_13c.png,object_11a.png,,,,,,,,,,
null,,rt_plussign_withcolor4,838668,,,,green,,,null,object_13c.png,object_11a.png,,,,,,,,,,
840.5,,rt_thecrossant_black4,840133,,,,black_plus_sign,,,50,,,1,,,,,,,1,,
null,,color_black4,840237,,,,black_plus_sign,,,null,,,,,,,,,,,,
null,,learn_phase(without_color)4,843742,,,,black_plus_sign,,,null,object_10a.png,object_03b.png,,,,,,,,,,
null,,black_cross(without_color)4,844733,,,,blue,,,null,object_10a.png,object_03b.png,,,,,,,,,,
null,,rt_plussign_withcolor4,845237,,,,blue,,,null,object_10a.png,object_03b.png,,,,,,,,,,
1057.800000011921,,rt_thecrossant_black4,846254,,,,black_plus_sign,,,49,,,1,,,,,,,1,,
null,,color_black4,846358,,,,black_plus_sign,,,null,,,,,,,,,,,,
null,,learn_phase(without_color)4,849862,,,,black_plus_sign,,,null,object_04c.png,object_04a.png,,,,,,,,,,
null,,black_cross(without_color)4,850499,,,,green,,,null,object_04c.png,object_04a.png,,,,,,,,,,
464.80000001192093,,rt_plussign_withcolor4,851001,,,,green,,,50,object_04c.png,object_04a.png,,,,,,,,,,
null,,rt_thecrossant_black4,852372,,,,black_plus_sign,,,null,,,1,,,,,,,1,,
null,,color_black4,852476,,,,black_plus_sign,,,null,,,,,,,,,,,,
null,,learn_phase(without_color)4,855980,,,,black_plus_sign,,,null,object_09b.png,object_07b.png,,,,,,,,,,
null,,black_cross(without_color)4,856668,,,,green,,,null,object_09b.png,object_07b.png,,,,,,,,,,
null,,rt_plussign_withcolor4,857171,,,,green,,,null,object_09b.png,object_07b.png,,,,,,,,,,
882.5999999642372,,rt_thecrossant_black4,858491,,,,black_plus_sign,,,50,,,1,,,,,,,1,,
null,,color_black4,858596,,,,black_plus_sign,,,null,,,,,,,,,,,,
null,,learn_phase(without_color)4,862100,,,,black_plus_sign,,,null,object_05b.png,object_05a.png,,,,,,,,,,
null,,black_cross(without_color)4,862884,,,,blue,,,null,object_05b.png,object_05a.png,,,,,,,,,,
null,,rt_plussign_withcolor4,863387,,,,blue,,,null,object_05b.png,object_05a.png,,,,,,,,,,
null,,rt_thecrossant_black4,864611,,,,black_plus_sign,,,null,,,,,,,,,,1,,
null,,color_black4,864716,,,,black_plus_sign,,,null,,,,,,,,,,,,
null,,learn_phase(without_color)4,868220,,,,black_plus_sign,,,null,object_14b.png,object_02a.png,,,,,,,,,,
null,,black_cross(without_color)4,869264,,,,blue,,,null,object_14b.png,object_02a.png,,,,,,,,,,
null,,rt_plussign_withcolor4,869768,,,,blue,,,null,object_14b.png,object_02a.png,,,,,,,,,,
1591,,rt_thecrossant_black4,870732,,,,black_plus_sign,,,49,,,1,,,,,,,1,,
null,,color_black4,870836,,,,black_plus_sign,,,null,,,,,,,,,,,,
null,,learn_phase(without_color)4,874341,,,,black_plus_sign,,,null,object_02c.png,object_03a.png,,,,,,,,,,
null,,black_cross(without_color)4,875018,,,,blue,,,null,object_02c.png,object_03a.png,,,,,,,,,,
null,,rt_plussign_withcolor4,875521,,,,blue,,,null,object_02c.png,object_03a.png,,,,,,,,,,
1381.199999988079,,rt_thecrossant_black4,876852,,,,black_plus_sign,,,49,,,1,,,,,,,1,,
null,,color_black4,876957,,,,black_plus_sign,,,null,,,,,,,,,,,,
null,,learn_phase(without_color)4,880463,,,,black_plus_sign,,,null,object_14a.png,object_03c.png,,,,,,,,,,
null,,black_cross(without_color)4,880893,,,,green,,,null,object_14a.png,object_03c.png,,,,,,,,,,
null,,rt_plussign_withcolor4,881397,,,,green,,,null,object_14a.png,object_03c.png,,,,,,,,,,
939.8000000119209,,rt_thecrossant_black4,882974,,,,black_plus_sign,,,50,,,1,,,,,,,1,,
null,,color_black4,883078,,,,black_plus_sign,,,null,,,,,,,,,,,,
null,,learn_phase(without_color)4,886584,,,,black_plus_sign,,,null,object_13b.png,object_12c.png,,,,,,,,,,
null,,black_cross(without_color)4,887005,,,,blue,,,null,object_13b.png,object_12c.png,,,,,,,,,,
null,,rt_plussign_withcolor4,887509,,,,blue,,,null,object_13b.png,object_12c.png,,,,,,,,,,
796.8999999761581,,rt_thecrossant_black4,889095,,,,black_plus_sign,,,49,,,1,,,,,,,1,,
null,,color_black4,889200,,,,black_plus_sign,,,null,,,,,,,,,,,,
null,,learn_phase(without_color)4,892704,,,,black_plus_sign,,,null,object_01a.png,object_06c.png,,,,,,,,,,
null,,black_cross(without_color)4,893610,,,,green,,,null,object_01a.png,object_06c.png,,,,,,,,,,
null,,rt_plussign_withcolor4,894113,,,,green,,,null,object_01a.png,object_06c.png,,,,,,,,,,
1164.3999999761581,,rt_thecrossant_black4,895216,,,,black_plus_sign,,,50,,,1,,,,,,,1,,
null,,color_black4,895320,,,,black_plus_sign,,,null,,,,,,,,,,,,
null,,learn_phase(without_color)4,898826,,,,black_plus_sign,,,null,object_06a.png,object_08c.png,,,,,,,,,,
null,,black_cross(without_color)4,899701,,,,green,,,null,object_06a.png,object_08c.png,,,,,,,,,,
null,,rt_plussign_withcolor4,900205,,,,green,,,null,object_06a.png,object_08c.png,,,,,,,,,,
1274,,rt_thecrossant_black4,901338,,,,black_plus_sign,,,50,,,1,,,,,,,1,,
null,,color_black4,901441,,,,black_plus_sign,,,null,,,,,,,,,,,,
null,,learn_phase(without_color)4,904946,,,,black_plus_sign,,,null,object_08b.png,object_09c.png,,,,,,,,,,
null,,black_cross(without_color)4,905661,,,,green,,,null,object_08b.png,object_09c.png,,,,,,,,,,
null,,rt_plussign_withcolor4,906164,,,,green,,,null,object_08b.png,object_09c.png,,,,,,,,,,
1067.8999999761581,,rt_thecrossant_black4,907456,,,,black_plus_sign,,,50,,,1,,,,,,,1,,
null,,color_black4,907560,,,,black_plus_sign,,,null,,,,,,,,,,,,
null,,learn_phase(without_color)4,911065,,,,black_plus_sign,,,null,object_15c.png,object_08a.png,,,,,,,,,,
null,,black_cross(without_color)4,911761,,,,green,,,null,object_15c.png,object_08a.png,,,,,,,,,,
null,,rt_plussign_withcolor4,912264,,,,green,,,null,object_15c.png,object_08a.png,,,,,,,,,,
1193.300000011921,,rt_thecrossant_black4,913576,,,,black_plus_sign,,,50,,,1,,,,,,,1,,
null,,color_black4,913680,,,,black_plus_sign,,,null,,,,,,,,,,,,
null,,learn_phase(without_color)4,917185,,,,black_plus_sign,,,null,object_12a.png,object_02b.png,,,,,,,,,,
null,,black_cross(without_color)4,918172,,,,green,,,null,object_12a.png,object_02b.png,,,,,,,,,,
null,,rt_plussign_withcolor4,918675,,,,green,,,null,object_12a.png,object_02b.png,,,,,,,,,,
1175.699999988079,,rt_thecrossant_black4,919695,,,,black_plus_sign,,,50,,,1,,,,,,,1,,
null,,color_black4,919799,,,,black_plus_sign,,,null,,,,,,,,,,,,
null,,thebreak,919903,,,,<p></p>,,,null,,,,,,,,,,,,
816.4000000357628,,intro_0,920721,,,,instruct,,,32,,,,,,,,,,,,
2548.300000011921,,directmemory_phase4,923271,,,,object_09c.png,,,49,,,1,,object_08b.png,object_04c.png,object_12a.png,object_08b.png,,0.8043478260869565,1,
2062.699999988079,,directmemory_phase4,925336,,,,object_03c.png,,,50,,,1,,object_01a.png,object_14a.png,object_06a.png,object_14a.png,,0.8085106382978723,1,
4249,,directmemory_phase4,929588,,,,object_08c.png,,,50,,,1,,object_05b.png,object_06a.png,object_11a.png,object_06a.png,,0.8125,1,
2091.699999988079,,directmemory_phase4,931682,,,,object_10c.png,,,50,,,1,,object_13b.png,object_04b.png,object_02b.png,object_04b.png,,0.8163265306122449,1,
2275,,directmemory_phase4,933959,,,,object_02c.png,,,51,,,1,,object_02b.png,object_05b.png,object_03a.png,object_03a.png,,0.82,1,
1570.199999988079,,directmemory_phase4,935533,,,,object_13b.png,,,51,,,1,,object_09b.png,object_05b.png,object_12c.png,object_12c.png,,0.8235294117647058,1,
1719.199999988079,,directmemory_phase4,937255,,,,object_13c.png,,,50,,,1,,object_07b.png,object_11a.png,object_15c.png,object_11a.png,,0.8269230769230769,1,
1346.699999988079,,directmemory_phase4,938605,,,,object_01a.png,,,51,,,1,,object_09b.png,object_08a.png,object_06c.png,object_06c.png,,0.8301886792452831,1,
2057.199999988079,,directmemory_phase4,940665,,,,object_07b.png,,,50,,,1,,object_03c.png,object_09b.png,object_12c.png,object_09b.png,,0.8333333333333334,1,
1281.5,,directmemory_phase4,941949,,,,object_10a.png,,,51,,,1,,object_02b.png,object_10c.png,object_03b.png,object_03b.png,,0.8363636363636363,1,
2750.599999964237,,directmemory_phase4,944703,,,,object_04a.png,,,51,,,1,,object_02b.png,object_13c.png,object_04c.png,object_04c.png,,0.8392857142857143,1,
5116.300000011921,,directmemory_phase4,949823,,,,object_05b.png,,,50,,,1,,object_01a.png,object_05a.png,object_15c.png,object_05a.png,,0.8421052631578947,1,
2185.300000011921,,directmemory_phase4,952010,,,,object_12a.png,,,49,,,1,,object_02b.png,object_09b.png,object_01a.png,object_02b.png,,0.8448275862068966,1,
1302.699999988079,,directmemory_phase4,953316,,,,object_08a.png,,,51,,,0,,object_15c.png,object_04b.png,object_10c.png,object_15c.png,,0.8305084745762712,0,
2527.5,,directmemory_phase4,955847,,,,object_02a.png,,,49,,,1,,object_14b.png,object_04b.png,object_02c.png,object_14b.png,,0.8333333333333334,1,
null,,thebreak,955951,,,,<p></p>,,,null,,,,,,,,,,,,
1015,,intro_0,956969,,,,instruct,,,32,,,,,,,,,,,,
null,,learn_phase(without_color)5,960473,,,,black_plus_sign,,,null,object_04b.png,object_14c.png,,,,,,,,,,
null,,black_cross(without_color)5,961278,,,,green,,,null,object_04b.png,object_14c.png,,,,,,,,,,
null,,rt_plussign_withcolor5,961781,,,,green,,,null,object_04b.png,object_14c.png,,,,,,,,,,
1665.5,,rt_thecrossant_black5,962984,,,,black_plus_sign,,,50,,,1,,,,,,,1,,
null,,color_black5,963088,,,,black_plus_sign,,,null,,,,,,,,,,,,
null,,learn_phase(without_color)5,966593,,,,black_plus_sign,,,null,object_13a.png,object_09b.png,,,,,,,,,,
null,,black_cross(without_color)5,967531,,,,green,,,null,object_13a.png,object_09b.png,,,,,,,,,,
null,,rt_plussign_withcolor5,968034,,,,green,,,null,object_13a.png,object_09b.png,,,,,,,,,,
1468.300000011921,,rt_thecrossant_black5,969104,,,,black_plus_sign,,,50,,,1,,,,,,,1,,
null,,color_black5,969207,,,,black_plus_sign,,,null,,,,,,,,,,,,
null,,learn_phase(without_color)5,972713,,,,black_plus_sign,,,null,object_09a.png,object_08b.png,,,,,,,,,,
null,,black_cross(without_color)5,973348,,,,blue,,,null,object_09a.png,object_08b.png,,,,,,,,,,
null,,rt_plussign_withcolor5,973851,,,,blue,,,null,object_09a.png,object_08b.png,,,,,,,,,,
1235.1000000238419,,rt_thecrossant_black5,975225,,,,black_plus_sign,,,49,,,1,,,,,,,1,,
null,,color_black5,975329,,,,black_plus_sign,,,null,,,,,,,,,,,,
null,,learn_phase(without_color)5,978834,,,,black_plus_sign,,,null,object_05a.png,object_07a.png,,,,,,,,,,
null,,black_cross(without_color)5,979424,,,,blue,,,null,object_05a.png,object_07a.png,,,,,,,,,,
null,,rt_plussign_withcolor5,979928,,,,blue,,,null,object_05a.png,object_07a.png,,,,,,,,,,
1428.0999999642372,,rt_thecrossant_black5,981345,,,,black_plus_sign,,,49,,,1,,,,,,,1,,
null,,color_black5,981449,,,,black_plus_sign,,,null,,,,,,,,,,,,
null,,learn_phase(without_color)5,984954,,,,black_plus_sign,,,null,object_15b.png,object_03b.png,,,,,,,,,,
null,,black_cross(without_color)5,985969,,,,blue,,,null,object_15b.png,object_03b.png,,,,,,,,,,
null,,rt_plussign_withcolor5,986473,,,,blue,,,null,object_15b.png,object_03b.png,,,,,,,,,,
1438.1000000238419,,rt_thecrossant_black5,987466,,,,black_plus_sign,,,49,,,1,,,,,,,1,,
null,,color_black5,987570,,,,black_plus_sign,,,null,,,,,,,,,,,,
null,,learn_phase(without_color)5,991075,,,,black_plus_sign,,,null,object_15c.png,object_15a.png,,,,,,,,,,
null,,black_cross(without_color)5,991904,,,,blue,,,null,object_15c.png,object_15a.png,,,,,,,,,,
null,,rt_plussign_withcolor5,992408,,,,blue,,,null,object_15c.png,object_15a.png,,,,,,,,,,
1661.5,,rt_thecrossant_black5,993587,,,,black_plus_sign,,,50,,,0,,,,,,,0.8333333333333334,,
null,,color_black5,993692,,,,black_plus_sign,,,null,,,,,,,,,,,,
null,,learn_phase(without_color)5,997196,,,,black_plus_sign,,,null,object_12b.png,object_06c.png,,,,,,,,,,
null,,black_cross(without_color)5,998226,,,,blue,,,null,object_12b.png,object_06c.png,,,,,,,,,,
null,,rt_plussign_withcolor5,998730,,,,blue,,,null,object_12b.png,object_06c.png,,,,,,,,,,
null,,rt_thecrossant_black5,999709,,,,black_plus_sign,,,null,,,,,,,,,,0.8333333333333334,,
null,,warning_page,1004715,,,,warning,,,null,,,,,,,,,,,,
null,,color_black5,1004829,,,,black_plus_sign,,,null,,,,,,,,,,,,
null,,learn_phase(without_color)5,1008334,,,,black_plus_sign,,,null,object_04c.png,object_11b.png,,,,,,,,,,
null,,black_cross(without_color)5,1009434,,,,blue,,,null,object_04c.png,object_11b.png,,,,,,,,,,
null,,rt_plussign_withcolor5,1009938,,,,blue,,,null,object_04c.png,object_11b.png,,,,,,,,,,
1459,,rt_thecrossant_black5,1010845,,,,black_plus_sign,,,49,,,1,,,,,,,0.8571428571428571,,
null,,color_black5,1010949,,,,black_plus_sign,,,null,,,,,,,,,,,,
null,,learn_phase(without_color)5,1014454,,,,black_plus_sign,,,null,object_14b.png,object_10b.png,,,,,,,,,,
null,,black_cross(without_color)5,1015198,,,,green,,,null,object_14b.png,object_10b.png,,,,,,,,,,
null,,rt_plussign_withcolor5,1015702,,,,green,,,null,object_14b.png,object_10b.png,,,,,,,,,,
1944.0999999642372,,rt_thecrossant_black5,1016965,,,,black_plus_sign,,,49,,,0,,,,,,,0.75,,
null,,color_black5,1017070,,,,black_plus_sign,,,null,,,,,,,,,,,,
null,,learn_phase(without_color)5,1020575,,,,black_plus_sign,,,null,object_12c.png,object_01b.png,,,,,,,,,,
null,,black_cross(without_color)5,1021335,,,,blue,,,null,object_12c.png,object_01b.png,,,,,,,,,,
null,,rt_plussign_withcolor5,1021839,,,,blue,,,null,object_12c.png,object_01b.png,,,,,,,,,,
1124.3999999761581,,rt_thecrossant_black5,1023088,,,,black_plus_sign,,,49,,,1,,,,,,,0.7777777777777778,,
null,,color_black5,1023192,,,,black_plus_sign,,,null,,,,,,,,,,,,
null,,learn_phase(without_color)5,1026697,,,,black_plus_sign,,,null,object_06b.png,object_14a.png,,,,,,,,,,
null,,black_cross(without_color)5,1027351,,,,blue,,,null,object_06b.png,object_14a.png,,,,,,,,,,
null,,rt_plussign_withcolor5,1027854,,,,blue,,,null,object_06b.png,object_14a.png,,,,,,,,,,
1064.800000011921,,rt_thecrossant_black5,1029208,,,,black_plus_sign,,,50,,,0,,,,,,,0.7,,
null,,color_black5,1029313,,,,black_plus_sign,,,null,,,,,,,,,,,,
null,,learn_phase(without_color)5,1032818,,,,black_plus_sign,,,null,object_02b.png,object_07c.png,,,,,,,,,,
null,,black_cross(without_color)5,1033868,,,,blue,,,null,object_02b.png,object_07c.png,,,,,,,,,,
null,,rt_plussign_withcolor5,1034371,,,,blue,,,null,object_02b.png,object_07c.png,,,,,,,,,,
1095,,rt_thecrossant_black5,1035329,,,,black_plus_sign,,,50,,,0,,,,,,,0.6363636363636364,,
null,,warning_page,1040333,,,,warning,,,null,,,,,,,,,,,,
null,,color_black5,1040446,,,,black_plus_sign,,,null,,,,,,,,,,,,
null,,learn_phase(without_color)5,1043952,,,,black_plus_sign,,,null,object_01c.png,object_06a.png,,,,,,,,,,
null,,black_cross(without_color)5,1044693,,,,blue,,,null,object_01c.png,object_06a.png,,,,,,,,,,
null,,rt_plussign_withcolor5,1045196,,,,blue,,,null,object_01c.png,object_06a.png,,,,,,,,,,
2201.100000023842,,rt_thecrossant_black5,1046463,,,,black_plus_sign,,,50,,,0,,,,,,,0.5833333333333334,,
null,,warning_page,1051467,,,,warning,,,null,,,,,,,,,,,,
null,,color_black5,1051580,,,,black_plus_sign,,,null,,,,,,,,,,,,
null,,learn_phase(without_color)5,1055085,,,,black_plus_sign,,,null,object_03a.png,object_05c.png,,,,,,,,,,
null,,black_cross(without_color)5,1056152,,,,blue,,,null,object_03a.png,object_05c.png,,,,,,,,,,
null,,rt_plussign_withcolor5,1056655,,,,blue,,,null,object_03a.png,object_05c.png,,,,,,,,,,
1173.6000000238419,,rt_thecrossant_black5,1057595,,,,black_plus_sign,,,50,,,0,,,,,,,0.5384615384615384,,
null,,warning_page,1062600,,,,warning,,,null,,,,,,,,,,,,
null,,color_black5,1062714,,,,black_plus_sign,,,null,,,,,,,,,,,,
null,,learn_phase(without_color)5,1066219,,,,black_plus_sign,,,null,object_11a.png,object_11c.png,,,,,,,,,,
null,,black_cross(without_color)5,1067269,,,,blue,,,null,object_11a.png,object_11c.png,,,,,,,,,,
null,,rt_plussign_withcolor5,1067772,,,,blue,,,null,object_11a.png,object_11c.png,,,,,,,,,,
2062.199999988079,,rt_thecrossant_black5,1068730,,,,black_plus_sign,,,49,,,1,,,,,,,0.5714285714285714,,
null,,color_black5,1068834,,,,black_plus_sign,,,null,,,,,,,,,,,,
null,,thebreak,1068940,,,,<p></p>,,,null,,,,,,,,,,,,
5198,,intro_0,1074140,,,,instruct,,,32,,,,,,,,,,,,
6457.599999964237,,directmemory_phase5,1080599,,,,object_14c.png,,,50,,,0,,object_12c.png,object_07c.png,object_04b.png,object_04b.png,,0.819672131147541,0,
5561.900000035763,,directmemory_phase5,1086165,,,,object_07c.png,,,50,,,0,,object_02b.png,object_12c.png,object_05c.png,object_02b.png,,0.8064516129032258,0,
2070.600000023842,,directmemory_phase5,1088239,,,,object_06c.png,,,50,,,0,,object_12b.png,object_01b.png,object_02b.png,object_12b.png,,0.7936507936507936,0,
3989.7000000476837,,directmemory_phase5,1092232,,,,object_09a.png,,,51,,,0,,object_15a.png,object_08b.png,object_03a.png,object_08b.png,,0.78125,0,
1423.8999999761581,,directmemory_phase5,1093660,,,,object_07a.png,,,50,,,0,,object_06c.png,object_14c.png,object_05a.png,object_05a.png,,0.7692307692307693,0,
432.60000002384186,,directmemory_phase5,1094096,,,,object_15a.png,,,51,,,0,,object_15c.png,object_14a.png,object_07a.png,object_15c.png,,0.7575757575757576,0,
557.1000000238419,,directmemory_phase5,1094656,,,,object_01b.png,,,50,,,0,,object_12c.png,object_09b.png,object_15a.png,object_12c.png,,0.746268656716418,0,
660,,directmemory_phase5,1095320,,,,object_15b.png,,,50,,,0,,object_06a.png,object_06b.png,object_03b.png,object_03b.png,,0.7352941176470589,0,
2392.5,,directmemory_phase5,1097716,,,,object_13a.png,,,49,,,0,,object_11a.png,object_09a.png,object_09b.png,object_09b.png,,0.7246376811594203,0,1
null,,slowdown_page,1107721,,,,too_quick,,,null,,,,,,,,,,,,
1855.8999999761581,,directmemory_phase5,1109580,,,,object_05c.png,,,49,,,0,,object_06a.png,object_15b.png,object_03a.png,object_03a.png,,0.7142857142857143,0,
3507.899999976158,,directmemory_phase5,1113091,,,,object_06b.png,,,49,,,1,,object_14a.png,object_08b.png,object_05c.png,object_14a.png,,0.7183098591549296,1,
1794.199999988079,,directmemory_phase5,1114888,,,,object_11a.png,,,49,,,0,,object_03a.png,object_11c.png,object_15b.png,object_11c.png,,0.7083333333333334,0,
2414.699999988079,,directmemory_phase5,1117305,,,,object_11b.png,,,50,,,0,,object_04b.png,object_07c.png,object_04c.png,object_04c.png,,0.6986301369863014,0,
1728.199999988079,,directmemory_phase5,1119037,,,,object_01c.png,,,50,,,1,,object_11c.png,object_06a.png,object_12c.png,object_06a.png,,0.7027027027027027,1,
2374.699999988079,,directmemory_phase5,1121415,,,,object_14b.png,,,50,,,0,,object_15a.png,object_06c.png,object_10b.png,object_10b.png,,0.6933333333333334,0,
null,,thebreak,1121519,,,,<p></p>,,,null,,,,,,,,,,,,
1361.1000000238419,,intro_0,1122883,,,,instruct,,,32,,,,,,,,,,,,
null,,learn_phase(without_color)6,1126387,,,,black_plus_sign,,,null,object_04b.png,object_14c.png,,,,,,,,,,
null,,black_cross(without_color)6,1126883,,,,blue,,,null,object_04b.png,object_14c.png,,,,,,,,,,
null,,rt_plussign_withcolor6,1127386,,,,blue,,,null,object_04b.png,object_14c.png,,,,,,,,,,
1700.1000000238419,,rt_thecrossant_black6,1128898,,,,black_plus_sign,,,49,,,1,,,,,,,1,,
null,,color_black6,1129002,,,,black_plus_sign,,,null,,,,,,,,,,,,
null,,learn_phase(without_color)6,1132508,,,,black_plus_sign,,,null,object_02b.png,object_07c.png,,,,,,,,,,
null,,black_cross(without_color)6,1133363,,,,blue,,,null,object_02b.png,object_07c.png,,,,,,,,,,
null,,rt_plussign_withcolor6,1133867,,,,blue,,,null,object_02b.png,object_07c.png,,,,,,,,,,
null,,rt_thecrossant_black6,1135021,,,,black_plus_sign,,,null,,,,,,,,,,1,,
null,,warning_page,1140026,,,,warning,,,null,,,,,,,,,,,,
null,,color_black6,1140141,,,,black_plus_sign,,,null,,,,,,,,,,,,
null,,learn_phase(without_color)6,1143645,,,,black_plus_sign,,,null,object_03a.png,object_05c.png,,,,,,,,,,
null,,black_cross(without_color)6,1144728,,,,green,,,null,object_03a.png,object_05c.png,,,,,,,,,,
391.30000001192093,,rt_plussign_withcolor6,1145231,,,,green,,,50,object_03a.png,object_05c.png,,,,,,,,,,
null,,rt_thecrossant_black6,1146156,,,,black_plus_sign,,,null,,,1,,,,,,,1,,
null,,color_black6,1146260,,,,black_plus_sign,,,null,,,,,,,,,,,,
null,,learn_phase(without_color)6,1149765,,,,black_plus_sign,,,null,object_01c.png,object_06a.png,,,,,,,,,,
null,,black_cross(without_color)6,1150700,,,,blue,,,null,object_01c.png,object_06a.png,,,,,,,,,,
null,,rt_plussign_withcolor6,1151203,,,,blue,,,null,object_01c.png,object_06a.png,,,,,,,,,,
1383.6000000238419,,rt_thecrossant_black6,1152276,,,,black_plus_sign,,,49,,,1,,,,,,,1,,
null,,color_black6,1152380,,,,black_plus_sign,,,null,,,,,,,,,,,,
null,,learn_phase(without_color)6,1155885,,,,black_plus_sign,,,null,object_10b.png,object_14b.png,,,,,,,,,,
null,,black_cross(without_color)6,1156851,,,,green,,,null,object_10b.png,object_14b.png,,,,,,,,,,
null,,rt_plussign_withcolor6,1157355,,,,green,,,null,object_10b.png,object_14b.png,,,,,,,,,,
2062.2000000476837,,rt_thecrossant_black6,1158398,,,,black_plus_sign,,,49,,,0,,,,,,,0.75,,
null,,warning_page,1163401,,,,warning,,,null,,,,,,,,,,,,
null,,color_black6,1163514,,,,black_plus_sign,,,null,,,,,,,,,,,,
null,,learn_phase(without_color)6,1167019,,,,black_plus_sign,,,null,object_06b.png,object_14a.png,,,,,,,,,,
null,,black_cross(without_color)6,1168013,,,,green,,,null,object_06b.png,object_14a.png,,,,,,,,,,
null,,rt_plussign_withcolor6,1168516,,,,green,,,null,object_06b.png,object_14a.png,,,,,,,,,,
1629.5,,rt_thecrossant_black6,1169529,,,,black_plus_sign,,,50,,,1,,,,,,,0.8,,
null,,color_black6,1169633,,,,black_plus_sign,,,null,,,,,,,,,,,,
null,,learn_phase(without_color)6,1173139,,,,black_plus_sign,,,null,object_06c.png,object_12b.png,,,,,,,,,,
null,,black_cross(without_color)6,1173952,,,,green,,,null,object_06c.png,object_12b.png,,,,,,,,,,
null,,rt_plussign_withcolor6,1174455,,,,green,,,null,object_06c.png,object_12b.png,,,,,,,,,,
1686.3999999761581,,rt_thecrossant_black6,1175651,,,,black_plus_sign,,,50,,,1,,,,,,,0.8333333333333334,,
null,,color_black6,1175754,,,,black_plus_sign,,,null,,,,,,,,,,,,
null,,learn_phase(without_color)6,1179258,,,,black_plus_sign,,,null,object_15b.png,object_03b.png,,,,,,,,,,
null,,black_cross(without_color)6,1179768,,,,blue,,,null,object_15b.png,object_03b.png,,,,,,,,,,
null,,rt_plussign_withcolor6,1180271,,,,blue,,,null,object_15b.png,object_03b.png,,,,,,,,,,
1716.6000000238419,,rt_thecrossant_black6,1181770,,,,black_plus_sign,,,49,,,1,,,,,,,0.8571428571428571,,
null,,color_black6,1181877,,,,black_plus_sign,,,null,,,,,,,,,,,,
null,,learn_phase(without_color)6,1185382,,,,black_plus_sign,,,null,object_12c.png,object_01b.png,,,,,,,,,,
null,,black_cross(without_color)6,1186401,,,,green,,,null,object_12c.png,object_01b.png,,,,,,,,,,
null,,rt_plussign_withcolor6,1186904,,,,green,,,null,object_12c.png,object_01b.png,,,,,,,,,,
1141.300000011921,,rt_thecrossant_black6,1187895,,,,black_plus_sign,,,50,,,1,,,,,,,0.875,,
null,,color_black6,1187999,,,,black_plus_sign,,,null,,,,,,,,,,,,
null,,learn_phase(without_color)6,1191504,,,,black_plus_sign,,,null,object_05a.png,object_07a.png,,,,,,,,,,
null,,black_cross(without_color)6,1192504,,,,green,,,null,object_05a.png,object_07a.png,,,,,,,,,,
null,,rt_plussign_withcolor6,1193007,,,,green,,,null,object_05a.png,object_07a.png,,,,,,,,,,
null,,rt_thecrossant_black6,1194015,,,,black_plus_sign,,,null,,,,,,,,,,0.875,,
