rt,responses,trial_type,time_elapsed,identifier_a,identifier_b,identifier_c,stimulus,button_pressed,response,key_press,stimulus_left,stimulus_right,accuracy,practice_cumulative_accuracy,stimulus_down_left,stimulus_down_mid,stimulus_down_right,stimulus_correct,prac_weighted_accuracy,cumulative_accuracy,weighted_accuracy,tooquick,stimulus_middle,problems,smooth,distraction,strategies,easier,similar,comments,detectfocus,breakfocus,completion_code
93804.79999999702,{worker_id:ivyguo},id_enter,93805,object_04a.png; object_12a.png; object_07a.png; object_07c.png; object_06b.png; object_01a.png; object_05b.png; object_09a.png; object_12b.png; object_02c.png; object_13a.png; object_02a.png; object_07b.png; object_03c.png; object_10a.png,object_06c.png; object_05a.png; object_11a.png; object_01c.png; object_01b.png; object_10b.png; object_10c.png; object_08b.png; object_02b.png; object_15a.png; object_03a.png; object_04b.png; object_14b.png; object_05c.png; object_14a.png,object_11b.png; object_11c.png; object_08a.png; object_04c.png; object_12c.png; object_15b.png; object_06a.png; object_13b.png; object_13c.png; object_15c.png; object_08c.png; object_03b.png; object_09c.png; object_09b.png; object_14c.png,,,,,,,,,,,,,,,,,,,,,,,,,,,
6670.9000000059605,,make_fullscreen,100482,,,,fullscreen,0,,,,,,,,,,,,,,,,,,,,,,,,,
43059.40000000596,,instruct_1,143545,,,,instruct,0,Next,,,,,,,,,,,,,,,,,,,,,,,,
23280.90000000596,,instruct_2,166827,,,,instruct,0,Previous,,,,,,,,,,,,,,,,,,,,,,,,
6660.100000008941,,instruct_1,173489,,,,instruct,0,Next,,,,,,,,,,,,,,,,,,,,,,,,
3924,,instruct_2,177415,,,,instruct,1,Next,,,,,,,,,,,,,,,,,,,,,,,,
33575,,instruct_3,210999,,,,instruct,1,Next,,,,,,,,,,,,,,,,,,,,,,,,
55514.20000000298,,instruct_4,266528,,,,instruct,1,Next,,,,,,,,,,,,,,,,,,,,,,,,
21951.10000000894,,instruct_5,288481,,,,instruct,1,Next,,,,,,,,,,,,,,,,,,,,,,,,
7559.9000000059605,,instruct_6,296042,,,,instruct,1,Next,,,,,,,,,,,,,,,,,,,,,,,,
68150,,instruct_7,364192,,,,instruct,1,Next,,,,,,,,,,,,,,,,,,,,,,,,
null,,prac_atten_color_black,364779,,,,black_plus_sign,,,null,,,,,,,,,,,,,,,,,,,,,,,
null,,prac_atten_color,365599,,,,<p style='position:absolute;top: 50%;right: 50%;transform: translate(50%, -50%);font-size: 125px;color: blue;'>+</p>,,,null,,,,,,,,,,,,,,,,,,,,,,,
null,,prac_atten_color_black,367603,,,,black_plus_sign,,,null,,,,,,,,,,,,,,,,,,,,,,,
12512.90000000596,,attentioncheck_help,380117,,,,instruct,,,32,,,,,,,,,,,,,,,,,,,,,,,
null,,prac_atten_color_black,380704,,,,black_plus_sign,,,null,,,,,,,,,,,,,,,,,,,,,,,
475.40000000596046,,prac_atten_color,381497,,,,<p style='position:absolute;top: 50%;right: 50%;transform: translate(50%, -50%);font-size: 125px;color: green;'>+</p>,,,50,,,,,,,,,,,,,,,,,,,,,,,
null,,prac_atten_color_black,383500,,,,black_plus_sign,,,null,,,,,,,,,,,,,,,,,,,,,,,
null,,prac_atten_color_black,384115,,,,black_plus_sign,,,null,,,,,,,,,,,,,,,,,,,,,,,
529.5,,prac_atten_color,384928,,,,<p style='position:absolute;top: 50%;right: 50%;transform: translate(50%, -50%);font-size: 125px;color: green;'>+</p>,,,50,,,,,,,,,,,,,,,,,,,,,,,
null,,prac_atten_color_black,386932,,,,black_plus_sign,,,null,,,,,,,,,,,,,,,,,,,,,,,
null,,prac_atten_color_black,387526,,,,black_plus_sign,,,null,,,,,,,,,,,,,,,,,,,,,,,
428.30000001192093,,prac_atten_color,388135,,,,<p style='position:absolute;top: 50%;right: 50%;transform: translate(50%, -50%);font-size: 125px;color: blue;'>+</p>,,,49,,,,,,,,,,,,,,,,,,,,,,,
null,,prac_atten_color_black,390140,,,,black_plus_sign,,,null,,,,,,,,,,,,,,,,,,,,,,,
null,,prac_atten_color_black,390937,,,,black_plus_sign,,,null,,,,,,,,,,,,,,,,,,,,,,,
524.1000000089407,,prac_atten_color,391999,,,,<p style='position:absolute;top: 50%;right: 50%;transform: translate(50%, -50%);font-size: 125px;color: green;'>+</p>,,,50,,,,,,,,,,,,,,,,,,,,,,,
null,,prac_atten_color_black,394002,,,,black_plus_sign,,,null,,,,,,,,,,,,,,,,,,,,,,,
null,,prac_atten_color_black,394348,,,,black_plus_sign,,,null,,,,,,,,,,,,,,,,,,,,,,,
462.29999999701977,,prac_atten_color,395209,,,,<p style='position:absolute;top: 50%;right: 50%;transform: translate(50%, -50%);font-size: 125px;color: green;'>+</p>,,,50,,,,,,,,,,,,,,,,,,,,,,,
null,,prac_atten_color_black,397211,,,,black_plus_sign,,,null,,,,,,,,,,,,,,,,,,,,,,,
null,,prac_atten_color_black,397757,,,,black_plus_sign,,,null,,,,,,,,,,,,,,,,,,,,,,,
502.5,,prac_atten_color,398339,,,,<p style='position:absolute;top: 50%;right: 50%;transform: translate(50%, -50%);font-size: 125px;color: blue;'>+</p>,,,49,,,,,,,,,,,,,,,,,,,,,,,
null,,prac_atten_color_black,400342,,,,black_plus_sign,,,null,,,,,,,,,,,,,,,,,,,,,,,
null,,prac_atten_color_black,401167,,,,black_plus_sign,,,null,,,,,,,,,,,,,,,,,,,,,,,
429.3999999910593,,prac_atten_color,401705,,,,<p style='position:absolute;top: 50%;right: 50%;transform: translate(50%, -50%);font-size: 125px;color: green;'>+</p>,,,50,,,,,,,,,,,,,,,,,,,,,,,
null,,prac_atten_color_black,403708,,,,black_plus_sign,,,null,,,,,,,,,,,,,,,,,,,,,,,
null,,prac_atten_color_black,404576,,,,black_plus_sign,,,null,,,,,,,,,,,,,,,,,,,,,,,
703.2999999970198,,prac_atten_color,405314,,,,<p style='position:absolute;top: 50%;right: 50%;transform: translate(50%, -50%);font-size: 125px;color: blue;'>+</p>,,,49,,,,,,,,,,,,,,,,,,,,,,,
null,,prac_atten_color_black,407317,,,,black_plus_sign,,,null,,,,,,,,,,,,,,,,,,,,,,,
null,,prac_atten_color_black,407987,,,,black_plus_sign,,,null,,,,,,,,,,,,,,,,,,,,,,,
null,,prac_atten_color,408433,,,,<p style='position:absolute;top: 50%;right: 50%;transform: translate(50%, -50%);font-size: 125px;color: blue;'>+</p>,,,null,,,,,,,,,,,,,,,,,,,,,,,
29.200000002980232,,prac_atten_color_black,410438,,,,black_plus_sign,,,49,,,,,,,,,,,,,,,,,,,,,,,
9317.199999988079,,attentioncheck_feedback,419757,,,,cross_check_feedback,0,,,,,,,,,,,,,,,,,,,,,,,,,
16886.29999999702,,last_instruct,436644,,,,instruct,,,32,,,,,,,,,,,,,,,,,,,,,,,
null,,prac_learn_phase(without_color),440146,,,,black_plus_sign,,,null,object_06c.png,object_04a.png,,,,,,,,,,,,,,,,,,,,,
null,,prac_black_cross(without_color),440972,,,,blue,,,null,object_06c.png,object_04a.png,,,,,,,,,,,,,,,,,,,,,
null,,prac_rt_plussign_withcolor,441474,,,,blue,,,null,object_06c.png,object_04a.png,,,,,,,,,,,,,,,,,,,,,
963.3999999910593,,prac_rt_thecrossant_black,442656,,,,black_plus_sign,,,49,,,1,1,,,,,,,,,,,,,,,,,,,
null,,prac_color_black,442759,,,,black_plus_sign,,,null,,,,,,,,,,,,,,,,,,,,,,,
null,,prac_learn_phase(without_color),446264,,,,black_plus_sign,,,null,object_07a.png,object_11a.png,,,,,,,,,,,,,,,,,,,,,
null,,black_cross(without_color)1,446826,,,,green,,,null,object_06c.png,object_04a.png,,,,,,,,,,,,,,,,,,,,,
null,,prac_rt_plussign_withcolor,447329,,,,green,,,null,object_07a.png,object_11a.png,,,,,,,,,,,,,,,,,,,,,
1112.6000000089407,,prac_rt_thecrossant_black,448885,,,,black_plus_sign,,,50,,,1,1,,,,,,,,,,,,,,,,,,,
null,,prac_color_black,448989,,,,black_plus_sign,,,null,,,,,,,,,,,,,,,,,,,,,,,
null,,prac_learn_phase(without_color),452493,,,,black_plus_sign,,,null,object_05c.png,object_03c.png,,,,,,,,,,,,,,,,,,,,,
null,,black_cross(without_color)1,453053,,,,green,,,null,object_06c.png,object_04a.png,,,,,,,,,,,,,,,,,,,,,
496.69999998807907,,prac_rt_plussign_withcolor,453555,,,,blue,,,49,object_05c.png,object_03c.png,,,,,,,,,,,,,,,,,,,,,
null,,prac_rt_thecrossant_black,454693,,,,black_plus_sign,,,null,,,1,1,,,,,,,,,,,,,,,,,,,
null,,prac_color_black,454795,,,,black_plus_sign,,,null,,,,,,,,,,,,,,,,,,,,,,,
null,,prac_learn_phase(without_color),458300,,,,black_plus_sign,,,null,object_04b.png,object_02a.png,,,,,,,,,,,,,,,,,,,,,
null,,black_cross(without_color)1,458860,,,,green,,,null,object_06c.png,object_04a.png,,,,,,,,,,,,,,,,,,,,,
null,,prac_rt_plussign_withcolor,459363,,,,blue,,,null,object_04b.png,object_02a.png,,,,,,,,,,,,,,,,,,,,,
1001.5999999940395,,prac_rt_thecrossant_black,460370,,,,black_plus_sign,,,49,,,1,1,,,,,,,,,,,,,,,,,,,
null,,prac_color_black,460474,,,,black_plus_sign,,,null,,,,,,,,,,,,,,,,,,,,,,,
15095.90000000596,,instruct_dir_01,475572,,,,instruct,0,Next,,,,,,,,,,,,,,,,,,,,,,,,
9602.79999999702,,instruct_dir_2,485176,,,,instruct,1,Next,,,,,,,,,,,,,,,,,,,,,,,,
8328.5,,instruct_dir_3,493507,,,,instruct,1,Next,,,,,,,,,,,,,,,,,,,,,,,,
9326.09999999404,,instruct_dir_4,502834,,,,instruct,1,Start,,,,,,,,,,,,,,,,,,,,,,,,
null,,thebreak,502937,,,,<p></p>,,,null,,,,,,,,,,,,,,,,,,,,,,,
1991,,intro_0,504929,,,,instruct,,,32,,,,,,,,,,,,,,,,,,,,,,,
6847.79999999702,,prac_directmemory_phase,511779,,,,practice/object_01a.png,,,49,,,1,,practice/object_01b.png,practice/object_03b.png,practice/object_04a.png,practice/object_01b.png,1,1,,,,,,,,,,,,,
2618,,prac_directmemory_phase,514400,,,,practice/object_02a.png,,,50,,,1,,practice/object_04a.png,practice/object_02b.png,practice/object_03b.png,practice/object_02b.png,1,1,,,,,,,,,,,,,
3903.7000000029802,,prac_directmemory_phase,518306,,,,practice/object_04a.png,,,50,,,0,,practice/object_02b.png,practice/object_03a.png,practice/object_04b.png,practice/object_04b.png,0,0.6666666666666666,,,,,,,,,,,,,
3929.1000000089407,,prac_directmemory_phase,522237,,,,practice/object_03a.png,,,49,,,1,,practice/object_03b.png,practice/object_04b.png,practice/object_02a.png,practice/object_03b.png,1,0.75,,,,,,,,,,,,,
8787.29999999702,,practice_feedback,531027,,,,practice_feedback,1,,,,,,,,,,,,,,,,,,,,,,,,,
938302.099999994,,proceed_actualTask,1522446,,,,proceed_actualTask,1,Continue,,,,,,,,,,,,,,,,,,,,,,,,
13426.79999999702,,last_inst,1535869,,,,last_inst,,,32,,,,,,,,,,,,,,,,,,,,,,,
null,,learn_phase(without_color)1,1539370,,,,black_plus_sign,,,null,object_06c.png,object_04a.png,,,,,,,,,,,,,,,,,,,,,
null,,black_cross(without_color)1,1539931,,,,green,,,null,object_06c.png,object_04a.png,,,,,,,,,,,,,,,,,,,,,
null,,rt_plussign_withcolor1,1540434,,,,green,,,null,object_06c.png,object_04a.png,,,,,,,,,,,,,,,,,,,,,
1199.5,,rt_thecrossant_black1,1541880,,,,black_plus_sign,,,50,,,1,,,,,,,1,,,,,,,,,,,,,
null,,color_black1,1541982,,,,black_plus_sign,,,null,,,,,,,,,,,,,,,,,,,,,,,
null,,learn_phase(without_color)1,1545484,,,,black_plus_sign,,,null,object_07a.png,object_11a.png,,,,,,,,,,,,,,,,,,,,,
null,,black_cross(without_color)1,1546215,,,,green,,,null,object_07a.png,object_11a.png,,,,,,,,,,,,,,,,,,,,,
null,,rt_plussign_withcolor1,1546717,,,,green,,,null,object_07a.png,object_11a.png,,,,,,,,,,,,,,,,,,,,,
1004.6999999880791,,rt_thecrossant_black1,1547992,,,,black_plus_sign,,,50,,,1,,,,,,,1,,,,,,,,,,,,,
null,,color_black1,1548094,,,,black_plus_sign,,,null,,,,,,,,,,,,,,,,,,,,,,,
null,,learn_phase(without_color)1,1551596,,,,black_plus_sign,,,null,object_05c.png,object_03c.png,,,,,,,,,,,,,,,,,,,,,
null,,black_cross(without_color)1,1552686,,,,blue,,,null,object_05c.png,object_03c.png,,,,,,,,,,,,,,,,,,,,,
388.3999999910593,,rt_plussign_withcolor1,1553188,,,,blue,,,49,object_05c.png,object_03c.png,,,,,,,,,,,,,,,,,,,,,
null,,rt_thecrossant_black1,1554104,,,,black_plus_sign,,,null,,,1,,,,,,,1,,,,,,,,,,,,,
null,,color_black1,1554207,,,,black_plus_sign,,,null,,,,,,,,,,,,,,,,,,,,,,,
null,,learn_phase(without_color)1,1557710,,,,black_plus_sign,,,null,object_04b.png,object_02a.png,,,,,,,,,,,,,,,,,,,,,
null,,black_cross(without_color)1,1558306,,,,green,,,null,object_04b.png,object_02a.png,,,,,,,,,,,,,,,,,,,,,
null,,rt_plussign_withcolor1,1558808,,,,green,,,null,object_04b.png,object_02a.png,,,,,,,,,,,,,,,,,,,,,
1502.5,,rt_thecrossant_black1,1560217,,,,black_plus_sign,,,50,,,1,,,,,,,1,,,,,,,,,,,,,
null,,color_black1,1560321,,,,black_plus_sign,,,null,,,,,,,,,,,,,,,,,,,,,,,
null,,learn_phase(without_color)1,1563824,,,,black_plus_sign,,,null,object_03a.png,object_13a.png,,,,,,,,,,,,,,,,,,,,,
null,,black_cross(without_color)1,1564490,,,,blue,,,null,object_03a.png,object_13a.png,,,,,,,,,,,,,,,,,,,,,
null,,rt_plussign_withcolor1,1564992,,,,blue,,,null,object_03a.png,object_13a.png,,,,,,,,,,,,,,,,,,,,,
824.1000000089407,,rt_thecrossant_black1,1566332,,,,black_plus_sign,,,49,,,1,,,,,,,1,,,,,,,,,,,,,
null,,color_black1,1566435,,,,black_plus_sign,,,null,,,,,,,,,,,,,,,,,,,,,,,
null,,learn_phase(without_color)1,1569938,,,,black_plus_sign,,,null,object_01a.png,object_10b.png,,,,,,,,,,,,,,,,,,,,,
null,,black_cross(without_color)1,1571024,,,,blue,,,null,object_01a.png,object_10b.png,,,,,,,,,,,,,,,,,,,,,
471.69999998807907,,rt_plussign_withcolor1,1571526,,,,blue,,,49,object_01a.png,object_10b.png,,,,,,,,,,,,,,,,,,,,,
null,,rt_thecrossant_black1,1572445,,,,black_plus_sign,,,null,,,1,,,,,,,1,,,,,,,,,,,,,
null,,color_black1,1572549,,,,black_plus_sign,,,null,,,,,,,,,,,,,,,,,,,,,,,
null,,learn_phase(without_color)1,1576052,,,,black_plus_sign,,,null,object_12a.png,object_05a.png,,,,,,,,,,,,,,,,,,,,,
null,,black_cross(without_color)1,1576524,,,,blue,,,null,object_12a.png,object_05a.png,,,,,,,,,,,,,,,,,,,,,
null,,rt_plussign_withcolor1,1577026,,,,blue,,,null,object_12a.png,object_05a.png,,,,,,,,,,,,,,,,,,,,,
1213,,rt_thecrossant_black1,1578561,,,,black_plus_sign,,,49,,,1,,,,,,,1,,,,,,,,,,,,,
null,,color_black1,1578665,,,,black_plus_sign,,,null,,,,,,,,,,,,,,,,,,,,,,,
null,,learn_phase(without_color)1,1582167,,,,black_plus_sign,,,null,object_12b.png,object_02b.png,,,,,,,,,,,,,,,,,,,,,
null,,black_cross(without_color)1,1582650,,,,blue,,,null,object_12b.png,object_02b.png,,,,,,,,,,,,,,,,,,,,,
null,,rt_plussign_withcolor1,1583153,,,,blue,,,null,object_12b.png,object_02b.png,,,,,,,,,,,,,,,,,,,,,
714.7000000029802,,rt_thecrossant_black1,1584676,,,,black_plus_sign,,,49,,,1,,,,,,,1,,,,,,,,,,,,,
null,,color_black1,1584779,,,,black_plus_sign,,,null,,,,,,,,,,,,,,,,,,,,,,,
null,,learn_phase(without_color)1,1588283,,,,black_plus_sign,,,null,object_07c.png,object_01c.png,,,,,,,,,,,,,,,,,,,,,
null,,black_cross(without_color)1,1588824,,,,blue,,,null,object_07c.png,object_01c.png,,,,,,,,,,,,,,,,,,,,,
null,,rt_plussign_withcolor1,1589326,,,,blue,,,null,object_07c.png,object_01c.png,,,,,,,,,,,,,,,,,,,,,
849.2999999970198,,rt_thecrossant_black1,1590790,,,,black_plus_sign,,,49,,,1,,,,,,,1,,,,,,,,,,,,,
null,,color_black1,1590892,,,,black_plus_sign,,,null,,,,,,,,,,,,,,,,,,,,,,,
null,,learn_phase(without_color)1,1594395,,,,black_plus_sign,,,null,object_06b.png,object_01b.png,,,,,,,,,,,,,,,,,,,,,
null,,black_cross(without_color)1,1595305,,,,green,,,null,object_06b.png,object_01b.png,,,,,,,,,,,,,,,,,,,,,
null,,rt_plussign_withcolor1,1595808,,,,green,,,null,object_06b.png,object_01b.png,,,,,,,,,,,,,,,,,,,,,
775.5,,rt_thecrossant_black1,1596905,,,,black_plus_sign,,,50,,,1,,,,,,,1,,,,,,,,,,,,,
null,,color_black1,1597007,,,,black_plus_sign,,,null,,,,,,,,,,,,,,,,,,,,,,,
null,,learn_phase(without_color)1,1600509,,,,black_plus_sign,,,null,object_05b.png,object_10c.png,,,,,,,,,,,,,,,,,,,,,
null,,black_cross(without_color)1,1600979,,,,green,,,null,object_05b.png,object_10c.png,,,,,,,,,,,,,,,,,,,,,
497.09999999403954,,rt_plussign_withcolor1,1601482,,,,green,,,50,object_05b.png,object_10c.png,,,,,,,,,,,,,,,,,,,,,
null,,rt_thecrossant_black1,1603018,,,,black_plus_sign,,,null,,,1,,,,,,,1,,,,,,,,,,,,,
null,,color_black1,1603121,,,,black_plus_sign,,,null,,,,,,,,,,,,,,,,,,,,,,,
null,,learn_phase(without_color)1,1606623,,,,black_plus_sign,,,null,object_10a.png,object_14a.png,,,,,,,,,,,,,,,,,,,,,
null,,black_cross(without_color)1,1607545,,,,green,,,null,object_10a.png,object_14a.png,,,,,,,,,,,,,,,,,,,,,
null,,rt_plussign_withcolor1,1608048,,,,green,,,null,object_10a.png,object_14a.png,,,,,,,,,,,,,,,,,,,,,
710.9000000059605,,rt_thecrossant_black1,1609133,,,,black_plus_sign,,,50,,,1,,,,,,,1,,,,,,,,,,,,,
null,,color_black1,1609236,,,,black_plus_sign,,,null,,,,,,,,,,,,,,,,,,,,,,,
null,,learn_phase(without_color)1,1612738,,,,black_plus_sign,,,null,object_09a.png,object_08b.png,,,,,,,,,,,,,,,,,,,,,
null,,black_cross(without_color)1,1613280,,,,blue,,,null,object_09a.png,object_08b.png,,,,,,,,,,,,,,,,,,,,,
null,,rt_plussign_withcolor1,1613782,,,,blue,,,null,object_09a.png,object_08b.png,,,,,,,,,,,,,,,,,,,,,
1471.8999999910593,,rt_thecrossant_black1,1615245,,,,black_plus_sign,,,49,,,1,,,,,,,1,,,,,,,,,,,,,
null,,color_black1,1615347,,,,black_plus_sign,,,null,,,,,,,,,,,,,,,,,,,,,,,
null,,learn_phase(without_color)1,1618852,,,,black_plus_sign,,,null,object_07b.png,object_14b.png,,,,,,,,,,,,,,,,,,,,,
null,,black_cross(without_color)1,1619942,,,,green,,,null,object_07b.png,object_14b.png,,,,,,,,,,,,,,,,,,,,,
null,,rt_plussign_withcolor1,1620445,,,,green,,,null,object_07b.png,object_14b.png,,,,,,,,,,,,,,,,,,,,,
662.5999999940395,,rt_thecrossant_black1,1621360,,,,black_plus_sign,,,50,,,1,,,,,,,1,,,,,,,,,,,,,
null,,color_black1,1621464,,,,black_plus_sign,,,null,,,,,,,,,,,,,,,,,,,,,,,
null,,learn_phase(without_color)1,1624967,,,,black_plus_sign,,,null,object_02c.png,object_15a.png,,,,,,,,,,,,,,,,,,,,,
null,,black_cross(without_color)1,1625551,,,,blue,,,null,object_02c.png,object_15a.png,,,,,,,,,,,,,,,,,,,,,
null,,rt_plussign_withcolor1,1626053,,,,blue,,,null,object_02c.png,object_15a.png,,,,,,,,,,,,,,,,,,,,,
1402.2999999970198,,rt_thecrossant_black1,1627475,,,,black_plus_sign,,,49,,,1,,,,,,,1,,,,,,,,,,,,,
null,,color_black1,1627578,,,,black_plus_sign,,,null,,,,,,,,,,,,,,,,,,,,,,,
null,,thebreak,1627684,,,,<p></p>,,,null,,,,,,,,,,,,,,,,,,,,,,,
1455.9000000059605,,intro_0,1629141,,,,instruct,,,32,,,,,,,,,,,,,,,,,,,,,,,
3679.2999999970198,,directmemory_phase1,1632823,,,,object_12a.png,,,50,,,1,,object_03c.png,object_05a.png,object_02b.png,object_05a.png,,1,1,,,,,,,,,,,,
5434.29999999702,,directmemory_phase1,1638259,,,,object_02c.png,,,49,,,1,,object_15a.png,object_04b.png,object_02a.png,object_15a.png,,1,1,,,,,,,,,,,,
1414.6000000089407,,directmemory_phase1,1639676,,,,object_07c.png,,,50,,,1,,object_04a.png,object_01c.png,object_06c.png,object_01c.png,,1,1,,,,,,,,,,,,
6317.5,,directmemory_phase1,1645995,,,,object_01a.png,,,50,,,1,,object_07c.png,object_10b.png,object_04b.png,object_10b.png,,1,1,,,,,,,,,,,,
4857.5,,directmemory_phase1,1650854,,,,object_05b.png,,,49,,,1,,object_10c.png,object_04b.png,object_13a.png,object_10c.png,,1,1,,,,,,,,,,,,
2909.7999999970198,,directmemory_phase1,1653767,,,,object_06b.png,,,50,,,1,,object_02c.png,object_01b.png,object_04b.png,object_01b.png,,1,1,,,,,,,,,,,,
6463,,directmemory_phase1,1660232,,,,object_10a.png,,,51,,,0,,object_14a.png,object_11a.png,object_07a.png,object_14a.png,,0.8571428571428571,0,,,,,,,,,,,,
2870.7000000029802,,directmemory_phase1,1663105,,,,object_07b.png,,,51,,,1,,object_06c.png,object_02a.png,object_14b.png,object_14b.png,,0.875,1,,,,,,,,,,,,
4054.4000000059605,,directmemory_phase1,1667162,,,,object_03c.png,,,49,,,1,,object_05c.png,object_14b.png,object_04a.png,object_05c.png,,0.8888888888888888,1,,,,,,,,,,,,
4518.399999991059,,directmemory_phase1,1671683,,,,object_13a.png,,,49,,,0,,object_05b.png,object_03a.png,object_11a.png,object_03a.png,,0.8,0,,,,,,,,,,,,
961.2000000029802,,directmemory_phase1,1672646,,,,object_09a.png,,,49,,,1,,object_08b.png,object_04b.png,object_06b.png,object_08b.png,,0.8181818181818182,1,,,,,,,,,,,,
3354.7999999970198,,directmemory_phase1,1676004,,,,object_04a.png,,,51,,,1,,object_04b.png,object_07a.png,object_06c.png,object_06c.png,,0.8333333333333334,1,,,,,,,,,,,,
1331.7999999970198,,directmemory_phase1,1677338,,,,object_12b.png,,,49,,,1,,object_02b.png,object_06c.png,object_02c.png,object_02b.png,,0.8461538461538461,1,,,,,,,,,,,,
2964.2999999970198,,directmemory_phase1,1680305,,,,object_02a.png,,,50,,,1,,object_04a.png,object_04b.png,object_01b.png,object_04b.png,,0.8571428571428571,1,,,,,,,,,,,,
4052.5999999940395,,directmemory_phase1,1684360,,,,object_07a.png,,,50,,,1,,object_07c.png,object_11a.png,object_06c.png,object_11a.png,,0.8666666666666667,1,,,,,,,,,,,,
null,,thebreak,1684463,,,,<p></p>,,,null,,,,,,,,,,,,,,,,,,,,,,,
918.4000000059605,,intro_0,1685382,,,,instruct,,,32,,,,,,,,,,,,,,,,,,,,,,,
null,,learn_phase(without_color)2,1688884,,,,black_plus_sign,,,null,object_14b.png,object_07b.png,,,,,,,,,,,,,,,,,,,,,
null,,black_cross(without_color)2,1689549,,,,blue,,,null,object_14b.png,object_07b.png,,,,,,,,,,,,,,,,,,,,,
null,,rt_plussign_withcolor2,1690051,,,,blue,,,null,object_14b.png,object_07b.png,,,,,,,,,,,,,,,,,,,,,
1422,,rt_thecrossant_black2,1691392,,,,black_plus_sign,,,49,,,1,,,,,,,1,,,,,,,,,,,,,
null,,color_black2,1691495,,,,black_plus_sign,,,null,,,,,,,,,,,,,,,,,,,,,,,
null,,learn_phase(without_color)2,1694999,,,,black_plus_sign,,,null,object_01b.png,object_06b.png,,,,,,,,,,,,,,,,,,,,,
null,,black_cross(without_color)2,1695967,,,,blue,,,null,object_01b.png,object_06b.png,,,,,,,,,,,,,,,,,,,,,
null,,rt_plussign_withcolor2,1696470,,,,blue,,,null,object_01b.png,object_06b.png,,,,,,,,,,,,,,,,,,,,,
1106.5,,rt_thecrossant_black2,1697509,,,,black_plus_sign,,,49,,,1,,,,,,,1,,,,,,,,,,,,,
null,,color_black2,1697613,,,,black_plus_sign,,,null,,,,,,,,,,,,,,,,,,,,,,,
null,,learn_phase(without_color)2,1701116,,,,black_plus_sign,,,null,object_10a.png,object_14a.png,,,,,,,,,,,,,,,,,,,,,
null,,black_cross(without_color)2,1701821,,,,blue,,,null,object_10a.png,object_14a.png,,,,,,,,,,,,,,,,,,,,,
null,,rt_plussign_withcolor2,1702322,,,,blue,,,null,object_10a.png,object_14a.png,,,,,,,,,,,,,,,,,,,,,
1242.699999988079,,rt_thecrossant_black2,1703625,,,,black_plus_sign,,,49,,,1,,,,,,,1,,,,,,,,,,,,,
null,,color_black2,1703728,,,,black_plus_sign,,,null,,,,,,,,,,,,,,,,,,,,,,,
null,,learn_phase(without_color)2,1707231,,,,black_plus_sign,,,null,object_07a.png,object_11a.png,,,,,,,,,,,,,,,,,,,,,
null,,black_cross(without_color)2,1707844,,,,green,,,null,object_07a.png,object_11a.png,,,,,,,,,,,,,,,,,,,,,
null,,rt_plussign_withcolor2,1708346,,,,green,,,null,object_07a.png,object_11a.png,,,,,,,,,,,,,,,,,,,,,
1041,,rt_thecrossant_black2,1709740,,,,black_plus_sign,,,49,,,0,,,,,,,0.75,,,,,,,,,,,,,
null,,color_black2,1709842,,,,black_plus_sign,,,null,,,,,,,,,,,,,,,,,,,,,,,
null,,learn_phase(without_color)2,1713346,,,,black_plus_sign,,,null,object_02c.png,object_15a.png,,,,,,,,,,,,,,,,,,,,,
null,,black_cross(without_color)2,1714046,,,,blue,,,null,object_02c.png,object_15a.png,,,,,,,,,,,,,,,,,,,,,
491.59999999403954,,rt_plussign_withcolor2,1714547,,,,blue,,,49,object_02c.png,object_15a.png,,,,,,,,,,,,,,,,,,,,,
null,,rt_thecrossant_black2,1715853,,,,black_plus_sign,,,null,,,1,,,,,,,0.8,,,,,,,,,,,,,
null,,color_black2,1715956,,,,black_plus_sign,,,null,,,,,,,,,,,,,,,,,,,,,,,
null,,learn_phase(without_color)2,1719458,,,,black_plus_sign,,,null,object_02b.png,object_12b.png,,,,,,,,,,,,,,,,,,,,,
null,,black_cross(without_color)2,1719980,,,,blue,,,null,object_02b.png,object_12b.png,,,,,,,,,,,,,,,,,,,,,
null,,rt_plussign_withcolor2,1720481,,,,blue,,,null,object_02b.png,object_12b.png,,,,,,,,,,,,,,,,,,,,,
928.7999999970198,,rt_thecrossant_black2,1721966,,,,black_plus_sign,,,49,,,1,,,,,,,0.8333333333333334,,,,,,,,,,,,,
null,,color_black2,1722069,,,,black_plus_sign,,,null,,,,,,,,,,,,,,,,,,,,,,,
null,,learn_phase(without_color)2,1725573,,,,black_plus_sign,,,null,object_01c.png,object_07c.png,,,,,,,,,,,,,,,,,,,,,
null,,black_cross(without_color)2,1726041,,,,green,,,null,object_01c.png,object_07c.png,,,,,,,,,,,,,,,,,,,,,
null,,rt_plussign_withcolor2,1726543,,,,green,,,null,object_01c.png,object_07c.png,,,,,,,,,,,,,,,,,,,,,
757.7000000029802,,rt_thecrossant_black2,1728081,,,,black_plus_sign,,,50,,,1,,,,,,,0.8571428571428571,,,,,,,,,,,,,
null,,color_black2,1728184,,,,black_plus_sign,,,null,,,,,,,,,,,,,,,,,,,,,,,
null,,learn_phase(without_color)2,1731688,,,,black_plus_sign,,,null,object_03c.png,object_05c.png,,,,,,,,,,,,,,,,,,,,,
null,,black_cross(without_color)2,1732417,,,,green,,,null,object_03c.png,object_05c.png,,,,,,,,,,,,,,,,,,,,,
null,,rt_plussign_withcolor2,1732920,,,,green,,,null,object_03c.png,object_05c.png,,,,,,,,,,,,,,,,,,,,,
596.9000000059605,,rt_thecrossant_black2,1734196,,,,black_plus_sign,,,50,,,1,,,,,,,0.875,,,,,,,,,,,,,
null,,color_black2,1734299,,,,black_plus_sign,,,null,,,,,,,,,,,,,,,,,,,,,,,
null,,learn_phase(without_color)2,1737804,,,,black_plus_sign,,,null,object_01a.png,object_10b.png,,,,,,,,,,,,,,,,,,,,,
null,,black_cross(without_color)2,1738595,,,,green,,,null,object_01a.png,object_10b.png,,,,,,,,,,,,,,,,,,,,,
null,,rt_plussign_withcolor2,1739098,,,,green,,,null,object_01a.png,object_10b.png,,,,,,,,,,,,,,,,,,,,,
879.5999999940395,,rt_thecrossant_black2,1740312,,,,black_plus_sign,,,50,,,1,,,,,,,0.8888888888888888,,,,,,,,,,,,,
null,,color_black2,1740415,,,,black_plus_sign,,,null,,,,,,,,,,,,,,,,,,,,,,,
null,,learn_phase(without_color)2,1743919,,,,black_plus_sign,,,null,object_03a.png,object_13a.png,,,,,,,,,,,,,,,,,,,,,
null,,black_cross(without_color)2,1744674,,,,green,,,null,object_03a.png,object_13a.png,,,,,,,,,,,,,,,,,,,,,
null,,rt_plussign_withcolor2,1745177,,,,green,,,null,object_03a.png,object_13a.png,,,,,,,,,,,,,,,,,,,,,
1171.5,,rt_thecrossant_black2,1746429,,,,black_plus_sign,,,49,,,0,,,,,,,0.8,,,,,,,,,,,,,
null,,color_black2,1746533,,,,black_plus_sign,,,null,,,,,,,,,,,,,,,,,,,,,,,
null,,learn_phase(without_color)2,1750036,,,,black_plus_sign,,,null,object_09a.png,object_08b.png,,,,,,,,,,,,,,,,,,,,,
null,,black_cross(without_color)2,1751038,,,,blue,,,null,object_09a.png,object_08b.png,,,,,,,,,,,,,,,,,,,,,
null,,rt_plussign_withcolor2,1751541,,,,blue,,,null,object_09a.png,object_08b.png,,,,,,,,,,,,,,,,,,,,,
892.9000000059605,,rt_thecrossant_black2,1752544,,,,black_plus_sign,,,49,,,1,,,,,,,0.8181818181818182,,,,,,,,,,,,,
null,,color_black2,1752648,,,,black_plus_sign,,,null,,,,,,,,,,,,,,,,,,,,,,,
null,,learn_phase(without_color)2,1756151,,,,black_plus_sign,,,null,object_04b.png,object_02a.png,,,,,,,,,,,,,,,,,,,,,
null,,black_cross(without_color)2,1756731,,,,blue,,,null,object_04b.png,object_02a.png,,,,,,,,,,,,,,,,,,,,,
null,,rt_plussign_withcolor2,1757232,,,,blue,,,null,object_04b.png,object_02a.png,,,,,,,,,,,,,,,,,,,,,
1330.6000000089407,,rt_thecrossant_black2,1758658,,,,black_plus_sign,,,49,,,1,,,,,,,0.8333333333333334,,,,,,,,,,,,,
null,,color_black2,1758762,,,,black_plus_sign,,,null,,,,,,,,,,,,,,,,,,,,,,,
null,,learn_phase(without_color)2,1762266,,,,black_plus_sign,,,null,object_05a.png,object_12a.png,,,,,,,,,,,,,,,,,,,,,
null,,black_cross(without_color)2,1763282,,,,green,,,null,object_05a.png,object_12a.png,,,,,,,,,,,,,,,,,,,,,
null,,rt_plussign_withcolor2,1763785,,,,green,,,null,object_05a.png,object_12a.png,,,,,,,,,,,,,,,,,,,,,
1227.2999999970198,,rt_thecrossant_black2,1764773,,,,black_plus_sign,,,50,,,1,,,,,,,0.8461538461538461,,,,,,,,,,,,,
null,,color_black2,1764875,,,,black_plus_sign,,,null,,,,,,,,,,,,,,,,,,,,,,,
null,,learn_phase(without_color)2,1768379,,,,black_plus_sign,,,null,object_10c.png,object_05b.png,,,,,,,,,,,,,,,,,,,,,
null,,black_cross(without_color)2,1769295,,,,green,,,null,object_10c.png,object_05b.png,,,,,,,,,,,,,,,,,,,,,
null,,rt_plussign_withcolor2,1769798,,,,green,,,null,object_10c.png,object_05b.png,,,,,,,,,,,,,,,,,,,,,
1192.5,,rt_thecrossant_black2,1770887,,,,black_plus_sign,,,50,,,1,,,,,,,0.8571428571428571,,,,,,,,,,,,,
null,,color_black2,1770991,,,,black_plus_sign,,,null,,,,,,,,,,,,,,,,,,,,,,,
null,,learn_phase(without_color)2,1774494,,,,black_plus_sign,,,null,object_04a.png,object_06c.png,,,,,,,,,,,,,,,,,,,,,
null,,black_cross(without_color)2,1774937,,,,green,,,null,object_04a.png,object_06c.png,,,,,,,,,,,,,,,,,,,,,
null,,rt_plussign_withcolor2,1775440,,,,green,,,null,object_04a.png,object_06c.png,,,,,,,,,,,,,,,,,,,,,
1217.199999988079,,rt_thecrossant_black2,1777002,,,,black_plus_sign,,,50,,,1,,,,,,,0.8666666666666667,,,,,,,,,,,,,
null,,color_black2,1777105,,,,black_plus_sign,,,null,,,,,,,,,,,,,,,,,,,,,,,
null,,thebreak,1777209,,,,<p></p>,,,null,,,,,,,,,,,,,,,,,,,,,,,
814.5,,intro_0,1778025,,,,instruct,,,32,,,,,,,,,,,,,,,,,,,,,,,
3830.8999999910593,,directmemory_phase2,1781857,,,,object_07a.png,,,51,,,1,,object_06c.png,object_07b.png,object_11a.png,object_11a.png,,0.875,1,,,,,,,,,,,,
1627.3999999910593,,directmemory_phase2,1783488,,,,object_02c.png,,,49,,,1,,object_15a.png,object_03a.png,object_01a.png,object_15a.png,,0.8823529411764706,1,,,,,,,,,,,,
1811.699999988079,,directmemory_phase2,1785302,,,,object_13a.png,,,51,,,1,,object_02b.png,object_12b.png,object_03a.png,object_03a.png,,0.8888888888888888,1,,,,,,,,,,,,
4045.7999999970198,,directmemory_phase2,1789349,,,,object_05b.png,,,50,,,1,,object_01a.png,object_10c.png,object_01b.png,object_10c.png,,0.8947368421052632,1,,,,,,,,,,,,
2241.5,,directmemory_phase2,1791594,,,,object_07b.png,,,49,,,1,,object_14b.png,object_03a.png,object_01a.png,object_14b.png,,0.9,1,,,,,,,,,,,,
2225.5,,directmemory_phase2,1793821,,,,object_06b.png,,,50,,,1,,object_03c.png,object_01b.png,object_08b.png,object_01b.png,,0.9047619047619048,1,,,,,,,,,,,,
3212.7999999970198,,directmemory_phase2,1797036,,,,object_02a.png,,,50,,,1,,object_12a.png,object_04b.png,object_11a.png,object_04b.png,,0.9090909090909091,1,,,,,,,,,,,,
1850.6000000089407,,directmemory_phase2,1798889,,,,object_10a.png,,,51,,,1,,object_11a.png,object_07c.png,object_14a.png,object_14a.png,,0.9130434782608695,1,,,,,,,,,,,,
973.1000000089407,,directmemory_phase2,1799864,,,,object_09a.png,,,50,,,1,,object_04a.png,object_08b.png,object_03a.png,object_08b.png,,0.9166666666666666,1,,,,,,,,,,,,
1730.2999999970198,,directmemory_phase2,1801596,,,,object_01a.png,,,50,,,1,,object_07a.png,object_10b.png,object_04b.png,object_10b.png,,0.92,1,,,,,,,,,,,,
1008.1000000089407,,directmemory_phase2,1802606,,,,object_12a.png,,,50,,,1,,object_03c.png,object_05a.png,object_10c.png,object_05a.png,,0.9230769230769231,1,1,,,,,,,,,,,
null,,slowdown_page,1812609,,,,too_quick,,,null,,,,,,,,,,,,,,,,,,,,,,,
2618,,directmemory_phase2,1815229,,,,object_07c.png,,,50,,,1,,object_12b.png,object_01c.png,object_04b.png,object_01c.png,,0.9259259259259259,1,,,,,,,,,,,,
1992.9000000059605,,directmemory_phase2,1817224,,,,object_12b.png,,,51,,,1,,object_10b.png,object_09a.png,object_02b.png,object_02b.png,,0.9285714285714286,1,,,,,,,,,,,,
2267,,directmemory_phase2,1819493,,,,object_03c.png,,,51,,,1,,object_10c.png,object_02c.png,object_05c.png,object_05c.png,,0.9310344827586207,1,,,,,,,,,,,,
3811.9000000059605,,directmemory_phase2,1823307,,,,object_04a.png,,,51,,,1,,object_10c.png,object_06b.png,object_06c.png,object_06c.png,,0.9333333333333333,1,,,,,,,,,,,,
null,,thebreak,1823409,,,,<p></p>,,,null,,,,,,,,,,,,,,,,,,,,,,,
1499.3999999910593,,intro_0,1824910,,,,instruct,,,32,,,,,,,,,,,,,,,,,,,,,,,
null,,learn_phase(without_color)3,1828412,,,,black_plus_sign,,,null,object_05b.png,object_10c.png,,,,,,,,,,,,,,,,,,,,,
null,,black_cross(without_color)3,1828839,,,,blue,,,null,object_05b.png,object_10c.png,,,,,,,,,,,,,,,,,,,,,
null,,rt_plussign_withcolor3,1829341,,,,blue,,,null,object_05b.png,object_10c.png,,,,,,,,,,,,,,,,,,,,,
773.3999999910593,,rt_thecrossant_black3,1830920,,,,black_plus_sign,,,49,,,1,,,,,,,1,,,,,,,,,,,,,
null,,color_black3,1831023,,,,black_plus_sign,,,null,,,,,,,,,,,,,,,,,,,,,,,
null,,learn_phase(without_color)3,1834526,,,,black_plus_sign,,,null,object_14a.png,object_10a.png,,,,,,,,,,,,,,,,,,,,,
null,,black_cross(without_color)3,1835569,,,,green,,,null,object_14a.png,object_10a.png,,,,,,,,,,,,,,,,,,,,,
378.6000000089407,,rt_plussign_withcolor3,1836071,,,,green,,,50,object_14a.png,object_10a.png,,,,,,,,,,,,,,,,,,,,,
null,,rt_thecrossant_black3,1837034,,,,black_plus_sign,,,null,,,1,,,,,,,1,,,,,,,,,,,,,
null,,color_black3,1837137,,,,black_plus_sign,,,null,,,,,,,,,,,,,,,,,,,,,,,
null,,learn_phase(without_color)3,1840640,,,,black_plus_sign,,,null,object_01b.png,object_06b.png,,,,,,,,,,,,,,,,,,,,,
null,,black_cross(without_color)3,1841260,,,,green,,,null,object_01b.png,object_06b.png,,,,,,,,,,,,,,,,,,,,,
null,,rt_plussign_withcolor3,1841763,,,,green,,,null,object_01b.png,object_06b.png,,,,,,,,,,,,,,,,,,,,,
1663.7999999970198,,rt_thecrossant_black3,1843148,,,,black_plus_sign,,,49,,,0,,,,,,,0.6666666666666666,,,,,,,,,,,,,
null,,color_black3,1843251,,,,black_plus_sign,,,null,,,,,,,,,,,,,,,,,,,,,,,
null,,learn_phase(without_color)3,1846755,,,,black_plus_sign,,,null,object_03c.png,object_05c.png,,,,,,,,,,,,,,,,,,,,,
null,,black_cross(without_color)3,1847373,,,,blue,,,null,object_03c.png,object_05c.png,,,,,,,,,,,,,,,,,,,,,
null,,rt_plussign_withcolor3,1847875,,,,blue,,,null,object_03c.png,object_05c.png,,,,,,,,,,,,,,,,,,,,,
864.8999999910593,,rt_thecrossant_black3,1849262,,,,black_plus_sign,,,49,,,1,,,,,,,0.75,,,,,,,,,,,,,
null,,color_black3,1849365,,,,black_plus_sign,,,null,,,,,,,,,,,,,,,,,,,,,,,
null,,learn_phase(without_color)3,1852867,,,,black_plus_sign,,,null,object_12a.png,object_05a.png,,,,,,,,,,,,,,,,,,,,,
null,,black_cross(without_color)3,1853590,,,,blue,,,null,object_12a.png,object_05a.png,,,,,,,,,,,,,,,,,,,,,
null,,rt_plussign_withcolor3,1854093,,,,blue,,,null,object_12a.png,object_05a.png,,,,,,,,,,,,,,,,,,,,,
758.7000000029802,,rt_thecrossant_black3,1855375,,,,black_plus_sign,,,49,,,1,,,,,,,0.8,,,,,,,,,,,,,
null,,color_black3,1855478,,,,black_plus_sign,,,null,,,,,,,,,,,,,,,,,,,,,,,
null,,learn_phase(without_color)3,1858981,,,,black_plus_sign,,,null,object_14b.png,object_07b.png,,,,,,,,,,,,,,,,,,,,,
null,,black_cross(without_color)3,1859992,,,,green,,,null,object_14b.png,object_07b.png,,,,,,,,,,,,,,,,,,,,,
null,,rt_plussign_withcolor3,1860494,,,,green,,,null,object_14b.png,object_07b.png,,,,,,,,,,,,,,,,,,,,,
1247.1000000089407,,rt_thecrossant_black3,1861488,,,,black_plus_sign,,,50,,,1,,,,,,,0.8333333333333334,,,,,,,,,,,,,
null,,color_black3,1861592,,,,black_plus_sign,,,null,,,,,,,,,,,,,,,,,,,,,,,
null,,learn_phase(without_color)3,1865096,,,,black_plus_sign,,,null,object_06c.png,object_04a.png,,,,,,,,,,,,,,,,,,,,,
null,,black_cross(without_color)3,1865560,,,,green,,,null,object_06c.png,object_04a.png,,,,,,,,,,,,,,,,,,,,,
485.09999999403954,,rt_plussign_withcolor3,1866062,,,,green,,,50,object_06c.png,object_04a.png,,,,,,,,,,,,,,,,,,,,,
null,,rt_thecrossant_black3,1867604,,,,black_plus_sign,,,null,,,1,,,,,,,0.8571428571428571,,,,,,,,,,,,,
null,,color_black3,1867707,,,,black_plus_sign,,,null,,,,,,,,,,,,,,,,,,,,,,,
null,,learn_phase(without_color)3,1871211,,,,black_plus_sign,,,null,object_02a.png,object_04b.png,,,,,,,,,,,,,,,,,,,,,
null,,black_cross(without_color)3,1872302,,,,green,,,null,object_02a.png,object_04b.png,,,,,,,,,,,,,,,,,,,,,
null,,rt_plussign_withcolor3,1872805,,,,green,,,null,object_02a.png,object_04b.png,,,,,,,,,,,,,,,,,,,,,
781.5,,rt_thecrossant_black3,1873719,,,,black_plus_sign,,,50,,,1,,,,,,,0.875,,,,,,,,,,,,,
null,,color_black3,1873822,,,,black_plus_sign,,,null,,,,,,,,,,,,,,,,,,,,,,,
null,,learn_phase(without_color)3,1877326,,,,black_plus_sign,,,null,object_07c.png,object_01c.png,,,,,,,,,,,,,,,,,,,,,
null,,black_cross(without_color)3,1878052,,,,blue,,,null,object_07c.png,object_01c.png,,,,,,,,,,,,,,,,,,,,,
null,,rt_plussign_withcolor3,1878554,,,,blue,,,null,object_07c.png,object_01c.png,,,,,,,,,,,,,,,,,,,,,
1422.5,,rt_thecrossant_black3,1879834,,,,black_plus_sign,,,49,,,1,,,,,,,0.8888888888888888,,,,,,,,,,,,,
null,,color_black3,1879937,,,,black_plus_sign,,,null,,,,,,,,,,,,,,,,,,,,,,,
null,,learn_phase(without_color)3,1883441,,,,black_plus_sign,,,null,object_02c.png,object_15a.png,,,,,,,,,,,,,,,,,,,,,
null,,black_cross(without_color)3,1883961,,,,blue,,,null,object_02c.png,object_15a.png,,,,,,,,,,,,,,,,,,,,,
null,,rt_plussign_withcolor3,1884463,,,,blue,,,null,object_02c.png,object_15a.png,,,,,,,,,,,,,,,,,,,,,
1190.6000000089407,,rt_thecrossant_black3,1885950,,,,black_plus_sign,,,49,,,1,,,,,,,0.9,,,,,,,,,,,,,
null,,color_black3,1886053,,,,black_plus_sign,,,null,,,,,,,,,,,,,,,,,,,,,,,
null,,learn_phase(without_color)3,1889557,,,,black_plus_sign,,,null,object_11a.png,object_07a.png,,,,,,,,,,,,,,,,,,,,,
null,,black_cross(without_color)3,1890242,,,,blue,,,null,object_11a.png,object_07a.png,,,,,,,,,,,,,,,,,,,,,
null,,rt_plussign_withcolor3,1890744,,,,blue,,,null,object_11a.png,object_07a.png,,,,,,,,,,,,,,,,,,,,,
947.2999999970198,,rt_thecrossant_black3,1892063,,,,black_plus_sign,,,49,,,1,,,,,,,0.9090909090909091,,,,,,,,,,,,,
null,,color_black3,1892166,,,,black_plus_sign,,,null,,,,,,,,,,,,,,,,,,,,,,,
null,,learn_phase(without_color)3,1895670,,,,black_plus_sign,,,null,object_01a.png,object_10b.png,,,,,,,,,,,,,,,,,,,,,
null,,black_cross(without_color)3,1896558,,,,green,,,null,object_01a.png,object_10b.png,,,,,,,,,,,,,,,,,,,,,
null,,rt_plussign_withcolor3,1897061,,,,green,,,null,object_01a.png,object_10b.png,,,,,,,,,,,,,,,,,,,,,
886.5999999940395,,rt_thecrossant_black3,1898180,,,,black_plus_sign,,,50,,,1,,,,,,,0.9166666666666666,,,,,,,,,,,,,
null,,color_black3,1898284,,,,black_plus_sign,,,null,,,,,,,,,,,,,,,,,,,,,,,
null,,learn_phase(without_color)3,1901788,,,,black_plus_sign,,,null,object_13a.png,object_03a.png,,,,,,,,,,,,,,,,,,,,,
null,,black_cross(without_color)3,1902489,,,,green,,,null,object_13a.png,object_03a.png,,,,,,,,,,,,,,,,,,,,,
null,,rt_plussign_withcolor3,1902992,,,,green,,,null,object_13a.png,object_03a.png,,,,,,,,,,,,,,,,,,,,,
1216.300000011921,,rt_thecrossant_black3,1904297,,,,black_plus_sign,,,50,,,1,,,,,,,0.9230769230769231,,,,,,,,,,,,,
null,,color_black3,1904399,,,,black_plus_sign,,,null,,,,,,,,,,,,,,,,,,,,,,,
null,,learn_phase(without_color)3,1907903,,,,black_plus_sign,,,null,object_02b.png,object_12b.png,,,,,,,,,,,,,,,,,,,,,
null,,black_cross(without_color)3,1908496,,,,green,,,null,object_02b.png,object_12b.png,,,,,,,,,,,,,,,,,,,,,
null,,rt_plussign_withcolor3,1908998,,,,green,,,null,object_02b.png,object_12b.png,,,,,,,,,,,,,,,,,,,,,
null,,rt_thecrossant_black3,1910412,,,,black_plus_sign,,,null,,,,,,,,,,0.9230769230769231,,,,,,,,,,,,,
null,,color_black3,1910515,,,,black_plus_sign,,,null,,,,,,,,,,,,,,,,,,,,,,,
null,,learn_phase(without_color)3,1914020,,,,black_plus_sign,,,null,object_09a.png,object_08b.png,,,,,,,,,,,,,,,,,,,,,
null,,black_cross(without_color)3,1914733,,,,blue,,,null,object_09a.png,object_08b.png,,,,,,,,,,,,,,,,,,,,,
419.20000000298023,,rt_plussign_withcolor3,1915236,,,,blue,,,49,object_09a.png,object_08b.png,,,,,,,,,,,,,,,,,,,,,
null,,rt_thecrossant_black3,1916529,,,,black_plus_sign,,,null,,,1,,,,,,,0.9285714285714286,,,,,,,,,,,,,
null,,color_black3,1916633,,,,black_plus_sign,,,null,,,,,,,,,,,,,,,,,,,,,,,
null,,thebreak,1916738,,,,<p></p>,,,null,,,,,,,,,,,,,,,,,,,,,,,
1276.800000011921,,intro_0,1918016,,,,instruct,,,32,,,,,,,,,,,,,,,,,,,,,,,
2155.2000000029802,,directmemory_phase3,1920173,,,,object_07c.png,,,50,,,1,,object_07a.png,object_01c.png,object_08b.png,object_01c.png,,0.9354838709677419,1,,,,,,,,,,,,
1431,,directmemory_phase3,1921607,,,,object_10a.png,,,49,,,1,,object_14a.png,object_08b.png,object_12a.png,object_14a.png,,0.9375,1,,,,,,,,,,,,
1712.0999999940395,,directmemory_phase3,1923320,,,,object_03c.png,,,50,,,1,,object_07c.png,object_05c.png,object_08b.png,object_05c.png,,0.9393939393939394,1,,,,,,,,,,,,
2950.199999988079,,directmemory_phase3,1926273,,,,object_02a.png,,,49,,,1,,object_04b.png,object_14b.png,object_02c.png,object_04b.png,,0.9411764705882353,1,,,,,,,,,,,,
1151.5,,directmemory_phase3,1927427,,,,object_12a.png,,,49,,,1,,object_05a.png,object_01b.png,object_09a.png,object_05a.png,,0.9428571428571428,1,,,,,,,,,,,,
1361,,directmemory_phase3,1928791,,,,object_07a.png,,,49,,,1,,object_11a.png,object_01b.png,object_02a.png,object_11a.png,,0.9444444444444444,1,,,,,,,,,,,,
1696.8999999910593,,directmemory_phase3,1930490,,,,object_06b.png,,,51,,,1,,object_14b.png,object_07b.png,object_01b.png,object_01b.png,,0.9459459459459459,1,,,,,,,,,,,,
2926.2999999970198,,directmemory_phase3,1933418,,,,object_07b.png,,,51,,,1,,object_05a.png,object_06b.png,object_14b.png,object_14b.png,,0.9473684210526315,1,,,,,,,,,,,,
2478.7999999970198,,directmemory_phase3,1935899,,,,object_05b.png,,,51,,,1,,object_14b.png,object_07c.png,object_10c.png,object_10c.png,,0.9487179487179487,1,,,,,,,,,,,,
1163,,directmemory_phase3,1937064,,,,object_02c.png,,,50,,,1,,object_07c.png,object_15a.png,object_03a.png,object_15a.png,,0.95,1,,,,,,,,,,,,
1299.7000000029802,,directmemory_phase3,1938366,,,,object_01a.png,,,49,,,1,,object_10b.png,object_02b.png,object_12b.png,object_10b.png,,0.9512195121951219,1,,,,,,,,,,,,
982.5,,directmemory_phase3,1939352,,,,object_09a.png,,,50,,,1,,object_05b.png,object_08b.png,object_11a.png,object_08b.png,,0.9523809523809523,1,1,,,,,,,,,,,
null,,slowdown_page,1949355,,,,too_quick,,,null,,,,,,,,,,,,,,,,,,,,,,,
3952.5,,directmemory_phase3,1953308,,,,object_13a.png,,,51,,,1,,object_10b.png,object_07c.png,object_03a.png,object_03a.png,,0.9534883720930233,1,,,,,,,,,,,,
1603.7000000029802,,directmemory_phase3,1954914,,,,object_12b.png,,,51,,,1,,object_08b.png,object_09a.png,object_02b.png,object_02b.png,,0.9545454545454546,1,,,,,,,,,,,,
3432,,directmemory_phase3,1958349,,,,object_04a.png,,,51,,,1,,object_14b.png,object_07a.png,object_06c.png,object_06c.png,,0.9555555555555556,1,,,,,,,,,,,,
null,,thebreak,1958452,,,,<p></p>,,,null,,,,,,,,,,,,,,,,,,,,,,,
1547.5,,intro_0,1960001,,,,instruct,,,32,,,,,,,,,,,,,,,,,,,,,,,
null,,learn_phase(without_color)4,1963504,,,,black_plus_sign,,,null,object_06c.png,object_04a.png,,,,,,,,,,,,,,,,,,,,,
null,,black_cross(without_color)4,1963986,,,,blue,,,null,object_06c.png,object_04a.png,,,,,,,,,,,,,,,,,,,,,
null,,rt_plussign_withcolor4,1964489,,,,blue,,,null,object_06c.png,object_04a.png,,,,,,,,,,,,,,,,,,,,,
1280.2000000029802,,rt_thecrossant_black4,1966012,,,,black_plus_sign,,,49,,,1,,,,,,,1,,,,,,,,,,,,,
null,,color_black4,1966116,,,,black_plus_sign,,,null,,,,,,,,,,,,,,,,,,,,,,,
null,,learn_phase(without_color)4,1969620,,,,black_plus_sign,,,null,object_10a.png,object_14a.png,,,,,,,,,,,,,,,,,,,,,
null,,black_cross(without_color)4,1970538,,,,green,,,null,object_10a.png,object_14a.png,,,,,,,,,,,,,,,,,,,,,
366.79999999701977,,rt_plussign_withcolor4,1971041,,,,green,,,50,object_10a.png,object_14a.png,,,,,,,,,,,,,,,,,,,,,
null,,rt_thecrossant_black4,1972129,,,,black_plus_sign,,,null,,,1,,,,,,,1,,,,,,,,,,,,,
null,,color_black4,1972231,,,,black_plus_sign,,,null,,,,,,,,,,,,,,,,,,,,,,,
null,,learn_phase(without_color)4,1975733,,,,black_plus_sign,,,null,object_05a.png,object_12a.png,,,,,,,,,,,,,,,,,,,,,
null,,black_cross(without_color)4,1976657,,,,green,,,null,object_05a.png,object_12a.png,,,,,,,,,,,,,,,,,,,,,
null,,rt_plussign_withcolor4,1977160,,,,green,,,null,object_05a.png,object_12a.png,,,,,,,,,,,,,,,,,,,,,
1067.2000000029802,,rt_thecrossant_black4,1978241,,,,black_plus_sign,,,50,,,1,,,,,,,1,,,,,,,,,,,,,
null,,color_black4,1978345,,,,black_plus_sign,,,null,,,,,,,,,,,,,,,,,,,,,,,
null,,learn_phase(without_color)4,1981848,,,,black_plus_sign,,,null,object_08b.png,object_09a.png,,,,,,,,,,,,,,,,,,,,,
null,,black_cross(without_color)4,1982555,,,,green,,,null,object_08b.png,object_09a.png,,,,,,,,,,,,,,,,,,,,,
340.70000000298023,,rt_plussign_withcolor4,1983058,,,,green,,,49,object_08b.png,object_09a.png,,,,,,,,,,,,,,,,,,,,,
null,,rt_thecrossant_black4,1984355,,,,black_plus_sign,,,null,,,0,,,,,,,0.75,,,,,,,,,,,,,
null,,color_black4,1984458,,,,black_plus_sign,,,null,,,,,,,,,,,,,,,,,,,,,,,
null,,learn_phase(without_color)4,1987963,,,,black_plus_sign,,,null,object_04b.png,object_02a.png,,,,,,,,,,,,,,,,,,,,,
null,,black_cross(without_color)4,1988584,,,,green,,,null,object_04b.png,object_02a.png,,,,,,,,,,,,,,,,,,,,,
null,,rt_plussign_withcolor4,1989086,,,,green,,,null,object_04b.png,object_02a.png,,,,,,,,,,,,,,,,,,,,,
880.6000000089407,,rt_thecrossant_black4,1990470,,,,black_plus_sign,,,50,,,1,,,,,,,0.8,,,,,,,,,,,,,
null,,color_black4,1990574,,,,black_plus_sign,,,null,,,,,,,,,,,,,,,,,,,,,,,
null,,learn_phase(without_color)4,1994078,,,,black_plus_sign,,,null,object_03a.png,object_13a.png,,,,,,,,,,,,,,,,,,,,,
null,,black_cross(without_color)4,1994656,,,,green,,,null,object_03a.png,object_13a.png,,,,,,,,,,,,,,,,,,,,,
null,,rt_plussign_withcolor4,1995159,,,,green,,,null,object_03a.png,object_13a.png,,,,,,,,,,,,,,,,,,,,,
882.2000000029802,,rt_thecrossant_black4,1996587,,,,black_plus_sign,,,50,,,1,,,,,,,0.8333333333333334,,,,,,,,,,,,,
null,,color_black4,1996691,,,,black_plus_sign,,,null,,,,,,,,,,,,,,,,,,,,,,,
null,,learn_phase(without_color)4,2000195,,,,black_plus_sign,,,null,object_07c.png,object_01c.png,,,,,,,,,,,,,,,,,,,,,
null,,black_cross(without_color)4,2001046,,,,green,,,null,object_07c.png,object_01c.png,,,,,,,,,,,,,,,,,,,,,
null,,rt_plussign_withcolor4,2001549,,,,green,,,null,object_07c.png,object_01c.png,,,,,,,,,,,,,,,,,,,,,
699.5999999940395,,rt_thecrossant_black4,2002705,,,,black_plus_sign,,,50,,,1,,,,,,,0.8571428571428571,,,,,,,,,,,,,
null,,color_black4,2002809,,,,black_plus_sign,,,null,,,,,,,,,,,,,,,,,,,,,,,
null,,learn_phase(without_color)4,2006313,,,,black_plus_sign,,,null,object_10b.png,object_01a.png,,,,,,,,,,,,,,,,,,,,,
null,,black_cross(without_color)4,2006891,,,,blue,,,null,object_10b.png,object_01a.png,,,,,,,,,,,,,,,,,,,,,
null,,rt_plussign_withcolor4,2007394,,,,blue,,,null,object_10b.png,object_01a.png,,,,,,,,,,,,,,,,,,,,,
1193.5,,rt_thecrossant_black4,2008823,,,,black_plus_sign,,,49,,,1,,,,,,,0.875,,,,,,,,,,,,,
null,,color_black4,2008927,,,,black_plus_sign,,,null,,,,,,,,,,,,,,,,,,,,,,,
null,,learn_phase(without_color)4,2012430,,,,black_plus_sign,,,null,object_14b.png,object_07b.png,,,,,,,,,,,,,,,,,,,,,
null,,black_cross(without_color)4,2013192,,,,green,,,null,object_14b.png,object_07b.png,,,,,,,,,,,,,,,,,,,,,
null,,rt_plussign_withcolor4,2013694,,,,green,,,null,object_14b.png,object_07b.png,,,,,,,,,,,,,,,,,,,,,
1107.0999999940395,,rt_thecrossant_black4,2014940,,,,black_plus_sign,,,50,,,1,,,,,,,0.8888888888888888,,,,,,,,,,,,,
null,,color_black4,2015043,,,,black_plus_sign,,,null,,,,,,,,,,,,,,,,,,,,,,,
null,,learn_phase(without_color)4,2018547,,,,black_plus_sign,,,null,object_06b.png,object_01b.png,,,,,,,,,,,,,,,,,,,,,
null,,black_cross(without_color)4,2019292,,,,blue,,,null,object_06b.png,object_01b.png,,,,,,,,,,,,,,,,,,,,,
462.3999999910593,,rt_plussign_withcolor4,2019795,,,,blue,,,49,object_06b.png,object_01b.png,,,,,,,,,,,,,,,,,,,,,
null,,rt_thecrossant_black4,2021058,,,,black_plus_sign,,,null,,,1,,,,,,,0.9,,,,,,,,,,,,,
null,,color_black4,2021162,,,,black_plus_sign,,,null,,,,,,,,,,,,,,,,,,,,,,,
null,,learn_phase(without_color)4,2024666,,,,black_plus_sign,,,null,object_05b.png,object_10c.png,,,,,,,,,,,,,,,,,,,,,
null,,black_cross(without_color)4,2025350,,,,green,,,null,object_05b.png,object_10c.png,,,,,,,,,,,,,,,,,,,,,
null,,rt_plussign_withcolor4,2025853,,,,green,,,null,object_05b.png,object_10c.png,,,,,,,,,,,,,,,,,,,,,
1229.4000000059605,,rt_thecrossant_black4,2027175,,,,black_plus_sign,,,50,,,1,,,,,,,0.9090909090909091,,,,,,,,,,,,,
null,,color_black4,2027278,,,,black_plus_sign,,,null,,,,,,,,,,,,,,,,,,,,,,,
null,,learn_phase(without_color)4,2030782,,,,black_plus_sign,,,null,object_02c.png,object_15a.png,,,,,,,,,,,,,,,,,,,,,
null,,black_cross(without_color)4,2031420,,,,green,,,null,object_02c.png,object_15a.png,,,,,,,,,,,,,,,,,,,,,
null,,rt_plussign_withcolor4,2031923,,,,green,,,null,object_02c.png,object_15a.png,,,,,,,,,,,,,,,,,,,,,
818.0999999940395,,rt_thecrossant_black4,2033290,,,,black_plus_sign,,,50,,,1,,,,,,,0.9166666666666666,,,,,,,,,,,,,
null,,color_black4,2033394,,,,black_plus_sign,,,null,,,,,,,,,,,,,,,,,,,,,,,
null,,learn_phase(without_color)4,2036898,,,,black_plus_sign,,,null,object_07a.png,object_11a.png,,,,,,,,,,,,,,,,,,,,,
null,,black_cross(without_color)4,2037750,,,,green,,,null,object_07a.png,object_11a.png,,,,,,,,,,,,,,,,,,,,,
null,,rt_plussign_withcolor4,2038252,,,,green,,,null,object_07a.png,object_11a.png,,,,,,,,,,,,,,,,,,,,,
915.9000000059605,,rt_thecrossant_black4,2039406,,,,black_plus_sign,,,50,,,1,,,,,,,0.9230769230769231,,,,,,,,,,,,,
null,,color_black4,2039510,,,,black_plus_sign,,,null,,,,,,,,,,,,,,,,,,,,,,,
null,,learn_phase(without_color)4,2043013,,,,black_plus_sign,,,null,object_02b.png,object_12b.png,,,,,,,,,,,,,,,,,,,,,
null,,black_cross(without_color)4,2043449,,,,green,,,null,object_02b.png,object_12b.png,,,,,,,,,,,,,,,,,,,,,
null,,rt_plussign_withcolor4,2043951,,,,green,,,null,object_02b.png,object_12b.png,,,,,,,,,,,,,,,,,,,,,
1067.2000000029802,,rt_thecrossant_black4,2045520,,,,black_plus_sign,,,50,,,1,,,,,,,0.9285714285714286,,,,,,,,,,,,,
null,,color_black4,2045624,,,,black_plus_sign,,,null,,,,,,,,,,,,,,,,,,,,,,,
null,,learn_phase(without_color)4,2049128,,,,black_plus_sign,,,null,object_05c.png,object_03c.png,,,,,,,,,,,,,,,,,,,,,
null,,black_cross(without_color)4,2049860,,,,blue,,,null,object_05c.png,object_03c.png,,,,,,,,,,,,,,,,,,,,,
null,,rt_plussign_withcolor4,2050362,,,,blue,,,null,object_05c.png,object_03c.png,,,,,,,,,,,,,,,,,,,,,
724.9000000059605,,rt_thecrossant_black4,2051635,,,,black_plus_sign,,,49,,,1,,,,,,,0.9333333333333333,,,,,,,,,,,,,
null,,color_black4,2051739,,,,black_plus_sign,,,null,,,,,,,,,,,,,,,,,,,,,,,
null,,thebreak,2051843,,,,<p></p>,,,null,,,,,,,,,,,,,,,,,,,,,,,
975.1000000089407,,intro_0,2052820,,,,instruct,,,32,,,,,,,,,,,,,,,,,,,,,,,
2604.7000000029802,,directmemory_phase4,2055426,,,,object_01a.png,,,51,,,1,,object_01b.png,object_05b.png,object_10b.png,object_10b.png,,0.9565217391304348,1,,,,,,,,,,,,
1622.8999999910593,,directmemory_phase4,2057051,,,,object_06b.png,,,51,,,1,,object_04b.png,object_07a.png,object_01b.png,object_01b.png,,0.9574468085106383,1,,,,,,,,,,,,
1317.9000000059605,,directmemory_phase4,2058372,,,,object_02c.png,,,50,,,1,,object_12a.png,object_15a.png,object_10b.png,object_15a.png,,0.9583333333333334,1,,,,,,,,,,,,
2225.199999988079,,directmemory_phase4,2060601,,,,object_12b.png,,,51,,,1,,object_15a.png,object_12a.png,object_02b.png,object_02b.png,,0.9591836734693877,1,,,,,,,,,,,,
2316.5,,directmemory_phase4,2062920,,,,object_03c.png,,,51,,,1,,object_02b.png,object_12a.png,object_05c.png,object_05c.png,,0.96,1,,,,,,,,,,,,
1898.5,,directmemory_phase4,2064821,,,,object_12a.png,,,51,,,1,,object_10c.png,object_05b.png,object_05a.png,object_05a.png,,0.9607843137254902,1,,,,,,,,,,,,
2079.6000000089407,,directmemory_phase4,2066904,,,,object_13a.png,,,49,,,1,,object_03a.png,object_01c.png,object_02a.png,object_03a.png,,0.9615384615384616,1,,,,,,,,,,,,
2209.2000000029802,,directmemory_phase4,2069116,,,,object_02a.png,,,50,,,1,,object_07a.png,object_04b.png,object_03a.png,object_04b.png,,0.9622641509433962,1,,,,,,,,,,,,
2598.3999999910593,,directmemory_phase4,2071717,,,,object_04a.png,,,50,,,1,,object_12b.png,object_06c.png,object_10b.png,object_06c.png,,0.9629629629629629,1,,,,,,,,,,,,
2065,,directmemory_phase4,2073784,,,,object_07b.png,,,50,,,1,,object_02c.png,object_14b.png,object_05a.png,object_14b.png,,0.9636363636363636,1,,,,,,,,,,,,
2196.4000000059605,,directmemory_phase4,2075983,,,,object_07a.png,,,50,,,1,,object_07b.png,object_11a.png,object_05c.png,object_11a.png,,0.9642857142857143,1,,,,,,,,,,,,
1638.6000000089407,,directmemory_phase4,2077625,,,,object_05b.png,,,49,,,1,,object_10c.png,object_05a.png,object_03c.png,object_10c.png,,0.9649122807017544,1,,,,,,,,,,,,
1238.6000000089407,,directmemory_phase4,2078866,,,,object_09a.png,,,50,,,1,,object_02a.png,object_08b.png,object_15a.png,object_08b.png,,0.9655172413793104,1,,,,,,,,,,,,
1860.7999999970198,,directmemory_phase4,2080729,,,,object_07c.png,,,51,,,1,,object_08b.png,object_07a.png,object_01c.png,object_01c.png,,0.9661016949152542,1,,,,,,,,,,,,
1463.0999999940395,,directmemory_phase4,2082195,,,,object_10a.png,,,50,,,1,,object_01a.png,object_14a.png,object_01c.png,object_14a.png,,0.9666666666666667,1,,,,,,,,,,,,
null,,thebreak,2082298,,,,<p></p>,,,null,,,,,,,,,,,,,,,,,,,,,,,
1527.2000000029802,,intro_0,2083827,,,,instruct,,,32,,,,,,,,,,,,,,,,,,,,,,,
null,,learn_phase(without_color)5,2087330,,,,black_plus_sign,,,null,object_08a.png,object_11a.png,,,,,,,,,,,,,,,,,,,,,
null,,black_cross(without_color)5,2087746,,,,blue,,,null,object_08a.png,object_11a.png,,,,,,,,,,,,,,,,,,,,,
null,,rt_plussign_withcolor5,2088249,,,,blue,,,null,object_08a.png,object_11a.png,,,,,,,,,,,,,,,,,,,,,
1476.5999999940395,,rt_thecrossant_black5,2089839,,,,black_plus_sign,,,49,,,1,,,,,,,1,,,,,,,,,,,,,
null,,color_black5,2089942,,,,black_plus_sign,,,null,,,,,,,,,,,,,,,,,,,,,,,
null,,learn_phase(without_color)5,2093445,,,,black_plus_sign,,,null,object_01b.png,object_12c.png,,,,,,,,,,,,,,,,,,,,,
null,,black_cross(without_color)5,2094026,,,,green,,,null,object_01b.png,object_12c.png,,,,,,,,,,,,,,,,,,,,,
null,,rt_plussign_withcolor5,2094528,,,,green,,,null,object_01b.png,object_12c.png,,,,,,,,,,,,,,,,,,,,,
1644,,rt_thecrossant_black5,2095953,,,,black_plus_sign,,,50,,,1,,,,,,,1,,,,,,,,,,,,,
null,,color_black5,2096057,,,,black_plus_sign,,,null,,,,,,,,,,,,,,,,,,,,,,,
null,,learn_phase(without_color)5,2099561,,,,black_plus_sign,,,null,object_05a.png,object_11c.png,,,,,,,,,,,,,,,,,,,,,
null,,black_cross(without_color)5,2100020,,,,blue,,,null,object_05a.png,object_11c.png,,,,,,,,,,,,,,,,,,,,,
null,,rt_plussign_withcolor5,2100522,,,,blue,,,null,object_05a.png,object_11c.png,,,,,,,,,,,,,,,,,,,,,
886.2000000029802,,rt_thecrossant_black5,2102071,,,,black_plus_sign,,,49,,,1,,,,,,,1,,,,,,,,,,,,,
null,,color_black5,2102174,,,,black_plus_sign,,,null,,,,,,,,,,,,,,,,,,,,,,,
null,,learn_phase(without_color)5,2105678,,,,black_plus_sign,,,null,object_09c.png,object_14b.png,,,,,,,,,,,,,,,,,,,,,
null,,black_cross(without_color)5,2106364,,,,green,,,null,object_09c.png,object_14b.png,,,,,,,,,,,,,,,,,,,,,
null,,rt_plussign_withcolor5,2106867,,,,green,,,null,object_09c.png,object_14b.png,,,,,,,,,,,,,,,,,,,,,
591.9000000059605,,rt_thecrossant_black5,2108187,,,,black_plus_sign,,,50,,,1,,,,,,,1,,,,,,,,,,,,,
null,,color_black5,2108289,,,,black_plus_sign,,,null,,,,,,,,,,,,,,,,,,,,,,,
null,,learn_phase(without_color)5,2111793,,,,black_plus_sign,,,null,object_15c.png,object_15a.png,,,,,,,,,,,,,,,,,,,,,
null,,black_cross(without_color)5,2112698,,,,green,,,null,object_15c.png,object_15a.png,,,,,,,,,,,,,,,,,,,,,
null,,rt_plussign_withcolor5,2113199,,,,green,,,null,object_15c.png,object_15a.png,,,,,,,,,,,,,,,,,,,,,
1129.699999988079,,rt_thecrossant_black5,2114301,,,,black_plus_sign,,,50,,,1,,,,,,,1,,,,,,,,,,,,,
null,,color_black5,2114405,,,,black_plus_sign,,,null,,,,,,,,,,,,,,,,,,,,,,,
null,,learn_phase(without_color)5,2117908,,,,black_plus_sign,,,null,object_05c.png,object_09b.png,,,,,,,,,,,,,,,,,,,,,
null,,black_cross(without_color)5,2118965,,,,green,,,null,object_05c.png,object_09b.png,,,,,,,,,,,,,,,,,,,,,
null,,rt_plussign_withcolor5,2119467,,,,green,,,null,object_05c.png,object_09b.png,,,,,,,,,,,,,,,,,,,,,
1400.300000011921,,rt_thecrossant_black5,2120417,,,,black_plus_sign,,,50,,,1,,,,,,,1,,,,,,,,,,,,,
null,,color_black5,2120520,,,,black_plus_sign,,,null,,,,,,,,,,,,,,,,,,,,,,,
null,,learn_phase(without_color)5,2124022,,,,black_plus_sign,,,null,object_14c.png,object_14a.png,,,,,,,,,,,,,,,,,,,,,
null,,black_cross(without_color)5,2124752,,,,blue,,,null,object_14c.png,object_14a.png,,,,,,,,,,,,,,,,,,,,,
null,,rt_plussign_withcolor5,2125255,,,,blue,,,null,object_14c.png,object_14a.png,,,,,,,,,,,,,,,,,,,,,
1302.6000000089407,,rt_thecrossant_black5,2126531,,,,black_plus_sign,,,49,,,1,,,,,,,1,,,,,,,,,,,,,
null,,color_black5,2126635,,,,black_plus_sign,,,null,,,,,,,,,,,,,,,,,,,,,,,
null,,learn_phase(without_color)5,2130139,,,,black_plus_sign,,,null,object_06a.png,object_10c.png,,,,,,,,,,,,,,,,,,,,,
null,,black_cross(without_color)5,2130598,,,,blue,,,null,object_06a.png,object_10c.png,,,,,,,,,,,,,,,,,,,,,
null,,rt_plussign_withcolor5,2131100,,,,blue,,,null,object_06a.png,object_10c.png,,,,,,,,,,,,,,,,,,,,,
1095.6000000089407,,rt_thecrossant_black5,2132646,,,,black_plus_sign,,,49,,,1,,,,,,,1,,,,,,,,,,,,,
null,,color_black5,2132749,,,,black_plus_sign,,,null,,,,,,,,,,,,,,,,,,,,,,,
null,,learn_phase(without_color)5,2136253,,,,black_plus_sign,,,null,object_15b.png,object_10b.png,,,,,,,,,,,,,,,,,,,,,
null,,black_cross(without_color)5,2136704,,,,blue,,,null,object_15b.png,object_10b.png,,,,,,,,,,,,,,,,,,,,,
null,,rt_plussign_withcolor5,2137206,,,,blue,,,null,object_15b.png,object_10b.png,,,,,,,,,,,,,,,,,,,,,
1233.2000000029802,,rt_thecrossant_black5,2138761,,,,black_plus_sign,,,49,,,1,,,,,,,1,,,,,,,,,,,,,
null,,color_black5,2138865,,,,black_plus_sign,,,null,,,,,,,,,,,,,,,,,,,,,,,
null,,learn_phase(without_color)5,2142369,,,,black_plus_sign,,,null,object_06c.png,object_11b.png,,,,,,,,,,,,,,,,,,,,,
null,,black_cross(without_color)5,2143293,,,,blue,,,null,object_06c.png,object_11b.png,,,,,,,,,,,,,,,,,,,,,
null,,rt_plussign_withcolor5,2143796,,,,blue,,,null,object_06c.png,object_11b.png,,,,,,,,,,,,,,,,,,,,,
850.1000000089407,,rt_thecrossant_black5,2144877,,,,black_plus_sign,,,49,,,1,,,,,,,1,,,,,,,,,,,,,
null,,color_black5,2144980,,,,black_plus_sign,,,null,,,,,,,,,,,,,,,,,,,,,,,
null,,learn_phase(without_color)5,2148484,,,,black_plus_sign,,,null,object_08b.png,object_13b.png,,,,,,,,,,,,,,,,,,,,,
null,,black_cross(without_color)5,2149013,,,,blue,,,null,object_08b.png,object_13b.png,,,,,,,,,,,,,,,,,,,,,
null,,rt_plussign_withcolor5,2149516,,,,blue,,,null,object_08b.png,object_13b.png,,,,,,,,,,,,,,,,,,,,,
null,,rt_thecrossant_black5,2150993,,,,black_plus_sign,,,null,,,,,,,,,,1,,,,,,,,,,,,,
null,,color_black5,2151097,,,,black_plus_sign,,,null,,,,,,,,,,,,,,,,,,,,,,,
null,,learn_phase(without_color)5,2154602,,,,black_plus_sign,,,null,object_03b.png,object_04b.png,,,,,,,,,,,,,,,,,,,,,
null,,black_cross(without_color)5,2155284,,,,blue,,,null,object_03b.png,object_04b.png,,,,,,,,,,,,,,,,,,,,,
null,,rt_plussign_withcolor5,2155786,,,,blue,,,null,object_03b.png,object_04b.png,,,,,,,,,,,,,,,,,,,,,
687.3000000119209,,rt_thecrossant_black5,2157110,,,,black_plus_sign,,,49,,,1,,,,,,,1,,,,,,,,,,,,,
null,,color_black5,2157213,,,,black_plus_sign,,,null,,,,,,,,,,,,,,,,,,,,,,,
null,,learn_phase(without_color)5,2160717,,,,black_plus_sign,,,null,object_13c.png,object_02b.png,,,,,,,,,,,,,,,,,,,,,
null,,black_cross(without_color)5,2161456,,,,blue,,,null,object_13c.png,object_02b.png,,,,,,,,,,,,,,,,,,,,,
null,,rt_plussign_withcolor5,2161958,,,,blue,,,null,object_13c.png,object_02b.png,,,,,,,,,,,,,,,,,,,,,
1145.7000000029802,,rt_thecrossant_black5,2163223,,,,black_plus_sign,,,49,,,1,,,,,,,1,,,,,,,,,,,,,
null,,color_black5,2163327,,,,black_plus_sign,,,null,,,,,,,,,,,,,,,,,,,,,,,
null,,learn_phase(without_color)5,2166831,,,,black_plus_sign,,,null,object_01c.png,object_04c.png,,,,,,,,,,,,,,,,,,,,,
null,,black_cross(without_color)5,2167419,,,,green,,,null,object_01c.png,object_04c.png,,,,,,,,,,,,,,,,,,,,,
null,,rt_plussign_withcolor5,2167922,,,,green,,,null,object_01c.png,object_04c.png,,,,,,,,,,,,,,,,,,,,,
1206,,rt_thecrossant_black5,2169340,,,,black_plus_sign,,,50,,,1,,,,,,,1,,,,,,,,,,,,,
null,,color_black5,2169444,,,,black_plus_sign,,,null,,,,,,,,,,,,,,,,,,,,,,,
null,,learn_phase(without_color)5,2172948,,,,black_plus_sign,,,null,object_08c.png,object_03a.png,,,,,,,,,,,,,,,,,,,,,
null,,black_cross(without_color)5,2173537,,,,green,,,null,object_08c.png,object_03a.png,,,,,,,,,,,,,,,,,,,,,
null,,rt_plussign_withcolor5,2174040,,,,green,,,null,object_08c.png,object_03a.png,,,,,,,,,,,,,,,,,,,,,
1244.5999999940395,,rt_thecrossant_black5,2175457,,,,black_plus_sign,,,50,,,1,,,,,,,1,,,,,,,,,,,,,
null,,color_black5,2175560,,,,black_plus_sign,,,null,,,,,,,,,,,,,,,,,,,,,,,
null,,thebreak,2175665,,,,<p></p>,,,null,,,,,,,,,,,,,,,,,,,,,,,
898.9000000059605,,intro_0,2176565,,,,instruct,,,32,,,,,,,,,,,,,,,,,,,,,,,
5608.79999999702,,directmemory_phase5,2182175,,,,object_03b.png,,,50,,,0,,object_04b.png,object_02b.png,object_08a.png,object_04b.png,,0.9508196721311475,0,,,,,,,,,,,,
4334,,directmemory_phase5,2186511,,,,object_08b.png,,,49,,,0,,object_12c.png,object_14b.png,object_13b.png,object_13b.png,,0.9354838709677419,0,,,,,,,,,,,,
7214.699999988079,,directmemory_phase5,2193729,,,,object_09b.png,,,51,,,1,,object_15a.png,object_11b.png,object_05c.png,object_05c.png,,0.9365079365079365,1,,,,,,,,,,,,
2602.2000000029802,,directmemory_phase5,2196333,,,,object_11c.png,,,50,,,1,,object_13c.png,object_05a.png,object_05c.png,object_05a.png,,0.9375,1,,,,,,,,,,,,
2464.5,,directmemory_phase5,2198801,,,,object_08a.png,,,49,,,1,,object_11a.png,object_15a.png,object_11b.png,object_11a.png,,0.9384615384615385,1,,,,,,,,,,,,
8217.90000000596,,directmemory_phase5,2207022,,,,object_10b.png,,,51,,,0,,object_14b.png,object_15b.png,object_12c.png,object_15b.png,,0.9242424242424242,0,,,,,,,,,,,,
4414.5999999940395,,directmemory_phase5,2211438,,,,object_06c.png,,,50,,,1,,object_01c.png,object_11b.png,object_08c.png,object_11b.png,,0.9253731343283582,1,,,,,,,,,,,,
3384.1000000089407,,directmemory_phase5,2214824,,,,object_12c.png,,,51,,,1,,object_03a.png,object_11c.png,object_01b.png,object_01b.png,,0.9264705882352942,1,,,,,,,,,,,,
1683.6000000089407,,directmemory_phase5,2216510,,,,object_10c.png,,,49,,,1,,object_06a.png,object_09c.png,object_05c.png,object_06a.png,,0.927536231884058,1,,,,,,,,,,,,
2680.5999999940395,,directmemory_phase5,2219193,,,,object_15a.png,,,49,,,1,,object_15c.png,object_12c.png,object_05c.png,object_15c.png,,0.9285714285714286,1,,,,,,,,,,,,
3026.2000000029802,,directmemory_phase5,2222222,,,,object_08c.png,,,50,,,0,,object_01b.png,object_15b.png,object_03a.png,object_03a.png,,0.9154929577464789,0,,,,,,,,,,,,
2523,,directmemory_phase5,2224747,,,,object_14a.png,,,50,,,0,,object_14c.png,object_15c.png,object_14b.png,object_14c.png,,0.9027777777777778,0,,,,,,,,,,,,
3847.1000000089407,,directmemory_phase5,2228597,,,,object_09c.png,,,49,,,1,,object_14b.png,object_05c.png,object_08c.png,object_14b.png,,0.9041095890410958,1,,,,,,,,,,,,
3546,,directmemory_phase5,2232145,,,,object_13c.png,,,50,,,0,,object_02b.png,object_08b.png,object_12c.png,object_02b.png,,0.8918918918918919,0,,,,,,,,,,,,
6472.79999999702,,directmemory_phase5,2238620,,,,object_04c.png,,,51,,,0,,object_08c.png,object_01c.png,object_10c.png,object_01c.png,,0.88,0,,,,,,,,,,,,
null,,thebreak,2238722,,,,<p></p>,,,null,,,,,,,,,,,,,,,,,,,,,,,
787,,intro_0,2239511,,,,instruct,,,32,,,,,,,,,,,,,,,,,,,,,,,
null,,learn_phase(without_color)6,2243013,,,,black_plus_sign,,,null,object_10b.png,object_15b.png,,,,,,,,,,,,,,,,,,,,,
null,,black_cross(without_color)6,2243555,,,,green,,,null,object_10b.png,object_15b.png,,,,,,,,,,,,,,,,,,,,,
null,,rt_plussign_withcolor6,2244057,,,,green,,,null,object_10b.png,object_15b.png,,,,,,,,,,,,,,,,,,,,,
1065.300000011921,,rt_thecrossant_black6,2245522,,,,black_plus_sign,,,50,,,1,,,,,,,1,,,,,,,,,,,,,
null,,color_black6,2245625,,,,black_plus_sign,,,null,,,,,,,,,,,,,,,,,,,,,,,
null,,learn_phase(without_color)6,2249129,,,,black_plus_sign,,,null,object_08a.png,object_11a.png,,,,,,,,,,,,,,,,,,,,,
null,,black_cross(without_color)6,2249632,,,,green,,,null,object_08a.png,object_11a.png,,,,,,,,,,,,,,,,,,,,,
null,,rt_plussign_withcolor6,2250134,,,,green,,,null,object_08a.png,object_11a.png,,,,,,,,,,,,,,,,,,,,,
816.0999999940395,,rt_thecrossant_black6,2251638,,,,black_plus_sign,,,50,,,1,,,,,,,1,,,,,,,,,,,,,
null,,color_black6,2251742,,,,black_plus_sign,,,null,,,,,,,,,,,,,,,,,,,,,,,
null,,learn_phase(without_color)6,2255246,,,,black_plus_sign,,,null,object_06a.png,object_10c.png,,,,,,,,,,,,,,,,,,,,,
null,,black_cross(without_color)6,2255708,,,,green,,,null,object_06a.png,object_10c.png,,,,,,,,,,,,,,,,,,,,,
null,,rt_plussign_withcolor6,2256210,,,,green,,,null,object_06a.png,object_10c.png,,,,,,,,,,,,,,,,,,,,,
823.6000000089407,,rt_thecrossant_black6,2257755,,,,black_plus_sign,,,50,,,1,,,,,,,1,,,,,,,,,,,,,
null,,color_black6,2257858,,,,black_plus_sign,,,null,,,,,,,,,,,,,,,,,,,,,,,
null,,learn_phase(without_color)6,2261362,,,,black_plus_sign,,,null,object_14a.png,object_14c.png,,,,,,,,,,,,,,,,,,,,,
null,,black_cross(without_color)6,2261912,,,,blue,,,null,object_14a.png,object_14c.png,,,,,,,,,,,,,,,,,,,,,
null,,rt_plussign_withcolor6,2262414,,,,blue,,,null,object_14a.png,object_14c.png,,,,,,,,,,,,,,,,,,,,,
996.5,,rt_thecrossant_black6,2263870,,,,black_plus_sign,,,49,,,1,,,,,,,1,,,,,,,,,,,,,
null,,color_black6,2263973,,,,black_plus_sign,,,null,,,,,,,,,,,,,,,,,,,,,,,
null,,learn_phase(without_color)6,2267477,,,,black_plus_sign,,,null,object_02b.png,object_13c.png,,,,,,,,,,,,,,,,,,,,,
null,,black_cross(without_color)6,2268431,,,,blue,,,null,object_02b.png,object_13c.png,,,,,,,,,,,,,,,,,,,,,
null,,rt_plussign_withcolor6,2268933,,,,blue,,,null,object_02b.png,object_13c.png,,,,,,,,,,,,,,,,,,,,,
904.6000000089407,,rt_thecrossant_black6,2269984,,,,black_plus_sign,,,50,,,0,,,,,,,0.8,,,,,,,,,,,,,
null,,color_black6,2270086,,,,black_plus_sign,,,null,,,,,,,,,,,,,,,,,,,,,,,
null,,learn_phase(without_color)6,2273590,,,,black_plus_sign,,,null,object_11b.png,object_06c.png,,,,,,,,,,,,,,,,,,,,,
null,,black_cross(without_color)6,2274162,,,,blue,,,null,object_11b.png,object_06c.png,,,,,,,,,,,,,,,,,,,,,
null,,rt_plussign_withcolor6,2274664,,,,blue,,,null,object_11b.png,object_06c.png,,,,,,,,,,,,,,,,,,,,,
1738.7999999970198,,rt_thecrossant_black6,2276099,,,,black_plus_sign,,,49,,,1,,,,,,,0.8333333333333334,,,,,,,,,,,,,
null,,color_black6,2276201,,,,black_plus_sign,,,null,,,,,,,,,,,,,,,,,,,,,,,
null,,learn_phase(without_color)6,2279705,,,,black_plus_sign,,,null,object_12c.png,object_01b.png,,,,,,,,,,,,,,,,,,,,,
null,,black_cross(without_color)6,2280588,,,,blue,,,null,object_12c.png,object_01b.png,,,,,,,,,,,,,,,,,,,,,
null,,rt_plussign_withcolor6,2281090,,,,blue,,,null,object_12c.png,object_01b.png,,,,,,,,,,,,,,,,,,,,,
850.9000000059605,,rt_thecrossant_black6,2282212,,,,black_plus_sign,,,49,,,1,,,,,,,0.8571428571428571,,,,,,,,,,,,,
null,,color_black6,2282316,,,,black_plus_sign,,,null,,,,,,,,,,,,,,,,,,,,,,,
null,,learn_phase(without_color)6,2285820,,,,black_plus_sign,,,null,object_09b.png,object_05c.png,,,,,,,,,,,,,,,,,,,,,
null,,black_cross(without_color)6,2286713,,,,green,,,null,object_09b.png,object_05c.png,,,,,,,,,,,,,,,,,,,,,
null,,rt_plussign_withcolor6,2287217,,,,green,,,null,object_09b.png,object_05c.png,,,,,,,,,,,,,,,,,,,,,
null,,rt_thecrossant_black6,2288330,,,,black_plus_sign,,,null,,,,,,,,,,0.8571428571428571,,,,,,,,,,,,,
null,,color_black6,2288433,,,,black_plus_sign,,,null,,,,,,,,,,,,,,,,,,,,,,,
null,,learn_phase(without_color)6,2291938,,,,black_plus_sign,,,null,object_04c.png,object_01c.png,,,,,,,,,,,,,,,,,,,,,
null,,black_cross(without_color)6,2292379,,,,green,,,null,object_04c.png,object_01c.png,,,,,,,,,,,,,,,,,,,,,
null,,rt_plussign_withcolor6,2292882,,,,green,,,null,object_04c.png,object_01c.png,,,,,,,,,,,,,,,,,,,,,
1159.4000000059605,,rt_thecrossant_black6,2294447,,,,black_plus_sign,,,50,,,1,,,,,,,0.875,,,,,,,,,,,,,
null,,color_black6,2294550,,,,black_plus_sign,,,null,,,,,,,,,,,,,,,,,,,,,,,
null,,learn_phase(without_color)6,2298055,,,,black_plus_sign,,,null,object_05a.png,object_11c.png,,,,,,,,,,,,,,,,,,,,,
null,,black_cross(without_color)6,2298458,,,,blue,,,null,object_05a.png,object_11c.png,,,,,,,,,,,,,,,,,,,,,
null,,rt_plussign_withcolor6,2298961,,,,blue,,,null,object_05a.png,object_11c.png,,,,,,,,,,,,,,,,,,,,,
880.9000000059605,,rt_thecrossant_black6,2300565,,,,black_plus_sign,,,49,,,1,,,,,,,0.8888888888888888,,,,,,,,,,,,,
null,,color_black6,2300668,,,,black_plus_sign,,,null,,,,,,,,,,,,,,,,,,,,,,,
null,,learn_phase(without_color)6,2304170,,,,black_plus_sign,,,null,object_03b.png,object_04b.png,,,,,,,,,,,,,,,,,,,,,
null,,black_cross(without_color)6,2305103,,,,green,,,null,object_03b.png,object_04b.png,,,,,,,,,,,,,,,,,,,,,
null,,rt_plussign_withcolor6,2305605,,,,green,,,null,object_03b.png,object_04b.png,,,,,,,,,,,,,,,,,,,,,
525.2000000029802,,rt_thecrossant_black6,2306678,,,,black_plus_sign,,,50,,,1,,,,,,,0.9,,,,,,,,,,,,,
null,,color_black6,2306780,,,,black_plus_sign,,,null,,,,,,,,,,,,,,,,,,,,,,,
null,,learn_phase(without_color)6,2310284,,,,black_plus_sign,,,null,object_08b.png,object_13b.png,,,,,,,,,,,,,,,,,,,,,
null,,black_cross(without_color)6,2310759,,,,blue,,,null,object_08b.png,object_13b.png,,,,,,,,,,,,,,,,,,,,,
null,,rt_plussign_withcolor6,2311262,,,,blue,,,null,object_08b.png,object_13b.png,,,,,,,,,,,,,,,,,,,,,
1258.7000000029802,,rt_thecrossant_black6,2312793,,,,black_plus_sign,,,49,,,1,,,,,,,0.9090909090909091,,,,,,,,,,,,,
null,,color_black6,2312896,,,,black_plus_sign,,,null,,,,,,,,,,,,,,,,,,,,,,,
null,,learn_phase(without_color)6,2316401,,,,black_plus_sign,,,null,object_09c.png,object_14b.png,,,,,,,,,,,,,,,,,,,,,
null,,black_cross(without_color)6,2317213,,,,green,,,null,object_09c.png,object_14b.png,,,,,,,,,,,,,,,,,,,,,
null,,rt_plussign_withcolor6,2317715,,,,green,,,null,object_09c.png,object_14b.png,,,,,,,,,,,,,,,,,,,,,
1341.6000000089407,,rt_thecrossant_black6,2318910,,,,black_plus_sign,,,50,,,1,,,,,,,0.9166666666666666,,,,,,,,,,,,,
null,,color_black6,2319013,,,,black_plus_sign,,,null,,,,,,,,,,,,,,,,,,,,,,,
null,,learn_phase(without_color)6,2322517,,,,black_plus_sign,,,null,object_15c.png,object_15a.png,,,,,,,,,,,,,,,,,,,,,
null,,black_cross(without_color)6,2323491,,,,green,,,null,object_15c.png,object_15a.png,,,,,,,,,,,,,,,,,,,,,
null,,rt_plussign_withcolor6,2323993,,,,green,,,null,object_15c.png,object_15a.png,,,,,,,,,,,,,,,,,,,,,
931.5,,rt_thecrossant_black6,2325026,,,,black_plus_sign,,,50,,,1,,,,,,,0.9230769230769231,,,,,,,,,,,,,
null,,color_black6,2325130,,,,black_plus_sign,,,null,,,,,,,,,,,,,,,,,,,,,,,
null,,learn_phase(without_color)6,2328634,,,,black_plus_sign,,,null,object_03a.png,object_08c.png,,,,,,,,,,,,,,,,,,,,,
null,,black_cross(without_color)6,2329371,,,,green,,,null,object_03a.png,object_08c.png,,,,,,,,,,,,,,,,,,,,,
null,,rt_plussign_withcolor6,2329874,,,,green,,,null,object_03a.png,object_08c.png,,,,,,,,,,,,,,,,,,,,,
1459.800000011921,,rt_thecrossant_black6,2331144,,,,black_plus_sign,,,50,,,1,,,,,,,0.9285714285714286,,,,,,,,,,,,,
null,,color_black6,2331248,,,,black_plus_sign,,,null,,,,,,,,,,,,,,,,,,,,,,,
null,,thebreak,2331352,,,,<p></p>,,,null,,,,,,,,,,,,,,,,,,,,,,,
59387.70000000298,,intro_0,2390739,,,,instruct,,,32,,,,,,,,,,,,,,,,,,,,,,,
2307.2000000029802,,directmemory_phase6,2393048,,,,object_11c.png,,,50,,,1,,object_13c.png,object_05a.png,object_01b.png,object_05a.png,,0.881578947368421,1,,,,,,,,,,,,
2754.3999999910593,,directmemory_phase6,2395805,,,,object_10c.png,,,51,,,1,,object_12c.png,object_11a.png,object_06a.png,object_06a.png,,0.8831168831168831,1,,,,,,,,,,,,
5363.9000000059605,,directmemory_phase6,2401171,,,,object_05c.png,,,49,,,1,,object_09b.png,object_06a.png,object_06c.png,object_09b.png,,0.8846153846153846,1,,,,,,,,,,,,
2055,,directmemory_phase6,2403228,,,,object_04b.png,,,50,,,1,,object_15a.png,object_03b.png,object_11b.png,object_03b.png,,0.8860759493670886,1,,,,,,,,,,,,
2753.800000011921,,directmemory_phase6,2405985,,,,object_15b.png,,,49,,,1,,object_10b.png,object_10c.png,object_11b.png,object_10b.png,,0.8875,1,,,,,,,,,,,,
6222.5,,directmemory_phase6,2412210,,,,object_03a.png,,,50,,,1,,object_01c.png,object_08c.png,object_15b.png,object_08c.png,,0.8888888888888888,1,,,,,,,,,,,,
1195.7000000029802,,directmemory_phase6,2413409,,,,object_08a.png,,,51,,,1,,object_10c.png,object_13c.png,object_11a.png,object_11a.png,,0.8902439024390244,1,,,,,,,,,,,,
5125.70000000298,,directmemory_phase6,2418537,,,,object_13c.png,,,51,,,1,,object_15a.png,object_11b.png,object_02b.png,object_02b.png,,0.891566265060241,1,,,,,,,,,,,,
null,,directmemory_phase6,2433539,,,,object_01c.png,,,null,,,0,,object_03b.png,object_05a.png,object_04c.png,object_04c.png,,0.8809523809523809,0,,,,,,,,,,,,
null,,warning_page,2438543,,,,warning,,,null,,,,,,,,,,,,,,,,,,,,,,,
4383.20000000298,,directmemory_phase6,2442949,,,,object_14c.png,,,50,,,0,,object_14a.png,object_01b.png,object_11c.png,object_14a.png,,0.8705882352941177,0,,,,,,,,,,,,
1897.2999999970198,,directmemory_phase6,2444849,,,,object_08b.png,,,49,,,1,,object_13b.png,object_12c.png,object_11a.png,object_13b.png,,0.872093023255814,1,,,,,,,,,,,,
2902.5,,directmemory_phase6,2447755,,,,object_12c.png,,,51,,,0,,object_01b.png,object_03a.png,object_15b.png,object_01b.png,,0.8620689655172413,0,,,,,,,,,,,,
1147.6000000089407,,directmemory_phase6,2448905,,,,object_09c.png,,,50,,,0,,object_14b.png,object_15a.png,object_03b.png,object_14b.png,,0.8522727272727273,0,,,,,,,,,,,,
4748.100000008941,,directmemory_phase6,2453655,,,,object_11b.png,,,49,,,1,,object_06c.png,object_08b.png,object_11c.png,object_06c.png,,0.8539325842696629,1,,,,,,,,,,,,
1195.9000000059605,,directmemory_phase6,2454854,,,,object_15c.png,,,50,,,1,,object_09b.png,object_15a.png,object_01b.png,object_15a.png,,0.8555555555555555,1,,,,,,,,,,,,
null,,thebreak,2454957,,,,<p></p>,,,null,,,,,,,,,,,,,,,,,,,,,,,
1315.4000000059605,,intro_0,2456275,,,,instruct,,,32,,,,,,,,,,,,,,,,,,,,,,,
null,,learn_phase(without_color)7,2459778,,,,black_plus_sign,,,null,object_10c.png,object_06a.png,,,,,,,,,,,,,,,,,,,,,
null,,black_cross(without_color)7,2460685,,,,green,,,null,object_10c.png,object_06a.png,,,,,,,,,,,,,,,,,,,,,
null,,rt_plussign_withcolor7,2461188,,,,green,,,null,object_10c.png,object_06a.png,,,,,,,,,,,,,,,,,,,,,
1267.1000000089407,,rt_thecrossant_black7,2462288,,,,black_plus_sign,,,50,,,1,,,,,,,1,,,,,,,,,,,,,
null,,color_black7,2462391,,,,black_plus_sign,,,null,,,,,,,,,,,,,,,,,,,,,,,
null,,learn_phase(without_color)7,2465894,,,,black_plus_sign,,,null,object_13c.png,object_02b.png,,,,,,,,,,,,,,,,,,,,,
null,,black_cross(without_color)7,2466856,,,,blue,,,null,object_13c.png,object_02b.png,,,,,,,,,,,,,,,,,,,,,
null,,rt_plussign_withcolor7,2467358,,,,blue,,,null,object_13c.png,object_02b.png,,,,,,,,,,,,,,,,,,,,,
1069.5,,rt_thecrossant_black7,2468405,,,,black_plus_sign,,,49,,,1,,,,,,,1,,,,,,,,,,,,,
null,,color_black7,2468508,,,,black_plus_sign,,,null,,,,,,,,,,,,,,,,,,,,,,,
null,,learn_phase(without_color)7,2472011,,,,black_plus_sign,,,null,object_15c.png,object_15a.png,,,,,,,,,,,,,,,,,,,,,
null,,black_cross(without_color)7,2472601,,,,blue,,,null,object_15c.png,object_15a.png,,,,,,,,,,,,,,,,,,,,,
null,,rt_plussign_withcolor7,2473104,,,,blue,,,null,object_15c.png,object_15a.png,,,,,,,,,,,,,,,,,,,,,
1569.300000011921,,rt_thecrossant_black7,2474520,,,,black_plus_sign,,,49,,,1,,,,,,,1,,,,,,,,,,,,,
null,,color_black7,2474624,,,,black_plus_sign,,,null,,,,,,,,,,,,,,,,,,,,,,,
null,,learn_phase(without_color)7,2478128,,,,black_plus_sign,,,null,object_15b.png,object_10b.png,,,,,,,,,,,,,,,,,,,,,
null,,black_cross(without_color)7,2478747,,,,green,,,null,object_15b.png,object_10b.png,,,,,,,,,,,,,,,,,,,,,
null,,rt_plussign_withcolor7,2479250,,,,green,,,null,object_15b.png,object_10b.png,,,,,,,,,,,,,,,,,,,,,
1308,,rt_thecrossant_black7,2480638,,,,black_plus_sign,,,50,,,1,,,,,,,1,,,,,,,,,,,,,
null,,color_black7,2480741,,,,black_plus_sign,,,null,,,,,,,,,,,,,,,,,,,,,,,
null,,learn_phase(without_color)7,2484244,,,,black_plus_sign,,,null,object_04c.png,object_01c.png,,,,,,,,,,,,,,,,,,,,,
null,,black_cross(without_color)7,2484939,,,,green,,,null,object_04c.png,object_01c.png,,,,,,,,,,,,,,,,,,,,,
null,,rt_plussign_withcolor7,2485441,,,,green,,,null,object_04c.png,object_01c.png,,,,,,,,,,,,,,,,,,,,,
1239.5999999940395,,rt_thecrossant_black7,2486753,,,,black_plus_sign,,,50,,,1,,,,,,,1,,,,,,,,,,,,,
null,,color_black7,2486857,,,,black_plus_sign,,,null,,,,,,,,,,,,,,,,,,,,,,,
null,,learn_phase(without_color)7,2490361,,,,black_plus_sign,,,null,object_04b.png,object_03b.png,,,,,,,,,,,,,,,,,,,,,
null,,black_cross(without_color)7,2490905,,,,green,,,null,object_04b.png,object_03b.png,,,,,,,,,,,,,,,,,,,,,
null,,rt_plussign_withcolor7,2491408,,,,green,,,null,object_04b.png,object_03b.png,,,,,,,,,,,,,,,,,,,,,
1128.5,,rt_thecrossant_black7,2492870,,,,black_plus_sign,,,50,,,1,,,,,,,1,,,,,,,,,,,,,
null,,color_black7,2492974,,,,black_plus_sign,,,null,,,,,,,,,,,,,,,,,,,,,,,
null,,learn_phase(without_color)7,2496479,,,,black_plus_sign,,,null,object_11c.png,object_05a.png,,,,,,,,,,,,,,,,,,,,,
null,,black_cross(without_color)7,2497269,,,,blue,,,null,object_11c.png,object_05a.png,,,,,,,,,,,,,,,,,,,,,
null,,rt_plussign_withcolor7,2497772,,,,blue,,,null,object_11c.png,object_05a.png,,,,,,,,,,,,,,,,,,,,,
749,,rt_thecrossant_black7,2498988,,,,black_plus_sign,,,50,,,0,,,,,,,0.8571428571428571,,,,,,,,,,,,,
null,,color_black7,2499092,,,,black_plus_sign,,,null,,,,,,,,,,,,,,,,,,,,,,,
null,,learn_phase(without_color)7,2502597,,,,black_plus_sign,,,null,object_08a.png,object_11a.png,,,,,,,,,,,,,,,,,,,,,
null,,black_cross(without_color)7,2503099,,,,blue,,,null,object_08a.png,object_11a.png,,,,,,,,,,,,,,,,,,,,,
null,,rt_plussign_withcolor7,2503603,,,,blue,,,null,object_08a.png,object_11a.png,,,,,,,,,,,,,,,,,,,,,
1608.7999999970198,,rt_thecrossant_black7,2505107,,,,black_plus_sign,,,49,,,1,,,,,,,0.875,,,,,,,,,,,,,
null,,color_black7,2505210,,,,black_plus_sign,,,null,,,,,,,,,,,,,,,,,,,,,,,
null,,learn_phase(without_color)7,2508713,,,,black_plus_sign,,,null,object_08b.png,object_13b.png,,,,,,,,,,,,,,,,,,,,,
null,,black_cross(without_color)7,2509267,,,,blue,,,null,object_08b.png,object_13b.png,,,,,,,,,,,,,,,,,,,,,
null,,rt_plussign_withcolor7,2509770,,,,blue,,,null,object_08b.png,object_13b.png,,,,,,,,,,,,,,,,,,,,,
755.5,,rt_thecrossant_black7,2511223,,,,black_plus_sign,,,49,,,1,,,,,,,0.8888888888888888,,,,,,,,,,,,,
null,,color_black7,2511327,,,,black_plus_sign,,,null,,,,,,,,,,,,,,,,,,,,,,,
null,,learn_phase(without_color)7,2514831,,,,black_plus_sign,,,null,object_09c.png,object_14b.png,,,,,,,,,,,,,,,,,,,,,
null,,black_cross(without_color)7,2515553,,,,blue,,,null,object_09c.png,object_14b.png,,,,,,,,,,,,,,,,,,,,,
null,,rt_plussign_withcolor7,2516056,,,,blue,,,null,object_09c.png,object_14b.png,,,,,,,,,,,,,,,,,,,,,
null,,rt_thecrossant_black7,2517338,,,,black_plus_sign,,,null,,,,,,,,,,0.8888888888888888,,,,,,,,,,,,,
null,,warning_page,2522342,,,,warning,,,null,,,,,,,,,,,,,,,,,,,,,,,
null,,color_black7,2522456,,,,black_plus_sign,,,null,,,,,,,,,,,,,,,,,,,,,,,
null,,learn_phase(without_color)7,2525961,,,,black_plus_sign,,,null,object_01b.png,object_12c.png,,,,,,,,,,,,,,,,,,,,,
null,,black_cross(without_color)7,2526780,,,,green,,,null,object_01b.png,object_12c.png,,,,,,,,,,,,,,,,,,,,,
null,,rt_plussign_withcolor7,2527282,,,,green,,,null,object_01b.png,object_12c.png,,,,,,,,,,,,,,,,,,,,,
1629.2999999970198,,rt_thecrossant_black7,2528470,,,,black_plus_sign,,,50,,,1,,,,,,,0.9,,,,,,,,,,,,,
null,,color_black7,2528573,,,,black_plus_sign,,,null,,,,,,,,,,,,,,,,,,,,,,,
null,,learn_phase(without_color)7,2532076,,,,black_plus_sign,,,null,object_09b.png,object_05c.png,,,,,,,,,,,,,,,,,,,,,
null,,black_cross(without_color)7,2532941,,,,blue,,,null,object_09b.png,object_05c.png,,,,,,,,,,,,,,,,,,,,,
null,,rt_plussign_withcolor7,2533443,,,,blue,,,null,object_09b.png,object_05c.png,,,,,,,,,,,,,,,,,,,,,
1381.5,,rt_thecrossant_black7,2534583,,,,black_plus_sign,,,49,,,1,,,,,,,0.9090909090909091,,,,,,,,,,,,,
null,,color_black7,2534685,,,,black_plus_sign,,,null,,,,,,,,,,,,,,,,,,,,,,,
null,,learn_phase(without_color)7,2538189,,,,black_plus_sign,,,null,object_08c.png,object_03a.png,,,,,,,,,,,,,,,,,,,,,
null,,black_cross(without_color)7,2538732,,,,blue,,,null,object_08c.png,object_03a.png,,,,,,,,,,,,,,,,,,,,,
null,,rt_plussign_withcolor7,2539234,,,,blue,,,null,object_08c.png,object_03a.png,,,,,,,,,,,,,,,,,,,,,
1153.7000000029802,,rt_thecrossant_black7,2540698,,,,black_plus_sign,,,49,,,1,,,,,,,0.9166666666666666,,,,,,,,,,,,,
null,,color_black7,2540801,,,,black_plus_sign,,,null,,,,,,,,,,,,,,,,,,,,,,,
null,,learn_phase(without_color)7,2544304,,,,black_plus_sign,,,null,object_11b.png,object_06c.png,,,,,,,,,,,,,,,,,,,,,
null,,black_cross(without_color)7,2544726,,,,blue,,,null,object_11b.png,object_06c.png,,,,,,,,,,,,,,,,,,,,,
null,,rt_plussign_withcolor7,2545229,,,,blue,,,null,object_11b.png,object_06c.png,,,,,,,,,,,,,,,,,,,,,
788.7999999970198,,rt_thecrossant_black7,2546815,,,,black_plus_sign,,,49,,,1,,,,,,,0.9230769230769231,,,,,,,,,,,,,
null,,color_black7,2546919,,,,black_plus_sign,,,null,,,,,,,,,,,,,,,,,,,,,,,
null,,learn_phase(without_color)7,2550423,,,,black_plus_sign,,,null,object_14a.png,object_14c.png,,,,,,,,,,,,,,,,,,,,,
null,,black_cross(without_color)7,2550985,,,,blue,,,null,object_14a.png,object_14c.png,,,,,,,,,,,,,,,,,,,,,
null,,rt_plussign_withcolor7,2551489,,,,blue,,,null,object_14a.png,object_14c.png,,,,,,,,,,,,,,,,,,,,,
850.7999999970198,,rt_thecrossant_black7,2552935,,,,black_plus_sign,,,49,,,1,,,,,,,0.9285714285714286,,,,,,,,,,,,,
null,,color_black7,2553038,,,,black_plus_sign,,,null,,,,,,,,,,,,,,,,,,,,,,,
null,,thebreak,2553143,,,,<p></p>,,,null,,,,,,,,,,,,,,,,,,,,,,,
23171.09999999404,,intro_0,2576315,,,,instruct,,,32,,,,,,,,,,,,,,,,,,,,,,,
5353,,directmemory_phase7,2581670,,,,object_10b.png,,,51,,,1,,object_11b.png,object_15a.png,object_15b.png,object_15b.png,,0.8571428571428571,1,,,,,,,,,,,,
4886.300000011921,,directmemory_phase7,2586563,,,,object_06c.png,,,51,,,1,,object_13b.png,object_01c.png,object_11b.png,object_11b.png,,0.8586956521739131,1,,,,,,,,,,,,
1053,,directmemory_phase7,2587620,,,,object_11c.png,,,50,,,1,,object_13c.png,object_05a.png,object_03a.png,object_05a.png,,0.8602150537634409,1,,,,,,,,,,,,
4421.9000000059605,,directmemory_phase7,2592049,,,,object_01c.png,,,49,,,0,,object_15a.png,object_04c.png,object_03b.png,object_04c.png,,0.851063829787234,0,,,,,,,,,,,,
4060.3999999910593,,directmemory_phase7,2596116,,,,object_14b.png,,,49,,,1,,object_09c.png,object_13b.png,object_10c.png,object_09c.png,,0.8526315789473684,1,,,,,,,,,,,,
1247.5,,directmemory_phase7,2597367,,,,object_02b.png,,,50,,,1,,object_15a.png,object_13c.png,object_15b.png,object_13c.png,,0.8541666666666666,1,,,,,,,,,,,,
3610.300000011921,,directmemory_phase7,2600981,,,,object_12c.png,,,50,,,1,,object_09c.png,object_01b.png,object_10c.png,object_01b.png,,0.8556701030927835,1,,,,,,,,,,,,
1652.4000000059605,,directmemory_phase7,2602637,,,,object_06a.png,,,50,,,1,,object_03b.png,object_10c.png,object_05a.png,object_10c.png,,0.8571428571428571,1,,,,,,,,,,,,
1759.4000000059605,,directmemory_phase7,2604400,,,,object_11a.png,,,51,,,1,,object_08c.png,object_05c.png,object_08a.png,object_08a.png,,0.8585858585858586,1,,,,,,,,,,,,
1489.8999999910593,,directmemory_phase7,2605894,,,,object_15a.png,,,50,,,1,,object_02b.png,object_15c.png,object_11b.png,object_15c.png,,0.86,1,,,,,,,,,,,,
1261.8999999910593,,directmemory_phase7,2607159,,,,object_08b.png,,,50,,,1,,object_11a.png,object_13b.png,object_15c.png,object_13b.png,,0.8613861386138614,1,,,,,,,,,,,,
1884.699999988079,,directmemory_phase7,2609047,,,,object_04b.png,,,50,,,1,,object_03a.png,object_03b.png,object_11c.png,object_03b.png,,0.8627450980392157,1,,,,,,,,,,,,
5061.399999991059,,directmemory_phase7,2614113,,,,object_03a.png,,,49,,,1,,object_08c.png,object_04c.png,object_10c.png,object_08c.png,,0.8640776699029126,1,,,,,,,,,,,,
4566.20000000298,,directmemory_phase7,2618682,,,,object_14a.png,,,51,,,1,,object_08c.png,object_04b.png,object_14c.png,object_14c.png,,0.8653846153846154,1,,,,,,,,,,,,
null,,directmemory_phase7,2633687,,,,object_05c.png,,,null,,,0,,object_15c.png,object_01c.png,object_09b.png,object_09b.png,,0.8571428571428571,0,,,,,,,,,,,,
null,,warning_page,2638692,,,,warning,,,null,,,,,,,,,,,,,,,,,,,,,,,
null,,thebreak,2638813,,,,<p></p>,,,null,,,,,,,,,,,,,,,,,,,,,,,
787.5,,intro_0,2639602,,,,instruct,,,32,,,,,,,,,,,,,,,,,,,,,,,
null,,learn_phase(without_color)8,2643104,,,,black_plus_sign,,,null,object_14a.png,object_14c.png,,,,,,,,,,,,,,,,,,,,,
null,,black_cross(without_color)8,2643810,,,,green,,,null,object_14a.png,object_14c.png,,,,,,,,,,,,,,,,,,,,,
null,,rt_plussign_withcolor8,2644313,,,,green,,,null,object_14a.png,object_14c.png,,,,,,,,,,,,,,,,,,,,,
944.3999999910593,,rt_thecrossant_black8,2645615,,,,black_plus_sign,,,50,,,1,,,,,,,1,,,,,,,,,,,,,
null,,color_black8,2645719,,,,black_plus_sign,,,null,,,,,,,,,,,,,,,,,,,,,,,
null,,learn_phase(without_color)8,2649223,,,,black_plus_sign,,,null,object_01b.png,object_12c.png,,,,,,,,,,,,,,,,,,,,,
null,,black_cross(without_color)8,2649789,,,,blue,,,null,object_01b.png,object_12c.png,,,,,,,,,,,,,,,,,,,,,
null,,rt_plussign_withcolor8,2650292,,,,blue,,,null,object_01b.png,object_12c.png,,,,,,,,,,,,,,,,,,,,,
1311.4000000059605,,rt_thecrossant_black8,2651733,,,,black_plus_sign,,,49,,,1,,,,,,,1,,,,,,,,,,,,,
null,,color_black8,2651837,,,,black_plus_sign,,,null,,,,,,,,,,,,,,,,,,,,,,,
null,,learn_phase(without_color)8,2655341,,,,black_plus_sign,,,null,object_11a.png,object_08a.png,,,,,,,,,,,,,,,,,,,,,
null,,black_cross(without_color)8,2656198,,,,blue,,,null,object_11a.png,object_08a.png,,,,,,,,,,,,,,,,,,,,,
null,,rt_plussign_withcolor8,2656700,,,,blue,,,null,object_11a.png,object_08a.png,,,,,,,,,,,,,,,,,,,,,
771.5,,rt_thecrossant_black8,2657849,,,,black_plus_sign,,,49,,,1,,,,,,,1,,,,,,,,,,,,,
null,,color_black8,2657953,,,,black_plus_sign,,,null,,,,,,,,,,,,,,,,,,,,,,,
null,,learn_phase(without_color)8,2661458,,,,black_plus_sign,,,null,object_02b.png,object_13c.png,,,,,,,,,,,,,,,,,,,,,
null,,black_cross(without_color)8,2662197,,,,green,,,null,object_02b.png,object_13c.png,,,,,,,,,,,,,,,,,,,,,
null,,rt_plussign_withcolor8,2662700,,,,green,,,null,object_02b.png,object_13c.png,,,,,,,,,,,,,,,,,,,,,
1248,,rt_thecrossant_black8,2663966,,,,black_plus_sign,,,50,,,1,,,,,,,1,,,,,,,,,,,,,
null,,color_black8,2664070,,,,black_plus_sign,,,null,,,,,,,,,,,,,,,,,,,,,,,
null,,learn_phase(without_color)8,2667574,,,,black_plus_sign,,,null,object_04c.png,object_01c.png,,,,,,,,,,,,,,,,,,,,,
null,,black_cross(without_color)8,2668250,,,,green,,,null,object_04c.png,object_01c.png,,,,,,,,,,,,,,,,,,,,,
null,,rt_plussign_withcolor8,2668752,,,,green,,,null,object_04c.png,object_01c.png,,,,,,,,,,,,,,,,,,,,,
925.9000000059605,,rt_thecrossant_black8,2670083,,,,black_plus_sign,,,50,,,1,,,,,,,1,,,,,,,,,,,,,
null,,color_black8,2670187,,,,black_plus_sign,,,null,,,,,,,,,,,,,,,,,,,,,,,
null,,learn_phase(without_color)8,2673692,,,,black_plus_sign,,,null,object_03a.png,object_08c.png,,,,,,,,,,,,,,,,,,,,,
null,,black_cross(without_color)8,2674635,,,,blue,,,null,object_03a.png,object_08c.png,,,,,,,,,,,,,,,,,,,,,
449.29999999701977,,rt_plussign_withcolor8,2675138,,,,blue,,,49,object_03a.png,object_08c.png,,,,,,,,,,,,,,,,,,,,,
null,,rt_thecrossant_black8,2676200,,,,black_plus_sign,,,null,,,1,,,,,,,1,,,,,,,,,,,,,
null,,color_black8,2676304,,,,black_plus_sign,,,null,,,,,,,,,,,,,,,,,,,,,,,
null,,learn_phase(without_color)8,2679808,,,,black_plus_sign,,,null,object_14b.png,object_09c.png,,,,,,,,,,,,,,,,,,,,,
null,,black_cross(without_color)8,2680790,,,,green,,,null,object_14b.png,object_09c.png,,,,,,,,,,,,,,,,,,,,,
null,,rt_plussign_withcolor8,2681292,,,,green,,,null,object_14b.png,object_09c.png,,,,,,,,,,,,,,,,,,,,,
1436.5,,rt_thecrossant_black8,2682317,,,,black_plus_sign,,,50,,,1,,,,,,,1,,,,,,,,,,,,,
null,,color_black8,2682422,,,,black_plus_sign,,,null,,,,,,,,,,,,,,,,,,,,,,,
null,,learn_phase(without_color)8,2685926,,,,black_plus_sign,,,null,object_13b.png,object_08b.png,,,,,,,,,,,,,,,,,,,,,
null,,black_cross(without_color)8,2686473,,,,blue,,,null,object_13b.png,object_08b.png,,,,,,,,,,,,,,,,,,,,,
null,,rt_plussign_withcolor8,2686975,,,,blue,,,null,object_13b.png,object_08b.png,,,,,,,,,,,,,,,,,,,,,
1418,,rt_thecrossant_black8,2688434,,,,black_plus_sign,,,49,,,1,,,,,,,1,,,,,,,,,,,,,
null,,color_black8,2688537,,,,black_plus_sign,,,null,,,,,,,,,,,,,,,,,,,,,,,
null,,learn_phase(without_color)8,2692041,,,,black_plus_sign,,,null,object_05a.png,object_11c.png,,,,,,,,,,,,,,,,,,,,,
null,,black_cross(without_color)8,2692500,,,,blue,,,null,object_05a.png,object_11c.png,,,,,,,,,,,,,,,,,,,,,
null,,rt_plussign_withcolor8,2693003,,,,blue,,,null,object_05a.png,object_11c.png,,,,,,,,,,,,,,,,,,,,,
1541.2000000029802,,rt_thecrossant_black8,2694550,,,,black_plus_sign,,,49,,,1,,,,,,,1,,,,,,,,,,,,,
null,,color_black8,2694653,,,,black_plus_sign,,,null,,,,,,,,,,,,,,,,,,,,,,,
null,,learn_phase(without_color)8,2698157,,,,black_plus_sign,,,null,object_09b.png,object_05c.png,,,,,,,,,,,,,,,,,,,,,
null,,black_cross(without_color)8,2698565,,,,blue,,,null,object_09b.png,object_05c.png,,,,,,,,,,,,,,,,,,,,,
null,,rt_plussign_withcolor8,2699068,,,,blue,,,null,object_09b.png,object_05c.png,,,,,,,,,,,,,,,,,,,,,
756.7999999970198,,rt_thecrossant_black8,2700665,,,,black_plus_sign,,,49,,,1,,,,,,,1,,,,,,,,,,,,,
null,,color_black8,2700768,,,,black_plus_sign,,,null,,,,,,,,,,,,,,,,,,,,,,,
null,,learn_phase(without_color)8,2704272,,,,black_plus_sign,,,null,object_04b.png,object_03b.png,,,,,,,,,,,,,,,,,,,,,
null,,black_cross(without_color)8,2704766,,,,green,,,null,object_04b.png,object_03b.png,,,,,,,,,,,,,,,,,,,,,
null,,rt_plussign_withcolor8,2705269,,,,green,,,null,object_04b.png,object_03b.png,,,,,,,,,,,,,,,,,,,,,
717.2999999970198,,rt_thecrossant_black8,2706784,,,,black_plus_sign,,,50,,,1,,,,,,,1,,,,,,,,,,,,,
null,,color_black8,2706887,,,,black_plus_sign,,,null,,,,,,,,,,,,,,,,,,,,,,,
null,,learn_phase(without_color)8,2710391,,,,black_plus_sign,,,null,object_10b.png,object_15b.png,,,,,,,,,,,,,,,,,,,,,
null,,black_cross(without_color)8,2711000,,,,green,,,null,object_10b.png,object_15b.png,,,,,,,,,,,,,,,,,,,,,
null,,rt_plussign_withcolor8,2711502,,,,green,,,null,object_10b.png,object_15b.png,,,,,,,,,,,,,,,,,,,,,
651.2999999970198,,rt_thecrossant_black8,2712900,,,,black_plus_sign,,,50,,,1,,,,,,,1,,,,,,,,,,,,,
null,,color_black8,2713002,,,,black_plus_sign,,,null,,,,,,,,,,,,,,,,,,,,,,,
null,,learn_phase(without_color)8,2716507,,,,black_plus_sign,,,null,object_15c.png,object_15a.png,,,,,,,,,,,,,,,,,,,,,
null,,black_cross(without_color)8,2717431,,,,green,,,null,object_15c.png,object_15a.png,,,,,,,,,,,,,,,,,,,,,
null,,rt_plussign_withcolor8,2717934,,,,green,,,null,object_15c.png,object_15a.png,,,,,,,,,,,,,,,,,,,,,
903.3000000119209,,rt_thecrossant_black8,2719017,,,,black_plus_sign,,,50,,,1,,,,,,,1,,,,,,,,,,,,,
null,,color_black8,2719121,,,,black_plus_sign,,,null,,,,,,,,,,,,,,,,,,,,,,,
null,,learn_phase(without_color)8,2722625,,,,black_plus_sign,,,null,object_06c.png,object_11b.png,,,,,,,,,,,,,,,,,,,,,
null,,black_cross(without_color)8,2723054,,,,blue,,,null,object_06c.png,object_11b.png,,,,,,,,,,,,,,,,,,,,,
null,,rt_plussign_withcolor8,2723556,,,,blue,,,null,object_06c.png,object_11b.png,,,,,,,,,,,,,,,,,,,,,
1425.5999999940395,,rt_thecrossant_black8,2725135,,,,black_plus_sign,,,49,,,1,,,,,,,1,,,,,,,,,,,,,
null,,color_black8,2725239,,,,black_plus_sign,,,null,,,,,,,,,,,,,,,,,,,,,,,
null,,learn_phase(without_color)8,2728742,,,,black_plus_sign,,,null,object_06a.png,object_10c.png,,,,,,,,,,,,,,,,,,,,,
null,,black_cross(without_color)8,2729595,,,,green,,,null,object_06a.png,object_10c.png,,,,,,,,,,,,,,,,,,,,,
null,,rt_plussign_withcolor8,2730098,,,,green,,,null,object_06a.png,object_10c.png,,,,,,,,,,,,,,,,,,,,,
1364.300000011921,,rt_thecrossant_black8,2731252,,,,black_plus_sign,,,50,,,1,,,,,,,1,,,,,,,,,,,,,
null,,color_black8,2731355,,,,black_plus_sign,,,null,,,,,,,,,,,,,,,,,,,,,,,
null,,thebreak,2731458,,,,<p></p>,,,null,,,,,,,,,,,,,,,,,,,,,,,
1348,,intro_0,2732807,,,,instruct,,,32,,,,,,,,,,,,,,,,,,,,,,,
2039.2000000029802,,directmemory_phase8,2734849,,,,object_03b.png,,,49,,,1,,object_04b.png,object_06c.png,object_15b.png,object_04b.png,,0.8584905660377359,1,,,,,,,,,,,,
4590.300000011921,,directmemory_phase8,2739441,,,,object_15b.png,,,50,,,1,,object_15c.png,object_10b.png,object_11a.png,object_10b.png,,0.8598130841121495,1,,,,,,,,,,,,
1702.0999999940395,,directmemory_phase8,2741146,,,,object_14a.png,,,49,,,1,,object_14c.png,object_13b.png,object_08b.png,object_14c.png,,0.8611111111111112,1,,,,,,,,,,,,
2531.699999988079,,directmemory_phase8,2743680,,,,object_01b.png,,,49,,,1,,object_12c.png,object_15c.png,object_15a.png,object_12c.png,,0.8623853211009175,1,,,,,,,,,,,,
1615.7000000029802,,directmemory_phase8,2745299,,,,object_15a.png,,,51,,,0,,object_15c.png,object_04c.png,object_14b.png,object_15c.png,,0.8545454545454545,0,,,,,,,,,,,,
2668.7000000029802,,directmemory_phase8,2747970,,,,object_06a.png,,,49,,,1,,object_10c.png,object_14b.png,object_15b.png,object_10c.png,,0.8558558558558559,1,,,,,,,,,,,,
2183,,directmemory_phase8,2750155,,,,object_13c.png,,,50,,,1,,object_03b.png,object_02b.png,object_05c.png,object_02b.png,,0.8571428571428571,1,,,,,,,,,,,,
1708.7000000029802,,directmemory_phase8,2751867,,,,object_01c.png,,,49,,,1,,object_04c.png,object_15b.png,object_01b.png,object_04c.png,,0.8584070796460177,1,,,,,,,,,,,,
1881.7999999970198,,directmemory_phase8,2753751,,,,object_08a.png,,,50,,,1,,object_15c.png,object_11a.png,object_05c.png,object_11a.png,,0.8596491228070176,1,,,,,,,,,,,,
1842.7999999970198,,directmemory_phase8,2755597,,,,object_06c.png,,,51,,,1,,object_13b.png,object_02b.png,object_11b.png,object_11b.png,,0.8608695652173913,1,,,,,,,,,,,,
2058.4000000059605,,directmemory_phase8,2757658,,,,object_05a.png,,,49,,,1,,object_11c.png,object_08c.png,object_04b.png,object_11c.png,,0.8620689655172413,1,,,,,,,,,,,,
3951.5,,directmemory_phase8,2761613,,,,object_09b.png,,,50,,,1,,object_03b.png,object_05c.png,object_05a.png,object_05c.png,,0.8632478632478633,1,,,,,,,,,,,,
2233.7000000029802,,directmemory_phase8,2763850,,,,object_14b.png,,,50,,,1,,object_08b.png,object_09c.png,object_04c.png,object_09c.png,,0.864406779661017,1,,,,,,,,,,,,
2148.5999999940395,,directmemory_phase8,2766002,,,,object_08b.png,,,49,,,1,,object_13b.png,object_06a.png,object_01c.png,object_13b.png,,0.865546218487395,1,,,,,,,,,,,,
3091.5999999940395,,directmemory_phase8,2769097,,,,object_03a.png,,,51,,,1,,object_11c.png,object_10c.png,object_08c.png,object_08c.png,,0.8666666666666667,1,,,,,,,,,,,,
null,,thebreak,2769199,,,,<p></p>,,,null,,,,,,,,,,,,,,,,,,,,,,,
6387.899999991059,,intro_0,2775588,,,,instruct,,,32,,,,,,,,,,,,,,,,,,,,,,,
15554.20000000298,,intro_1,2791143,,,,instruct,,,32,,,,,,,,,,,,,,,,,,,,,,,
7809,,intro_2,2798953,,,,instruct,,,32,,,,,,,,,,,,,,,,,,,,,,,
,,intro_3,2822118,,,,instruct,,,,,,,,,,,,,,,,,,,,,,,,,,
2201.0999999940395,,intro_4,2824320,,,,instruct,,,32,,,,,,,,,,,,,,,,,,,,,,,
7598.899999991059,,inference_phase,2831921,,,,object_13c.png,,,51,object_01a.png,object_01c.png,0,,,,,object_12b.png,,0,,,object_12b.png,,,,,,,,,,
4434.100000008941,,inference_phase,2836358,,,,object_09a.png,,,49,object_13b.png,object_11c.png,1,,,,,object_13b.png,,0.5,,,object_06c.png,,,,,,,,,,
3656.7000000029802,,inference_phase,2840017,,,,object_07b.png,,,49,object_09c.png,object_13c.png,1,,,,,object_09c.png,,0.6666666666666666,,,object_02b.png,,,,,,,,,,
8605,,inference_phase,2848625,,,,object_11b.png,,,49,object_04a.png,object_09a.png,1,,,,,object_04a.png,,0.75,,,object_02b.png,,,,,,,,,,
4286.5999999940395,,inference_phase,2852914,,,,object_12a.png,,,49,object_11c.png,object_15b.png,1,,,,,object_11c.png,,0.8,,,object_10b.png,,,,,,,,,,
3210.4000000059605,,inference_phase,2856128,,,,object_05b.png,,,51,object_11a.png,object_06a.png,1,,,,,object_06a.png,,0.8333333333333334,,,object_13c.png,,,,,,,,,,
3832.4000000059605,,inference_phase,2859963,,,,object_06b.png,,,51,object_08b.png,object_12c.png,1,,,,,object_12c.png,,0.8571428571428571,,,object_15b.png,,,,,,,,,,
7258.399999991059,,inference_phase,2867225,,,,object_03c.png,,,51,object_09b.png,object_04c.png,0,,,,,object_09b.png,,0.75,,,object_02b.png,,,,,,,,,,
2823,,inference_phase,2870050,,,,object_15c.png,,,51,object_02c.png,object_07a.png,0,,,,,object_02c.png,,0.6666666666666666,,,object_06c.png,,,,,,,,,,
6765.899999991059,,inference_phase,2876818,,,,object_02a.png,,,51,object_05c.png,object_03b.png,1,,,,,object_03b.png,,0.7,,,object_04c.png,,,,,,,,,,
2635.9000000059605,,inference_phase,2879457,,,,object_07a.png,,,50,object_08b.png,object_11b.png,1,,,,,object_08a.png,,0.7272727272727273,,,object_08a.png,,,,,,,,,,
5186.20000000298,,inference_phase,2884646,,,,object_10a.png,,,49,object_04b.png,object_14c.png,0,,,,,object_14c.png,,0.6666666666666666,,,object_15b.png,,,,,,,,,,
4688.5,,inference_phase,2889337,,,,object_04c.png,,,50,object_02c.png,object_05a.png,1,,,,,object_07c.png,,0.6923076923076923,,,object_07c.png,,,,,,,,,,
3973.7000000029802,,inference_phase,2893314,,,,object_01a.png,,,50,object_08b.png,object_11c.png,1,,,,,object_15b.png,,0.7142857142857143,,,object_15b.png,,,,,,,,,,
4688.20000000298,,inference_phase,2898005,,,,object_08c.png,,,51,object_06b.png,object_13a.png,1,,,,,object_13a.png,,0.7333333333333333,,,object_01c.png,,,,,,,,,,
,,survey,2951875,,,,survey-questions,,,,,,,,,,,,,,,,,none,high,no,remember the colors,not very,no,,,,
3677.0999999940395,,thank_you,2955574,,,,<p> Congratulations, you are all done!</p><p> <strong>Please click space on your keyboard to end the experiment!</strong> The secret code to enter at the beginning screen is: <strong>CIMBPENS</strong></p><p> Please make sure to submit the HIT and email uciccnl@gmail.com if you had any issues! </p><br><p>Please remember to submit this data by clicking space after copying the code. Failure of submission will lead to in-complete payment</p>,,,32,,,,,,,,,,,,,,,,,,,,,11,2,C78LSMTN
