rt,responses,trial_type,time_elapsed,identifier_a,identifier_b,identifier_c,tasktype,browser_type,local_time,UTC_time,stimulus,button_pressed,response,key_press,stimulus_left,stimulus_right,accuracy,practice_cumulative_accuracy,stimulus_down_left,stimulus_down_mid,stimulus_down_right,stimulus_correct,prac_weighted_accuracy,cumulative_accuracy,failed_practice,weighted_accuracy,stimulus_middle,problems,smooth,distraction,strategies,easier,similar,comments,detectfocus,breakfocus,completion_code
6587.100000000006,{worker_id:5a8b61fcf1408d000176b02f},id_enter,6590,object_14a.png; object_14c.png; object_10a.png; object_15a.png; object_05c.png; object_04c.png; object_09c.png; object_03a.png; object_07c.png; object_08c.png; object_02c.png; object_02b.png; object_01c.png; object_07a.png; object_06b.png,object_15c.png; object_09b.png; object_02a.png; object_11a.png; object_01a.png; object_01b.png; object_13c.png; object_07b.png; object_08b.png; object_04a.png; object_11c.png; object_10c.png; object_06c.png; object_04b.png; object_03c.png,object_13b.png; object_06a.png; object_08a.png; object_05b.png; object_15b.png; object_12a.png; object_14b.png; object_12c.png; object_13a.png; object_03b.png; object_09a.png; object_05a.png; object_12b.png; object_11b.png; object_10b.png,blocked,Mozilla/5.0 (X11; CrOS x86_64 14541.0.0) AppleWebKit/537.36 (KHTML, like Gecko) Chrome/135.0.0.0 Safari/537.36,5/2/2025, 2:31:24 PM,2025-05-02 19:31:24.436,,,,,,,,,,,,,,,,,,,,,,,,,,,
21051.29999999999,,make_fullscreen,27685,,,,,,,,fullscreen,0,,,,,,,,,,,,,,,,,,,,,,,,,
63134.600000000035,,instruct_1,90822,,,,,,,,instruct,0,Next,,,,,,,,,,,,,,,,,,,,,,,,
37447.09999999998,,instruct_2,128272,,,,,,,,instruct,1,Next,,,,,,,,,,,,,,,,,,,,,,,,
9359.400000000023,,instruct_3,137635,,,,,,,,instruct,1,Next,,,,,,,,,,,,,,,,,,,,,,,,
30614.100000000035,,instruct_4,168252,,,,,,,,instruct,1,Next,,,,,,,,,,,,,,,,,,,,,,,,
13299,,instruct_5,181554,,,,,,,,instruct,1,Next,,,,,,,,,,,,,,,,,,,,,,,,
15236.399999999965,,instruct_6,196794,,,,,,,,instruct,1,Next,,,,,,,,,,,,,,,,,,,,,,,,
25449.900000000023,,instruct_7,222248,,,,,,,,instruct,1,Next,,,,,,,,,,,,,,,,,,,,,,,,
null,,prac_atten_color_black,222629,,,,,,,,black_plus_sign,,,null,,,,,,,,,,,,,,,,,,,,,,,
553.1000000000349,,prac_atten_color,223655,,,,,,,,<p style='position:absolute;top: 50%;right: 50%;transform: translate(50%, -50%);font-size: 125px;color: blue;'>+</p>,,,49,,,,,,,,,,,,,,,,,,,,,,,
null,,prac_atten_color_black,225658,,,,,,,,black_plus_sign,,,null,,,,,,,,,,,,,,,,,,,,,,,
null,,prac_atten_color_black,226040,,,,,,,,black_plus_sign,,,null,,,,,,,,,,,,,,,,,,,,,,,
null,,prac_atten_color,226572,,,,,,,,<p style='position:absolute;top: 50%;right: 50%;transform: translate(50%, -50%);font-size: 125px;color: green;'>+</p>,,,null,,,,,,,,,,,,,,,,,,,,,,,
123.5,,prac_atten_color_black,228574,,,,,,,,black_plus_sign,,,50,,,,,,,,,,,,,,,,,,,,,,,
null,,prac_atten_color_black,229449,,,,,,,,black_plus_sign,,,null,,,,,,,,,,,,,,,,,,,,,,,
null,,prac_atten_color,229888,,,,,,,,<p style='position:absolute;top: 50%;right: 50%;transform: translate(50%, -50%);font-size: 125px;color: green;'>+</p>,,,null,,,,,,,,,,,,,,,,,,,,,,,
161.90000000002328,,prac_atten_color_black,231890,,,,,,,,black_plus_sign,,,50,,,,,,,,,,,,,,,,,,,,,,,
null,,prac_atten_color_black,232859,,,,,,,,black_plus_sign,,,null,,,,,,,,,,,,,,,,,,,,,,,
705.5999999999767,,prac_atten_color,233637,,,,,,,,<p style='position:absolute;top: 50%;right: 50%;transform: translate(50%, -50%);font-size: 125px;color: blue;'>+</p>,,,49,,,,,,,,,,,,,,,,,,,,,,,
null,,prac_atten_color_black,235639,,,,,,,,black_plus_sign,,,null,,,,,,,,,,,,,,,,,,,,,,,
null,,prac_atten_color_black,236268,,,,,,,,black_plus_sign,,,null,,,,,,,,,,,,,,,,,,,,,,,
501.70000000001164,,prac_atten_color,237074,,,,,,,,<p style='position:absolute;top: 50%;right: 50%;transform: translate(50%, -50%);font-size: 125px;color: green;'>+</p>,,,50,,,,,,,,,,,,,,,,,,,,,,,
null,,prac_atten_color_black,239076,,,,,,,,black_plus_sign,,,null,,,,,,,,,,,,,,,,,,,,,,,
null,,prac_atten_color_black,239676,,,,,,,,black_plus_sign,,,null,,,,,,,,,,,,,,,,,,,,,,,
null,,prac_atten_color,240149,,,,,,,,<p style='position:absolute;top: 50%;right: 50%;transform: translate(50%, -50%);font-size: 125px;color: green;'>+</p>,,,null,,,,,,,,,,,,,,,,,,,,,,,
160.29999999998836,,prac_atten_color_black,242150,,,,,,,,black_plus_sign,,,50,,,,,,,,,,,,,,,,,,,,,,,
null,,prac_atten_color_black,243084,,,,,,,,black_plus_sign,,,null,,,,,,,,,,,,,,,,,,,,,,,
450.20000000001164,,prac_atten_color,243673,,,,,,,,<p style='position:absolute;top: 50%;right: 50%;transform: translate(50%, -50%);font-size: 125px;color: blue;'>+</p>,,,49,,,,,,,,,,,,,,,,,,,,,,,
null,,prac_atten_color_black,245675,,,,,,,,black_plus_sign,,,null,,,,,,,,,,,,,,,,,,,,,,,
null,,prac_atten_color_black,246493,,,,,,,,black_plus_sign,,,null,,,,,,,,,,,,,,,,,,,,,,,
647.0999999999767,,prac_atten_color,247151,,,,,,,,<p style='position:absolute;top: 50%;right: 50%;transform: translate(50%, -50%);font-size: 125px;color: green;'>+</p>,,,50,,,,,,,,,,,,,,,,,,,,,,,
null,,prac_atten_color_black,249153,,,,,,,,black_plus_sign,,,null,,,,,,,,,,,,,,,,,,,,,,,
null,,prac_atten_color_black,249902,,,,,,,,black_plus_sign,,,null,,,,,,,,,,,,,,,,,,,,,,,
null,,prac_atten_color,250475,,,,,,,,<p style='position:absolute;top: 50%;right: 50%;transform: translate(50%, -50%);font-size: 125px;color: blue;'>+</p>,,,null,,,,,,,,,,,,,,,,,,,,,,,
138.89999999996508,,prac_atten_color_black,252478,,,,,,,,black_plus_sign,,,49,,,,,,,,,,,,,,,,,,,,,,,
null,,prac_atten_color_black,253311,,,,,,,,black_plus_sign,,,null,,,,,,,,,,,,,,,,,,,,,,,
459.20000000001164,,prac_atten_color,254331,,,,,,,,<p style='position:absolute;top: 50%;right: 50%;transform: translate(50%, -50%);font-size: 125px;color: blue;'>+</p>,,,50,,,,,,,,,,,,,,,,,,,,,,,
null,,prac_atten_color_black,256334,,,,,,,,black_plus_sign,,,null,,,,,,,,,,,,,,,,,,,,,,,
11345.300000000017,,attentioncheck_feedback,267683,,,,,,,,cross_check_feedback,0,,,,,,,,,,,,,,,,,,,,,,,,,
12704.20000000007,,last_instruct,280389,,,,,,,,instruct,,,32,,,,,,,,,,,,,,,,,,,,,,,
null,,prac_learn_phase(without_color),283893,,,,,,,,black_plus_sign,,,null,object_11a.png,object_15a.png,,,,,,,,,,,,,,,,,,,,,
null,,prac_black_cross(without_color),284802,,,,,,,,green,,,null,object_11a.png,object_15a.png,,,,,,,,,,,,,,,,,,,,,
null,,prac_rt_plussign_withcolor,285304,,,,,,,,green,,,null,object_11a.png,object_15a.png,,,,,,,,,,,,,,,,,,,,,
1150.2000000000698,,prac_rt_thecrossant_black,286403,,,,,,,,black_plus_sign,,,50,,,1,1,,,,,,,,,,,,,,,,,,,
null,,prac_color_black,286507,,,,,,,,black_plus_sign,,,null,,,,,,,,,,,,,,,,,,,,,,,
null,,prac_learn_phase(without_color),290010,,,,,,,,black_plus_sign,,,null,object_02c.png,object_11c.png,,,,,,,,,,,,,,,,,,,,,
null,,black_cross(without_color)1,290955,,,,,,,,green,,,null,object_11a.png,object_15a.png,,,,,,,,,,,,,,,,,,,,,
null,,prac_rt_plussign_withcolor,291457,,,,,,,,green,,,null,object_02c.png,object_11c.png,,,,,,,,,,,,,,,,,,,,,
1311.4000000000233,,prac_rt_thecrossant_black,293048,,,,,,,,black_plus_sign,,,50,,,1,1,,,,,,,,,,,,,,,,,,,
null,,prac_color_black,293151,,,,,,,,black_plus_sign,,,null,,,,,,,,,,,,,,,,,,,,,,,
null,,prac_learn_phase(without_color),296655,,,,,,,,black_plus_sign,,,null,object_10a.png,object_02a.png,,,,,,,,,,,,,,,,,,,,,
null,,black_cross(without_color)1,297599,,,,,,,,green,,,null,object_11a.png,object_15a.png,,,,,,,,,,,,,,,,,,,,,
null,,prac_rt_plussign_withcolor,298101,,,,,,,,blue,,,null,object_10a.png,object_02a.png,,,,,,,,,,,,,,,,,,,,,
804.3999999999069,,prac_rt_thecrossant_black,299579,,,,,,,,black_plus_sign,,,49,,,1,1,,,,,,,,,,,,,,,,,,,
null,,prac_color_black,299682,,,,,,,,black_plus_sign,,,null,,,,,,,,,,,,,,,,,,,,,,,
null,,prac_learn_phase(without_color),303184,,,,,,,,black_plus_sign,,,null,object_03c.png,object_06b.png,,,,,,,,,,,,,,,,,,,,,
null,,black_cross(without_color)1,304128,,,,,,,,green,,,null,object_11a.png,object_15a.png,,,,,,,,,,,,,,,,,,,,,
null,,prac_rt_plussign_withcolor,304630,,,,,,,,blue,,,null,object_03c.png,object_06b.png,,,,,,,,,,,,,,,,,,,,,
898.3999999999069,,prac_rt_thecrossant_black,305844,,,,,,,,black_plus_sign,,,49,,,1,1,,,,,,,,,,,,,,,,,,,
null,,prac_color_black,305947,,,,,,,,black_plus_sign,,,null,,,,,,,,,,,,,,,,,,,,,,,
14377.599999999977,,instruct_dir_01,320328,,,,,,,,instruct,0,Next,,,,,,,,,,,,,,,,,,,,,,,,
9256.099999999977,,instruct_dir_2,329588,,,,,,,,instruct,1,Next,,,,,,,,,,,,,,,,,,,,,,,,
12201.5,,instruct_dir_3,341794,,,,,,,,instruct,1,Next,,,,,,,,,,,,,,,,,,,,,,,,
9948.899999999907,,instruct_dir_4,351747,,,,,,,,instruct,1,Start,,,,,,,,,,,,,,,,,,,,,,,,
null,,thebreak,351851,,,,,,,,<p></p>,,,null,,,,,,,,,,,,,,,,,,,,,,,
3301.6999999999534,,intro_0,355155,,,,,,,,instruct,,,32,,,,,,,,,,,,,,,,,,,,,,,
4655.199999999953,,prac_directmemory_phase,359812,,,,,,,,practice/object_03a.png,,,51,,,0,,practice/object_03b.png,practice/object_01b.png,practice/object_04a.png,practice/object_03b.png,0,0,,,,,,,,,,,,,
5473.400000000023,,prac_directmemory_phase,365292,,,,,,,,practice/object_04a.png,,,50,,,0,,practice/object_04b.png,practice/object_03b.png,practice/object_01a.png,practice/object_04b.png,0,0,,,,,,,,,,,,,
4261.900000000023,,prac_directmemory_phase,369556,,,,,,,,practice/object_01a.png,,,49,,,0,,practice/object_04b.png,practice/object_02a.png,practice/object_01b.png,practice/object_01b.png,0,0,,,,,,,,,,,,,
5662.900000000023,,prac_directmemory_phase,375223,,,,,,,,practice/object_02a.png,,,50,,,1,,practice/object_03a.png,practice/object_02b.png,practice/object_04b.png,practice/object_02b.png,1,0.25,,,,,,,,,,,,,
10007.79999999993,,practice_feedback_force_restart,385235,,,,,,,,practice_feedback,0,,,,,,,,,,,,,1,,,,,,,,,,,,
19893.79999999993,,last_instruct,405131,,,,,,,,instruct,,,32,,,,,,,,,,,,,,,,,,,,,,,
null,,prac_learn_phase(without_color),408634,,,,,,,,black_plus_sign,,,null,object_11a.png,object_15a.png,,,,,,,,,,,,,,,,,,,,,
null,,prac_black_cross(without_color),409431,,,,,,,,green,,,null,object_11a.png,object_15a.png,,,,,,,,,,,,,,,,,,,,,
null,,prac_rt_plussign_withcolor,409933,,,,,,,,green,,,null,object_11a.png,object_15a.png,,,,,,,,,,,,,,,,,,,,,
1479.0999999999767,,prac_rt_thecrossant_black,411142,,,,,,,,black_plus_sign,,,50,,,1,1,,,,,,,,,,,,,,,,,,,
null,,prac_color_black,411246,,,,,,,,black_plus_sign,,,null,,,,,,,,,,,,,,,,,,,,,,,
null,,prac_learn_phase(without_color),414750,,,,,,,,black_plus_sign,,,null,object_02c.png,object_11c.png,,,,,,,,,,,,,,,,,,,,,
null,,black_cross(without_color)1,415694,,,,,,,,green,,,null,object_11a.png,object_15a.png,,,,,,,,,,,,,,,,,,,,,
null,,prac_rt_plussign_withcolor,416196,,,,,,,,green,,,null,object_02c.png,object_11c.png,,,,,,,,,,,,,,,,,,,,,
938.5,,prac_rt_thecrossant_black,417515,,,,,,,,black_plus_sign,,,50,,,1,1,,,,,,,,,,,,,,,,,,,
null,,prac_color_black,417619,,,,,,,,black_plus_sign,,,null,,,,,,,,,,,,,,,,,,,,,,,
null,,prac_learn_phase(without_color),421124,,,,,,,,black_plus_sign,,,null,object_10a.png,object_02a.png,,,,,,,,,,,,,,,,,,,,,
null,,black_cross(without_color)1,422069,,,,,,,,green,,,null,object_11a.png,object_15a.png,,,,,,,,,,,,,,,,,,,,,
439.70000000006985,,prac_rt_plussign_withcolor,422571,,,,,,,,blue,,,49,object_10a.png,object_02a.png,,,,,,,,,,,,,,,,,,,,,
null,,prac_rt_thecrossant_black,423848,,,,,,,,black_plus_sign,,,null,,,1,1,,,,,,,,,,,,,,,,,,,
null,,prac_color_black,423950,,,,,,,,black_plus_sign,,,null,,,,,,,,,,,,,,,,,,,,,,,
null,,prac_learn_phase(without_color),427452,,,,,,,,black_plus_sign,,,null,object_03c.png,object_06b.png,,,,,,,,,,,,,,,,,,,,,
null,,black_cross(without_color)1,428397,,,,,,,,green,,,null,object_11a.png,object_15a.png,,,,,,,,,,,,,,,,,,,,,
null,,prac_rt_plussign_withcolor,428899,,,,,,,,blue,,,null,object_03c.png,object_06b.png,,,,,,,,,,,,,,,,,,,,,
1055.4000000000233,,prac_rt_thecrossant_black,430002,,,,,,,,black_plus_sign,,,49,,,1,1,,,,,,,,,,,,,,,,,,,
null,,prac_color_black,430105,,,,,,,,black_plus_sign,,,null,,,,,,,,,,,,,,,,,,,,,,,
11384.599999999977,,instruct_dir_01,441493,,,,,,,,instruct,0,Next,,,,,,,,,,,,,,,,,,,,,,,,
8005.199999999953,,instruct_dir_2,449500,,,,,,,,instruct,1,Next,,,,,,,,,,,,,,,,,,,,,,,,
10058.29999999993,,instruct_dir_3,459562,,,,,,,,instruct,1,Next,,,,,,,,,,,,,,,,,,,,,,,,
3272.8000000000466,,instruct_dir_4,462838,,,,,,,,instruct,1,Start,,,,,,,,,,,,,,,,,,,,,,,,
null,,thebreak,462939,,,,,,,,<p></p>,,,null,,,,,,,,,,,,,,,,,,,,,,,
5493.599999999977,,intro_0,468434,,,,,,,,instruct,,,32,,,,,,,,,,,,,,,,,,,,,,,
12530.599999999977,,prac_directmemory_phase,480966,,,,,,,,practice/object_03a.png,,,49,,,1,,practice/object_03b.png,practice/object_01b.png,practice/object_04a.png,practice/object_03b.png,1,1,,,,,,,,,,,,,
7243,,prac_directmemory_phase,488211,,,,,,,,practice/object_04a.png,,,49,,,1,,practice/object_04b.png,practice/object_03b.png,practice/object_01a.png,practice/object_04b.png,1,1,,,,,,,,,,,,,
2093.3000000000466,,prac_directmemory_phase,490307,,,,,,,,practice/object_01a.png,,,49,,,0,,practice/object_04b.png,practice/object_02a.png,practice/object_01b.png,practice/object_01b.png,0,0.6666666666666666,,,,,,,,,,,,,
8556.199999999953,,prac_directmemory_phase,498868,,,,,,,,practice/object_02a.png,,,50,,,1,,practice/object_03a.png,practice/object_02b.png,practice/object_04b.png,practice/object_02b.png,1,0.75,,,,,,,,,,,,,
45155.19999999995,,practice_feedback,544027,,,,,,,,practice_feedback,1,,,,,,,,,,,,,,,,,,,,,,,,,
13901.900000000023,,proceed_actualTask,557932,,,,,,,,proceed_actualTask,1,Continue,,,,,,,,,,,,,,,,,,,,,,,,
4901.899999999907,,last_inst,562837,,,,,,,,last_inst,,,32,,,,,,,,,,,,,,,,,,,,,,,
null,,learn_phase(without_color)1,566340,,,,,,,,black_plus_sign,,,null,object_11a.png,object_15a.png,,,,,,,,,,,,,,,,,,,,,
null,,black_cross(without_color)1,567285,,,,,,,,green,,,null,object_11a.png,object_15a.png,,,,,,,,,,,,,,,,,,,,,
null,,rt_plussign_withcolor1,567787,,,,,,,,green,,,null,object_11a.png,object_15a.png,,,,,,,,,,,,,,,,,,,,,
1176.0999999999767,,rt_thecrossant_black1,568849,,,,,,,,black_plus_sign,,,50,,,1,,,,,,,1,,,,,,,,,,,,,
null,,color_black1,568951,,,,,,,,black_plus_sign,,,null,,,,,,,,,,,,,,,,,,,,,,,
null,,learn_phase(without_color)1,572456,,,,,,,,black_plus_sign,,,null,object_02c.png,object_11c.png,,,,,,,,,,,,,,,,,,,,,
null,,black_cross(without_color)1,572933,,,,,,,,green,,,null,object_02c.png,object_11c.png,,,,,,,,,,,,,,,,,,,,,
null,,rt_plussign_withcolor1,573435,,,,,,,,green,,,null,object_02c.png,object_11c.png,,,,,,,,,,,,,,,,,,,,,
1336.5,,rt_thecrossant_black1,574964,,,,,,,,black_plus_sign,,,50,,,1,,,,,,,1,,,,,,,,,,,,,
null,,color_black1,575067,,,,,,,,black_plus_sign,,,null,,,,,,,,,,,,,,,,,,,,,,,
null,,learn_phase(without_color)1,578571,,,,,,,,black_plus_sign,,,null,object_10a.png,object_02a.png,,,,,,,,,,,,,,,,,,,,,
null,,black_cross(without_color)1,579484,,,,,,,,blue,,,null,object_10a.png,object_02a.png,,,,,,,,,,,,,,,,,,,,,
467.39999999990687,,rt_plussign_withcolor1,579986,,,,,,,,blue,,,49,object_10a.png,object_02a.png,,,,,,,,,,,,,,,,,,,,,
null,,rt_thecrossant_black1,581079,,,,,,,,black_plus_sign,,,null,,,1,,,,,,,1,,,,,,,,,,,,,
null,,color_black1,581182,,,,,,,,black_plus_sign,,,null,,,,,,,,,,,,,,,,,,,,,,,
null,,learn_phase(without_color)1,584687,,,,,,,,black_plus_sign,,,null,object_03c.png,object_06b.png,,,,,,,,,,,,,,,,,,,,,
null,,black_cross(without_color)1,585509,,,,,,,,blue,,,null,object_03c.png,object_06b.png,,,,,,,,,,,,,,,,,,,,,
null,,rt_plussign_withcolor1,586011,,,,,,,,blue,,,null,object_03c.png,object_06b.png,,,,,,,,,,,,,,,,,,,,,
1407.5,,rt_thecrossant_black1,587195,,,,,,,,black_plus_sign,,,49,,,1,,,,,,,1,,,,,,,,,,,,,
null,,color_black1,587299,,,,,,,,black_plus_sign,,,null,,,,,,,,,,,,,,,,,,,,,,,
null,,learn_phase(without_color)1,590803,,,,,,,,black_plus_sign,,,null,object_07b.png,object_03a.png,,,,,,,,,,,,,,,,,,,,,
null,,black_cross(without_color)1,591397,,,,,,,,green,,,null,object_07b.png,object_03a.png,,,,,,,,,,,,,,,,,,,,,
null,,rt_plussign_withcolor1,591899,,,,,,,,green,,,null,object_07b.png,object_03a.png,,,,,,,,,,,,,,,,,,,,,
1195.1000000000931,,rt_thecrossant_black1,593312,,,,,,,,black_plus_sign,,,50,,,1,,,,,,,1,,,,,,,,,,,,,
null,,color_black1,593414,,,,,,,,black_plus_sign,,,null,,,,,,,,,,,,,,,,,,,,,,,
null,,learn_phase(without_color)1,596917,,,,,,,,black_plus_sign,,,null,object_13c.png,object_09c.png,,,,,,,,,,,,,,,,,,,,,
null,,black_cross(without_color)1,597847,,,,,,,,blue,,,null,object_13c.png,object_09c.png,,,,,,,,,,,,,,,,,,,,,
null,,rt_plussign_withcolor1,598349,,,,,,,,blue,,,null,object_13c.png,object_09c.png,,,,,,,,,,,,,,,,,,,,,
1073.5,,rt_thecrossant_black1,599423,,,,,,,,black_plus_sign,,,49,,,1,,,,,,,1,,,,,,,,,,,,,
null,,color_black1,599526,,,,,,,,black_plus_sign,,,null,,,,,,,,,,,,,,,,,,,,,,,
null,,learn_phase(without_color)1,603030,,,,,,,,black_plus_sign,,,null,object_15c.png,object_14a.png,,,,,,,,,,,,,,,,,,,,,
null,,black_cross(without_color)1,603920,,,,,,,,green,,,null,object_15c.png,object_14a.png,,,,,,,,,,,,,,,,,,,,,
null,,rt_plussign_withcolor1,604422,,,,,,,,green,,,null,object_15c.png,object_14a.png,,,,,,,,,,,,,,,,,,,,,
null,,rt_thecrossant_black1,605539,,,,,,,,black_plus_sign,,,null,,,,,,,,,,1,,,,,,,,,,,,,
null,,color_black1,605643,,,,,,,,black_plus_sign,,,null,,,,,,,,,,,,,,,,,,,,,,,
null,,learn_phase(without_color)1,609148,,,,,,,,black_plus_sign,,,null,object_04a.png,object_08c.png,,,,,,,,,,,,,,,,,,,,,
null,,black_cross(without_color)1,610166,,,,,,,,green,,,null,object_04a.png,object_08c.png,,,,,,,,,,,,,,,,,,,,,
null,,rt_plussign_withcolor1,610668,,,,,,,,green,,,null,object_04a.png,object_08c.png,,,,,,,,,,,,,,,,,,,,,
1049.6999999999534,,rt_thecrossant_black1,611656,,,,,,,,black_plus_sign,,,50,,,1,,,,,,,1,,,,,,,,,,,,,
null,,color_black1,611760,,,,,,,,black_plus_sign,,,null,,,,,,,,,,,,,,,,,,,,,,,
null,,learn_phase(without_color)1,615262,,,,,,,,black_plus_sign,,,null,object_14c.png,object_09b.png,,,,,,,,,,,,,,,,,,,,,
null,,black_cross(without_color)1,616018,,,,,,,,blue,,,null,object_14c.png,object_09b.png,,,,,,,,,,,,,,,,,,,,,
459.5,,rt_plussign_withcolor1,616521,,,,,,,,blue,,,49,object_14c.png,object_09b.png,,,,,,,,,,,,,,,,,,,,,
null,,rt_thecrossant_black1,617771,,,,,,,,black_plus_sign,,,null,,,1,,,,,,,1,,,,,,,,,,,,,
null,,color_black1,617875,,,,,,,,black_plus_sign,,,null,,,,,,,,,,,,,,,,,,,,,,,
null,,learn_phase(without_color)1,621379,,,,,,,,black_plus_sign,,,null,object_08b.png,object_07c.png,,,,,,,,,,,,,,,,,,,,,
null,,black_cross(without_color)1,622465,,,,,,,,green,,,null,object_08b.png,object_07c.png,,,,,,,,,,,,,,,,,,,,,
null,,rt_plussign_withcolor1,622967,,,,,,,,green,,,null,object_08b.png,object_07c.png,,,,,,,,,,,,,,,,,,,,,
1383.8999999999069,,rt_thecrossant_black1,623886,,,,,,,,black_plus_sign,,,50,,,1,,,,,,,1,,,,,,,,,,,,,
null,,color_black1,623989,,,,,,,,black_plus_sign,,,null,,,,,,,,,,,,,,,,,,,,,,,
null,,learn_phase(without_color)1,627494,,,,,,,,black_plus_sign,,,null,object_01c.png,object_06c.png,,,,,,,,,,,,,,,,,,,,,
null,,black_cross(without_color)1,628319,,,,,,,,blue,,,null,object_01c.png,object_06c.png,,,,,,,,,,,,,,,,,,,,,
null,,rt_plussign_withcolor1,628821,,,,,,,,blue,,,null,object_01c.png,object_06c.png,,,,,,,,,,,,,,,,,,,,,
1647.7999999999302,,rt_thecrossant_black1,630002,,,,,,,,black_plus_sign,,,49,,,1,,,,,,,1,,,,,,,,,,,,,
null,,color_black1,630104,,,,,,,,black_plus_sign,,,null,,,,,,,,,,,,,,,,,,,,,,,
null,,learn_phase(without_color)1,633609,,,,,,,,black_plus_sign,,,null,object_01a.png,object_05c.png,,,,,,,,,,,,,,,,,,,,,
null,,black_cross(without_color)1,634334,,,,,,,,green,,,null,object_01a.png,object_05c.png,,,,,,,,,,,,,,,,,,,,,
null,,rt_plussign_withcolor1,634836,,,,,,,,green,,,null,object_01a.png,object_05c.png,,,,,,,,,,,,,,,,,,,,,
1218.1000000000931,,rt_thecrossant_black1,636118,,,,,,,,black_plus_sign,,,50,,,1,,,,,,,1,,,,,,,,,,,,,
null,,color_black1,636220,,,,,,,,black_plus_sign,,,null,,,,,,,,,,,,,,,,,,,,,,,
null,,learn_phase(without_color)1,639724,,,,,,,,black_plus_sign,,,null,object_07a.png,object_04b.png,,,,,,,,,,,,,,,,,,,,,
null,,black_cross(without_color)1,640826,,,,,,,,green,,,null,object_07a.png,object_04b.png,,,,,,,,,,,,,,,,,,,,,
null,,rt_plussign_withcolor1,641329,,,,,,,,green,,,null,object_07a.png,object_04b.png,,,,,,,,,,,,,,,,,,,,,
1355.1999999999534,,rt_thecrossant_black1,642233,,,,,,,,black_plus_sign,,,49,,,0,,,,,,,0.9166666666666666,,,,,,,,,,,,,
null,,color_black1,642336,,,,,,,,black_plus_sign,,,null,,,,,,,,,,,,,,,,,,,,,,,
null,,learn_phase(without_color)1,645841,,,,,,,,black_plus_sign,,,null,object_02b.png,object_10c.png,,,,,,,,,,,,,,,,,,,,,
null,,black_cross(without_color)1,646529,,,,,,,,blue,,,null,object_02b.png,object_10c.png,,,,,,,,,,,,,,,,,,,,,
null,,rt_plussign_withcolor1,647031,,,,,,,,blue,,,null,object_02b.png,object_10c.png,,,,,,,,,,,,,,,,,,,,,
1315.3999999999069,,rt_thecrossant_black1,648349,,,,,,,,black_plus_sign,,,49,,,1,,,,,,,0.9230769230769231,,,,,,,,,,,,,
null,,color_black1,648452,,,,,,,,black_plus_sign,,,null,,,,,,,,,,,,,,,,,,,,,,,
null,,learn_phase(without_color)1,651957,,,,,,,,black_plus_sign,,,null,object_01b.png,object_04c.png,,,,,,,,,,,,,,,,,,,,,
null,,black_cross(without_color)1,652406,,,,,,,,green,,,null,object_01b.png,object_04c.png,,,,,,,,,,,,,,,,,,,,,
null,,rt_plussign_withcolor1,652908,,,,,,,,green,,,null,object_01b.png,object_04c.png,,,,,,,,,,,,,,,,,,,,,
1741.8999999999069,,rt_thecrossant_black1,654466,,,,,,,,black_plus_sign,,,50,,,1,,,,,,,0.9285714285714286,,,,,,,,,,,,,
null,,color_black1,654569,,,,,,,,black_plus_sign,,,null,,,,,,,,,,,,,,,,,,,,,,,
null,,thebreak,654676,,,,,,,,<p></p>,,,null,,,,,,,,,,,,,,,,,,,,,,,
23610.699999999953,,intro_0,678289,,,,,,,,instruct,,,32,,,,,,,,,,,,,,,,,,,,,,,
6268.100000000093,,directmemory_phase1,684560,,,,,,,,object_10a.png,,,51,,,0,,object_02b.png,object_02a.png,object_09b.png,object_02a.png,,0,,0,,,,,,,,,,,
null,,directmemory_phase1,699564,,,,,,,,object_14a.png,,,null,,,0,,object_15c.png,object_01b.png,object_14c.png,object_15c.png,,0,,0,,,,,,,,,,,
null,,warning_page,704568,,,,,,,,warning,,,null,,,,,,,,,,,,,,,,,,,,,,,
5532.29999999993,,directmemory_phase1,710103,,,,,,,,object_07c.png,,,50,,,1,,object_10a.png,object_08b.png,object_09b.png,object_08b.png,,0.3333333333333333,,1,,,,,,,,,,,
4920.599999999977,,directmemory_phase1,715031,,,,,,,,object_05c.png,,,50,,,0,,object_04a.png,object_02b.png,object_01a.png,object_01a.png,,0.25,,0,,,,,,,,,,,
4325.099999999977,,directmemory_phase1,719359,,,,,,,,object_14c.png,,,49,,,0,,object_07b.png,object_14a.png,object_09b.png,object_09b.png,,0.2,,0,,,,,,,,,,,
5913.599999999977,,directmemory_phase1,725275,,,,,,,,object_09c.png,,,50,,,0,,object_13c.png,object_07b.png,object_08c.png,object_13c.png,,0.16666666666666666,,0,,,,,,,,,,,
3614.3000000000466,,directmemory_phase1,728894,,,,,,,,object_02b.png,,,51,,,1,,object_08b.png,object_02c.png,object_10c.png,object_10c.png,,0.2857142857142857,,1,,,,,,,,,,,
5466.599999999977,,directmemory_phase1,734365,,,,,,,,object_08c.png,,,50,,,1,,object_14a.png,object_04a.png,object_02a.png,object_04a.png,,0.375,,1,,,,,,,,,,,
3768.79999999993,,directmemory_phase1,738139,,,,,,,,object_15a.png,,,49,,,0,,object_14a.png,object_11a.png,object_15c.png,object_11a.png,,0.3333333333333333,,0,,,,,,,,,,,
7080.79999999993,,directmemory_phase1,745222,,,,,,,,object_02c.png,,,49,,,1,,object_11c.png,object_04a.png,object_08c.png,object_11c.png,,0.4,,1,,,,,,,,,,,
3880,,directmemory_phase1,749108,,,,,,,,object_04c.png,,,50,,,0,,object_01b.png,object_07b.png,object_02c.png,object_01b.png,,0.36363636363636365,,0,,,,,,,,,,,
4042,,directmemory_phase1,753155,,,,,,,,object_07a.png,,,50,,,0,,object_07b.png,object_09c.png,object_04b.png,object_04b.png,,0.3333333333333333,,0,,,,,,,,,,,
3367.3000000000466,,directmemory_phase1,756528,,,,,,,,object_03a.png,,,49,,,0,,object_10c.png,object_05c.png,object_07b.png,object_07b.png,,0.3076923076923077,,0,,,,,,,,,,,
3860.600000000093,,directmemory_phase1,760393,,,,,,,,object_01c.png,,,50,,,0,,object_01b.png,object_09c.png,object_06c.png,object_06c.png,,0.2857142857142857,,0,,,,,,,,,,,
4785,,directmemory_phase1,765181,,,,,,,,object_06b.png,,,50,,,0,,object_03c.png,object_15c.png,object_10a.png,object_03c.png,,0.26666666666666666,,0,,,,,,,,,,,
null,,thebreak,765287,,,,,,,,<p></p>,,,null,,,,,,,,,,,,,,,,,,,,,,,
8563.400000000023,,intro_0,773852,,,,,,,,instruct,,,32,,,,,,,,,,,,,,,,,,,,,,,
null,,learn_phase(without_color)2,777358,,,,,,,,black_plus_sign,,,null,object_04b.png,object_07a.png,,,,,,,,,,,,,,,,,,,,,
null,,black_cross(without_color)2,778036,,,,,,,,green,,,null,object_04b.png,object_07a.png,,,,,,,,,,,,,,,,,,,,,
null,,rt_plussign_withcolor2,778537,,,,,,,,green,,,null,object_04b.png,object_07a.png,,,,,,,,,,,,,,,,,,,,,
1285.0999999999767,,rt_thecrossant_black2,779866,,,,,,,,black_plus_sign,,,50,,,1,,,,,,,1,,,,,,,,,,,,,
null,,color_black2,779969,,,,,,,,black_plus_sign,,,null,,,,,,,,,,,,,,,,,,,,,,,
null,,learn_phase(without_color)2,783474,,,,,,,,black_plus_sign,,,null,object_08c.png,object_04a.png,,,,,,,,,,,,,,,,,,,,,
null,,black_cross(without_color)2,784097,,,,,,,,green,,,null,object_08c.png,object_04a.png,,,,,,,,,,,,,,,,,,,,,
null,,rt_plussign_withcolor2,784599,,,,,,,,green,,,null,object_08c.png,object_04a.png,,,,,,,,,,,,,,,,,,,,,
1518.9000000000233,,rt_thecrossant_black2,785982,,,,,,,,black_plus_sign,,,50,,,1,,,,,,,1,,,,,,,,,,,,,
null,,color_black2,786086,,,,,,,,black_plus_sign,,,null,,,,,,,,,,,,,,,,,,,,,,,
null,,learn_phase(without_color)2,789590,,,,,,,,black_plus_sign,,,null,object_01a.png,object_05c.png,,,,,,,,,,,,,,,,,,,,,
null,,black_cross(without_color)2,790686,,,,,,,,blue,,,null,object_01a.png,object_05c.png,,,,,,,,,,,,,,,,,,,,,
null,,rt_plussign_withcolor2,791188,,,,,,,,blue,,,null,object_01a.png,object_05c.png,,,,,,,,,,,,,,,,,,,,,
1301.9000000000233,,rt_thecrossant_black2,792100,,,,,,,,black_plus_sign,,,49,,,1,,,,,,,1,,,,,,,,,,,,,
null,,color_black2,792203,,,,,,,,black_plus_sign,,,null,,,,,,,,,,,,,,,,,,,,,,,
null,,learn_phase(without_color)2,795708,,,,,,,,black_plus_sign,,,null,object_01c.png,object_06c.png,,,,,,,,,,,,,,,,,,,,,
null,,black_cross(without_color)2,796473,,,,,,,,green,,,null,object_01c.png,object_06c.png,,,,,,,,,,,,,,,,,,,,,
null,,rt_plussign_withcolor2,796975,,,,,,,,green,,,null,object_01c.png,object_06c.png,,,,,,,,,,,,,,,,,,,,,
1872.1999999999534,,rt_thecrossant_black2,798216,,,,,,,,black_plus_sign,,,50,,,1,,,,,,,1,,,,,,,,,,,,,
null,,color_black2,798319,,,,,,,,black_plus_sign,,,null,,,,,,,,,,,,,,,,,,,,,,,
null,,learn_phase(without_color)2,801822,,,,,,,,black_plus_sign,,,null,object_01b.png,object_04c.png,,,,,,,,,,,,,,,,,,,,,
null,,black_cross(without_color)2,802345,,,,,,,,green,,,null,object_01b.png,object_04c.png,,,,,,,,,,,,,,,,,,,,,
null,,rt_plussign_withcolor2,802848,,,,,,,,green,,,null,object_01b.png,object_04c.png,,,,,,,,,,,,,,,,,,,,,
1876.3000000000466,,rt_thecrossant_black2,804332,,,,,,,,black_plus_sign,,,50,,,1,,,,,,,1,,,,,,,,,,,,,
null,,color_black2,804434,,,,,,,,black_plus_sign,,,null,,,,,,,,,,,,,,,,,,,,,,,
null,,learn_phase(without_color)2,807937,,,,,,,,black_plus_sign,,,null,object_07b.png,object_03a.png,,,,,,,,,,,,,,,,,,,,,
null,,black_cross(without_color)2,808888,,,,,,,,green,,,null,object_07b.png,object_03a.png,,,,,,,,,,,,,,,,,,,,,
null,,rt_plussign_withcolor2,809389,,,,,,,,green,,,null,object_07b.png,object_03a.png,,,,,,,,,,,,,,,,,,,,,
998.1000000000931,,rt_thecrossant_black2,810445,,,,,,,,black_plus_sign,,,50,,,1,,,,,,,1,,,,,,,,,,,,,
null,,color_black2,810548,,,,,,,,black_plus_sign,,,null,,,,,,,,,,,,,,,,,,,,,,,
null,,learn_phase(without_color)2,814053,,,,,,,,black_plus_sign,,,null,object_02b.png,object_10c.png,,,,,,,,,,,,,,,,,,,,,
null,,black_cross(without_color)2,814964,,,,,,,,green,,,null,object_02b.png,object_10c.png,,,,,,,,,,,,,,,,,,,,,
null,,rt_plussign_withcolor2,815466,,,,,,,,green,,,null,object_02b.png,object_10c.png,,,,,,,,,,,,,,,,,,,,,
1540.2000000000698,,rt_thecrossant_black2,816562,,,,,,,,black_plus_sign,,,50,,,1,,,,,,,1,,,,,,,,,,,,,
null,,color_black2,816665,,,,,,,,black_plus_sign,,,null,,,,,,,,,,,,,,,,,,,,,,,
null,,learn_phase(without_color)2,820170,,,,,,,,black_plus_sign,,,null,object_09b.png,object_14c.png,,,,,,,,,,,,,,,,,,,,,
null,,black_cross(without_color)2,820614,,,,,,,,green,,,null,object_09b.png,object_14c.png,,,,,,,,,,,,,,,,,,,,,
null,,rt_plussign_withcolor2,821115,,,,,,,,green,,,null,object_09b.png,object_14c.png,,,,,,,,,,,,,,,,,,,,,
1639.1999999999534,,rt_thecrossant_black2,822676,,,,,,,,black_plus_sign,,,50,,,1,,,,,,,1,,,,,,,,,,,,,
null,,color_black2,822779,,,,,,,,black_plus_sign,,,null,,,,,,,,,,,,,,,,,,,,,,,
null,,learn_phase(without_color)2,826284,,,,,,,,black_plus_sign,,,null,object_08b.png,object_07c.png,,,,,,,,,,,,,,,,,,,,,
null,,black_cross(without_color)2,827209,,,,,,,,blue,,,null,object_08b.png,object_07c.png,,,,,,,,,,,,,,,,,,,,,
null,,rt_plussign_withcolor2,827711,,,,,,,,blue,,,null,object_08b.png,object_07c.png,,,,,,,,,,,,,,,,,,,,,
873.1999999999534,,rt_thecrossant_black2,828793,,,,,,,,black_plus_sign,,,49,,,1,,,,,,,1,,,,,,,,,,,,,
null,,color_black2,828896,,,,,,,,black_plus_sign,,,null,,,,,,,,,,,,,,,,,,,,,,,
null,,learn_phase(without_color)2,832401,,,,,,,,black_plus_sign,,,null,object_03c.png,object_06b.png,,,,,,,,,,,,,,,,,,,,,
null,,black_cross(without_color)2,832936,,,,,,,,green,,,null,object_03c.png,object_06b.png,,,,,,,,,,,,,,,,,,,,,
null,,rt_plussign_withcolor2,833439,,,,,,,,green,,,null,object_03c.png,object_06b.png,,,,,,,,,,,,,,,,,,,,,
1627.8999999999069,,rt_thecrossant_black2,834909,,,,,,,,black_plus_sign,,,50,,,1,,,,,,,1,,,,,,,,,,,,,
null,,color_black2,835013,,,,,,,,black_plus_sign,,,null,,,,,,,,,,,,,,,,,,,,,,,
null,,learn_phase(without_color)2,838518,,,,,,,,black_plus_sign,,,null,object_02c.png,object_11c.png,,,,,,,,,,,,,,,,,,,,,
null,,black_cross(without_color)2,839516,,,,,,,,blue,,,null,object_02c.png,object_11c.png,,,,,,,,,,,,,,,,,,,,,
null,,rt_plussign_withcolor2,840018,,,,,,,,blue,,,null,object_02c.png,object_11c.png,,,,,,,,,,,,,,,,,,,,,
1027.9000000001397,,rt_thecrossant_black2,841025,,,,,,,,black_plus_sign,,,49,,,1,,,,,,,1,,,,,,,,,,,,,
null,,color_black2,841128,,,,,,,,black_plus_sign,,,null,,,,,,,,,,,,,,,,,,,,,,,
null,,learn_phase(without_color)2,844631,,,,,,,,black_plus_sign,,,null,object_09c.png,object_13c.png,,,,,,,,,,,,,,,,,,,,,
null,,black_cross(without_color)2,845641,,,,,,,,blue,,,null,object_09c.png,object_13c.png,,,,,,,,,,,,,,,,,,,,,
null,,rt_plussign_withcolor2,846144,,,,,,,,blue,,,null,object_09c.png,object_13c.png,,,,,,,,,,,,,,,,,,,,,
1467.6000000000931,,rt_thecrossant_black2,847141,,,,,,,,black_plus_sign,,,49,,,1,,,,,,,1,,,,,,,,,,,,,
null,,color_black2,847244,,,,,,,,black_plus_sign,,,null,,,,,,,,,,,,,,,,,,,,,,,
null,,learn_phase(without_color)2,850748,,,,,,,,black_plus_sign,,,null,object_02a.png,object_10a.png,,,,,,,,,,,,,,,,,,,,,
null,,black_cross(without_color)2,851399,,,,,,,,green,,,null,object_02a.png,object_10a.png,,,,,,,,,,,,,,,,,,,,,
null,,rt_plussign_withcolor2,851901,,,,,,,,green,,,null,object_02a.png,object_10a.png,,,,,,,,,,,,,,,,,,,,,
1707.5999999998603,,rt_thecrossant_black2,853254,,,,,,,,black_plus_sign,,,50,,,1,,,,,,,1,,,,,,,,,,,,,
null,,color_black2,853357,,,,,,,,black_plus_sign,,,null,,,,,,,,,,,,,,,,,,,,,,,
null,,learn_phase(without_color)2,856862,,,,,,,,black_plus_sign,,,null,object_14a.png,object_15c.png,,,,,,,,,,,,,,,,,,,,,
null,,black_cross(without_color)2,857791,,,,,,,,green,,,null,object_14a.png,object_15c.png,,,,,,,,,,,,,,,,,,,,,
null,,rt_plussign_withcolor2,858293,,,,,,,,green,,,null,object_14a.png,object_15c.png,,,,,,,,,,,,,,,,,,,,,
1012,,rt_thecrossant_black2,859371,,,,,,,,black_plus_sign,,,50,,,1,,,,,,,1,,,,,,,,,,,,,
null,,color_black2,859474,,,,,,,,black_plus_sign,,,null,,,,,,,,,,,,,,,,,,,,,,,
null,,learn_phase(without_color)2,862979,,,,,,,,black_plus_sign,,,null,object_11a.png,object_15a.png,,,,,,,,,,,,,,,,,,,,,
null,,black_cross(without_color)2,863395,,,,,,,,green,,,null,object_11a.png,object_15a.png,,,,,,,,,,,,,,,,,,,,,
null,,rt_plussign_withcolor2,863898,,,,,,,,green,,,null,object_11a.png,object_15a.png,,,,,,,,,,,,,,,,,,,,,
1057.5,,rt_thecrossant_black2,865488,,,,,,,,black_plus_sign,,,50,,,1,,,,,,,1,,,,,,,,,,,,,
null,,color_black2,865592,,,,,,,,black_plus_sign,,,null,,,,,,,,,,,,,,,,,,,,,,,
null,,thebreak,865696,,,,,,,,<p></p>,,,null,,,,,,,,,,,,,,,,,,,,,,,
1989.5,,intro_0,867688,,,,,,,,instruct,,,32,,,,,,,,,,,,,,,,,,,,,,,
3217.0999999998603,,directmemory_phase2,870908,,,,,,,,object_02c.png,,,50,,,1,,object_09c.png,object_11c.png,object_02a.png,object_11c.png,,0.3125,,1,,,,,,,,,,,
4493.800000000047,,directmemory_phase2,875408,,,,,,,,object_02b.png,,,51,,,0,,object_14a.png,object_10c.png,object_13c.png,object_10c.png,,0.29411764705882354,,0,,,,,,,,,,,
3668.100000000093,,directmemory_phase2,879079,,,,,,,,object_04c.png,,,50,,,1,,object_15a.png,object_01b.png,object_11a.png,object_01b.png,,0.3333333333333333,,1,,,,,,,,,,,
1747.2999999998137,,directmemory_phase2,880832,,,,,,,,object_09c.png,,,50,,,0,,object_04a.png,object_02c.png,object_13c.png,object_13c.png,,0.3157894736842105,,0,,,,,,,,,,,
4637.600000000093,,directmemory_phase2,885476,,,,,,,,object_08c.png,,,50,,,0,,object_04a.png,object_02a.png,object_05c.png,object_04a.png,,0.3,,0,,,,,,,,,,,
4302.5,,directmemory_phase2,889786,,,,,,,,object_05c.png,,,49,,,0,,object_13c.png,object_07a.png,object_01a.png,object_01a.png,,0.2857142857142857,,0,,,,,,,,,,,
2642.4000000001397,,directmemory_phase2,892435,,,,,,,,object_14c.png,,,51,,,0,,object_09b.png,object_15c.png,object_07a.png,object_09b.png,,0.2727272727272727,,0,,,,,,,,,,,
4565.800000000047,,directmemory_phase2,897007,,,,,,,,object_15a.png,,,50,,,1,,object_02c.png,object_11a.png,object_07b.png,object_11a.png,,0.30434782608695654,,1,,,,,,,,,,,
1962.6000000000931,,directmemory_phase2,898975,,,,,,,,object_01c.png,,,51,,,1,,object_02a.png,object_02c.png,object_06c.png,object_06c.png,,0.3333333333333333,,1,,,,,,,,,,,
4556.59999999986,,directmemory_phase2,903538,,,,,,,,object_14a.png,,,51,,,0,,object_02b.png,object_15c.png,object_04a.png,object_15c.png,,0.32,,0,,,,,,,,,,,
4461.300000000047,,directmemory_phase2,908005,,,,,,,,object_06b.png,,,49,,,0,,object_05c.png,object_03c.png,object_11a.png,object_03c.png,,0.3076923076923077,,0,,,,,,,,,,,
3477.2000000001863,,directmemory_phase2,911489,,,,,,,,object_07c.png,,,50,,,0,,object_08b.png,object_10c.png,object_14c.png,object_08b.png,,0.2962962962962963,,0,,,,,,,,,,,
5398.700000000186,,directmemory_phase2,916893,,,,,,,,object_03a.png,,,51,,,1,,object_04b.png,object_02b.png,object_07b.png,object_07b.png,,0.32142857142857145,,1,,,,,,,,,,,
4884.59999999986,,directmemory_phase2,921785,,,,,,,,object_10a.png,,,51,,,1,,object_11c.png,object_09c.png,object_02a.png,object_02a.png,,0.3448275862068966,,1,,,,,,,,,,,
2738.899999999907,,directmemory_phase2,924531,,,,,,,,object_07a.png,,,50,,,1,,object_14c.png,object_04b.png,object_11c.png,object_04b.png,,0.36666666666666664,,1,,,,,,,,,,,
null,,thebreak,924636,,,,,,,,<p></p>,,,null,,,,,,,,,,,,,,,,,,,,,,,
2467.5,,intro_0,927106,,,,,,,,instruct,,,32,,,,,,,,,,,,,,,,,,,,,,,
null,,learn_phase(without_color)3,930610,,,,,,,,black_plus_sign,,,null,object_07a.png,object_04b.png,,,,,,,,,,,,,,,,,,,,,
null,,black_cross(without_color)3,931400,,,,,,,,green,,,null,object_07a.png,object_04b.png,,,,,,,,,,,,,,,,,,,,,
null,,rt_plussign_withcolor3,931902,,,,,,,,green,,,null,object_07a.png,object_04b.png,,,,,,,,,,,,,,,,,,,,,
1987.1999999999534,,rt_thecrossant_black3,933117,,,,,,,,black_plus_sign,,,50,,,1,,,,,,,1,,,,,,,,,,,,,
null,,color_black3,933221,,,,,,,,black_plus_sign,,,null,,,,,,,,,,,,,,,,,,,,,,,
null,,learn_phase(without_color)3,936725,,,,,,,,black_plus_sign,,,null,object_06c.png,object_01c.png,,,,,,,,,,,,,,,,,,,,,
null,,black_cross(without_color)3,937581,,,,,,,,blue,,,null,object_06c.png,object_01c.png,,,,,,,,,,,,,,,,,,,,,
null,,rt_plussign_withcolor3,938084,,,,,,,,blue,,,null,object_06c.png,object_01c.png,,,,,,,,,,,,,,,,,,,,,
1015.1000000000931,,rt_thecrossant_black3,939235,,,,,,,,black_plus_sign,,,49,,,1,,,,,,,1,,,,,,,,,,,,,
null,,color_black3,939338,,,,,,,,black_plus_sign,,,null,,,,,,,,,,,,,,,,,,,,,,,
null,,learn_phase(without_color)3,942843,,,,,,,,black_plus_sign,,,null,object_02c.png,object_11c.png,,,,,,,,,,,,,,,,,,,,,
null,,black_cross(without_color)3,943450,,,,,,,,blue,,,null,object_02c.png,object_11c.png,,,,,,,,,,,,,,,,,,,,,
null,,rt_plussign_withcolor3,943952,,,,,,,,blue,,,null,object_02c.png,object_11c.png,,,,,,,,,,,,,,,,,,,,,
1422.9000000001397,,rt_thecrossant_black3,945350,,,,,,,,black_plus_sign,,,49,,,1,,,,,,,1,,,,,,,,,,,,,
null,,color_black3,945453,,,,,,,,black_plus_sign,,,null,,,,,,,,,,,,,,,,,,,,,,,
null,,learn_phase(without_color)3,948956,,,,,,,,black_plus_sign,,,null,object_01a.png,object_05c.png,,,,,,,,,,,,,,,,,,,,,
null,,black_cross(without_color)3,949984,,,,,,,,blue,,,null,object_01a.png,object_05c.png,,,,,,,,,,,,,,,,,,,,,
null,,rt_plussign_withcolor3,950486,,,,,,,,blue,,,null,object_01a.png,object_05c.png,,,,,,,,,,,,,,,,,,,,,
1412.3999999999069,,rt_thecrossant_black3,951465,,,,,,,,black_plus_sign,,,49,,,1,,,,,,,1,,,,,,,,,,,,,
null,,color_black3,951569,,,,,,,,black_plus_sign,,,null,,,,,,,,,,,,,,,,,,,,,,,
null,,learn_phase(without_color)3,955073,,,,,,,,black_plus_sign,,,null,object_03a.png,object_07b.png,,,,,,,,,,,,,,,,,,,,,
null,,black_cross(without_color)3,955502,,,,,,,,green,,,null,object_03a.png,object_07b.png,,,,,,,,,,,,,,,,,,,,,
null,,rt_plussign_withcolor3,956004,,,,,,,,green,,,null,object_03a.png,object_07b.png,,,,,,,,,,,,,,,,,,,,,
1502,,rt_thecrossant_black3,957581,,,,,,,,black_plus_sign,,,50,,,1,,,,,,,1,,,,,,,,,,,,,
null,,color_black3,957684,,,,,,,,black_plus_sign,,,null,,,,,,,,,,,,,,,,,,,,,,,
null,,learn_phase(without_color)3,961189,,,,,,,,black_plus_sign,,,null,object_14a.png,object_15c.png,,,,,,,,,,,,,,,,,,,,,
null,,black_cross(without_color)3,962220,,,,,,,,green,,,null,object_14a.png,object_15c.png,,,,,,,,,,,,,,,,,,,,,
null,,rt_plussign_withcolor3,962722,,,,,,,,green,,,null,object_14a.png,object_15c.png,,,,,,,,,,,,,,,,,,,,,
902.3999999999069,,rt_thecrossant_black3,963698,,,,,,,,black_plus_sign,,,50,,,1,,,,,,,1,,,,,,,,,,,,,
null,,color_black3,963800,,,,,,,,black_plus_sign,,,null,,,,,,,,,,,,,,,,,,,,,,,
null,,learn_phase(without_color)3,967304,,,,,,,,black_plus_sign,,,null,object_08c.png,object_04a.png,,,,,,,,,,,,,,,,,,,,,
null,,black_cross(without_color)3,967878,,,,,,,,green,,,null,object_08c.png,object_04a.png,,,,,,,,,,,,,,,,,,,,,
null,,rt_plussign_withcolor3,968380,,,,,,,,green,,,null,object_08c.png,object_04a.png,,,,,,,,,,,,,,,,,,,,,
1861.5,,rt_thecrossant_black3,969812,,,,,,,,black_plus_sign,,,50,,,1,,,,,,,1,,,,,,,,,,,,,
null,,color_black3,969915,,,,,,,,black_plus_sign,,,null,,,,,,,,,,,,,,,,,,,,,,,
null,,learn_phase(without_color)3,973420,,,,,,,,black_plus_sign,,,null,object_06b.png,object_03c.png,,,,,,,,,,,,,,,,,,,,,
null,,black_cross(without_color)3,973936,,,,,,,,green,,,null,object_06b.png,object_03c.png,,,,,,,,,,,,,,,,,,,,,
null,,rt_plussign_withcolor3,974438,,,,,,,,green,,,null,object_06b.png,object_03c.png,,,,,,,,,,,,,,,,,,,,,
1377.6000000000931,,rt_thecrossant_black3,975928,,,,,,,,black_plus_sign,,,50,,,1,,,,,,,1,,,,,,,,,,,,,
null,,color_black3,976031,,,,,,,,black_plus_sign,,,null,,,,,,,,,,,,,,,,,,,,,,,
null,,learn_phase(without_color)3,979536,,,,,,,,black_plus_sign,,,null,object_13c.png,object_09c.png,,,,,,,,,,,,,,,,,,,,,
null,,black_cross(without_color)3,980123,,,,,,,,green,,,null,object_13c.png,object_09c.png,,,,,,,,,,,,,,,,,,,,,
null,,rt_plussign_withcolor3,980625,,,,,,,,green,,,null,object_13c.png,object_09c.png,,,,,,,,,,,,,,,,,,,,,
935.1999999999534,,rt_thecrossant_black3,982044,,,,,,,,black_plus_sign,,,50,,,1,,,,,,,1,,,,,,,,,,,,,
null,,color_black3,982146,,,,,,,,black_plus_sign,,,null,,,,,,,,,,,,,,,,,,,,,,,
null,,learn_phase(without_color)3,985651,,,,,,,,black_plus_sign,,,null,object_10a.png,object_02a.png,,,,,,,,,,,,,,,,,,,,,
null,,black_cross(without_color)3,986301,,,,,,,,blue,,,null,object_10a.png,object_02a.png,,,,,,,,,,,,,,,,,,,,,
null,,rt_plussign_withcolor3,986803,,,,,,,,blue,,,null,object_10a.png,object_02a.png,,,,,,,,,,,,,,,,,,,,,
1328.7000000001863,,rt_thecrossant_black3,988158,,,,,,,,black_plus_sign,,,49,,,1,,,,,,,1,,,,,,,,,,,,,
null,,color_black3,988261,,,,,,,,black_plus_sign,,,null,,,,,,,,,,,,,,,,,,,,,,,
null,,learn_phase(without_color)3,991765,,,,,,,,black_plus_sign,,,null,object_01b.png,object_04c.png,,,,,,,,,,,,,,,,,,,,,
null,,black_cross(without_color)3,992506,,,,,,,,green,,,null,object_01b.png,object_04c.png,,,,,,,,,,,,,,,,,,,,,
null,,rt_plussign_withcolor3,993008,,,,,,,,green,,,null,object_01b.png,object_04c.png,,,,,,,,,,,,,,,,,,,,,
1008.1999999999534,,rt_thecrossant_black3,994273,,,,,,,,black_plus_sign,,,50,,,1,,,,,,,1,,,,,,,,,,,,,
null,,color_black3,994377,,,,,,,,black_plus_sign,,,null,,,,,,,,,,,,,,,,,,,,,,,
null,,learn_phase(without_color)3,997882,,,,,,,,black_plus_sign,,,null,object_02b.png,object_10c.png,,,,,,,,,,,,,,,,,,,,,
null,,black_cross(without_color)3,998747,,,,,,,,blue,,,null,object_02b.png,object_10c.png,,,,,,,,,,,,,,,,,,,,,
null,,rt_plussign_withcolor3,999249,,,,,,,,blue,,,null,object_02b.png,object_10c.png,,,,,,,,,,,,,,,,,,,,,
1009.5999999998603,,rt_thecrossant_black3,1000391,,,,,,,,black_plus_sign,,,49,,,1,,,,,,,1,,,,,,,,,,,,,
null,,color_black3,1000494,,,,,,,,black_plus_sign,,,null,,,,,,,,,,,,,,,,,,,,,,,
null,,learn_phase(without_color)3,1003999,,,,,,,,black_plus_sign,,,null,object_09b.png,object_14c.png,,,,,,,,,,,,,,,,,,,,,
null,,black_cross(without_color)3,1004725,,,,,,,,green,,,null,object_09b.png,object_14c.png,,,,,,,,,,,,,,,,,,,,,
null,,rt_plussign_withcolor3,1005227,,,,,,,,green,,,null,object_09b.png,object_14c.png,,,,,,,,,,,,,,,,,,,,,
1496.6999999999534,,rt_thecrossant_black3,1006508,,,,,,,,black_plus_sign,,,50,,,1,,,,,,,1,,,,,,,,,,,,,
null,,color_black3,1006611,,,,,,,,black_plus_sign,,,null,,,,,,,,,,,,,,,,,,,,,,,
null,,learn_phase(without_color)3,1010116,,,,,,,,black_plus_sign,,,null,object_15a.png,object_11a.png,,,,,,,,,,,,,,,,,,,,,
null,,black_cross(without_color)3,1010768,,,,,,,,green,,,null,object_15a.png,object_11a.png,,,,,,,,,,,,,,,,,,,,,
null,,rt_plussign_withcolor3,1011270,,,,,,,,green,,,null,object_15a.png,object_11a.png,,,,,,,,,,,,,,,,,,,,,
1284.5,,rt_thecrossant_black3,1012625,,,,,,,,black_plus_sign,,,50,,,1,,,,,,,1,,,,,,,,,,,,,
null,,color_black3,1012728,,,,,,,,black_plus_sign,,,null,,,,,,,,,,,,,,,,,,,,,,,
null,,learn_phase(without_color)3,1016231,,,,,,,,black_plus_sign,,,null,object_08b.png,object_07c.png,,,,,,,,,,,,,,,,,,,,,
null,,black_cross(without_color)3,1016821,,,,,,,,blue,,,null,object_08b.png,object_07c.png,,,,,,,,,,,,,,,,,,,,,
null,,rt_plussign_withcolor3,1017323,,,,,,,,blue,,,null,object_08b.png,object_07c.png,,,,,,,,,,,,,,,,,,,,,
1032.1999999999534,,rt_thecrossant_black3,1018740,,,,,,,,black_plus_sign,,,49,,,1,,,,,,,1,,,,,,,,,,,,,
null,,color_black3,1018844,,,,,,,,black_plus_sign,,,null,,,,,,,,,,,,,,,,,,,,,,,
null,,thebreak,1018948,,,,,,,,<p></p>,,,null,,,,,,,,,,,,,,,,,,,,,,,
2856.4000000001397,,intro_0,1021807,,,,,,,,instruct,,,32,,,,,,,,,,,,,,,,,,,,,,,
3885.8000000000466,,directmemory_phase3,1025696,,,,,,,,object_08c.png,,,51,,,1,,object_02a.png,object_10a.png,object_04a.png,object_04a.png,,0.3870967741935484,,1,,,,,,,,,,,
2573.100000000093,,directmemory_phase3,1028275,,,,,,,,object_01c.png,,,49,,,1,,object_06c.png,object_04a.png,object_05c.png,object_06c.png,,0.40625,,1,,,,,,,,,,,
4335.09999999986,,directmemory_phase3,1032615,,,,,,,,object_14a.png,,,49,,,1,,object_15c.png,object_04b.png,object_02c.png,object_15c.png,,0.42424242424242425,,1,,,,,,,,,,,
4082.1999999999534,,directmemory_phase3,1036702,,,,,,,,object_03a.png,,,50,,,1,,object_15a.png,object_07b.png,object_06c.png,object_07b.png,,0.4411764705882353,,1,,,,,,,,,,,
2494.1999999999534,,directmemory_phase3,1039201,,,,,,,,object_04c.png,,,49,,,0,,object_09c.png,object_01b.png,object_13c.png,object_01b.png,,0.42857142857142855,,0,,,,,,,,,,,
2514.6999999999534,,directmemory_phase3,1041718,,,,,,,,object_02c.png,,,51,,,1,,object_15c.png,object_01c.png,object_11c.png,object_11c.png,,0.4444444444444444,,1,,,,,,,,,,,
2616.1000000002095,,directmemory_phase3,1044340,,,,,,,,object_07a.png,,,50,,,1,,object_14a.png,object_04b.png,object_06c.png,object_04b.png,,0.4594594594594595,,1,,,,,,,,,,,
5143.699999999953,,directmemory_phase3,1049489,,,,,,,,object_10a.png,,,51,,,0,,object_15a.png,object_02a.png,object_04a.png,object_02a.png,,0.4473684210526316,,0,,,,,,,,,,,
4617.200000000186,,directmemory_phase3,1054112,,,,,,,,object_06b.png,,,50,,,0,,object_03c.png,object_01a.png,object_14a.png,object_03c.png,,0.4358974358974359,,0,,,,,,,,,,,
3164,,directmemory_phase3,1057283,,,,,,,,object_05c.png,,,49,,,0,,object_07b.png,object_04c.png,object_01a.png,object_01a.png,,0.425,,0,,,,,,,,,,,
4120.90000000014,,directmemory_phase3,1061406,,,,,,,,object_15a.png,,,49,,,1,,object_11a.png,object_07b.png,object_02b.png,object_11a.png,,0.43902439024390244,,1,,,,,,,,,,,
3971,,directmemory_phase3,1065382,,,,,,,,object_14c.png,,,49,,,1,,object_09b.png,object_11c.png,object_01c.png,object_09b.png,,0.4523809523809524,,1,,,,,,,,,,,
3578.8000000000466,,directmemory_phase3,1068967,,,,,,,,object_07c.png,,,50,,,1,,object_05c.png,object_08b.png,object_09b.png,object_08b.png,,0.46511627906976744,,1,,,,,,,,,,,
2989.5999999998603,,directmemory_phase3,1071959,,,,,,,,object_02b.png,,,50,,,1,,object_05c.png,object_10c.png,object_02a.png,object_10c.png,,0.4772727272727273,,1,,,,,,,,,,,
2692.8000000000466,,directmemory_phase3,1074658,,,,,,,,object_09c.png,,,50,,,1,,object_04c.png,object_13c.png,object_04a.png,object_13c.png,,0.4888888888888889,,1,,,,,,,,,,,
null,,thebreak,1074762,,,,,,,,<p></p>,,,null,,,,,,,,,,,,,,,,,,,,,,,
3056.1999999999534,,intro_0,1077821,,,,,,,,instruct,,,32,,,,,,,,,,,,,,,,,,,,,,,
null,,learn_phase(without_color)4,1081325,,,,,,,,black_plus_sign,,,null,object_04c.png,object_01b.png,,,,,,,,,,,,,,,,,,,,,
null,,black_cross(without_color)4,1081847,,,,,,,,green,,,null,object_04c.png,object_01b.png,,,,,,,,,,,,,,,,,,,,,
null,,rt_plussign_withcolor4,1082349,,,,,,,,green,,,null,object_04c.png,object_01b.png,,,,,,,,,,,,,,,,,,,,,
1338.1000000000931,,rt_thecrossant_black4,1083834,,,,,,,,black_plus_sign,,,50,,,1,,,,,,,1,,,,,,,,,,,,,
null,,color_black4,1083936,,,,,,,,black_plus_sign,,,null,,,,,,,,,,,,,,,,,,,,,,,
null,,learn_phase(without_color)4,1087441,,,,,,,,black_plus_sign,,,null,object_06b.png,object_03c.png,,,,,,,,,,,,,,,,,,,,,
null,,black_cross(without_color)4,1088188,,,,,,,,blue,,,null,object_06b.png,object_03c.png,,,,,,,,,,,,,,,,,,,,,
null,,rt_plussign_withcolor4,1088690,,,,,,,,blue,,,null,object_06b.png,object_03c.png,,,,,,,,,,,,,,,,,,,,,
802.3000000000466,,rt_thecrossant_black4,1089949,,,,,,,,black_plus_sign,,,49,,,1,,,,,,,1,,,,,,,,,,,,,
null,,color_black4,1090053,,,,,,,,black_plus_sign,,,null,,,,,,,,,,,,,,,,,,,,,,,
null,,learn_phase(without_color)4,1093558,,,,,,,,black_plus_sign,,,null,object_07c.png,object_08b.png,,,,,,,,,,,,,,,,,,,,,
null,,black_cross(without_color)4,1094278,,,,,,,,green,,,null,object_07c.png,object_08b.png,,,,,,,,,,,,,,,,,,,,,
null,,rt_plussign_withcolor4,1094780,,,,,,,,green,,,null,object_07c.png,object_08b.png,,,,,,,,,,,,,,,,,,,,,
1867.0999999998603,,rt_thecrossant_black4,1096066,,,,,,,,black_plus_sign,,,50,,,1,,,,,,,1,,,,,,,,,,,,,
null,,color_black4,1096170,,,,,,,,black_plus_sign,,,null,,,,,,,,,,,,,,,,,,,,,,,
null,,learn_phase(without_color)4,1099674,,,,,,,,black_plus_sign,,,null,object_09c.png,object_13c.png,,,,,,,,,,,,,,,,,,,,,
null,,black_cross(without_color)4,1100080,,,,,,,,blue,,,null,object_09c.png,object_13c.png,,,,,,,,,,,,,,,,,,,,,
null,,rt_plussign_withcolor4,1100583,,,,,,,,blue,,,null,object_09c.png,object_13c.png,,,,,,,,,,,,,,,,,,,,,
897.5,,rt_thecrossant_black4,1102183,,,,,,,,black_plus_sign,,,49,,,1,,,,,,,1,,,,,,,,,,,,,
null,,color_black4,1102286,,,,,,,,black_plus_sign,,,null,,,,,,,,,,,,,,,,,,,,,,,
null,,learn_phase(without_color)4,1105790,,,,,,,,black_plus_sign,,,null,object_07a.png,object_04b.png,,,,,,,,,,,,,,,,,,,,,
null,,black_cross(without_color)4,1106284,,,,,,,,blue,,,null,object_07a.png,object_04b.png,,,,,,,,,,,,,,,,,,,,,
null,,rt_plussign_withcolor4,1106787,,,,,,,,blue,,,null,object_07a.png,object_04b.png,,,,,,,,,,,,,,,,,,,,,
953.0999999998603,,rt_thecrossant_black4,1108300,,,,,,,,black_plus_sign,,,49,,,1,,,,,,,1,,,,,,,,,,,,,
null,,color_black4,1108403,,,,,,,,black_plus_sign,,,null,,,,,,,,,,,,,,,,,,,,,,,
null,,learn_phase(without_color)4,1111908,,,,,,,,black_plus_sign,,,null,object_05c.png,object_01a.png,,,,,,,,,,,,,,,,,,,,,
null,,black_cross(without_color)4,1112494,,,,,,,,green,,,null,object_05c.png,object_01a.png,,,,,,,,,,,,,,,,,,,,,
null,,rt_plussign_withcolor4,1112996,,,,,,,,green,,,null,object_05c.png,object_01a.png,,,,,,,,,,,,,,,,,,,,,
1111,,rt_thecrossant_black4,1114417,,,,,,,,black_plus_sign,,,50,,,1,,,,,,,1,,,,,,,,,,,,,
null,,color_black4,1114519,,,,,,,,black_plus_sign,,,null,,,,,,,,,,,,,,,,,,,,,,,
null,,learn_phase(without_color)4,1118022,,,,,,,,black_plus_sign,,,null,object_10a.png,object_02a.png,,,,,,,,,,,,,,,,,,,,,
null,,black_cross(without_color)4,1118466,,,,,,,,green,,,null,object_10a.png,object_02a.png,,,,,,,,,,,,,,,,,,,,,
null,,rt_plussign_withcolor4,1118969,,,,,,,,green,,,null,object_10a.png,object_02a.png,,,,,,,,,,,,,,,,,,,,,
1227,,rt_thecrossant_black4,1120532,,,,,,,,black_plus_sign,,,50,,,1,,,,,,,1,,,,,,,,,,,,,
null,,color_black4,1120635,,,,,,,,black_plus_sign,,,null,,,,,,,,,,,,,,,,,,,,,,,
null,,learn_phase(without_color)4,1124140,,,,,,,,black_plus_sign,,,null,object_03a.png,object_07b.png,,,,,,,,,,,,,,,,,,,,,
null,,black_cross(without_color)4,1124754,,,,,,,,green,,,null,object_03a.png,object_07b.png,,,,,,,,,,,,,,,,,,,,,
null,,rt_plussign_withcolor4,1125256,,,,,,,,green,,,null,object_03a.png,object_07b.png,,,,,,,,,,,,,,,,,,,,,
943.2000000001863,,rt_thecrossant_black4,1126648,,,,,,,,black_plus_sign,,,50,,,1,,,,,,,1,,,,,,,,,,,,,
null,,color_black4,1126752,,,,,,,,black_plus_sign,,,null,,,,,,,,,,,,,,,,,,,,,,,
null,,learn_phase(without_color)4,1130257,,,,,,,,black_plus_sign,,,null,object_15c.png,object_14a.png,,,,,,,,,,,,,,,,,,,,,
null,,black_cross(without_color)4,1130971,,,,,,,,green,,,null,object_15c.png,object_14a.png,,,,,,,,,,,,,,,,,,,,,
null,,rt_plussign_withcolor4,1131473,,,,,,,,green,,,null,object_15c.png,object_14a.png,,,,,,,,,,,,,,,,,,,,,
885.8000000000466,,rt_thecrossant_black4,1132765,,,,,,,,black_plus_sign,,,50,,,1,,,,,,,1,,,,,,,,,,,,,
null,,color_black4,1132867,,,,,,,,black_plus_sign,,,null,,,,,,,,,,,,,,,,,,,,,,,
null,,learn_phase(without_color)4,1136370,,,,,,,,black_plus_sign,,,null,object_04a.png,object_08c.png,,,,,,,,,,,,,,,,,,,,,
null,,black_cross(without_color)4,1137035,,,,,,,,green,,,null,object_04a.png,object_08c.png,,,,,,,,,,,,,,,,,,,,,
null,,rt_plussign_withcolor4,1137538,,,,,,,,green,,,null,object_04a.png,object_08c.png,,,,,,,,,,,,,,,,,,,,,
1242.3999999999069,,rt_thecrossant_black4,1138880,,,,,,,,black_plus_sign,,,50,,,1,,,,,,,1,,,,,,,,,,,,,
null,,color_black4,1138983,,,,,,,,black_plus_sign,,,null,,,,,,,,,,,,,,,,,,,,,,,
null,,learn_phase(without_color)4,1142488,,,,,,,,black_plus_sign,,,null,object_02c.png,object_11c.png,,,,,,,,,,,,,,,,,,,,,
null,,black_cross(without_color)4,1143245,,,,,,,,green,,,null,object_02c.png,object_11c.png,,,,,,,,,,,,,,,,,,,,,
null,,rt_plussign_withcolor4,1143748,,,,,,,,green,,,null,object_02c.png,object_11c.png,,,,,,,,,,,,,,,,,,,,,
1099.3000000000466,,rt_thecrossant_black4,1144998,,,,,,,,black_plus_sign,,,50,,,1,,,,,,,1,,,,,,,,,,,,,
null,,color_black4,1145102,,,,,,,,black_plus_sign,,,null,,,,,,,,,,,,,,,,,,,,,,,
null,,learn_phase(without_color)4,1148607,,,,,,,,black_plus_sign,,,null,object_02b.png,object_10c.png,,,,,,,,,,,,,,,,,,,,,
null,,black_cross(without_color)4,1149210,,,,,,,,green,,,null,object_02b.png,object_10c.png,,,,,,,,,,,,,,,,,,,,,
null,,rt_plussign_withcolor4,1149713,,,,,,,,green,,,null,object_02b.png,object_10c.png,,,,,,,,,,,,,,,,,,,,,
960.2000000001863,,rt_thecrossant_black4,1151116,,,,,,,,black_plus_sign,,,50,,,1,,,,,,,1,,,,,,,,,,,,,
null,,color_black4,1151220,,,,,,,,black_plus_sign,,,null,,,,,,,,,,,,,,,,,,,,,,,
null,,learn_phase(without_color)4,1154725,,,,,,,,black_plus_sign,,,null,object_01c.png,object_06c.png,,,,,,,,,,,,,,,,,,,,,
null,,black_cross(without_color)4,1155637,,,,,,,,blue,,,null,object_01c.png,object_06c.png,,,,,,,,,,,,,,,,,,,,,
null,,rt_plussign_withcolor4,1156140,,,,,,,,blue,,,null,object_01c.png,object_06c.png,,,,,,,,,,,,,,,,,,,,,
792.8999999999069,,rt_thecrossant_black4,1157235,,,,,,,,black_plus_sign,,,49,,,1,,,,,,,1,,,,,,,,,,,,,
null,,color_black4,1157338,,,,,,,,black_plus_sign,,,null,,,,,,,,,,,,,,,,,,,,,,,
null,,learn_phase(without_color)4,1160843,,,,,,,,black_plus_sign,,,null,object_09b.png,object_14c.png,,,,,,,,,,,,,,,,,,,,,
null,,black_cross(without_color)4,1161289,,,,,,,,blue,,,null,object_09b.png,object_14c.png,,,,,,,,,,,,,,,,,,,,,
null,,rt_plussign_withcolor4,1161792,,,,,,,,blue,,,null,object_09b.png,object_14c.png,,,,,,,,,,,,,,,,,,,,,
1898.3999999999069,,rt_thecrossant_black4,1163352,,,,,,,,black_plus_sign,,,49,,,1,,,,,,,1,,,,,,,,,,,,,
null,,color_black4,1163456,,,,,,,,black_plus_sign,,,null,,,,,,,,,,,,,,,,,,,,,,,
null,,learn_phase(without_color)4,1166961,,,,,,,,black_plus_sign,,,null,object_15a.png,object_11a.png,,,,,,,,,,,,,,,,,,,,,
null,,black_cross(without_color)4,1167895,,,,,,,,green,,,null,object_15a.png,object_11a.png,,,,,,,,,,,,,,,,,,,,,
null,,rt_plussign_withcolor4,1168396,,,,,,,,green,,,null,object_15a.png,object_11a.png,,,,,,,,,,,,,,,,,,,,,
660.8000000000466,,rt_thecrossant_black4,1169468,,,,,,,,black_plus_sign,,,50,,,1,,,,,,,1,,,,,,,,,,,,,
null,,color_black4,1169572,,,,,,,,black_plus_sign,,,null,,,,,,,,,,,,,,,,,,,,,,,
null,,thebreak,1169676,,,,,,,,<p></p>,,,null,,,,,,,,,,,,,,,,,,,,,,,
1572.5,,intro_0,1171251,,,,,,,,instruct,,,32,,,,,,,,,,,,,,,,,,,,,,,
1727.3000000000466,,directmemory_phase4,1172982,,,,,,,,object_07a.png,,,49,,,1,,object_04b.png,object_09b.png,object_14a.png,object_04b.png,,0.5,,1,,,,,,,,,,,
3222.6999999999534,,directmemory_phase4,1176212,,,,,,,,object_04c.png,,,49,,,1,,object_01b.png,object_09b.png,object_09c.png,object_01b.png,,0.5106382978723404,,1,,,,,,,,,,,
3690.5,,directmemory_phase4,1179908,,,,,,,,object_05c.png,,,50,,,0,,object_07b.png,object_02b.png,object_01a.png,object_01a.png,,0.5,,0,,,,,,,,,,,
4383.59999999986,,directmemory_phase4,1184299,,,,,,,,object_14c.png,,,50,,,0,,object_07b.png,object_14a.png,object_09b.png,object_09b.png,,0.4897959183673469,,0,,,,,,,,,,,
3919,,directmemory_phase4,1188224,,,,,,,,object_03a.png,,,50,,,1,,object_07c.png,object_07b.png,object_02a.png,object_07b.png,,0.5,,1,,,,,,,,,,,
3192.7000000001863,,directmemory_phase4,1191423,,,,,,,,object_15a.png,,,51,,,1,,object_01b.png,object_09c.png,object_11a.png,object_11a.png,,0.5098039215686274,,1,,,,,,,,,,,
1681.3999999999069,,directmemory_phase4,1193111,,,,,,,,object_01c.png,,,49,,,1,,object_06c.png,object_13c.png,object_03a.png,object_06c.png,,0.5192307692307693,,1,,,,,,,,,,,
2372.4000000001397,,directmemory_phase4,1195488,,,,,,,,object_10a.png,,,51,,,1,,object_11a.png,object_15a.png,object_02a.png,object_02a.png,,0.5283018867924528,,1,,,,,,,,,,,
4336.5,,directmemory_phase4,1199828,,,,,,,,object_08c.png,,,50,,,1,,object_14c.png,object_04a.png,object_15c.png,object_04a.png,,0.5370370370370371,,1,,,,,,,,,,,
2040.3999999999069,,directmemory_phase4,1201875,,,,,,,,object_06b.png,,,49,,,1,,object_03c.png,object_15c.png,object_02b.png,object_03c.png,,0.5454545454545454,,1,,,,,,,,,,,
2683.100000000093,,directmemory_phase4,1204561,,,,,,,,object_09c.png,,,50,,,1,,object_02b.png,object_13c.png,object_15c.png,object_13c.png,,0.5535714285714286,,1,,,,,,,,,,,
2780.0999999998603,,directmemory_phase4,1207348,,,,,,,,object_02c.png,,,50,,,1,,object_15a.png,object_11c.png,object_08b.png,object_11c.png,,0.5614035087719298,,1,,,,,,,,,,,
2730.100000000093,,directmemory_phase4,1210085,,,,,,,,object_14a.png,,,51,,,1,,object_11c.png,object_07a.png,object_15c.png,object_15c.png,,0.5689655172413793,,1,,,,,,,,,,,
3607,,directmemory_phase4,1213697,,,,,,,,object_07c.png,,,51,,,1,,object_01b.png,object_14a.png,object_08b.png,object_08b.png,,0.576271186440678,,1,,,,,,,,,,,
2995.9000000001397,,directmemory_phase4,1216700,,,,,,,,object_02b.png,,,51,,,1,,object_01a.png,object_05c.png,object_10c.png,object_10c.png,,0.5833333333333334,,1,,,,,,,,,,,
null,,thebreak,1216804,,,,,,,,<p></p>,,,null,,,,,,,,,,,,,,,,,,,,,,,
2006.6999999999534,,intro_0,1218814,,,,,,,,instruct,,,32,,,,,,,,,,,,,,,,,,,,,,,
null,,learn_phase(without_color)5,1222317,,,,,,,,black_plus_sign,,,null,object_11b.png,object_04b.png,,,,,,,,,,,,,,,,,,,,,
null,,black_cross(without_color)5,1223304,,,,,,,,green,,,null,object_11b.png,object_04b.png,,,,,,,,,,,,,,,,,,,,,
null,,rt_plussign_withcolor5,1223806,,,,,,,,green,,,null,object_11b.png,object_04b.png,,,,,,,,,,,,,,,,,,,,,
1552.5,,rt_thecrossant_black5,1224828,,,,,,,,black_plus_sign,,,50,,,1,,,,,,,1,,,,,,,,,,,,,
null,,color_black5,1224931,,,,,,,,black_plus_sign,,,null,,,,,,,,,,,,,,,,,,,,,,,
null,,learn_phase(without_color)5,1228436,,,,,,,,black_plus_sign,,,null,object_09a.png,object_11c.png,,,,,,,,,,,,,,,,,,,,,
null,,black_cross(without_color)5,1229045,,,,,,,,blue,,,null,object_09a.png,object_11c.png,,,,,,,,,,,,,,,,,,,,,
null,,rt_plussign_withcolor5,1229548,,,,,,,,blue,,,null,object_09a.png,object_11c.png,,,,,,,,,,,,,,,,,,,,,
1852.1999999999534,,rt_thecrossant_black5,1230946,,,,,,,,black_plus_sign,,,49,,,1,,,,,,,1,,,,,,,,,,,,,
null,,color_black5,1231049,,,,,,,,black_plus_sign,,,null,,,,,,,,,,,,,,,,,,,,,,,
null,,learn_phase(without_color)5,1234554,,,,,,,,black_plus_sign,,,null,object_08a.png,object_02a.png,,,,,,,,,,,,,,,,,,,,,
null,,black_cross(without_color)5,1235062,,,,,,,,blue,,,null,object_08a.png,object_02a.png,,,,,,,,,,,,,,,,,,,,,
null,,rt_plussign_withcolor5,1235564,,,,,,,,blue,,,null,object_08a.png,object_02a.png,,,,,,,,,,,,,,,,,,,,,
824.1000000000931,,rt_thecrossant_black5,1237061,,,,,,,,black_plus_sign,,,49,,,1,,,,,,,1,,,,,,,,,,,,,
null,,color_black5,1237165,,,,,,,,black_plus_sign,,,null,,,,,,,,,,,,,,,,,,,,,,,
null,,learn_phase(without_color)5,1240670,,,,,,,,black_plus_sign,,,null,object_08b.png,object_13a.png,,,,,,,,,,,,,,,,,,,,,
null,,black_cross(without_color)5,1241194,,,,,,,,green,,,null,object_08b.png,object_13a.png,,,,,,,,,,,,,,,,,,,,,
null,,rt_plussign_withcolor5,1241697,,,,,,,,green,,,null,object_08b.png,object_13a.png,,,,,,,,,,,,,,,,,,,,,
682.0999999998603,,rt_thecrossant_black5,1243179,,,,,,,,black_plus_sign,,,50,,,1,,,,,,,1,,,,,,,,,,,,,
null,,color_black5,1243282,,,,,,,,black_plus_sign,,,null,,,,,,,,,,,,,,,,,,,,,,,
null,,learn_phase(without_color)5,1246787,,,,,,,,black_plus_sign,,,null,object_12a.png,object_01b.png,,,,,,,,,,,,,,,,,,,,,
null,,black_cross(without_color)5,1247520,,,,,,,,blue,,,null,object_12a.png,object_01b.png,,,,,,,,,,,,,,,,,,,,,
null,,rt_plussign_withcolor5,1248023,,,,,,,,blue,,,null,object_12a.png,object_01b.png,,,,,,,,,,,,,,,,,,,,,
931.5,,rt_thecrossant_black5,1249297,,,,,,,,black_plus_sign,,,49,,,1,,,,,,,1,,,,,,,,,,,,,
null,,color_black5,1249399,,,,,,,,black_plus_sign,,,null,,,,,,,,,,,,,,,,,,,,,,,
null,,learn_phase(without_color)5,1252903,,,,,,,,black_plus_sign,,,null,object_03b.png,object_04a.png,,,,,,,,,,,,,,,,,,,,,
null,,black_cross(without_color)5,1253778,,,,,,,,blue,,,null,object_03b.png,object_04a.png,,,,,,,,,,,,,,,,,,,,,
null,,rt_plussign_withcolor5,1254281,,,,,,,,blue,,,null,object_03b.png,object_04a.png,,,,,,,,,,,,,,,,,,,,,
1203.3000000000466,,rt_thecrossant_black5,1255413,,,,,,,,black_plus_sign,,,49,,,1,,,,,,,1,,,,,,,,,,,,,
null,,color_black5,1255516,,,,,,,,black_plus_sign,,,null,,,,,,,,,,,,,,,,,,,,,,,
null,,learn_phase(without_color)5,1259021,,,,,,,,black_plus_sign,,,null,object_01a.png,object_15b.png,,,,,,,,,,,,,,,,,,,,,
null,,black_cross(without_color)5,1259488,,,,,,,,green,,,null,object_01a.png,object_15b.png,,,,,,,,,,,,,,,,,,,,,
null,,rt_plussign_withcolor5,1259991,,,,,,,,green,,,null,object_01a.png,object_15b.png,,,,,,,,,,,,,,,,,,,,,
1804.0999999998603,,rt_thecrossant_black5,1261531,,,,,,,,black_plus_sign,,,50,,,1,,,,,,,1,,,,,,,,,,,,,
null,,color_black5,1261635,,,,,,,,black_plus_sign,,,null,,,,,,,,,,,,,,,,,,,,,,,
null,,learn_phase(without_color)5,1265140,,,,,,,,black_plus_sign,,,null,object_06a.png,object_09b.png,,,,,,,,,,,,,,,,,,,,,
null,,black_cross(without_color)5,1265788,,,,,,,,green,,,null,object_06a.png,object_09b.png,,,,,,,,,,,,,,,,,,,,,
null,,rt_plussign_withcolor5,1266291,,,,,,,,green,,,null,object_06a.png,object_09b.png,,,,,,,,,,,,,,,,,,,,,
580.7000000001863,,rt_thecrossant_black5,1267650,,,,,,,,black_plus_sign,,,50,,,1,,,,,,,1,,,,,,,,,,,,,
null,,color_black5,1267753,,,,,,,,black_plus_sign,,,null,,,,,,,,,,,,,,,,,,,,,,,
null,,learn_phase(without_color)5,1271258,,,,,,,,black_plus_sign,,,null,object_12b.png,object_06c.png,,,,,,,,,,,,,,,,,,,,,
null,,black_cross(without_color)5,1272319,,,,,,,,blue,,,null,object_12b.png,object_06c.png,,,,,,,,,,,,,,,,,,,,,
null,,rt_plussign_withcolor5,1272821,,,,,,,,blue,,,null,object_12b.png,object_06c.png,,,,,,,,,,,,,,,,,,,,,
1248.5,,rt_thecrossant_black5,1273767,,,,,,,,black_plus_sign,,,49,,,1,,,,,,,1,,,,,,,,,,,,,
null,,color_black5,1273870,,,,,,,,black_plus_sign,,,null,,,,,,,,,,,,,,,,,,,,,,,
null,,learn_phase(without_color)5,1277373,,,,,,,,black_plus_sign,,,null,object_10b.png,object_03c.png,,,,,,,,,,,,,,,,,,,,,
null,,black_cross(without_color)5,1278044,,,,,,,,blue,,,null,object_10b.png,object_03c.png,,,,,,,,,,,,,,,,,,,,,
null,,rt_plussign_withcolor5,1278547,,,,,,,,blue,,,null,object_10b.png,object_03c.png,,,,,,,,,,,,,,,,,,,,,
1720.1000000000931,,rt_thecrossant_black5,1279883,,,,,,,,black_plus_sign,,,49,,,1,,,,,,,1,,,,,,,,,,,,,
null,,color_black5,1279986,,,,,,,,black_plus_sign,,,null,,,,,,,,,,,,,,,,,,,,,,,
null,,learn_phase(without_color)5,1283491,,,,,,,,black_plus_sign,,,null,object_05a.png,object_10c.png,,,,,,,,,,,,,,,,,,,,,
null,,black_cross(without_color)5,1284307,,,,,,,,blue,,,null,object_05a.png,object_10c.png,,,,,,,,,,,,,,,,,,,,,
null,,rt_plussign_withcolor5,1284809,,,,,,,,blue,,,null,object_05a.png,object_10c.png,,,,,,,,,,,,,,,,,,,,,
1506.8000000000466,,rt_thecrossant_black5,1286000,,,,,,,,black_plus_sign,,,49,,,1,,,,,,,1,,,,,,,,,,,,,
null,,color_black5,1286104,,,,,,,,black_plus_sign,,,null,,,,,,,,,,,,,,,,,,,,,,,
null,,learn_phase(without_color)5,1289609,,,,,,,,black_plus_sign,,,null,object_14b.png,object_13c.png,,,,,,,,,,,,,,,,,,,,,
null,,black_cross(without_color)5,1290211,,,,,,,,green,,,null,object_14b.png,object_13c.png,,,,,,,,,,,,,,,,,,,,,
null,,rt_plussign_withcolor5,1290713,,,,,,,,green,,,null,object_14b.png,object_13c.png,,,,,,,,,,,,,,,,,,,,,
1210.4000000001397,,rt_thecrossant_black5,1292119,,,,,,,,black_plus_sign,,,50,,,1,,,,,,,1,,,,,,,,,,,,,
null,,color_black5,1292222,,,,,,,,black_plus_sign,,,null,,,,,,,,,,,,,,,,,,,,,,,
null,,learn_phase(without_color)5,1295726,,,,,,,,black_plus_sign,,,null,object_11a.png,object_05b.png,,,,,,,,,,,,,,,,,,,,,
null,,black_cross(without_color)5,1296284,,,,,,,,green,,,null,object_11a.png,object_05b.png,,,,,,,,,,,,,,,,,,,,,
null,,rt_plussign_withcolor5,1296786,,,,,,,,green,,,null,object_11a.png,object_05b.png,,,,,,,,,,,,,,,,,,,,,
1031.3000000000466,,rt_thecrossant_black5,1298235,,,,,,,,black_plus_sign,,,50,,,1,,,,,,,1,,,,,,,,,,,,,
null,,color_black5,1298338,,,,,,,,black_plus_sign,,,null,,,,,,,,,,,,,,,,,,,,,,,
null,,learn_phase(without_color)5,1301844,,,,,,,,black_plus_sign,,,null,object_07b.png,object_12c.png,,,,,,,,,,,,,,,,,,,,,
null,,black_cross(without_color)5,1302429,,,,,,,,green,,,null,object_07b.png,object_12c.png,,,,,,,,,,,,,,,,,,,,,
null,,rt_plussign_withcolor5,1302931,,,,,,,,green,,,null,object_07b.png,object_12c.png,,,,,,,,,,,,,,,,,,,,,
1318.1999999999534,,rt_thecrossant_black5,1304354,,,,,,,,black_plus_sign,,,50,,,1,,,,,,,1,,,,,,,,,,,,,
null,,color_black5,1304458,,,,,,,,black_plus_sign,,,null,,,,,,,,,,,,,,,,,,,,,,,
null,,learn_phase(without_color)5,1307963,,,,,,,,black_plus_sign,,,null,object_13b.png,object_15c.png,,,,,,,,,,,,,,,,,,,,,
null,,black_cross(without_color)5,1308487,,,,,,,,green,,,null,object_13b.png,object_15c.png,,,,,,,,,,,,,,,,,,,,,
null,,rt_plussign_withcolor5,1308989,,,,,,,,green,,,null,object_13b.png,object_15c.png,,,,,,,,,,,,,,,,,,,,,
699,,rt_thecrossant_black5,1310473,,,,,,,,black_plus_sign,,,50,,,1,,,,,,,1,,,,,,,,,,,,,
null,,color_black5,1310575,,,,,,,,black_plus_sign,,,null,,,,,,,,,,,,,,,,,,,,,,,
null,,thebreak,1310680,,,,,,,,<p></p>,,,null,,,,,,,,,,,,,,,,,,,,,,,
2096.5,,intro_0,1312779,,,,,,,,instruct,,,32,,,,,,,,,,,,,,,,,,,,,,,
3875.5,,directmemory_phase5,1316660,,,,,,,,object_01a.png,,,51,,,1,,object_05b.png,object_04b.png,object_15b.png,object_15b.png,,0.5901639344262295,,1,,,,,,,,,,,
5149.699999999953,,directmemory_phase5,1321816,,,,,,,,object_11b.png,,,50,,,0,,object_04b.png,object_04a.png,object_05a.png,object_04b.png,,0.5806451612903226,,0,,,,,,,,,,,
3466.0999999998603,,directmemory_phase5,1325286,,,,,,,,object_03b.png,,,49,,,1,,object_04a.png,object_01a.png,object_12c.png,object_04a.png,,0.5873015873015873,,1,,,,,,,,,,,
3330.600000000093,,directmemory_phase5,1328625,,,,,,,,object_11c.png,,,49,,,1,,object_09a.png,object_11b.png,object_09b.png,object_09a.png,,0.59375,,1,,,,,,,,,,,
3111.0999999998603,,directmemory_phase5,1331743,,,,,,,,object_07b.png,,,49,,,1,,object_12c.png,object_03b.png,object_10c.png,object_12c.png,,0.6,,1,,,,,,,,,,,
4512.699999999953,,directmemory_phase5,1336258,,,,,,,,object_08b.png,,,49,,,0,,object_05a.png,object_11c.png,object_13a.png,object_13a.png,,0.5909090909090909,,0,,,,,,,,,,,
5454.40000000014,,directmemory_phase5,1341716,,,,,,,,object_12a.png,,,50,,,0,,object_01b.png,object_06c.png,object_09a.png,object_01b.png,,0.582089552238806,,0,,,,,,,,,,,
3959.399999999907,,directmemory_phase5,1345683,,,,,,,,object_12b.png,,,51,,,1,,object_15c.png,object_06a.png,object_06c.png,object_06c.png,,0.5882352941176471,,1,,,,,,,,,,,
3116.2999999998137,,directmemory_phase5,1348807,,,,,,,,object_10b.png,,,50,,,1,,object_09a.png,object_03c.png,object_15c.png,object_03c.png,,0.5942028985507246,,1,,,,,,,,,,,
3343.899999999907,,directmemory_phase5,1352157,,,,,,,,object_15c.png,,,50,,,1,,object_01b.png,object_13b.png,object_12c.png,object_13b.png,,0.6,,1,,,,,,,,,,,
3998.399999999907,,directmemory_phase5,1356161,,,,,,,,object_05a.png,,,51,,,0,,object_10c.png,object_04b.png,object_11b.png,object_10c.png,,0.5915492957746479,,0,,,,,,,,,,,
3923.8000000000466,,directmemory_phase5,1360093,,,,,,,,object_06a.png,,,51,,,1,,object_06c.png,object_14b.png,object_09b.png,object_09b.png,,0.5972222222222222,,1,,,,,,,,,,,
3540.600000000093,,directmemory_phase5,1363641,,,,,,,,object_08a.png,,,49,,,1,,object_02a.png,object_09b.png,object_11b.png,object_02a.png,,0.6027397260273972,,1,,,,,,,,,,,
2913.7999999998137,,directmemory_phase5,1366561,,,,,,,,object_14b.png,,,49,,,0,,object_09a.png,object_13c.png,object_02a.png,object_13c.png,,0.5945945945945946,,0,,,,,,,,,,,
3104.2999999998137,,directmemory_phase5,1369672,,,,,,,,object_11a.png,,,50,,,0,,object_05b.png,object_15b.png,object_08b.png,object_05b.png,,0.5866666666666667,,0,,,,,,,,,,,
null,,thebreak,1369780,,,,,,,,<p></p>,,,null,,,,,,,,,,,,,,,,,,,,,,,
1555.5,,intro_0,1371338,,,,,,,,instruct,,,32,,,,,,,,,,,,,,,,,,,,,,,
null,,learn_phase(without_color)6,1374842,,,,,,,,black_plus_sign,,,null,object_04b.png,object_11b.png,,,,,,,,,,,,,,,,,,,,,
null,,black_cross(without_color)6,1375720,,,,,,,,green,,,null,object_04b.png,object_11b.png,,,,,,,,,,,,,,,,,,,,,
null,,rt_plussign_withcolor6,1376222,,,,,,,,green,,,null,object_04b.png,object_11b.png,,,,,,,,,,,,,,,,,,,,,
1268.1000000000931,,rt_thecrossant_black6,1377351,,,,,,,,black_plus_sign,,,50,,,1,,,,,,,1,,,,,,,,,,,,,
null,,color_black6,1377455,,,,,,,,black_plus_sign,,,null,,,,,,,,,,,,,,,,,,,,,,,
null,,learn_phase(without_color)6,1380960,,,,,,,,black_plus_sign,,,null,object_05a.png,object_10c.png,,,,,,,,,,,,,,,,,,,,,
null,,black_cross(without_color)6,1381890,,,,,,,,green,,,null,object_05a.png,object_10c.png,,,,,,,,,,,,,,,,,,,,,
null,,rt_plussign_withcolor6,1382393,,,,,,,,green,,,null,object_05a.png,object_10c.png,,,,,,,,,,,,,,,,,,,,,
1016.6999999999534,,rt_thecrossant_black6,1383470,,,,,,,,black_plus_sign,,,50,,,1,,,,,,,1,,,,,,,,,,,,,
null,,color_black6,1383573,,,,,,,,black_plus_sign,,,null,,,,,,,,,,,,,,,,,,,,,,,
null,,learn_phase(without_color)6,1387078,,,,,,,,black_plus_sign,,,null,object_10b.png,object_03c.png,,,,,,,,,,,,,,,,,,,,,
null,,black_cross(without_color)6,1387847,,,,,,,,blue,,,null,object_10b.png,object_03c.png,,,,,,,,,,,,,,,,,,,,,
null,,rt_plussign_withcolor6,1388350,,,,,,,,blue,,,null,object_10b.png,object_03c.png,,,,,,,,,,,,,,,,,,,,,
1057.1999999999534,,rt_thecrossant_black6,1389589,,,,,,,,black_plus_sign,,,49,,,1,,,,,,,1,,,,,,,,,,,,,
null,,color_black6,1389693,,,,,,,,black_plus_sign,,,null,,,,,,,,,,,,,,,,,,,,,,,
null,,learn_phase(without_color)6,1393198,,,,,,,,black_plus_sign,,,null,object_11a.png,object_05b.png,,,,,,,,,,,,,,,,,,,,,
null,,black_cross(without_color)6,1394015,,,,,,,,green,,,null,object_11a.png,object_05b.png,,,,,,,,,,,,,,,,,,,,,
485.19999999995343,,rt_plussign_withcolor6,1394517,,,,,,,,green,,,50,object_11a.png,object_05b.png,,,,,,,,,,,,,,,,,,,,,
null,,rt_thecrossant_black6,1395707,,,,,,,,black_plus_sign,,,null,,,1,,,,,,,1,,,,,,,,,,,,,
null,,color_black6,1395810,,,,,,,,black_plus_sign,,,null,,,,,,,,,,,,,,,,,,,,,,,
null,,learn_phase(without_color)6,1399314,,,,,,,,black_plus_sign,,,null,object_12c.png,object_07b.png,,,,,,,,,,,,,,,,,,,,,
null,,black_cross(without_color)6,1400073,,,,,,,,blue,,,null,object_12c.png,object_07b.png,,,,,,,,,,,,,,,,,,,,,
null,,rt_plussign_withcolor6,1400576,,,,,,,,blue,,,null,object_12c.png,object_07b.png,,,,,,,,,,,,,,,,,,,,,
1267.1999999999534,,rt_thecrossant_black6,1401824,,,,,,,,black_plus_sign,,,49,,,1,,,,,,,1,,,,,,,,,,,,,
null,,color_black6,1401928,,,,,,,,black_plus_sign,,,null,,,,,,,,,,,,,,,,,,,,,,,
null,,learn_phase(without_color)6,1405433,,,,,,,,black_plus_sign,,,null,object_06c.png,object_12b.png,,,,,,,,,,,,,,,,,,,,,
null,,black_cross(without_color)6,1406465,,,,,,,,green,,,null,object_06c.png,object_12b.png,,,,,,,,,,,,,,,,,,,,,
null,,rt_plussign_withcolor6,1406968,,,,,,,,green,,,null,object_06c.png,object_12b.png,,,,,,,,,,,,,,,,,,,,,
1116.1000000000931,,rt_thecrossant_black6,1407943,,,,,,,,black_plus_sign,,,50,,,1,,,,,,,1,,,,,,,,,,,,,
null,,color_black6,1408046,,,,,,,,black_plus_sign,,,null,,,,,,,,,,,,,,,,,,,,,,,
null,,learn_phase(without_color)6,1411551,,,,,,,,black_plus_sign,,,null,object_12a.png,object_01b.png,,,,,,,,,,,,,,,,,,,,,
null,,black_cross(without_color)6,1412037,,,,,,,,blue,,,null,object_12a.png,object_01b.png,,,,,,,,,,,,,,,,,,,,,
null,,rt_plussign_withcolor6,1412540,,,,,,,,blue,,,null,object_12a.png,object_01b.png,,,,,,,,,,,,,,,,,,,,,
1712.3000000000466,,rt_thecrossant_black6,1414061,,,,,,,,black_plus_sign,,,49,,,1,,,,,,,1,,,,,,,,,,,,,
null,,color_black6,1414164,,,,,,,,black_plus_sign,,,null,,,,,,,,,,,,,,,,,,,,,,,
null,,learn_phase(without_color)6,1417669,,,,,,,,black_plus_sign,,,null,object_02a.png,object_08a.png,,,,,,,,,,,,,,,,,,,,,
null,,black_cross(without_color)6,1418137,,,,,,,,green,,,null,object_02a.png,object_08a.png,,,,,,,,,,,,,,,,,,,,,
null,,rt_plussign_withcolor6,1418640,,,,,,,,green,,,null,object_02a.png,object_08a.png,,,,,,,,,,,,,,,,,,,,,
903.4000000001397,,rt_thecrossant_black6,1420179,,,,,,,,black_plus_sign,,,50,,,1,,,,,,,1,,,,,,,,,,,,,
null,,color_black6,1420283,,,,,,,,black_plus_sign,,,null,,,,,,,,,,,,,,,,,,,,,,,
null,,learn_phase(without_color)6,1423788,,,,,,,,black_plus_sign,,,null,object_11c.png,object_09a.png,,,,,,,,,,,,,,,,,,,,,
null,,black_cross(without_color)6,1424354,,,,,,,,green,,,null,object_11c.png,object_09a.png,,,,,,,,,,,,,,,,,,,,,
null,,rt_plussign_withcolor6,1424857,,,,,,,,green,,,null,object_11c.png,object_09a.png,,,,,,,,,,,,,,,,,,,,,
1154.3999999999069,,rt_thecrossant_black6,1426297,,,,,,,,black_plus_sign,,,50,,,1,,,,,,,1,,,,,,,,,,,,,
null,,color_black6,1426400,,,,,,,,black_plus_sign,,,null,,,,,,,,,,,,,,,,,,,,,,,
null,,learn_phase(without_color)6,1429906,,,,,,,,black_plus_sign,,,null,object_08b.png,object_13a.png,,,,,,,,,,,,,,,,,,,,,
null,,black_cross(without_color)6,1430787,,,,,,,,green,,,null,object_08b.png,object_13a.png,,,,,,,,,,,,,,,,,,,,,
null,,rt_plussign_withcolor6,1431289,,,,,,,,green,,,null,object_08b.png,object_13a.png,,,,,,,,,,,,,,,,,,,,,
986.5,,rt_thecrossant_black6,1432415,,,,,,,,black_plus_sign,,,50,,,1,,,,,,,1,,,,,,,,,,,,,
null,,color_black6,1432518,,,,,,,,black_plus_sign,,,null,,,,,,,,,,,,,,,,,,,,,,,
null,,learn_phase(without_color)6,1436023,,,,,,,,black_plus_sign,,,null,object_15b.png,object_01a.png,,,,,,,,,,,,,,,,,,,,,
null,,black_cross(without_color)6,1436449,,,,,,,,blue,,,null,object_15b.png,object_01a.png,,,,,,,,,,,,,,,,,,,,,
null,,rt_plussign_withcolor6,1436951,,,,,,,,blue,,,null,object_15b.png,object_01a.png,,,,,,,,,,,,,,,,,,,,,
1590.5999999998603,,rt_thecrossant_black6,1438532,,,,,,,,black_plus_sign,,,49,,,1,,,,,,,1,,,,,,,,,,,,,
null,,color_black6,1438634,,,,,,,,black_plus_sign,,,null,,,,,,,,,,,,,,,,,,,,,,,
null,,learn_phase(without_color)6,1442140,,,,,,,,black_plus_sign,,,null,object_14b.png,object_13c.png,,,,,,,,,,,,,,,,,,,,,
null,,black_cross(without_color)6,1442871,,,,,,,,green,,,null,object_14b.png,object_13c.png,,,,,,,,,,,,,,,,,,,,,
null,,rt_plussign_withcolor6,1443374,,,,,,,,green,,,null,object_14b.png,object_13c.png,,,,,,,,,,,,,,,,,,,,,
865,,rt_thecrossant_black6,1444650,,,,,,,,black_plus_sign,,,50,,,1,,,,,,,1,,,,,,,,,,,,,
null,,color_black6,1444754,,,,,,,,black_plus_sign,,,null,,,,,,,,,,,,,,,,,,,,,,,
null,,learn_phase(without_color)6,1448259,,,,,,,,black_plus_sign,,,null,object_04a.png,object_03b.png,,,,,,,,,,,,,,,,,,,,,
null,,black_cross(without_color)6,1449143,,,,,,,,green,,,null,object_04a.png,object_03b.png,,,,,,,,,,,,,,,,,,,,,
null,,rt_plussign_withcolor6,1449645,,,,,,,,green,,,null,object_04a.png,object_03b.png,,,,,,,,,,,,,,,,,,,,,
998.7999999998137,,rt_thecrossant_black6,1450769,,,,,,,,black_plus_sign,,,50,,,1,,,,,,,1,,,,,,,,,,,,,
null,,color_black6,1450873,,,,,,,,black_plus_sign,,,null,,,,,,,,,,,,,,,,,,,,,,,
null,,learn_phase(without_color)6,1454378,,,,,,,,black_plus_sign,,,null,object_06a.png,object_09b.png,,,,,,,,,,,,,,,,,,,,,
null,,black_cross(without_color)6,1455375,,,,,,,,green,,,null,object_06a.png,object_09b.png,,,,,,,,,,,,,,,,,,,,,
null,,rt_plussign_withcolor6,1455877,,,,,,,,green,,,null,object_06a.png,object_09b.png,,,,,,,,,,,,,,,,,,,,,
1089.8000000000466,,rt_thecrossant_black6,1456887,,,,,,,,black_plus_sign,,,50,,,1,,,,,,,1,,,,,,,,,,,,,
null,,color_black6,1456990,,,,,,,,black_plus_sign,,,null,,,,,,,,,,,,,,,,,,,,,,,
null,,learn_phase(without_color)6,1460495,,,,,,,,black_plus_sign,,,null,object_13b.png,object_15c.png,,,,,,,,,,,,,,,,,,,,,
null,,black_cross(without_color)6,1461120,,,,,,,,blue,,,null,object_13b.png,object_15c.png,,,,,,,,,,,,,,,,,,,,,
null,,rt_plussign_withcolor6,1461623,,,,,,,,blue,,,null,object_13b.png,object_15c.png,,,,,,,,,,,,,,,,,,,,,
1734.2999999998137,,rt_thecrossant_black6,1463006,,,,,,,,black_plus_sign,,,49,,,1,,,,,,,1,,,,,,,,,,,,,
null,,color_black6,1463109,,,,,,,,black_plus_sign,,,null,,,,,,,,,,,,,,,,,,,,,,,
null,,thebreak,1463212,,,,,,,,<p></p>,,,null,,,,,,,,,,,,,,,,,,,,,,,
1881.3999999999069,,intro_0,1465096,,,,,,,,instruct,,,32,,,,,,,,,,,,,,,,,,,,,,,
3914,,directmemory_phase6,1469013,,,,,,,,object_07b.png,,,49,,,1,,object_12c.png,object_05a.png,object_11a.png,object_12c.png,,0.5921052631578947,,1,,,,,,,,,,,
5364.199999999953,,directmemory_phase6,1474384,,,,,,,,object_09a.png,,,51,,,1,,object_08b.png,object_13a.png,object_11c.png,object_11c.png,,0.5974025974025974,,1,,,,,,,,,,,
3957.6999999999534,,directmemory_phase6,1478348,,,,,,,,object_15b.png,,,51,,,1,,object_09b.png,object_05a.png,object_01a.png,object_01a.png,,0.6025641025641025,,1,,,,,,,,,,,
4164.800000000047,,directmemory_phase6,1482519,,,,,,,,object_06a.png,,,49,,,1,,object_09b.png,object_04b.png,object_12b.png,object_09b.png,,0.6075949367088608,,1,,,,,,,,,,,
2467.6999999999534,,directmemory_phase6,1484995,,,,,,,,object_01b.png,,,49,,,1,,object_12a.png,object_13b.png,object_11c.png,object_12a.png,,0.6125,,1,,,,,,,,,,,
4782.899999999907,,directmemory_phase6,1489785,,,,,,,,object_04b.png,,,49,,,1,,object_11b.png,object_03b.png,object_02a.png,object_11b.png,,0.6172839506172839,,1,,,,,,,,,,,
4870,,directmemory_phase6,1494663,,,,,,,,object_12b.png,,,49,,,1,,object_06c.png,object_04b.png,object_12a.png,object_06c.png,,0.6219512195121951,,1,,,,,,,,,,,
3133.5,,directmemory_phase6,1497804,,,,,,,,object_08b.png,,,50,,,1,,object_09b.png,object_13a.png,object_12b.png,object_13a.png,,0.6265060240963856,,1,,,,,,,,,,,
2507.8000000000466,,directmemory_phase6,1500314,,,,,,,,object_15c.png,,,51,,,0,,object_04b.png,object_13b.png,object_14b.png,object_13b.png,,0.6190476190476191,,0,,,,,,,,,,,
4441.800000000047,,directmemory_phase6,1504763,,,,,,,,object_03c.png,,,50,,,0,,object_13a.png,object_01a.png,object_10b.png,object_10b.png,,0.611764705882353,,0,,,,,,,,,,,
3567.1999999999534,,directmemory_phase6,1508334,,,,,,,,object_04a.png,,,50,,,1,,object_02a.png,object_03b.png,object_09a.png,object_03b.png,,0.6162790697674418,,1,,,,,,,,,,,
5277.800000000047,,directmemory_phase6,1513618,,,,,,,,object_10c.png,,,51,,,1,,object_12c.png,object_15c.png,object_05a.png,object_05a.png,,0.6206896551724138,,1,,,,,,,,,,,
4083.5,,directmemory_phase6,1517708,,,,,,,,object_14b.png,,,49,,,1,,object_13c.png,object_11c.png,object_12c.png,object_13c.png,,0.625,,1,,,,,,,,,,,
2610,,directmemory_phase6,1520328,,,,,,,,object_02a.png,,,50,,,1,,object_15c.png,object_08a.png,object_06a.png,object_08a.png,,0.6292134831460674,,1,,,,,,,,,,,
3686.3000000000466,,directmemory_phase6,1524022,,,,,,,,object_05b.png,,,49,,,1,,object_11a.png,object_01b.png,object_14b.png,object_11a.png,,0.6333333333333333,,1,,,,,,,,,,,
null,,thebreak,1524129,,,,,,,,<p></p>,,,null,,,,,,,,,,,,,,,,,,,,,,,
1551.3000000000466,,intro_0,1525683,,,,,,,,instruct,,,32,,,,,,,,,,,,,,,,,,,,,,,
null,,learn_phase(without_color)7,1529188,,,,,,,,black_plus_sign,,,null,object_06c.png,object_12b.png,,,,,,,,,,,,,,,,,,,,,
null,,black_cross(without_color)7,1530167,,,,,,,,green,,,null,object_06c.png,object_12b.png,,,,,,,,,,,,,,,,,,,,,
null,,rt_plussign_withcolor7,1530670,,,,,,,,green,,,null,object_06c.png,object_12b.png,,,,,,,,,,,,,,,,,,,,,
2056.4000000001397,,rt_thecrossant_black7,1531697,,,,,,,,black_plus_sign,,,50,,,1,,,,,,,1,,,,,,,,,,,,,
null,,color_black7,1531799,,,,,,,,black_plus_sign,,,null,,,,,,,,,,,,,,,,,,,,,,,
null,,learn_phase(without_color)7,1535303,,,,,,,,black_plus_sign,,,null,object_13b.png,object_15c.png,,,,,,,,,,,,,,,,,,,,,
null,,black_cross(without_color)7,1536159,,,,,,,,green,,,null,object_13b.png,object_15c.png,,,,,,,,,,,,,,,,,,,,,
null,,rt_plussign_withcolor7,1536662,,,,,,,,green,,,null,object_13b.png,object_15c.png,,,,,,,,,,,,,,,,,,,,,
1630.9000000001397,,rt_thecrossant_black7,1537813,,,,,,,,black_plus_sign,,,50,,,1,,,,,,,1,,,,,,,,,,,,,
null,,color_black7,1537916,,,,,,,,black_plus_sign,,,null,,,,,,,,,,,,,,,,,,,,,,,
null,,learn_phase(without_color)7,1541422,,,,,,,,black_plus_sign,,,null,object_09b.png,object_06a.png,,,,,,,,,,,,,,,,,,,,,
null,,black_cross(without_color)7,1541941,,,,,,,,green,,,null,object_09b.png,object_06a.png,,,,,,,,,,,,,,,,,,,,,
null,,rt_plussign_withcolor7,1542444,,,,,,,,green,,,null,object_09b.png,object_06a.png,,,,,,,,,,,,,,,,,,,,,
1061.3000000000466,,rt_thecrossant_black7,1543931,,,,,,,,black_plus_sign,,,50,,,1,,,,,,,1,,,,,,,,,,,,,
null,,color_black7,1544035,,,,,,,,black_plus_sign,,,null,,,,,,,,,,,,,,,,,,,,,,,
null,,learn_phase(without_color)7,1547541,,,,,,,,black_plus_sign,,,null,object_13a.png,object_08b.png,,,,,,,,,,,,,,,,,,,,,
null,,black_cross(without_color)7,1548510,,,,,,,,blue,,,null,object_13a.png,object_08b.png,,,,,,,,,,,,,,,,,,,,,
null,,rt_plussign_withcolor7,1549013,,,,,,,,blue,,,null,object_13a.png,object_08b.png,,,,,,,,,,,,,,,,,,,,,
774.3999999999069,,rt_thecrossant_black7,1550052,,,,,,,,black_plus_sign,,,49,,,1,,,,,,,1,,,,,,,,,,,,,
null,,color_black7,1550156,,,,,,,,black_plus_sign,,,null,,,,,,,,,,,,,,,,,,,,,,,
null,,learn_phase(without_color)7,1553662,,,,,,,,black_plus_sign,,,null,object_13c.png,object_14b.png,,,,,,,,,,,,,,,,,,,,,
null,,black_cross(without_color)7,1554545,,,,,,,,green,,,null,object_13c.png,object_14b.png,,,,,,,,,,,,,,,,,,,,,
null,,rt_plussign_withcolor7,1555048,,,,,,,,green,,,null,object_13c.png,object_14b.png,,,,,,,,,,,,,,,,,,,,,
1613.3999999999069,,rt_thecrossant_black7,1556172,,,,,,,,black_plus_sign,,,50,,,1,,,,,,,1,,,,,,,,,,,,,
null,,color_black7,1556274,,,,,,,,black_plus_sign,,,null,,,,,,,,,,,,,,,,,,,,,,,
null,,learn_phase(without_color)7,1559779,,,,,,,,black_plus_sign,,,null,object_12a.png,object_01b.png,,,,,,,,,,,,,,,,,,,,,
null,,black_cross(without_color)7,1560410,,,,,,,,green,,,null,object_12a.png,object_01b.png,,,,,,,,,,,,,,,,,,,,,
null,,rt_plussign_withcolor7,1560913,,,,,,,,green,,,null,object_12a.png,object_01b.png,,,,,,,,,,,,,,,,,,,,,
1310.8000000000466,,rt_thecrossant_black7,1562290,,,,,,,,black_plus_sign,,,50,,,1,,,,,,,1,,,,,,,,,,,,,
null,,color_black7,1562394,,,,,,,,black_plus_sign,,,null,,,,,,,,,,,,,,,,,,,,,,,
null,,learn_phase(without_color)7,1565900,,,,,,,,black_plus_sign,,,null,object_09a.png,object_11c.png,,,,,,,,,,,,,,,,,,,,,
null,,black_cross(without_color)7,1566774,,,,,,,,green,,,null,object_09a.png,object_11c.png,,,,,,,,,,,,,,,,,,,,,
null,,rt_plussign_withcolor7,1567276,,,,,,,,green,,,null,object_09a.png,object_11c.png,,,,,,,,,,,,,,,,,,,,,
1176.3000000000466,,rt_thecrossant_black7,1568410,,,,,,,,black_plus_sign,,,50,,,1,,,,,,,1,,,,,,,,,,,,,
null,,color_black7,1568513,,,,,,,,black_plus_sign,,,null,,,,,,,,,,,,,,,,,,,,,,,
null,,learn_phase(without_color)7,1572018,,,,,,,,black_plus_sign,,,null,object_11a.png,object_05b.png,,,,,,,,,,,,,,,,,,,,,
null,,black_cross(without_color)7,1573016,,,,,,,,blue,,,null,object_11a.png,object_05b.png,,,,,,,,,,,,,,,,,,,,,
null,,rt_plussign_withcolor7,1573519,,,,,,,,blue,,,null,object_11a.png,object_05b.png,,,,,,,,,,,,,,,,,,,,,
1396.3000000000466,,rt_thecrossant_black7,1574529,,,,,,,,black_plus_sign,,,49,,,1,,,,,,,1,,,,,,,,,,,,,
null,,color_black7,1574632,,,,,,,,black_plus_sign,,,null,,,,,,,,,,,,,,,,,,,,,,,
null,,learn_phase(without_color)7,1578138,,,,,,,,black_plus_sign,,,null,object_10b.png,object_03c.png,,,,,,,,,,,,,,,,,,,,,
null,,black_cross(without_color)7,1579034,,,,,,,,blue,,,null,object_10b.png,object_03c.png,,,,,,,,,,,,,,,,,,,,,
null,,rt_plussign_withcolor7,1579537,,,,,,,,blue,,,null,object_10b.png,object_03c.png,,,,,,,,,,,,,,,,,,,,,
1492.3000000000466,,rt_thecrossant_black7,1580649,,,,,,,,black_plus_sign,,,49,,,1,,,,,,,1,,,,,,,,,,,,,
null,,color_black7,1580752,,,,,,,,black_plus_sign,,,null,,,,,,,,,,,,,,,,,,,,,,,
null,,learn_phase(without_color)7,1584256,,,,,,,,black_plus_sign,,,null,object_12c.png,object_07b.png,,,,,,,,,,,,,,,,,,,,,
null,,black_cross(without_color)7,1585238,,,,,,,,blue,,,null,object_12c.png,object_07b.png,,,,,,,,,,,,,,,,,,,,,
null,,rt_plussign_withcolor7,1585741,,,,,,,,blue,,,null,object_12c.png,object_07b.png,,,,,,,,,,,,,,,,,,,,,
1359.1999999999534,,rt_thecrossant_black7,1586767,,,,,,,,black_plus_sign,,,49,,,1,,,,,,,1,,,,,,,,,,,,,
null,,color_black7,1586871,,,,,,,,black_plus_sign,,,null,,,,,,,,,,,,,,,,,,,,,,,
null,,learn_phase(without_color)7,1590377,,,,,,,,black_plus_sign,,,null,object_04b.png,object_11b.png,,,,,,,,,,,,,,,,,,,,,
null,,black_cross(without_color)7,1591109,,,,,,,,blue,,,null,object_04b.png,object_11b.png,,,,,,,,,,,,,,,,,,,,,
null,,rt_plussign_withcolor7,1591612,,,,,,,,blue,,,null,object_04b.png,object_11b.png,,,,,,,,,,,,,,,,,,,,,
1622.8999999999069,,rt_thecrossant_black7,1592887,,,,,,,,black_plus_sign,,,49,,,1,,,,,,,1,,,,,,,,,,,,,
null,,color_black7,1592992,,,,,,,,black_plus_sign,,,null,,,,,,,,,,,,,,,,,,,,,,,
null,,learn_phase(without_color)7,1596497,,,,,,,,black_plus_sign,,,null,object_03b.png,object_04a.png,,,,,,,,,,,,,,,,,,,,,
null,,black_cross(without_color)7,1597573,,,,,,,,green,,,null,object_03b.png,object_04a.png,,,,,,,,,,,,,,,,,,,,,
null,,rt_plussign_withcolor7,1598076,,,,,,,,green,,,null,object_03b.png,object_04a.png,,,,,,,,,,,,,,,,,,,,,
973.8000000000466,,rt_thecrossant_black7,1599008,,,,,,,,black_plus_sign,,,50,,,1,,,,,,,1,,,,,,,,,,,,,
null,,color_black7,1599111,,,,,,,,black_plus_sign,,,null,,,,,,,,,,,,,,,,,,,,,,,
null,,learn_phase(without_color)7,1602617,,,,,,,,black_plus_sign,,,null,object_02a.png,object_08a.png,,,,,,,,,,,,,,,,,,,,,
null,,black_cross(without_color)7,1603057,,,,,,,,green,,,null,object_02a.png,object_08a.png,,,,,,,,,,,,,,,,,,,,,
null,,rt_plussign_withcolor7,1603560,,,,,,,,green,,,null,object_02a.png,object_08a.png,,,,,,,,,,,,,,,,,,,,,
1314.1999999999534,,rt_thecrossant_black7,1605127,,,,,,,,black_plus_sign,,,50,,,1,,,,,,,1,,,,,,,,,,,,,
null,,color_black7,1605231,,,,,,,,black_plus_sign,,,null,,,,,,,,,,,,,,,,,,,,,,,
null,,learn_phase(without_color)7,1608736,,,,,,,,black_plus_sign,,,null,object_15b.png,object_01a.png,,,,,,,,,,,,,,,,,,,,,
null,,black_cross(without_color)7,1609438,,,,,,,,blue,,,null,object_15b.png,object_01a.png,,,,,,,,,,,,,,,,,,,,,
null,,rt_plussign_withcolor7,1609941,,,,,,,,blue,,,null,object_15b.png,object_01a.png,,,,,,,,,,,,,,,,,,,,,
793.5999999998603,,rt_thecrossant_black7,1611244,,,,,,,,black_plus_sign,,,49,,,1,,,,,,,1,,,,,,,,,,,,,
null,,color_black7,1611348,,,,,,,,black_plus_sign,,,null,,,,,,,,,,,,,,,,,,,,,,,
null,,learn_phase(without_color)7,1614854,,,,,,,,black_plus_sign,,,null,object_10c.png,object_05a.png,,,,,,,,,,,,,,,,,,,,,
null,,black_cross(without_color)7,1615880,,,,,,,,green,,,null,object_10c.png,object_05a.png,,,,,,,,,,,,,,,,,,,,,
null,,rt_plussign_withcolor7,1616383,,,,,,,,green,,,null,object_10c.png,object_05a.png,,,,,,,,,,,,,,,,,,,,,
1643.6000000000931,,rt_thecrossant_black7,1617366,,,,,,,,black_plus_sign,,,50,,,1,,,,,,,1,,,,,,,,,,,,,
null,,color_black7,1617470,,,,,,,,black_plus_sign,,,null,,,,,,,,,,,,,,,,,,,,,,,
null,,thebreak,1617575,,,,,,,,<p></p>,,,null,,,,,,,,,,,,,,,,,,,,,,,
2088.3000000000466,,intro_0,1619667,,,,,,,,instruct,,,32,,,,,,,,,,,,,,,,,,,,,,,
4433,,directmemory_phase7,1624105,,,,,,,,object_15b.png,,,49,,,1,,object_01a.png,object_04a.png,object_13b.png,object_01a.png,,0.6373626373626373,,1,,,,,,,,,,,
3252.1999999999534,,directmemory_phase7,1627365,,,,,,,,object_08a.png,,,49,,,1,,object_02a.png,object_01b.png,object_13a.png,object_02a.png,,0.6413043478260869,,1,,,,,,,,,,,
2184,,directmemory_phase7,1629555,,,,,,,,object_13a.png,,,50,,,1,,object_12c.png,object_08b.png,object_11a.png,object_08b.png,,0.6451612903225806,,1,,,,,,,,,,,
5402.299999999814,,directmemory_phase7,1634965,,,,,,,,object_01b.png,,,50,,,1,,object_15c.png,object_12a.png,object_14b.png,object_12a.png,,0.648936170212766,,1,,,,,,,,,,,
5853.100000000093,,directmemory_phase7,1640824,,,,,,,,object_13c.png,,,51,,,0,,object_11a.png,object_14b.png,object_05b.png,object_14b.png,,0.6421052631578947,,0,,,,,,,,,,,
1760.8999999999069,,directmemory_phase7,1642589,,,,,,,,object_03b.png,,,51,,,1,,object_11a.png,object_12b.png,object_04a.png,object_04a.png,,0.6458333333333334,,1,,,,,,,,,,,
3466,,directmemory_phase7,1646062,,,,,,,,object_15c.png,,,49,,,1,,object_13b.png,object_12b.png,object_01b.png,object_13b.png,,0.6494845360824743,,1,,,,,,,,,,,
3109.899999999907,,directmemory_phase7,1649179,,,,,,,,object_05a.png,,,49,,,1,,object_10c.png,object_11a.png,object_09a.png,object_10c.png,,0.6530612244897959,,1,,,,,,,,,,,
3729.6999999999534,,directmemory_phase7,1652916,,,,,,,,object_09a.png,,,49,,,1,,object_11c.png,object_06c.png,object_12b.png,object_11c.png,,0.6565656565656566,,1,,,,,,,,,,,
5136.40000000014,,directmemory_phase7,1658059,,,,,,,,object_11a.png,,,49,,,1,,object_05b.png,object_13b.png,object_13c.png,object_05b.png,,0.66,,1,,,,,,,,,,,
4285.300000000047,,directmemory_phase7,1662353,,,,,,,,object_10b.png,,,50,,,1,,object_12c.png,object_03c.png,object_04a.png,object_03c.png,,0.6633663366336634,,1,,,,,,,,,,,
2857.4000000001397,,directmemory_phase7,1665217,,,,,,,,object_04b.png,,,50,,,1,,object_04a.png,object_11b.png,object_13b.png,object_11b.png,,0.6666666666666666,,1,,,,,,,,,,,
3942.4000000001397,,directmemory_phase7,1669166,,,,,,,,object_06a.png,,,49,,,1,,object_09b.png,object_07b.png,object_13b.png,object_09b.png,,0.6699029126213593,,1,,,,,,,,,,,
1851.8000000000466,,directmemory_phase7,1671025,,,,,,,,object_06c.png,,,51,,,1,,object_11b.png,object_11c.png,object_12b.png,object_12b.png,,0.6730769230769231,,1,,,,,,,,,,,
1842.3999999999069,,directmemory_phase7,1672875,,,,,,,,object_12c.png,,,49,,,1,,object_07b.png,object_02a.png,object_05a.png,object_07b.png,,0.6761904761904762,,1,,,,,,,,,,,
null,,thebreak,1672982,,,,,,,,<p></p>,,,null,,,,,,,,,,,,,,,,,,,,,,,
1310.6000000000931,,intro_0,1674296,,,,,,,,instruct,,,32,,,,,,,,,,,,,,,,,,,,,,,
null,,learn_phase(without_color)8,1677798,,,,,,,,black_plus_sign,,,null,object_08a.png,object_02a.png,,,,,,,,,,,,,,,,,,,,,
null,,black_cross(without_color)8,1678391,,,,,,,,green,,,null,object_08a.png,object_02a.png,,,,,,,,,,,,,,,,,,,,,
null,,rt_plussign_withcolor8,1678894,,,,,,,,green,,,null,object_08a.png,object_02a.png,,,,,,,,,,,,,,,,,,,,,
1108.0999999998603,,rt_thecrossant_black8,1680308,,,,,,,,black_plus_sign,,,50,,,1,,,,,,,1,,,,,,,,,,,,,
null,,color_black8,1680410,,,,,,,,black_plus_sign,,,null,,,,,,,,,,,,,,,,,,,,,,,
null,,learn_phase(without_color)8,1683913,,,,,,,,black_plus_sign,,,null,object_03c.png,object_10b.png,,,,,,,,,,,,,,,,,,,,,
null,,black_cross(without_color)8,1684994,,,,,,,,blue,,,null,object_03c.png,object_10b.png,,,,,,,,,,,,,,,,,,,,,
null,,rt_plussign_withcolor8,1685497,,,,,,,,blue,,,null,object_03c.png,object_10b.png,,,,,,,,,,,,,,,,,,,,,
1053.1999999999534,,rt_thecrossant_black8,1686429,,,,,,,,black_plus_sign,,,49,,,1,,,,,,,1,,,,,,,,,,,,,
null,,color_black8,1686534,,,,,,,,black_plus_sign,,,null,,,,,,,,,,,,,,,,,,,,,,,
null,,learn_phase(without_color)8,1690043,,,,,,,,black_plus_sign,,,null,object_11c.png,object_09a.png,,,,,,,,,,,,,,,,,,,,,
null,,black_cross(without_color)8,1690908,,,,,,,,blue,,,null,object_11c.png,object_09a.png,,,,,,,,,,,,,,,,,,,,,
null,,rt_plussign_withcolor8,1691411,,,,,,,,blue,,,null,object_11c.png,object_09a.png,,,,,,,,,,,,,,,,,,,,,
1813.2999999998137,,rt_thecrossant_black8,1692556,,,,,,,,black_plus_sign,,,49,,,1,,,,,,,1,,,,,,,,,,,,,
null,,color_black8,1692660,,,,,,,,black_plus_sign,,,null,,,,,,,,,,,,,,,,,,,,,,,
null,,learn_phase(without_color)8,1696167,,,,,,,,black_plus_sign,,,null,object_14b.png,object_13c.png,,,,,,,,,,,,,,,,,,,,,
null,,black_cross(without_color)8,1697175,,,,,,,,blue,,,null,object_14b.png,object_13c.png,,,,,,,,,,,,,,,,,,,,,
null,,rt_plussign_withcolor8,1697678,,,,,,,,blue,,,null,object_14b.png,object_13c.png,,,,,,,,,,,,,,,,,,,,,
1185.5,,rt_thecrossant_black8,1698678,,,,,,,,black_plus_sign,,,49,,,1,,,,,,,1,,,,,,,,,,,,,
null,,color_black8,1698781,,,,,,,,black_plus_sign,,,null,,,,,,,,,,,,,,,,,,,,,,,
null,,learn_phase(without_color)8,1702285,,,,,,,,black_plus_sign,,,null,object_13a.png,object_08b.png,,,,,,,,,,,,,,,,,,,,,
null,,black_cross(without_color)8,1703366,,,,,,,,blue,,,null,object_13a.png,object_08b.png,,,,,,,,,,,,,,,,,,,,,
null,,rt_plussign_withcolor8,1703869,,,,,,,,blue,,,null,object_13a.png,object_08b.png,,,,,,,,,,,,,,,,,,,,,
1463.1999999999534,,rt_thecrossant_black8,1704796,,,,,,,,black_plus_sign,,,49,,,1,,,,,,,1,,,,,,,,,,,,,
null,,color_black8,1704899,,,,,,,,black_plus_sign,,,null,,,,,,,,,,,,,,,,,,,,,,,
null,,learn_phase(without_color)8,1708406,,,,,,,,black_plus_sign,,,null,object_10c.png,object_05a.png,,,,,,,,,,,,,,,,,,,,,
null,,black_cross(without_color)8,1708948,,,,,,,,blue,,,null,object_10c.png,object_05a.png,,,,,,,,,,,,,,,,,,,,,
null,,rt_plussign_withcolor8,1709449,,,,,,,,blue,,,null,object_10c.png,object_05a.png,,,,,,,,,,,,,,,,,,,,,
1327.3000000000466,,rt_thecrossant_black8,1710914,,,,,,,,black_plus_sign,,,49,,,1,,,,,,,1,,,,,,,,,,,,,
null,,color_black8,1711018,,,,,,,,black_plus_sign,,,null,,,,,,,,,,,,,,,,,,,,,,,
null,,learn_phase(without_color)8,1714522,,,,,,,,black_plus_sign,,,null,object_12c.png,object_07b.png,,,,,,,,,,,,,,,,,,,,,
null,,black_cross(without_color)8,1714931,,,,,,,,green,,,null,object_12c.png,object_07b.png,,,,,,,,,,,,,,,,,,,,,
null,,rt_plussign_withcolor8,1715434,,,,,,,,green,,,null,object_12c.png,object_07b.png,,,,,,,,,,,,,,,,,,,,,
728.5,,rt_thecrossant_black8,1717033,,,,,,,,black_plus_sign,,,50,,,1,,,,,,,1,,,,,,,,,,,,,
null,,color_black8,1717135,,,,,,,,black_plus_sign,,,null,,,,,,,,,,,,,,,,,,,,,,,
null,,learn_phase(without_color)8,1720639,,,,,,,,black_plus_sign,,,null,object_11a.png,object_05b.png,,,,,,,,,,,,,,,,,,,,,
null,,black_cross(without_color)8,1721161,,,,,,,,blue,,,null,object_11a.png,object_05b.png,,,,,,,,,,,,,,,,,,,,,
null,,rt_plussign_withcolor8,1721664,,,,,,,,blue,,,null,object_11a.png,object_05b.png,,,,,,,,,,,,,,,,,,,,,
920.1000000000931,,rt_thecrossant_black8,1723151,,,,,,,,black_plus_sign,,,49,,,1,,,,,,,1,,,,,,,,,,,,,
null,,color_black8,1723255,,,,,,,,black_plus_sign,,,null,,,,,,,,,,,,,,,,,,,,,,,
null,,learn_phase(without_color)8,1726762,,,,,,,,black_plus_sign,,,null,object_01b.png,object_12a.png,,,,,,,,,,,,,,,,,,,,,
null,,black_cross(without_color)8,1727538,,,,,,,,green,,,null,object_01b.png,object_12a.png,,,,,,,,,,,,,,,,,,,,,
null,,rt_plussign_withcolor8,1728041,,,,,,,,green,,,null,object_01b.png,object_12a.png,,,,,,,,,,,,,,,,,,,,,
1622,,rt_thecrossant_black8,1729272,,,,,,,,black_plus_sign,,,50,,,1,,,,,,,1,,,,,,,,,,,,,
null,,color_black8,1729374,,,,,,,,black_plus_sign,,,null,,,,,,,,,,,,,,,,,,,,,,,
null,,learn_phase(without_color)8,1732878,,,,,,,,black_plus_sign,,,null,object_06c.png,object_12b.png,,,,,,,,,,,,,,,,,,,,,
null,,black_cross(without_color)8,1733749,,,,,,,,blue,,,null,object_06c.png,object_12b.png,,,,,,,,,,,,,,,,,,,,,
null,,rt_plussign_withcolor8,1734252,,,,,,,,blue,,,null,object_06c.png,object_12b.png,,,,,,,,,,,,,,,,,,,,,
1171.1000000000931,,rt_thecrossant_black8,1735389,,,,,,,,black_plus_sign,,,49,,,1,,,,,,,1,,,,,,,,,,,,,
null,,color_black8,1735494,,,,,,,,black_plus_sign,,,null,,,,,,,,,,,,,,,,,,,,,,,
null,,learn_phase(without_color)8,1738999,,,,,,,,black_plus_sign,,,null,object_06a.png,object_09b.png,,,,,,,,,,,,,,,,,,,,,
null,,black_cross(without_color)8,1739527,,,,,,,,blue,,,null,object_06a.png,object_09b.png,,,,,,,,,,,,,,,,,,,,,
null,,rt_plussign_withcolor8,1740029,,,,,,,,blue,,,null,object_06a.png,object_09b.png,,,,,,,,,,,,,,,,,,,,,
1177,,rt_thecrossant_black8,1741506,,,,,,,,black_plus_sign,,,49,,,1,,,,,,,1,,,,,,,,,,,,,
null,,color_black8,1741609,,,,,,,,black_plus_sign,,,null,,,,,,,,,,,,,,,,,,,,,,,
null,,learn_phase(without_color)8,1745114,,,,,,,,black_plus_sign,,,null,object_03b.png,object_04a.png,,,,,,,,,,,,,,,,,,,,,
null,,black_cross(without_color)8,1745902,,,,,,,,blue,,,null,object_03b.png,object_04a.png,,,,,,,,,,,,,,,,,,,,,
null,,rt_plussign_withcolor8,1746406,,,,,,,,blue,,,null,object_03b.png,object_04a.png,,,,,,,,,,,,,,,,,,,,,
1092.3999999999069,,rt_thecrossant_black8,1747625,,,,,,,,black_plus_sign,,,49,,,1,,,,,,,1,,,,,,,,,,,,,
null,,color_black8,1747729,,,,,,,,black_plus_sign,,,null,,,,,,,,,,,,,,,,,,,,,,,
null,,learn_phase(without_color)8,1751235,,,,,,,,black_plus_sign,,,null,object_04b.png,object_11b.png,,,,,,,,,,,,,,,,,,,,,
null,,black_cross(without_color)8,1751662,,,,,,,,green,,,null,object_04b.png,object_11b.png,,,,,,,,,,,,,,,,,,,,,
null,,rt_plussign_withcolor8,1752165,,,,,,,,green,,,null,object_04b.png,object_11b.png,,,,,,,,,,,,,,,,,,,,,
1417.3999999999069,,rt_thecrossant_black8,1753744,,,,,,,,black_plus_sign,,,50,,,1,,,,,,,1,,,,,,,,,,,,,
null,,color_black8,1753848,,,,,,,,black_plus_sign,,,null,,,,,,,,,,,,,,,,,,,,,,,
null,,learn_phase(without_color)8,1757355,,,,,,,,black_plus_sign,,,null,object_15b.png,object_01a.png,,,,,,,,,,,,,,,,,,,,,
null,,black_cross(without_color)8,1757883,,,,,,,,green,,,null,object_15b.png,object_01a.png,,,,,,,,,,,,,,,,,,,,,
null,,rt_plussign_withcolor8,1758385,,,,,,,,green,,,null,object_15b.png,object_01a.png,,,,,,,,,,,,,,,,,,,,,
1077.6999999999534,,rt_thecrossant_black8,1759864,,,,,,,,black_plus_sign,,,50,,,1,,,,,,,1,,,,,,,,,,,,,
null,,color_black8,1759967,,,,,,,,black_plus_sign,,,null,,,,,,,,,,,,,,,,,,,,,,,
null,,learn_phase(without_color)8,1763474,,,,,,,,black_plus_sign,,,null,object_15c.png,object_13b.png,,,,,,,,,,,,,,,,,,,,,
null,,black_cross(without_color)8,1764420,,,,,,,,green,,,null,object_15c.png,object_13b.png,,,,,,,,,,,,,,,,,,,,,
null,,rt_plussign_withcolor8,1764922,,,,,,,,green,,,null,object_15c.png,object_13b.png,,,,,,,,,,,,,,,,,,,,,
779.3000000000466,,rt_thecrossant_black8,1765983,,,,,,,,black_plus_sign,,,50,,,1,,,,,,,1,,,,,,,,,,,,,
null,,color_black8,1766086,,,,,,,,black_plus_sign,,,null,,,,,,,,,,,,,,,,,,,,,,,
null,,thebreak,1766191,,,,,,,,<p></p>,,,null,,,,,,,,,,,,,,,,,,,,,,,
1652.3000000000466,,intro_0,1767845,,,,,,,,instruct,,,32,,,,,,,,,,,,,,,,,,,,,,,
6147.600000000093,,directmemory_phase8,1773995,,,,,,,,object_08b.png,,,50,,,0,,object_13a.png,object_15b.png,object_04b.png,object_13a.png,,0.6698113207547169,,0,,,,,,,,,,,
81.30000000004657,,directmemory_phase8,1774080,,,,,,,,object_06c.png,,,49,,,0,,object_13a.png,object_15c.png,object_12b.png,object_12b.png,,0.6635514018691588,,0,,,,,,,,,,,
1589.1999999999534,,directmemory_phase8,1775676,,,,,,,,object_03b.png,,,49,,,1,,object_04a.png,object_02a.png,object_12b.png,object_04a.png,,0.6666666666666666,,1,,,,,,,,,,,
2908.3000000000466,,directmemory_phase8,1778591,,,,,,,,object_10b.png,,,49,,,1,,object_03c.png,object_01b.png,object_05b.png,object_03c.png,,0.6697247706422018,,1,,,,,,,,,,,
2303.6999999999534,,directmemory_phase8,1780899,,,,,,,,object_11a.png,,,49,,,1,,object_05b.png,object_13b.png,object_15c.png,object_05b.png,,0.6727272727272727,,1,,,,,,,,,,,
2237.899999999907,,directmemory_phase8,1783144,,,,,,,,object_14b.png,,,49,,,1,,object_13c.png,object_04b.png,object_03b.png,object_13c.png,,0.6756756756756757,,1,,,,,,,,,,,
4137.300000000047,,directmemory_phase8,1787288,,,,,,,,object_09b.png,,,51,,,1,,object_03b.png,object_11c.png,object_06a.png,object_06a.png,,0.6785714285714286,,1,,,,,,,,,,,
1457.1000000000931,,directmemory_phase8,1788751,,,,,,,,object_10c.png,,,50,,,1,,object_15c.png,object_05a.png,object_06a.png,object_05a.png,,0.6814159292035398,,1,,,,,,,,,,,
3689.3000000000466,,directmemory_phase8,1792445,,,,,,,,object_04b.png,,,51,,,1,,object_12b.png,object_08b.png,object_11b.png,object_11b.png,,0.6842105263157895,,1,,,,,,,,,,,
1566.3999999999069,,directmemory_phase8,1794019,,,,,,,,object_12c.png,,,50,,,1,,object_15b.png,object_07b.png,object_06c.png,object_07b.png,,0.6869565217391305,,1,,,,,,,,,,,
3757.100000000093,,directmemory_phase8,1797784,,,,,,,,object_11c.png,,,50,,,1,,object_04a.png,object_09a.png,object_13b.png,object_09a.png,,0.6896551724137931,,1,,,,,,,,,,,
1495.2999999998137,,directmemory_phase8,1799286,,,,,,,,object_15c.png,,,49,,,1,,object_13b.png,object_11b.png,object_04b.png,object_13b.png,,0.6923076923076923,,1,,,,,,,,,,,
2484.3000000000466,,directmemory_phase8,1801778,,,,,,,,object_02a.png,,,51,,,1,,object_15b.png,object_01a.png,object_08a.png,object_08a.png,,0.6949152542372882,,1,,,,,,,,,,,
1672,,directmemory_phase8,1803457,,,,,,,,object_12a.png,,,51,,,1,,object_15c.png,object_11b.png,object_01b.png,object_01b.png,,0.6974789915966386,,1,,,,,,,,,,,
1883.1999999999534,,directmemory_phase8,1805347,,,,,,,,object_01a.png,,,50,,,1,,object_04a.png,object_15b.png,object_05a.png,object_15b.png,,0.7,,1,,,,,,,,,,,
null,,thebreak,1805451,,,,,,,,<p></p>,,,null,,,,,,,,,,,,,,,,,,,,,,,
7456.199999999953,,intro_0,1812911,,,,,,,,instruct,,,32,,,,,,,,,,,,,,,,,,,,,,,
23576.199999999953,,intro_1,1836489,,,,,,,,instruct,,,32,,,,,,,,,,,,,,,,,,,,,,,
5634.199999999953,,intro_2,1842125,,,,,,,,instruct,,,32,,,,,,,,,,,,,,,,,,,,,,,
,,intro_3,1861334,,,,,,,,instruct,,,,,,,,,,,,,,,,,,,,,,,,,,
39346.30000000005,,intro_4,1900684,,,,,,,,instruct,,,32,,,,,,,,,,,,,,,,,,,,,,,
4582.700000000186,,inference_phase,1905273,,,,,,,,object_06b.png,,,50,object_11c.png,object_10b.png,0,,,,,object_10b.png,,0,,,object_06a.png,,,,,,,,,,
3428.399999999907,,inference_phase,1908709,,,,,,,,object_09a.png,,,51,object_02c.png,object_08c.png,0,,,,,object_02c.png,,0,,,object_10c.png,,,,,,,,,,
4552.100000000093,,inference_phase,1913268,,,,,,,,object_12a.png,,,51,object_01c.png,object_04c.png,1,,,,,object_04c.png,,0.3333333333333333,,,object_10c.png,,,,,,,,,,
7447.800000000279,,inference_phase,1920722,,,,,,,,object_03a.png,,,50,object_11a.png,object_12c.png,0,,,,,object_12c.png,,0.25,,,object_05a.png,,,,,,,,,,
7973.200000000186,,inference_phase,1928701,,,,,,,,object_08c.png,,,51,object_07b.png,object_12b.png,0,,,,,object_03b.png,,0.2,,,object_03b.png,,,,,,,,,,
4457,,inference_phase,1933165,,,,,,,,object_01c.png,,,49,object_12b.png,object_13b.png,1,,,,,object_12b.png,,0.3333333333333333,,,object_01b.png,,,,,,,,,,
