rt,responses,trial_type,time_elapsed,identifier_a,identifier_b,identifier_c,tasktype,browser_type,local_time,UTC_time,stimulus,button_pressed,response,key_press,stimulus_left,stimulus_right,accuracy,practice_cumulative_accuracy,stimulus_down_left,stimulus_down_mid,stimulus_down_right,stimulus_correct,prac_weighted_accuracy,cumulative_accuracy,failed_practice,weighted_accuracy,tooquick,stimulus_middle,problems,smooth,distraction,strategies,easier,similar,comments,detectfocus,breakfocus,completion_code
19025.39999999851,{worker_id:67f15c3a8fc8c9e4819d340d},id_enter,19030,object_05b.png; object_12c.png; object_14c.png; object_02c.png; object_02a.png; object_10c.png; object_03b.png; object_13a.png; object_04a.png; object_08c.png; object_09c.png; object_08b.png; object_08a.png; object_14b.png; object_09a.png,object_05a.png; object_12a.png; object_07b.png; object_13c.png; object_02b.png; object_12b.png; object_13b.png; object_15a.png; object_14a.png; object_11a.png; object_01a.png; object_10b.png; object_04c.png; object_10a.png; object_11c.png,object_01c.png; object_01b.png; object_07c.png; object_11b.png; object_03c.png; object_07a.png; object_06a.png; object_06b.png; object_09b.png; object_03a.png; object_15b.png; object_04b.png; object_05c.png; object_06c.png; object_15c.png,blocked,Mozilla/5.0 (Windows NT 10.0; Win64; x64) AppleWebKit/537.36 (KHTML, like Gecko) Chrome/134.0.0.0 Safari/537.36,5/2/2025, 2:27:57 PM,2025-05-02 19:27:57.298,,,,,,,,,,,,,,,,,,,,,,,,,,,,
5495.5,,make_fullscreen,24567,,,,,,,,fullscreen,0,,,,,,,,,,,,,,,,,,,,,,,,,,
3734.0999999940395,,instruct_1,28307,,,,,,,,instruct,0,Next,,,,,,,,,,,,,,,,,,,,,,,,,
6973.79999999702,,instruct_2,35286,,,,,,,,instruct,1,Next,,,,,,,,,,,,,,,,,,,,,,,,,
8198.39999999851,,instruct_3,43487,,,,,,,,instruct,1,Next,,,,,,,,,,,,,,,,,,,,,,,,,
19183.5,,instruct_4,62673,,,,,,,,instruct,1,Next,,,,,,,,,,,,,,,,,,,,,,,,,
14734.79999999702,,instruct_5,77412,,,,,,,,instruct,1,Next,,,,,,,,,,,,,,,,,,,,,,,,,
5536.5999999940395,,instruct_6,82954,,,,,,,,instruct,1,Next,,,,,,,,,,,,,,,,,,,,,,,,,
27997.5,,instruct_7,110956,,,,,,,,instruct,1,Next,,,,,,,,,,,,,,,,,,,,,,,,,
null,,prac_atten_color_black,111897,,,,,,,,black_plus_sign,,,null,,,,,,,,,,,,,,,,,,,,,,,,
null,,prac_atten_color,112400,,,,,,,,<p style='position:absolute;top: 50%;right: 50%;transform: translate(50%, -50%);font-size: 125px;color: blue;'>+</p>,,,null,,,,,,,,,,,,,,,,,,,,,,,,
null,,prac_atten_color_black,114407,,,,,,,,black_plus_sign,,,null,,,,,,,,,,,,,,,,,,,,,,,,
7063.60000000149,,attentioncheck_help,121476,,,,,,,,instruct,,,32,,,,,,,,,,,,,,,,,,,,,,,,
null,,prac_atten_color_black,122404,,,,,,,,black_plus_sign,,,null,,,,,,,,,,,,,,,,,,,,,,,,
null,,prac_atten_color,123227,,,,,,,,<p style='position:absolute;top: 50%;right: 50%;transform: translate(50%, -50%);font-size: 125px;color: green;'>+</p>,,,null,,,,,,,,,,,,,,,,,,,,,,,,
174.09999999403954,,prac_atten_color_black,125234,,,,,,,,black_plus_sign,,,50,,,,,,,,,,,,,,,,,,,,,,,,
null,,prac_atten_color_black,125831,,,,,,,,black_plus_sign,,,null,,,,,,,,,,,,,,,,,,,,,,,,
541.6000000014901,,prac_atten_color,126506,,,,,,,,<p style='position:absolute;top: 50%;right: 50%;transform: translate(50%, -50%);font-size: 125px;color: green;'>+</p>,,,50,,,,,,,,,,,,,,,,,,,,,,,,
null,,prac_atten_color_black,128511,,,,,,,,black_plus_sign,,,null,,,,,,,,,,,,,,,,,,,,,,,,
null,,prac_atten_color_black,129253,,,,,,,,black_plus_sign,,,null,,,,,,,,,,,,,,,,,,,,,,,,
null,,prac_atten_color,129745,,,,,,,,<p style='position:absolute;top: 50%;right: 50%;transform: translate(50%, -50%);font-size: 125px;color: blue;'>+</p>,,,null,,,,,,,,,,,,,,,,,,,,,,,,
81.29999999701977,,prac_atten_color_black,131752,,,,,,,,black_plus_sign,,,49,,,,,,,,,,,,,,,,,,,,,,,,
null,,prac_atten_color_black,132679,,,,,,,,black_plus_sign,,,null,,,,,,,,,,,,,,,,,,,,,,,,
586.7000000029802,,prac_atten_color,133495,,,,,,,,<p style='position:absolute;top: 50%;right: 50%;transform: translate(50%, -50%);font-size: 125px;color: green;'>+</p>,,,50,,,,,,,,,,,,,,,,,,,,,,,,
null,,prac_atten_color_black,135503,,,,,,,,black_plus_sign,,,null,,,,,,,,,,,,,,,,,,,,,,,,
null,,prac_atten_color_black,136106,,,,,,,,black_plus_sign,,,null,,,,,,,,,,,,,,,,,,,,,,,,
null,,prac_atten_color,136580,,,,,,,,<p style='position:absolute;top: 50%;right: 50%;transform: translate(50%, -50%);font-size: 125px;color: green;'>+</p>,,,null,,,,,,,,,,,,,,,,,,,,,,,,
281.6000000014901,,prac_atten_color_black,138590,,,,,,,,black_plus_sign,,,50,,,,,,,,,,,,,,,,,,,,,,,,
null,,prac_atten_color_black,139528,,,,,,,,black_plus_sign,,,null,,,,,,,,,,,,,,,,,,,,,,,,
441.8999999985099,,prac_atten_color,140133,,,,,,,,<p style='position:absolute;top: 50%;right: 50%;transform: translate(50%, -50%);font-size: 125px;color: blue;'>+</p>,,,49,,,,,,,,,,,,,,,,,,,,,,,,
null,,prac_atten_color_black,142140,,,,,,,,black_plus_sign,,,null,,,,,,,,,,,,,,,,,,,,,,,,
null,,prac_atten_color_black,142948,,,,,,,,black_plus_sign,,,null,,,,,,,,,,,,,,,,,,,,,,,,
629.5999999940395,,prac_atten_color,143897,,,,,,,,<p style='position:absolute;top: 50%;right: 50%;transform: translate(50%, -50%);font-size: 125px;color: green;'>+</p>,,,50,,,,,,,,,,,,,,,,,,,,,,,,
null,,prac_atten_color_black,145904,,,,,,,,black_plus_sign,,,null,,,,,,,,,,,,,,,,,,,,,,,,
null,,prac_atten_color_black,146379,,,,,,,,black_plus_sign,,,null,,,,,,,,,,,,,,,,,,,,,,,,
null,,prac_atten_color,146859,,,,,,,,<p style='position:absolute;top: 50%;right: 50%;transform: translate(50%, -50%);font-size: 125px;color: blue;'>+</p>,,,null,,,,,,,,,,,,,,,,,,,,,,,,
58.29999999701977,,prac_atten_color_black,148867,,,,,,,,black_plus_sign,,,49,,,,,,,,,,,,,,,,,,,,,,,,
null,,prac_atten_color_black,149812,,,,,,,,black_plus_sign,,,null,,,,,,,,,,,,,,,,,,,,,,,,
null,,prac_atten_color,150463,,,,,,,,<p style='position:absolute;top: 50%;right: 50%;transform: translate(50%, -50%);font-size: 125px;color: blue;'>+</p>,,,null,,,,,,,,,,,,,,,,,,,,,,,,
50.599999994039536,,prac_atten_color_black,152466,,,,,,,,black_plus_sign,,,49,,,,,,,,,,,,,,,,,,,,,,,,
6705.5,,attentioncheck_feedback,159175,,,,,,,,cross_check_feedback,0,,,,,,,,,,,,,,,,,,,,,,,,,,
13840.20000000298,,last_instruct,173017,,,,,,,,instruct,,,32,,,,,,,,,,,,,,,,,,,,,,,,
null,,prac_learn_phase(without_color),176527,,,,,,,,black_plus_sign,,,null,object_04a.png,object_14a.png,,,,,,,,,,,,,,,,,,,,,,
null,,prac_black_cross(without_color),177522,,,,,,,,green,,,null,object_04a.png,object_14a.png,,,,,,,,,,,,,,,,,,,,,,
null,,prac_rt_plussign_withcolor,178028,,,,,,,,green,,,null,object_04a.png,object_14a.png,,,,,,,,,,,,,,,,,,,,,,
751.2000000029802,,prac_rt_thecrossant_black,179050,,,,,,,,black_plus_sign,,,50,,,1,1,,,,,,,,,,,,,,,,,,,,
null,,prac_color_black,179162,,,,,,,,black_plus_sign,,,null,,,,,,,,,,,,,,,,,,,,,,,,
null,,prac_learn_phase(without_color),182677,,,,,,,,black_plus_sign,,,null,object_08a.png,object_04c.png,,,,,,,,,,,,,,,,,,,,,,
null,,black_cross(without_color)1,183122,,,,,,,,green,,,null,object_04a.png,object_14a.png,,,,,,,,,,,,,,,,,,,,,,
null,,prac_rt_plussign_withcolor,183632,,,,,,,,blue,,,null,object_08a.png,object_04c.png,,,,,,,,,,,,,,,,,,,,,,
980.5,,prac_rt_thecrossant_black,185162,,,,,,,,black_plus_sign,,,49,,,1,1,,,,,,,,,,,,,,,,,,,,
null,,prac_color_black,185273,,,,,,,,black_plus_sign,,,null,,,,,,,,,,,,,,,,,,,,,,,,
null,,prac_learn_phase(without_color),188784,,,,,,,,black_plus_sign,,,null,object_08c.png,object_11a.png,,,,,,,,,,,,,,,,,,,,,,
null,,black_cross(without_color)1,189224,,,,,,,,green,,,null,object_04a.png,object_14a.png,,,,,,,,,,,,,,,,,,,,,,
487.79999999701977,,prac_rt_plussign_withcolor,189728,,,,,,,,green,,,50,object_08c.png,object_11a.png,,,,,,,,,,,,,,,,,,,,,,
null,,prac_rt_thecrossant_black,191131,,,,,,,,black_plus_sign,,,null,,,1,1,,,,,,,,,,,,,,,,,,,,
null,,prac_color_black,191243,,,,,,,,black_plus_sign,,,null,,,,,,,,,,,,,,,,,,,,,,,,
null,,prac_learn_phase(without_color),194760,,,,,,,,black_plus_sign,,,null,object_12a.png,object_12c.png,,,,,,,,,,,,,,,,,,,,,,
null,,black_cross(without_color)1,195196,,,,,,,,green,,,null,object_04a.png,object_14a.png,,,,,,,,,,,,,,,,,,,,,,
null,,prac_rt_plussign_withcolor,195706,,,,,,,,blue,,,null,object_12a.png,object_12c.png,,,,,,,,,,,,,,,,,,,,,,
820.7000000029802,,prac_rt_thecrossant_black,196917,,,,,,,,black_plus_sign,,,49,,,1,1,,,,,,,,,,,,,,,,,,,,
null,,prac_color_black,197032,,,,,,,,black_plus_sign,,,null,,,,,,,,,,,,,,,,,,,,,,,,
11399.19999999553,,instruct_dir_01,208434,,,,,,,,instruct,0,Next,,,,,,,,,,,,,,,,,,,,,,,,,
8156.10000000149,,instruct_dir_2,216594,,,,,,,,instruct,1,Next,,,,,,,,,,,,,,,,,,,,,,,,,
4937.20000000298,,instruct_dir_3,221534,,,,,,,,instruct,1,Next,,,,,,,,,,,,,,,,,,,,,,,,,
7176.79999999702,,instruct_dir_4,228713,,,,,,,,instruct,1,Start,,,,,,,,,,,,,,,,,,,,,,,,,
null,,thebreak,228816,,,,,,,,<p></p>,,,null,,,,,,,,,,,,,,,,,,,,,,,,
1950.2999999970198,,intro_0,230769,,,,,,,,instruct,,,32,,,,,,,,,,,,,,,,,,,,,,,,
7682,,prac_directmemory_phase,238454,,,,,,,,practice/object_01a.png,,,49,,,0,,practice/object_04a.png,practice/object_01b.png,practice/object_03b.png,practice/object_01b.png,0,0,,,,,,,,,,,,,,
3674.3000000044703,,prac_directmemory_phase,242137,,,,,,,,practice/object_03a.png,,,50,,,1,,practice/object_02a.png,practice/object_03b.png,practice/object_04b.png,practice/object_03b.png,1,0.5,,,,,,,,,,,,,,
2636.7999999970198,,prac_directmemory_phase,244776,,,,,,,,practice/object_02a.png,,,49,,,1,,practice/object_02b.png,practice/object_04b.png,practice/object_01a.png,practice/object_02b.png,1,0.6666666666666666,,,,,,,,,,,,,,
1971.2999999970198,,prac_directmemory_phase,246750,,,,,,,,practice/object_04a.png,,,50,,,0,,practice/object_04b.png,practice/object_03b.png,practice/object_03a.png,practice/object_04b.png,0,0.5,,,,,,,,,,,,,,
6770.39999999851,,practice_feedback_force_restart,253524,,,,,,,,practice_feedback,0,,,,,,,,,,,,,1,,,,,,,,,,,,,
4527,,last_instruct,258053,,,,,,,,instruct,,,32,,,,,,,,,,,,,,,,,,,,,,,,
null,,prac_learn_phase(without_color),261561,,,,,,,,black_plus_sign,,,null,object_04a.png,object_14a.png,,,,,,,,,,,,,,,,,,,,,,
null,,prac_black_cross(without_color),262142,,,,,,,,green,,,null,object_04a.png,object_14a.png,,,,,,,,,,,,,,,,,,,,,,
null,,prac_rt_plussign_withcolor,262645,,,,,,,,green,,,null,object_04a.png,object_14a.png,,,,,,,,,,,,,,,,,,,,,,
1803,,prac_rt_thecrossant_black,264082,,,,,,,,black_plus_sign,,,50,,,1,1,,,,,,,,,,,,,,,,,,,,
null,,prac_color_black,264186,,,,,,,,black_plus_sign,,,null,,,,,,,,,,,,,,,,,,,,,,,,
null,,prac_learn_phase(without_color),267704,,,,,,,,black_plus_sign,,,null,object_08a.png,object_04c.png,,,,,,,,,,,,,,,,,,,,,,
null,,black_cross(without_color)1,268148,,,,,,,,green,,,null,object_04a.png,object_14a.png,,,,,,,,,,,,,,,,,,,,,,
null,,prac_rt_plussign_withcolor,268656,,,,,,,,blue,,,null,object_08a.png,object_04c.png,,,,,,,,,,,,,,,,,,,,,,
1026.2999999970198,,prac_rt_thecrossant_black,269602,,,,,,,,black_plus_sign,,,49,,,1,1,,,,,,,,,,,,,,,,,,,,
null,,prac_color_black,269712,,,,,,,,black_plus_sign,,,null,,,,,,,,,,,,,,,,,,,,,,,,
null,,prac_learn_phase(without_color),273221,,,,,,,,black_plus_sign,,,null,object_08c.png,object_11a.png,,,,,,,,,,,,,,,,,,,,,,
null,,black_cross(without_color)1,273653,,,,,,,,green,,,null,object_04a.png,object_14a.png,,,,,,,,,,,,,,,,,,,,,,
null,,prac_rt_plussign_withcolor,274164,,,,,,,,green,,,null,object_08c.png,object_11a.png,,,,,,,,,,,,,,,,,,,,,,
1321.2999999970198,,prac_rt_thecrossant_black,275417,,,,,,,,black_plus_sign,,,50,,,1,1,,,,,,,,,,,,,,,,,,,,
null,,prac_color_black,275537,,,,,,,,black_plus_sign,,,null,,,,,,,,,,,,,,,,,,,,,,,,
null,,prac_learn_phase(without_color),279055,,,,,,,,black_plus_sign,,,null,object_12a.png,object_12c.png,,,,,,,,,,,,,,,,,,,,,,
null,,black_cross(without_color)1,279497,,,,,,,,green,,,null,object_04a.png,object_14a.png,,,,,,,,,,,,,,,,,,,,,,
null,,prac_rt_plussign_withcolor,280008,,,,,,,,blue,,,null,object_12a.png,object_12c.png,,,,,,,,,,,,,,,,,,,,,,
912.7999999970198,,prac_rt_thecrossant_black,281567,,,,,,,,black_plus_sign,,,50,,,0,0.875,,,,,,,,,,,,,,,,,,,,
null,,prac_color_black,281687,,,,,,,,black_plus_sign,,,null,,,,,,,,,,,,,,,,,,,,,,,,
2012.7999999970198,,instruct_dir_01,283704,,,,,,,,instruct,0,Next,,,,,,,,,,,,,,,,,,,,,,,,,
1401.9000000059605,,instruct_dir_2,285110,,,,,,,,instruct,1,Next,,,,,,,,,,,,,,,,,,,,,,,,,
2991.1999999955297,,instruct_dir_3,288104,,,,,,,,instruct,1,Next,,,,,,,,,,,,,,,,,,,,,,,,,
7888.79999999702,,instruct_dir_4,295997,,,,,,,,instruct,1,Start,,,,,,,,,,,,,,,,,,,,,,,,,
null,,thebreak,296116,,,,,,,,<p></p>,,,null,,,,,,,,,,,,,,,,,,,,,,,,
1258.8999999985099,,intro_0,297377,,,,,,,,instruct,,,32,,,,,,,,,,,,,,,,,,,,,,,,
5805.30000000447,,prac_directmemory_phase,303187,,,,,,,,practice/object_01a.png,,,49,,,0,,practice/object_04a.png,practice/object_01b.png,practice/object_03b.png,practice/object_01b.png,0,0,,,,,,,,,,,,,,
4986.79999999702,,prac_directmemory_phase,308180,,,,,,,,practice/object_03a.png,,,50,,,1,,practice/object_02a.png,practice/object_03b.png,practice/object_04b.png,practice/object_03b.png,1,0.5,,,,,,,,,,,,,,
3791.60000000149,,prac_directmemory_phase,311977,,,,,,,,practice/object_02a.png,,,49,,,1,,practice/object_02b.png,practice/object_04b.png,practice/object_01a.png,practice/object_02b.png,1,0.6666666666666666,,,,,,,,,,,,,,
4951.70000000298,,prac_directmemory_phase,316931,,,,,,,,practice/object_04a.png,,,49,,,1,,practice/object_04b.png,practice/object_03b.png,practice/object_03a.png,practice/object_04b.png,1,0.75,,,,,,,,,,,,,,
4519.70000000298,,practice_feedback,321453,,,,,,,,practice_feedback,1,,,,,,,,,,,,,,,,,,,,,,,,,,
7753,,proceed_actualTask,329209,,,,,,,,proceed_actualTask,1,Continue,,,,,,,,,,,,,,,,,,,,,,,,,
11345.59999999404,,last_inst,340557,,,,,,,,last_inst,,,32,,,,,,,,,,,,,,,,,,,,,,,,
null,,learn_phase(without_color)1,344066,,,,,,,,black_plus_sign,,,null,object_04a.png,object_14a.png,,,,,,,,,,,,,,,,,,,,,,
null,,black_cross(without_color)1,344500,,,,,,,,green,,,null,object_04a.png,object_14a.png,,,,,,,,,,,,,,,,,,,,,,
null,,rt_plussign_withcolor1,345017,,,,,,,,green,,,null,object_04a.png,object_14a.png,,,,,,,,,,,,,,,,,,,,,,
1210.5999999940395,,rt_thecrossant_black1,346600,,,,,,,,black_plus_sign,,,50,,,1,,,,,,,1,,,,,,,,,,,,,,
null,,color_black1,346712,,,,,,,,black_plus_sign,,,null,,,,,,,,,,,,,,,,,,,,,,,,
null,,learn_phase(without_color)1,350224,,,,,,,,black_plus_sign,,,null,object_08a.png,object_04c.png,,,,,,,,,,,,,,,,,,,,,,
null,,black_cross(without_color)1,351138,,,,,,,,green,,,null,object_08a.png,object_04c.png,,,,,,,,,,,,,,,,,,,,,,
null,,rt_plussign_withcolor1,351656,,,,,,,,green,,,null,object_08a.png,object_04c.png,,,,,,,,,,,,,,,,,,,,,,
894.3999999985099,,rt_thecrossant_black1,352768,,,,,,,,black_plus_sign,,,50,,,1,,,,,,,1,,,,,,,,,,,,,,
null,,color_black1,352878,,,,,,,,black_plus_sign,,,null,,,,,,,,,,,,,,,,,,,,,,,,
null,,learn_phase(without_color)1,356386,,,,,,,,black_plus_sign,,,null,object_08c.png,object_11a.png,,,,,,,,,,,,,,,,,,,,,,
null,,black_cross(without_color)1,356876,,,,,,,,green,,,null,object_08c.png,object_11a.png,,,,,,,,,,,,,,,,,,,,,,
null,,rt_plussign_withcolor1,357385,,,,,,,,green,,,null,object_08c.png,object_11a.png,,,,,,,,,,,,,,,,,,,,,,
1193.1999999955297,,rt_thecrossant_black1,358924,,,,,,,,black_plus_sign,,,50,,,1,,,,,,,1,,,,,,,,,,,,,,
null,,color_black1,359035,,,,,,,,black_plus_sign,,,null,,,,,,,,,,,,,,,,,,,,,,,,
null,,learn_phase(without_color)1,362547,,,,,,,,black_plus_sign,,,null,object_12a.png,object_12c.png,,,,,,,,,,,,,,,,,,,,,,
null,,black_cross(without_color)1,363623,,,,,,,,blue,,,null,object_12a.png,object_12c.png,,,,,,,,,,,,,,,,,,,,,,
492.19999999552965,,rt_plussign_withcolor1,364132,,,,,,,,blue,,,49,object_12a.png,object_12c.png,,,,,,,,,,,,,,,,,,,,,,
null,,rt_thecrossant_black1,365071,,,,,,,,black_plus_sign,,,null,,,1,,,,,,,1,,,,,,,,,,,,,,
null,,color_black1,365183,,,,,,,,black_plus_sign,,,null,,,,,,,,,,,,,,,,,,,,,,,,
null,,learn_phase(without_color)1,368696,,,,,,,,black_plus_sign,,,null,object_07b.png,object_14c.png,,,,,,,,,,,,,,,,,,,,,,
null,,black_cross(without_color)1,369734,,,,,,,,blue,,,null,object_07b.png,object_14c.png,,,,,,,,,,,,,,,,,,,,,,
null,,rt_plussign_withcolor1,370242,,,,,,,,blue,,,null,object_07b.png,object_14c.png,,,,,,,,,,,,,,,,,,,,,,
1282.6000000014901,,rt_thecrossant_black1,371238,,,,,,,,black_plus_sign,,,49,,,1,,,,,,,1,,,,,,,,,,,,,,
null,,color_black1,371348,,,,,,,,black_plus_sign,,,null,,,,,,,,,,,,,,,,,,,,,,,,
null,,learn_phase(without_color)1,374858,,,,,,,,black_plus_sign,,,null,object_05a.png,object_05b.png,,,,,,,,,,,,,,,,,,,,,,
null,,black_cross(without_color)1,375543,,,,,,,,green,,,null,object_05a.png,object_05b.png,,,,,,,,,,,,,,,,,,,,,,
null,,rt_plussign_withcolor1,376047,,,,,,,,green,,,null,object_05a.png,object_05b.png,,,,,,,,,,,,,,,,,,,,,,
1333.9000000059605,,rt_thecrossant_black1,377386,,,,,,,,black_plus_sign,,,50,,,1,,,,,,,1,,,,,,,,,,,,,,
null,,color_black1,377489,,,,,,,,black_plus_sign,,,null,,,,,,,,,,,,,,,,,,,,,,,,
null,,learn_phase(without_color)1,380992,,,,,,,,black_plus_sign,,,null,object_13b.png,object_03b.png,,,,,,,,,,,,,,,,,,,,,,
null,,black_cross(without_color)1,382046,,,,,,,,green,,,null,object_13b.png,object_03b.png,,,,,,,,,,,,,,,,,,,,,,
null,,rt_plussign_withcolor1,382553,,,,,,,,green,,,null,object_13b.png,object_03b.png,,,,,,,,,,,,,,,,,,,,,,
1047.1000000014901,,rt_thecrossant_black1,383524,,,,,,,,black_plus_sign,,,50,,,1,,,,,,,1,,,,,,,,,,,,,,
null,,color_black1,383627,,,,,,,,black_plus_sign,,,null,,,,,,,,,,,,,,,,,,,,,,,,
null,,learn_phase(without_color)1,387133,,,,,,,,black_plus_sign,,,null,object_09a.png,object_11c.png,,,,,,,,,,,,,,,,,,,,,,
null,,black_cross(without_color)1,387772,,,,,,,,blue,,,null,object_09a.png,object_11c.png,,,,,,,,,,,,,,,,,,,,,,
null,,rt_plussign_withcolor1,388284,,,,,,,,blue,,,null,object_09a.png,object_11c.png,,,,,,,,,,,,,,,,,,,,,,
1395.3999999985099,,rt_thecrossant_black1,389665,,,,,,,,black_plus_sign,,,49,,,1,,,,,,,1,,,,,,,,,,,,,,
null,,color_black1,389777,,,,,,,,black_plus_sign,,,null,,,,,,,,,,,,,,,,,,,,,,,,
null,,learn_phase(without_color)1,393285,,,,,,,,black_plus_sign,,,null,object_15a.png,object_13a.png,,,,,,,,,,,,,,,,,,,,,,
null,,black_cross(without_color)1,394067,,,,,,,,blue,,,null,object_15a.png,object_13a.png,,,,,,,,,,,,,,,,,,,,,,
null,,rt_plussign_withcolor1,394576,,,,,,,,blue,,,null,object_15a.png,object_13a.png,,,,,,,,,,,,,,,,,,,,,,
1046.4000000059605,,rt_thecrossant_black1,395808,,,,,,,,black_plus_sign,,,49,,,1,,,,,,,1,,,,,,,,,,,,,,
null,,color_black1,395920,,,,,,,,black_plus_sign,,,null,,,,,,,,,,,,,,,,,,,,,,,,
null,,learn_phase(without_color)1,399433,,,,,,,,black_plus_sign,,,null,object_08b.png,object_10b.png,,,,,,,,,,,,,,,,,,,,,,
null,,black_cross(without_color)1,400016,,,,,,,,green,,,null,object_08b.png,object_10b.png,,,,,,,,,,,,,,,,,,,,,,
null,,rt_plussign_withcolor1,400521,,,,,,,,green,,,null,object_08b.png,object_10b.png,,,,,,,,,,,,,,,,,,,,,,
968,,rt_thecrossant_black1,401965,,,,,,,,black_plus_sign,,,50,,,1,,,,,,,1,,,,,,,,,,,,,,
null,,color_black1,402067,,,,,,,,black_plus_sign,,,null,,,,,,,,,,,,,,,,,,,,,,,,
null,,learn_phase(without_color)1,405577,,,,,,,,black_plus_sign,,,null,object_02a.png,object_02b.png,,,,,,,,,,,,,,,,,,,,,,
null,,black_cross(without_color)1,406048,,,,,,,,blue,,,null,object_02a.png,object_02b.png,,,,,,,,,,,,,,,,,,,,,,
null,,rt_plussign_withcolor1,406555,,,,,,,,blue,,,null,object_02a.png,object_02b.png,,,,,,,,,,,,,,,,,,,,,,
795.2999999970198,,rt_thecrossant_black1,408105,,,,,,,,black_plus_sign,,,49,,,1,,,,,,,1,,,,,,,,,,,,,,
null,,color_black1,408219,,,,,,,,black_plus_sign,,,null,,,,,,,,,,,,,,,,,,,,,,,,
null,,learn_phase(without_color)1,411734,,,,,,,,black_plus_sign,,,null,object_13c.png,object_02c.png,,,,,,,,,,,,,,,,,,,,,,
null,,black_cross(without_color)1,412540,,,,,,,,green,,,null,object_13c.png,object_02c.png,,,,,,,,,,,,,,,,,,,,,,
null,,rt_plussign_withcolor1,413048,,,,,,,,green,,,null,object_13c.png,object_02c.png,,,,,,,,,,,,,,,,,,,,,,
585.1999999955297,,rt_thecrossant_black1,414256,,,,,,,,black_plus_sign,,,50,,,1,,,,,,,1,,,,,,,,,,,,,,
null,,color_black1,414370,,,,,,,,black_plus_sign,,,null,,,,,,,,,,,,,,,,,,,,,,,,
null,,learn_phase(without_color)1,417885,,,,,,,,black_plus_sign,,,null,object_09c.png,object_01a.png,,,,,,,,,,,,,,,,,,,,,,
null,,black_cross(without_color)1,418914,,,,,,,,blue,,,null,object_09c.png,object_01a.png,,,,,,,,,,,,,,,,,,,,,,
null,,rt_plussign_withcolor1,419418,,,,,,,,blue,,,null,object_09c.png,object_01a.png,,,,,,,,,,,,,,,,,,,,,,
1081.3999999985099,,rt_thecrossant_black1,420407,,,,,,,,black_plus_sign,,,49,,,1,,,,,,,1,,,,,,,,,,,,,,
null,,color_black1,420518,,,,,,,,black_plus_sign,,,null,,,,,,,,,,,,,,,,,,,,,,,,
null,,learn_phase(without_color)1,424037,,,,,,,,black_plus_sign,,,null,object_10c.png,object_12b.png,,,,,,,,,,,,,,,,,,,,,,
null,,black_cross(without_color)1,425007,,,,,,,,blue,,,null,object_10c.png,object_12b.png,,,,,,,,,,,,,,,,,,,,,,
null,,rt_plussign_withcolor1,425515,,,,,,,,blue,,,null,object_10c.png,object_12b.png,,,,,,,,,,,,,,,,,,,,,,
1127.5,,rt_thecrossant_black1,426555,,,,,,,,black_plus_sign,,,49,,,1,,,,,,,1,,,,,,,,,,,,,,
null,,color_black1,426668,,,,,,,,black_plus_sign,,,null,,,,,,,,,,,,,,,,,,,,,,,,
null,,learn_phase(without_color)1,430184,,,,,,,,black_plus_sign,,,null,object_10a.png,object_14b.png,,,,,,,,,,,,,,,,,,,,,,
null,,black_cross(without_color)1,430620,,,,,,,,blue,,,null,object_10a.png,object_14b.png,,,,,,,,,,,,,,,,,,,,,,
null,,rt_plussign_withcolor1,431127,,,,,,,,blue,,,null,object_10a.png,object_14b.png,,,,,,,,,,,,,,,,,,,,,,
1220.8999999985099,,rt_thecrossant_black1,432716,,,,,,,,black_plus_sign,,,49,,,1,,,,,,,1,,,,,,,,,,,,,,
null,,color_black1,432825,,,,,,,,black_plus_sign,,,null,,,,,,,,,,,,,,,,,,,,,,,,
null,,thebreak,432935,,,,,,,,<p></p>,,,null,,,,,,,,,,,,,,,,,,,,,,,,
2077,,intro_0,435014,,,,,,,,instruct,,,32,,,,,,,,,,,,,,,,,,,,,,,,
5754.60000000149,,directmemory_phase1,440771,,,,,,,,object_14b.png,,,51,,,0,,object_13a.png,object_10a.png,object_12b.png,object_10a.png,,0,,0,,,,,,,,,,,,
4901.89999999851,,directmemory_phase1,445685,,,,,,,,object_09a.png,,,51,,,1,,object_10a.png,object_08b.png,object_11c.png,object_11c.png,,0.5,,1,,,,,,,,,,,,
1686.3999999985099,,directmemory_phase1,447378,,,,,,,,object_04a.png,,,49,,,1,,object_14a.png,object_13c.png,object_14b.png,object_14a.png,,0.6666666666666666,,1,,,,,,,,,,,,
4271.39999999851,,directmemory_phase1,451655,,,,,,,,object_09c.png,,,51,,,0,,object_01a.png,object_05a.png,object_03b.png,object_01a.png,,0.5,,0,,,,,,,,,,,,
3569.3000000044703,,directmemory_phase1,455227,,,,,,,,object_13a.png,,,51,,,1,,object_13c.png,object_02c.png,object_15a.png,object_15a.png,,0.6,,1,,,,,,,,,,,,
3270.1999999955297,,directmemory_phase1,458504,,,,,,,,object_08c.png,,,51,,,0,,object_11a.png,object_01a.png,object_08a.png,object_11a.png,,0.5,,0,,,,,,,,,,,,
3305,,directmemory_phase1,461813,,,,,,,,object_02a.png,,,49,,,0,,object_05a.png,object_12c.png,object_02b.png,object_02b.png,,0.42857142857142855,,0,,,,,,,,,,,,
3612.8000000044703,,directmemory_phase1,465428,,,,,,,,object_08b.png,,,49,,,0,,object_12a.png,object_04a.png,object_10b.png,object_10b.png,,0.375,,0,,,,,,,,,,,,
3469,,directmemory_phase1,468900,,,,,,,,object_03b.png,,,51,,,0,,object_13b.png,object_10a.png,object_12c.png,object_13b.png,,0.3333333333333333,,0,,,,,,,,,,,,
2644.89999999851,,directmemory_phase1,471548,,,,,,,,object_14c.png,,,49,,,1,,object_07b.png,object_14a.png,object_12c.png,object_07b.png,,0.4,,1,,,,,,,,,,,,
2359.10000000149,,directmemory_phase1,473910,,,,,,,,object_08a.png,,,51,,,0,,object_04c.png,object_10b.png,object_08b.png,object_04c.png,,0.36363636363636365,,0,,,,,,,,,,,,
4060.1999999955297,,directmemory_phase1,477974,,,,,,,,object_12c.png,,,49,,,0,,object_09c.png,object_12a.png,object_05a.png,object_12a.png,,0.3333333333333333,,0,,,,,,,,,,,,
1876.3999999985099,,directmemory_phase1,479853,,,,,,,,object_05b.png,,,51,,,0,,object_05a.png,object_10b.png,object_14b.png,object_05a.png,,0.3076923076923077,,0,,,,,,,,,,,,
2295.89999999851,,directmemory_phase1,482155,,,,,,,,object_02c.png,,,51,,,1,,object_01a.png,object_09c.png,object_13c.png,object_13c.png,,0.35714285714285715,,1,,,,,,,,,,,,
4242.5,,directmemory_phase1,486399,,,,,,,,object_10c.png,,,49,,,0,,object_05b.png,object_12b.png,object_13c.png,object_12b.png,,0.3333333333333333,,0,,,,,,,,,,,,
null,,thebreak,486510,,,,,,,,<p></p>,,,null,,,,,,,,,,,,,,,,,,,,,,,,
1702.2999999970198,,intro_0,488214,,,,,,,,instruct,,,32,,,,,,,,,,,,,,,,,,,,,,,,
null,,learn_phase(without_color)2,491721,,,,,,,,black_plus_sign,,,null,object_07b.png,object_14c.png,,,,,,,,,,,,,,,,,,,,,,
null,,black_cross(without_color)2,492579,,,,,,,,blue,,,null,object_07b.png,object_14c.png,,,,,,,,,,,,,,,,,,,,,,
null,,rt_plussign_withcolor2,493089,,,,,,,,blue,,,null,object_07b.png,object_14c.png,,,,,,,,,,,,,,,,,,,,,,
1028.6000000014901,,rt_thecrossant_black2,494248,,,,,,,,black_plus_sign,,,49,,,1,,,,,,,1,,,,,,,,,,,,,,
null,,color_black2,494358,,,,,,,,black_plus_sign,,,null,,,,,,,,,,,,,,,,,,,,,,,,
null,,learn_phase(without_color)2,497865,,,,,,,,black_plus_sign,,,null,object_11c.png,object_09a.png,,,,,,,,,,,,,,,,,,,,,,
null,,black_cross(without_color)2,498823,,,,,,,,green,,,null,object_11c.png,object_09a.png,,,,,,,,,,,,,,,,,,,,,,
null,,rt_plussign_withcolor2,499326,,,,,,,,green,,,null,object_11c.png,object_09a.png,,,,,,,,,,,,,,,,,,,,,,
1079.5999999940395,,rt_thecrossant_black2,500388,,,,,,,,black_plus_sign,,,50,,,1,,,,,,,1,,,,,,,,,,,,,,
null,,color_black2,500498,,,,,,,,black_plus_sign,,,null,,,,,,,,,,,,,,,,,,,,,,,,
null,,learn_phase(without_color)2,504001,,,,,,,,black_plus_sign,,,null,object_14b.png,object_10a.png,,,,,,,,,,,,,,,,,,,,,,
null,,black_cross(without_color)2,504584,,,,,,,,blue,,,null,object_14b.png,object_10a.png,,,,,,,,,,,,,,,,,,,,,,
454.79999999701977,,rt_plussign_withcolor2,505095,,,,,,,,blue,,,49,object_14b.png,object_10a.png,,,,,,,,,,,,,,,,,,,,,,
null,,rt_thecrossant_black2,506536,,,,,,,,black_plus_sign,,,null,,,1,,,,,,,1,,,,,,,,,,,,,,
null,,color_black2,506655,,,,,,,,black_plus_sign,,,null,,,,,,,,,,,,,,,,,,,,,,,,
null,,learn_phase(without_color)2,510162,,,,,,,,black_plus_sign,,,null,object_15a.png,object_13a.png,,,,,,,,,,,,,,,,,,,,,,
null,,black_cross(without_color)2,510907,,,,,,,,green,,,null,object_15a.png,object_13a.png,,,,,,,,,,,,,,,,,,,,,,
369.90000000596046,,rt_plussign_withcolor2,511426,,,,,,,,green,,,50,object_15a.png,object_13a.png,,,,,,,,,,,,,,,,,,,,,,
null,,rt_thecrossant_black2,512705,,,,,,,,black_plus_sign,,,null,,,1,,,,,,,1,,,,,,,,,,,,,,
null,,color_black2,512810,,,,,,,,black_plus_sign,,,null,,,,,,,,,,,,,,,,,,,,,,,,
null,,learn_phase(without_color)2,516322,,,,,,,,black_plus_sign,,,null,object_14a.png,object_04a.png,,,,,,,,,,,,,,,,,,,,,,
null,,black_cross(without_color)2,517180,,,,,,,,green,,,null,object_14a.png,object_04a.png,,,,,,,,,,,,,,,,,,,,,,
461.29999999701977,,rt_plussign_withcolor2,517687,,,,,,,,green,,,50,object_14a.png,object_04a.png,,,,,,,,,,,,,,,,,,,,,,
null,,rt_thecrossant_black2,518841,,,,,,,,black_plus_sign,,,null,,,1,,,,,,,1,,,,,,,,,,,,,,
null,,color_black2,518957,,,,,,,,black_plus_sign,,,null,,,,,,,,,,,,,,,,,,,,,,,,
null,,learn_phase(without_color)2,522467,,,,,,,,black_plus_sign,,,null,object_11a.png,object_08c.png,,,,,,,,,,,,,,,,,,,,,,
null,,black_cross(without_color)2,523508,,,,,,,,blue,,,null,object_11a.png,object_08c.png,,,,,,,,,,,,,,,,,,,,,,
null,,rt_plussign_withcolor2,524021,,,,,,,,blue,,,null,object_11a.png,object_08c.png,,,,,,,,,,,,,,,,,,,,,,
1021.5,,rt_thecrossant_black2,525007,,,,,,,,black_plus_sign,,,50,,,0,,,,,,,0.8333333333333334,,,,,,,,,,,,,,
null,,color_black2,525128,,,,,,,,black_plus_sign,,,null,,,,,,,,,,,,,,,,,,,,,,,,
null,,learn_phase(without_color)2,528637,,,,,,,,black_plus_sign,,,null,object_01a.png,object_09c.png,,,,,,,,,,,,,,,,,,,,,,
null,,black_cross(without_color)2,529450,,,,,,,,green,,,null,object_01a.png,object_09c.png,,,,,,,,,,,,,,,,,,,,,,
403,,rt_plussign_withcolor2,529959,,,,,,,,green,,,50,object_01a.png,object_09c.png,,,,,,,,,,,,,,,,,,,,,,
null,,rt_thecrossant_black2,531161,,,,,,,,black_plus_sign,,,null,,,1,,,,,,,0.8571428571428571,,,,,,,,,,,,,,
null,,color_black2,531272,,,,,,,,black_plus_sign,,,null,,,,,,,,,,,,,,,,,,,,,,,,
null,,learn_phase(without_color)2,534786,,,,,,,,black_plus_sign,,,null,object_13c.png,object_02c.png,,,,,,,,,,,,,,,,,,,,,,
null,,black_cross(without_color)2,535838,,,,,,,,blue,,,null,object_13c.png,object_02c.png,,,,,,,,,,,,,,,,,,,,,,
457.29999999701977,,rt_plussign_withcolor2,536347,,,,,,,,blue,,,49,object_13c.png,object_02c.png,,,,,,,,,,,,,,,,,,,,,,
null,,rt_thecrossant_black2,537313,,,,,,,,black_plus_sign,,,null,,,1,,,,,,,0.875,,,,,,,,,,,,,,
null,,color_black2,537425,,,,,,,,black_plus_sign,,,null,,,,,,,,,,,,,,,,,,,,,,,,
null,,learn_phase(without_color)2,540931,,,,,,,,black_plus_sign,,,null,object_04c.png,object_08a.png,,,,,,,,,,,,,,,,,,,,,,
null,,black_cross(without_color)2,541817,,,,,,,,green,,,null,object_04c.png,object_08a.png,,,,,,,,,,,,,,,,,,,,,,
null,,rt_plussign_withcolor2,542326,,,,,,,,green,,,null,object_04c.png,object_08a.png,,,,,,,,,,,,,,,,,,,,,,
1397.6000000014901,,rt_thecrossant_black2,543457,,,,,,,,black_plus_sign,,,50,,,1,,,,,,,0.8888888888888888,,,,,,,,,,,,,,
null,,color_black2,543561,,,,,,,,black_plus_sign,,,null,,,,,,,,,,,,,,,,,,,,,,,,
null,,learn_phase(without_color)2,547074,,,,,,,,black_plus_sign,,,null,object_10c.png,object_12b.png,,,,,,,,,,,,,,,,,,,,,,
null,,black_cross(without_color)2,547863,,,,,,,,blue,,,null,object_10c.png,object_12b.png,,,,,,,,,,,,,,,,,,,,,,
null,,rt_plussign_withcolor2,548374,,,,,,,,blue,,,null,object_10c.png,object_12b.png,,,,,,,,,,,,,,,,,,,,,,
1101.7000000029802,,rt_thecrossant_black2,549617,,,,,,,,black_plus_sign,,,49,,,1,,,,,,,0.9,,,,,,,,,,,,,,
null,,color_black2,549729,,,,,,,,black_plus_sign,,,null,,,,,,,,,,,,,,,,,,,,,,,,
null,,learn_phase(without_color)2,553242,,,,,,,,black_plus_sign,,,null,object_03b.png,object_13b.png,,,,,,,,,,,,,,,,,,,,,,
null,,black_cross(without_color)2,554125,,,,,,,,green,,,null,object_03b.png,object_13b.png,,,,,,,,,,,,,,,,,,,,,,
null,,rt_plussign_withcolor2,554637,,,,,,,,green,,,null,object_03b.png,object_13b.png,,,,,,,,,,,,,,,,,,,,,,
880.6999999955297,,rt_thecrossant_black2,555777,,,,,,,,black_plus_sign,,,50,,,1,,,,,,,0.9090909090909091,,,,,,,,,,,,,,
null,,color_black2,555897,,,,,,,,black_plus_sign,,,null,,,,,,,,,,,,,,,,,,,,,,,,
null,,learn_phase(without_color)2,559412,,,,,,,,black_plus_sign,,,null,object_05a.png,object_05b.png,,,,,,,,,,,,,,,,,,,,,,
null,,black_cross(without_color)2,560030,,,,,,,,blue,,,null,object_05a.png,object_05b.png,,,,,,,,,,,,,,,,,,,,,,
null,,rt_plussign_withcolor2,560542,,,,,,,,blue,,,null,object_05a.png,object_05b.png,,,,,,,,,,,,,,,,,,,,,,
1137.8999999985099,,rt_thecrossant_black2,561953,,,,,,,,black_plus_sign,,,49,,,1,,,,,,,0.9166666666666666,,,,,,,,,,,,,,
null,,color_black2,562072,,,,,,,,black_plus_sign,,,null,,,,,,,,,,,,,,,,,,,,,,,,
null,,learn_phase(without_color)2,565579,,,,,,,,black_plus_sign,,,null,object_08b.png,object_10b.png,,,,,,,,,,,,,,,,,,,,,,
null,,black_cross(without_color)2,566094,,,,,,,,blue,,,null,object_08b.png,object_10b.png,,,,,,,,,,,,,,,,,,,,,,
null,,rt_plussign_withcolor2,566603,,,,,,,,blue,,,null,object_08b.png,object_10b.png,,,,,,,,,,,,,,,,,,,,,,
854.7999999970198,,rt_thecrossant_black2,568111,,,,,,,,black_plus_sign,,,49,,,1,,,,,,,0.9230769230769231,,,,,,,,,,,,,,
null,,color_black2,568222,,,,,,,,black_plus_sign,,,null,,,,,,,,,,,,,,,,,,,,,,,,
null,,learn_phase(without_color)2,571733,,,,,,,,black_plus_sign,,,null,object_12c.png,object_12a.png,,,,,,,,,,,,,,,,,,,,,,
null,,black_cross(without_color)2,572660,,,,,,,,blue,,,null,object_12c.png,object_12a.png,,,,,,,,,,,,,,,,,,,,,,
null,,rt_plussign_withcolor2,573174,,,,,,,,blue,,,null,object_12c.png,object_12a.png,,,,,,,,,,,,,,,,,,,,,,
625.6999999955297,,rt_thecrossant_black2,574261,,,,,,,,black_plus_sign,,,49,,,1,,,,,,,0.9285714285714286,,,,,,,,,,,,,,
null,,color_black2,574376,,,,,,,,black_plus_sign,,,null,,,,,,,,,,,,,,,,,,,,,,,,
null,,learn_phase(without_color)2,577887,,,,,,,,black_plus_sign,,,null,object_02b.png,object_02a.png,,,,,,,,,,,,,,,,,,,,,,
null,,black_cross(without_color)2,578807,,,,,,,,blue,,,null,object_02b.png,object_02a.png,,,,,,,,,,,,,,,,,,,,,,
506,,rt_plussign_withcolor2,579317,,,,,,,,blue,,,49,object_02b.png,object_02a.png,,,,,,,,,,,,,,,,,,,,,,
null,,rt_thecrossant_black2,580423,,,,,,,,black_plus_sign,,,null,,,1,,,,,,,0.9333333333333333,,,,,,,,,,,,,,
null,,color_black2,580537,,,,,,,,black_plus_sign,,,null,,,,,,,,,,,,,,,,,,,,,,,,
null,,thebreak,580650,,,,,,,,<p></p>,,,null,,,,,,,,,,,,,,,,,,,,,,,,
1320.7999999970198,,intro_0,581973,,,,,,,,instruct,,,32,,,,,,,,,,,,,,,,,,,,,,,,
4127.89999999851,,directmemory_phase2,586103,,,,,,,,object_02a.png,,,49,,,1,,object_02b.png,object_01a.png,object_02c.png,object_02b.png,,0.375,,1,,,,,,,,,,,,
2455.7999999970198,,directmemory_phase2,588561,,,,,,,,object_13a.png,,,51,,,1,,object_10b.png,object_02a.png,object_15a.png,object_15a.png,,0.4117647058823529,,1,,,,,,,,,,,,
1240.7999999970198,,directmemory_phase2,589805,,,,,,,,object_04a.png,,,49,,,1,,object_14a.png,object_12a.png,object_08a.png,object_14a.png,,0.4444444444444444,,1,,,,,,,,,,,,
4599.5,,directmemory_phase2,594408,,,,,,,,object_10c.png,,,50,,,1,,object_14b.png,object_12b.png,object_15a.png,object_12b.png,,0.47368421052631576,,1,,,,,,,,,,,,
3163.2000000029802,,directmemory_phase2,597574,,,,,,,,object_09c.png,,,49,,,1,,object_01a.png,object_13c.png,object_08a.png,object_01a.png,,0.5,,1,,,,,,,,,,,,
2965.10000000149,,directmemory_phase2,600542,,,,,,,,object_02c.png,,,50,,,1,,object_02a.png,object_13c.png,object_14a.png,object_13c.png,,0.5238095238095238,,1,,,,,,,,,,,,
3513.5,,directmemory_phase2,604057,,,,,,,,object_12c.png,,,51,,,1,,object_02b.png,object_08c.png,object_12a.png,object_12a.png,,0.5454545454545454,,1,,,,,,,,,,,,
2680.89999999851,,directmemory_phase2,606741,,,,,,,,object_08c.png,,,49,,,1,,object_11a.png,object_05a.png,object_05b.png,object_11a.png,,0.5652173913043478,,1,,,,,,,,,,,,
3484,,directmemory_phase2,610227,,,,,,,,object_14b.png,,,50,,,1,,object_08a.png,object_10a.png,object_04c.png,object_10a.png,,0.5833333333333334,,1,,,,,,,,,,,,
3994.60000000149,,directmemory_phase2,614226,,,,,,,,object_03b.png,,,51,,,1,,object_05a.png,object_02c.png,object_13b.png,object_13b.png,,0.6,,1,,,,,,,,,,,,
3550.4000000059605,,directmemory_phase2,617780,,,,,,,,object_05b.png,,,50,,,1,,object_03b.png,object_05a.png,object_13b.png,object_05a.png,,0.6153846153846154,,1,,,,,,,,,,,,
4010.2999999970198,,directmemory_phase2,621793,,,,,,,,object_09a.png,,,51,,,1,,object_13b.png,object_08a.png,object_11c.png,object_11c.png,,0.6296296296296297,,1,,,,,,,,,,,,
4217.39999999851,,directmemory_phase2,626013,,,,,,,,object_08b.png,,,50,,,1,,object_12c.png,object_10b.png,object_10a.png,object_10b.png,,0.6428571428571429,,1,,,,,,,,,,,,
5678.60000000149,,directmemory_phase2,631694,,,,,,,,object_08a.png,,,51,,,1,,object_13b.png,object_05b.png,object_04c.png,object_04c.png,,0.6551724137931034,,1,,,,,,,,,,,,
3604.1999999955297,,directmemory_phase2,635302,,,,,,,,object_14c.png,,,50,,,0,,object_07b.png,object_01a.png,object_12c.png,object_07b.png,,0.6333333333333333,,0,,,,,,,,,,,,
null,,thebreak,635409,,,,,,,,<p></p>,,,null,,,,,,,,,,,,,,,,,,,,,,,,
1699,,intro_0,637110,,,,,,,,instruct,,,32,,,,,,,,,,,,,,,,,,,,,,,,
null,,learn_phase(without_color)3,640615,,,,,,,,black_plus_sign,,,null,object_12c.png,object_12a.png,,,,,,,,,,,,,,,,,,,,,,
null,,black_cross(without_color)3,641483,,,,,,,,green,,,null,object_12c.png,object_12a.png,,,,,,,,,,,,,,,,,,,,,,
null,,rt_plussign_withcolor3,641992,,,,,,,,green,,,null,object_12c.png,object_12a.png,,,,,,,,,,,,,,,,,,,,,,
1139.1000000014901,,rt_thecrossant_black3,643146,,,,,,,,black_plus_sign,,,49,,,0,,,,,,,0,,,,,,,,,,,,,,
null,,color_black3,643254,,,,,,,,black_plus_sign,,,null,,,,,,,,,,,,,,,,,,,,,,,,
null,,learn_phase(without_color)3,646764,,,,,,,,black_plus_sign,,,null,object_09a.png,object_11c.png,,,,,,,,,,,,,,,,,,,,,,
null,,black_cross(without_color)3,647649,,,,,,,,green,,,null,object_09a.png,object_11c.png,,,,,,,,,,,,,,,,,,,,,,
null,,rt_plussign_withcolor3,648153,,,,,,,,green,,,null,object_09a.png,object_11c.png,,,,,,,,,,,,,,,,,,,,,,
1112.5,,rt_thecrossant_black3,649288,,,,,,,,black_plus_sign,,,50,,,1,,,,,,,0.5,,,,,,,,,,,,,,
null,,color_black3,649394,,,,,,,,black_plus_sign,,,null,,,,,,,,,,,,,,,,,,,,,,,,
null,,learn_phase(without_color)3,652905,,,,,,,,black_plus_sign,,,null,object_05a.png,object_05b.png,,,,,,,,,,,,,,,,,,,,,,
null,,black_cross(without_color)3,653411,,,,,,,,green,,,null,object_05a.png,object_05b.png,,,,,,,,,,,,,,,,,,,,,,
null,,rt_plussign_withcolor3,653914,,,,,,,,green,,,null,object_05a.png,object_05b.png,,,,,,,,,,,,,,,,,,,,,,
1033.3999999985099,,rt_thecrossant_black3,655423,,,,,,,,black_plus_sign,,,50,,,1,,,,,,,0.6666666666666666,,,,,,,,,,,,,,
null,,color_black3,655539,,,,,,,,black_plus_sign,,,null,,,,,,,,,,,,,,,,,,,,,,,,
null,,learn_phase(without_color)3,659048,,,,,,,,black_plus_sign,,,null,object_02c.png,object_13c.png,,,,,,,,,,,,,,,,,,,,,,
null,,black_cross(without_color)3,660006,,,,,,,,green,,,null,object_02c.png,object_13c.png,,,,,,,,,,,,,,,,,,,,,,
null,,rt_plussign_withcolor3,660515,,,,,,,,green,,,null,object_02c.png,object_13c.png,,,,,,,,,,,,,,,,,,,,,,
663,,rt_thecrossant_black3,661573,,,,,,,,black_plus_sign,,,50,,,1,,,,,,,0.75,,,,,,,,,,,,,,
null,,color_black3,661690,,,,,,,,black_plus_sign,,,null,,,,,,,,,,,,,,,,,,,,,,,,
null,,learn_phase(without_color)3,665202,,,,,,,,black_plus_sign,,,null,object_12b.png,object_10c.png,,,,,,,,,,,,,,,,,,,,,,
null,,black_cross(without_color)3,665841,,,,,,,,blue,,,null,object_12b.png,object_10c.png,,,,,,,,,,,,,,,,,,,,,,
null,,rt_plussign_withcolor3,666349,,,,,,,,blue,,,null,object_12b.png,object_10c.png,,,,,,,,,,,,,,,,,,,,,,
1131.8999999985099,,rt_thecrossant_black3,667727,,,,,,,,black_plus_sign,,,49,,,1,,,,,,,0.8,,,,,,,,,,,,,,
null,,color_black3,667838,,,,,,,,black_plus_sign,,,null,,,,,,,,,,,,,,,,,,,,,,,,
null,,learn_phase(without_color)3,671353,,,,,,,,black_plus_sign,,,null,object_08a.png,object_04c.png,,,,,,,,,,,,,,,,,,,,,,
null,,black_cross(without_color)3,672070,,,,,,,,green,,,null,object_08a.png,object_04c.png,,,,,,,,,,,,,,,,,,,,,,
493.8999999985099,,rt_plussign_withcolor3,672575,,,,,,,,green,,,50,object_08a.png,object_04c.png,,,,,,,,,,,,,,,,,,,,,,
null,,rt_thecrossant_black3,673873,,,,,,,,black_plus_sign,,,null,,,1,,,,,,,0.8333333333333334,,,,,,,,,,,,,,
null,,color_black3,673982,,,,,,,,black_plus_sign,,,null,,,,,,,,,,,,,,,,,,,,,,,,
null,,learn_phase(without_color)3,677497,,,,,,,,black_plus_sign,,,null,object_13a.png,object_15a.png,,,,,,,,,,,,,,,,,,,,,,
null,,black_cross(without_color)3,678561,,,,,,,,green,,,null,object_13a.png,object_15a.png,,,,,,,,,,,,,,,,,,,,,,
null,,rt_plussign_withcolor3,679068,,,,,,,,green,,,null,object_13a.png,object_15a.png,,,,,,,,,,,,,,,,,,,,,,
921.2000000029802,,rt_thecrossant_black3,680025,,,,,,,,black_plus_sign,,,50,,,1,,,,,,,0.8571428571428571,,,,,,,,,,,,,,
null,,color_black3,680133,,,,,,,,black_plus_sign,,,null,,,,,,,,,,,,,,,,,,,,,,,,
null,,learn_phase(without_color)3,683641,,,,,,,,black_plus_sign,,,null,object_08b.png,object_10b.png,,,,,,,,,,,,,,,,,,,,,,
null,,black_cross(without_color)3,684297,,,,,,,,green,,,null,object_08b.png,object_10b.png,,,,,,,,,,,,,,,,,,,,,,
null,,rt_plussign_withcolor3,684809,,,,,,,,green,,,null,object_08b.png,object_10b.png,,,,,,,,,,,,,,,,,,,,,,
1167.7999999970198,,rt_thecrossant_black3,686173,,,,,,,,black_plus_sign,,,50,,,1,,,,,,,0.875,,,,,,,,,,,,,,
null,,color_black3,686278,,,,,,,,black_plus_sign,,,null,,,,,,,,,,,,,,,,,,,,,,,,
null,,learn_phase(without_color)3,689791,,,,,,,,black_plus_sign,,,null,object_14a.png,object_04a.png,,,,,,,,,,,,,,,,,,,,,,
null,,black_cross(without_color)3,690771,,,,,,,,green,,,null,object_14a.png,object_04a.png,,,,,,,,,,,,,,,,,,,,,,
null,,rt_plussign_withcolor3,691282,,,,,,,,green,,,null,object_14a.png,object_04a.png,,,,,,,,,,,,,,,,,,,,,,
890.8000000044703,,rt_thecrossant_black3,692323,,,,,,,,black_plus_sign,,,50,,,1,,,,,,,0.8888888888888888,,,,,,,,,,,,,,
null,,color_black3,692433,,,,,,,,black_plus_sign,,,null,,,,,,,,,,,,,,,,,,,,,,,,
null,,learn_phase(without_color)3,695957,,,,,,,,black_plus_sign,,,null,object_09c.png,object_01a.png,,,,,,,,,,,,,,,,,,,,,,
null,,black_cross(without_color)3,696545,,,,,,,,blue,,,null,object_09c.png,object_01a.png,,,,,,,,,,,,,,,,,,,,,,
null,,rt_plussign_withcolor3,697051,,,,,,,,blue,,,null,object_09c.png,object_01a.png,,,,,,,,,,,,,,,,,,,,,,
1480,,rt_thecrossant_black3,698483,,,,,,,,black_plus_sign,,,49,,,1,,,,,,,0.9,,,,,,,,,,,,,,
null,,color_black3,698604,,,,,,,,black_plus_sign,,,null,,,,,,,,,,,,,,,,,,,,,,,,
null,,learn_phase(without_color)3,702114,,,,,,,,black_plus_sign,,,null,object_13b.png,object_03b.png,,,,,,,,,,,,,,,,,,,,,,
null,,black_cross(without_color)3,702862,,,,,,,,green,,,null,object_13b.png,object_03b.png,,,,,,,,,,,,,,,,,,,,,,
null,,rt_plussign_withcolor3,703372,,,,,,,,green,,,null,object_13b.png,object_03b.png,,,,,,,,,,,,,,,,,,,,,,
783.4000000059605,,rt_thecrossant_black3,704652,,,,,,,,black_plus_sign,,,50,,,1,,,,,,,0.9090909090909091,,,,,,,,,,,,,,
null,,color_black3,704771,,,,,,,,black_plus_sign,,,null,,,,,,,,,,,,,,,,,,,,,,,,
null,,learn_phase(without_color)3,708283,,,,,,,,black_plus_sign,,,null,object_02a.png,object_02b.png,,,,,,,,,,,,,,,,,,,,,,
null,,black_cross(without_color)3,709014,,,,,,,,green,,,null,object_02a.png,object_02b.png,,,,,,,,,,,,,,,,,,,,,,
null,,rt_plussign_withcolor3,709521,,,,,,,,green,,,null,object_02a.png,object_02b.png,,,,,,,,,,,,,,,,,,,,,,
844.3999999985099,,rt_thecrossant_black3,710804,,,,,,,,black_plus_sign,,,50,,,1,,,,,,,0.9166666666666666,,,,,,,,,,,,,,
null,,color_black3,710915,,,,,,,,black_plus_sign,,,null,,,,,,,,,,,,,,,,,,,,,,,,
null,,learn_phase(without_color)3,714422,,,,,,,,black_plus_sign,,,null,object_14b.png,object_10a.png,,,,,,,,,,,,,,,,,,,,,,
null,,black_cross(without_color)3,715352,,,,,,,,green,,,null,object_14b.png,object_10a.png,,,,,,,,,,,,,,,,,,,,,,
null,,rt_plussign_withcolor3,715869,,,,,,,,green,,,null,object_14b.png,object_10a.png,,,,,,,,,,,,,,,,,,,,,,
835.1000000014901,,rt_thecrossant_black3,716964,,,,,,,,black_plus_sign,,,50,,,1,,,,,,,0.9230769230769231,,,,,,,,,,,,,,
null,,color_black3,717069,,,,,,,,black_plus_sign,,,null,,,,,,,,,,,,,,,,,,,,,,,,
null,,learn_phase(without_color)3,720579,,,,,,,,black_plus_sign,,,null,object_07b.png,object_14c.png,,,,,,,,,,,,,,,,,,,,,,
null,,black_cross(without_color)3,721355,,,,,,,,green,,,null,object_07b.png,object_14c.png,,,,,,,,,,,,,,,,,,,,,,
null,,rt_plussign_withcolor3,721869,,,,,,,,green,,,null,object_07b.png,object_14c.png,,,,,,,,,,,,,,,,,,,,,,
1309.3999999985099,,rt_thecrossant_black3,723111,,,,,,,,black_plus_sign,,,50,,,1,,,,,,,0.9285714285714286,,,,,,,,,,,,,,
null,,color_black3,723215,,,,,,,,black_plus_sign,,,null,,,,,,,,,,,,,,,,,,,,,,,,
null,,learn_phase(without_color)3,726723,,,,,,,,black_plus_sign,,,null,object_08c.png,object_11a.png,,,,,,,,,,,,,,,,,,,,,,
null,,black_cross(without_color)3,727541,,,,,,,,green,,,null,object_08c.png,object_11a.png,,,,,,,,,,,,,,,,,,,,,,
null,,rt_plussign_withcolor3,728046,,,,,,,,green,,,null,object_08c.png,object_11a.png,,,,,,,,,,,,,,,,,,,,,,
914.5,,rt_thecrossant_black3,729246,,,,,,,,black_plus_sign,,,50,,,1,,,,,,,0.9333333333333333,,,,,,,,,,,,,,
null,,color_black3,729359,,,,,,,,black_plus_sign,,,null,,,,,,,,,,,,,,,,,,,,,,,,
null,,thebreak,729472,,,,,,,,<p></p>,,,null,,,,,,,,,,,,,,,,,,,,,,,,
1498.5,,intro_0,730974,,,,,,,,instruct,,,32,,,,,,,,,,,,,,,,,,,,,,,,
9836.79999999702,,directmemory_phase3,740812,,,,,,,,object_05b.png,,,51,,,1,,object_04c.png,object_08c.png,object_05a.png,object_05a.png,,0.6451612903225806,,1,,,,,,,,,,,,
4529.9000000059605,,directmemory_phase3,745346,,,,,,,,object_10c.png,,,51,,,1,,object_12a.png,object_13a.png,object_12b.png,object_12b.png,,0.65625,,1,,,,,,,,,,,,
3615.7000000029802,,directmemory_phase3,748967,,,,,,,,object_08b.png,,,49,,,1,,object_10b.png,object_12a.png,object_10c.png,object_10b.png,,0.6666666666666666,,1,,,,,,,,,,,,
4557.70000000298,,directmemory_phase3,753530,,,,,,,,object_02a.png,,,51,,,1,,object_07b.png,object_08c.png,object_02b.png,object_02b.png,,0.6764705882352942,,1,,,,,,,,,,,,
4045.60000000149,,directmemory_phase3,757580,,,,,,,,object_08a.png,,,51,,,1,,object_10b.png,object_14c.png,object_04c.png,object_04c.png,,0.6857142857142857,,1,,,,,,,,,,,,
3691.9000000059605,,directmemory_phase3,761275,,,,,,,,object_13a.png,,,50,,,1,,object_03b.png,object_15a.png,object_01a.png,object_15a.png,,0.6944444444444444,,1,,,,,,,,,,,,
1495,,directmemory_phase3,762773,,,,,,,,object_09c.png,,,51,,,1,,object_15a.png,object_02a.png,object_01a.png,object_01a.png,,0.7027027027027027,,1,,,,,,,,,,,,
1648.8999999985099,,directmemory_phase3,764425,,,,,,,,object_02c.png,,,49,,,1,,object_13c.png,object_14a.png,object_10c.png,object_13c.png,,0.7105263157894737,,1,,,,,,,,,,,,
6025.29999999702,,directmemory_phase3,770453,,,,,,,,object_03b.png,,,49,,,1,,object_13b.png,object_05a.png,object_12c.png,object_13b.png,,0.717948717948718,,1,,,,,,,,,,,,
2167.8000000044703,,directmemory_phase3,772623,,,,,,,,object_08c.png,,,49,,,1,,object_11a.png,object_07b.png,object_10c.png,object_11a.png,,0.725,,1,,,,,,,,,,,,
3220.5999999940395,,directmemory_phase3,775847,,,,,,,,object_09a.png,,,51,,,1,,object_12a.png,object_10c.png,object_11c.png,object_11c.png,,0.7317073170731707,,1,,,,,,,,,,,,
3966.5,,directmemory_phase3,779818,,,,,,,,object_12c.png,,,49,,,1,,object_12a.png,object_11a.png,object_08b.png,object_12a.png,,0.7380952380952381,,1,,,,,,,,,,,,
1318.3000000044703,,directmemory_phase3,781140,,,,,,,,object_04a.png,,,50,,,1,,object_03b.png,object_14a.png,object_13b.png,object_14a.png,,0.7441860465116279,,1,,,,,,,,,,,,
2555.5,,directmemory_phase3,783699,,,,,,,,object_14c.png,,,49,,,1,,object_07b.png,object_12a.png,object_03b.png,object_07b.png,,0.75,,1,,,,,,,,,,,,
1900,,directmemory_phase3,785601,,,,,,,,object_14b.png,,,50,,,1,,object_08c.png,object_10a.png,object_14a.png,object_10a.png,,0.7555555555555555,,1,,,,,,,,,,,,
null,,thebreak,785710,,,,,,,,<p></p>,,,null,,,,,,,,,,,,,,,,,,,,,,,,
32801.59999999404,,intro_0,818514,,,,,,,,instruct,,,32,,,,,,,,,,,,,,,,,,,,,,,,
null,,learn_phase(without_color)4,822025,,,,,,,,black_plus_sign,,,null,object_11c.png,object_09a.png,,,,,,,,,,,,,,,,,,,,,,
null,,black_cross(without_color)4,822665,,,,,,,,blue,,,null,object_11c.png,object_09a.png,,,,,,,,,,,,,,,,,,,,,,
null,,rt_plussign_withcolor4,823170,,,,,,,,blue,,,null,object_11c.png,object_09a.png,,,,,,,,,,,,,,,,,,,,,,
826.6000000014901,,rt_thecrossant_black4,824553,,,,,,,,black_plus_sign,,,49,,,1,,,,,,,1,,,,,,,,,,,,,,
null,,color_black4,824663,,,,,,,,black_plus_sign,,,null,,,,,,,,,,,,,,,,,,,,,,,,
null,,learn_phase(without_color)4,828175,,,,,,,,black_plus_sign,,,null,object_08a.png,object_04c.png,,,,,,,,,,,,,,,,,,,,,,
null,,black_cross(without_color)4,828598,,,,,,,,green,,,null,object_08a.png,object_04c.png,,,,,,,,,,,,,,,,,,,,,,
465.3999999985099,,rt_plussign_withcolor4,829105,,,,,,,,green,,,50,object_08a.png,object_04c.png,,,,,,,,,,,,,,,,,,,,,,
null,,rt_thecrossant_black4,830707,,,,,,,,black_plus_sign,,,null,,,1,,,,,,,1,,,,,,,,,,,,,,
null,,color_black4,830816,,,,,,,,black_plus_sign,,,null,,,,,,,,,,,,,,,,,,,,,,,,
null,,learn_phase(without_color)4,834323,,,,,,,,black_plus_sign,,,null,object_10a.png,object_14b.png,,,,,,,,,,,,,,,,,,,,,,
null,,black_cross(without_color)4,835216,,,,,,,,blue,,,null,object_10a.png,object_14b.png,,,,,,,,,,,,,,,,,,,,,,
null,,rt_plussign_withcolor4,835725,,,,,,,,blue,,,null,object_10a.png,object_14b.png,,,,,,,,,,,,,,,,,,,,,,
604.5,,rt_thecrossant_black4,836843,,,,,,,,black_plus_sign,,,49,,,1,,,,,,,1,,,,,,,,,,,,,,
null,,color_black4,836955,,,,,,,,black_plus_sign,,,null,,,,,,,,,,,,,,,,,,,,,,,,
null,,learn_phase(without_color)4,840465,,,,,,,,black_plus_sign,,,null,object_12c.png,object_12a.png,,,,,,,,,,,,,,,,,,,,,,
null,,black_cross(without_color)4,841371,,,,,,,,green,,,null,object_12c.png,object_12a.png,,,,,,,,,,,,,,,,,,,,,,
null,,rt_plussign_withcolor4,841883,,,,,,,,green,,,null,object_12c.png,object_12a.png,,,,,,,,,,,,,,,,,,,,,,
1035.6999999955297,,rt_thecrossant_black4,842994,,,,,,,,black_plus_sign,,,50,,,1,,,,,,,1,,,,,,,,,,,,,,
null,,color_black4,843105,,,,,,,,black_plus_sign,,,null,,,,,,,,,,,,,,,,,,,,,,,,
null,,learn_phase(without_color)4,846611,,,,,,,,black_plus_sign,,,null,object_13a.png,object_15a.png,,,,,,,,,,,,,,,,,,,,,,
null,,black_cross(without_color)4,847516,,,,,,,,green,,,null,object_13a.png,object_15a.png,,,,,,,,,,,,,,,,,,,,,,
null,,rt_plussign_withcolor4,848021,,,,,,,,green,,,null,object_13a.png,object_15a.png,,,,,,,,,,,,,,,,,,,,,,
1089.8000000044703,,rt_thecrossant_black4,849140,,,,,,,,black_plus_sign,,,50,,,1,,,,,,,1,,,,,,,,,,,,,,
null,,color_black4,849243,,,,,,,,black_plus_sign,,,null,,,,,,,,,,,,,,,,,,,,,,,,
null,,learn_phase(without_color)4,852753,,,,,,,,black_plus_sign,,,null,object_13c.png,object_02c.png,,,,,,,,,,,,,,,,,,,,,,
null,,black_cross(without_color)4,853212,,,,,,,,blue,,,null,object_13c.png,object_02c.png,,,,,,,,,,,,,,,,,,,,,,
null,,rt_plussign_withcolor4,853718,,,,,,,,blue,,,null,object_13c.png,object_02c.png,,,,,,,,,,,,,,,,,,,,,,
1157.6000000014901,,rt_thecrossant_black4,855270,,,,,,,,black_plus_sign,,,49,,,1,,,,,,,1,,,,,,,,,,,,,,
null,,color_black4,855373,,,,,,,,black_plus_sign,,,null,,,,,,,,,,,,,,,,,,,,,,,,
null,,learn_phase(without_color)4,858882,,,,,,,,black_plus_sign,,,null,object_10b.png,object_08b.png,,,,,,,,,,,,,,,,,,,,,,
null,,black_cross(without_color)4,859924,,,,,,,,blue,,,null,object_10b.png,object_08b.png,,,,,,,,,,,,,,,,,,,,,,
null,,rt_plussign_withcolor4,860430,,,,,,,,blue,,,null,object_10b.png,object_08b.png,,,,,,,,,,,,,,,,,,,,,,
611.6999999955297,,rt_thecrossant_black4,861405,,,,,,,,black_plus_sign,,,49,,,1,,,,,,,1,,,,,,,,,,,,,,
null,,color_black4,861525,,,,,,,,black_plus_sign,,,null,,,,,,,,,,,,,,,,,,,,,,,,
null,,learn_phase(without_color)4,865047,,,,,,,,black_plus_sign,,,null,object_07b.png,object_14c.png,,,,,,,,,,,,,,,,,,,,,,
null,,black_cross(without_color)4,865472,,,,,,,,blue,,,null,object_07b.png,object_14c.png,,,,,,,,,,,,,,,,,,,,,,
null,,rt_plussign_withcolor4,865980,,,,,,,,blue,,,null,object_07b.png,object_14c.png,,,,,,,,,,,,,,,,,,,,,,
1540.7000000029802,,rt_thecrossant_black4,867582,,,,,,,,black_plus_sign,,,49,,,1,,,,,,,1,,,,,,,,,,,,,,
null,,color_black4,867693,,,,,,,,black_plus_sign,,,null,,,,,,,,,,,,,,,,,,,,,,,,
null,,learn_phase(without_color)4,871199,,,,,,,,black_plus_sign,,,null,object_12b.png,object_10c.png,,,,,,,,,,,,,,,,,,,,,,
null,,black_cross(without_color)4,872211,,,,,,,,green,,,null,object_12b.png,object_10c.png,,,,,,,,,,,,,,,,,,,,,,
432.8999999985099,,rt_plussign_withcolor4,872721,,,,,,,,green,,,50,object_12b.png,object_10c.png,,,,,,,,,,,,,,,,,,,,,,
null,,rt_thecrossant_black4,873733,,,,,,,,black_plus_sign,,,null,,,1,,,,,,,1,,,,,,,,,,,,,,
null,,color_black4,873845,,,,,,,,black_plus_sign,,,null,,,,,,,,,,,,,,,,,,,,,,,,
null,,learn_phase(without_color)4,877354,,,,,,,,black_plus_sign,,,null,object_09c.png,object_01a.png,,,,,,,,,,,,,,,,,,,,,,
null,,black_cross(without_color)4,878327,,,,,,,,blue,,,null,object_09c.png,object_01a.png,,,,,,,,,,,,,,,,,,,,,,
null,,rt_plussign_withcolor4,878844,,,,,,,,blue,,,null,object_09c.png,object_01a.png,,,,,,,,,,,,,,,,,,,,,,
1287.5,,rt_thecrossant_black4,879898,,,,,,,,black_plus_sign,,,49,,,1,,,,,,,1,,,,,,,,,,,,,,
null,,color_black4,880012,,,,,,,,black_plus_sign,,,null,,,,,,,,,,,,,,,,,,,,,,,,
null,,learn_phase(without_color)4,883525,,,,,,,,black_plus_sign,,,null,object_02a.png,object_02b.png,,,,,,,,,,,,,,,,,,,,,,
null,,black_cross(without_color)4,884405,,,,,,,,blue,,,null,object_02a.png,object_02b.png,,,,,,,,,,,,,,,,,,,,,,
481.6000000014901,,rt_plussign_withcolor4,884914,,,,,,,,blue,,,49,object_02a.png,object_02b.png,,,,,,,,,,,,,,,,,,,,,,
null,,rt_thecrossant_black4,886056,,,,,,,,black_plus_sign,,,null,,,1,,,,,,,1,,,,,,,,,,,,,,
null,,color_black4,886164,,,,,,,,black_plus_sign,,,null,,,,,,,,,,,,,,,,,,,,,,,,
null,,learn_phase(without_color)4,889673,,,,,,,,black_plus_sign,,,null,object_11a.png,object_08c.png,,,,,,,,,,,,,,,,,,,,,,
null,,black_cross(without_color)4,890272,,,,,,,,green,,,null,object_11a.png,object_08c.png,,,,,,,,,,,,,,,,,,,,,,
null,,rt_plussign_withcolor4,890778,,,,,,,,green,,,null,object_11a.png,object_08c.png,,,,,,,,,,,,,,,,,,,,,,
1255.8000000044703,,rt_thecrossant_black4,892199,,,,,,,,black_plus_sign,,,50,,,1,,,,,,,1,,,,,,,,,,,,,,
null,,color_black4,892310,,,,,,,,black_plus_sign,,,null,,,,,,,,,,,,,,,,,,,,,,,,
null,,learn_phase(without_color)4,895834,,,,,,,,black_plus_sign,,,null,object_14a.png,object_04a.png,,,,,,,,,,,,,,,,,,,,,,
null,,black_cross(without_color)4,896938,,,,,,,,blue,,,null,object_14a.png,object_04a.png,,,,,,,,,,,,,,,,,,,,,,
null,,rt_plussign_withcolor4,897441,,,,,,,,blue,,,null,object_14a.png,object_04a.png,,,,,,,,,,,,,,,,,,,,,,
830,,rt_thecrossant_black4,898354,,,,,,,,black_plus_sign,,,49,,,1,,,,,,,1,,,,,,,,,,,,,,
null,,color_black4,898462,,,,,,,,black_plus_sign,,,null,,,,,,,,,,,,,,,,,,,,,,,,
null,,learn_phase(without_color)4,901971,,,,,,,,black_plus_sign,,,null,object_05a.png,object_05b.png,,,,,,,,,,,,,,,,,,,,,,
null,,black_cross(without_color)4,902964,,,,,,,,green,,,null,object_05a.png,object_05b.png,,,,,,,,,,,,,,,,,,,,,,
null,,rt_plussign_withcolor4,903473,,,,,,,,green,,,null,object_05a.png,object_05b.png,,,,,,,,,,,,,,,,,,,,,,
1510,,rt_thecrossant_black4,904503,,,,,,,,black_plus_sign,,,50,,,1,,,,,,,1,,,,,,,,,,,,,,
null,,color_black4,904615,,,,,,,,black_plus_sign,,,null,,,,,,,,,,,,,,,,,,,,,,,,
null,,learn_phase(without_color)4,908125,,,,,,,,black_plus_sign,,,null,object_03b.png,object_13b.png,,,,,,,,,,,,,,,,,,,,,,
null,,black_cross(without_color)4,908781,,,,,,,,green,,,null,object_03b.png,object_13b.png,,,,,,,,,,,,,,,,,,,,,,
null,,rt_plussign_withcolor4,909291,,,,,,,,green,,,null,object_03b.png,object_13b.png,,,,,,,,,,,,,,,,,,,,,,
1549.3999999985099,,rt_thecrossant_black4,910656,,,,,,,,black_plus_sign,,,50,,,1,,,,,,,1,,,,,,,,,,,,,,
null,,color_black4,910765,,,,,,,,black_plus_sign,,,null,,,,,,,,,,,,,,,,,,,,,,,,
null,,thebreak,910882,,,,,,,,<p></p>,,,null,,,,,,,,,,,,,,,,,,,,,,,,
1453.1000000014901,,intro_0,912337,,,,,,,,instruct,,,32,,,,,,,,,,,,,,,,,,,,,,,,
4522.60000000149,,directmemory_phase4,916862,,,,,,,,object_09a.png,,,49,,,1,,object_11c.png,object_13c.png,object_03b.png,object_11c.png,,0.7608695652173914,,1,,,,,,,,,,,,
2516.10000000149,,directmemory_phase4,919382,,,,,,,,object_08c.png,,,51,,,0,,object_02a.png,object_11a.png,object_12a.png,object_11a.png,,0.7446808510638298,,0,,,,,,,,,,,,
4269.20000000298,,directmemory_phase4,923653,,,,,,,,object_14b.png,,,51,,,1,,object_12a.png,object_14c.png,object_10a.png,object_10a.png,,0.75,,1,,,,,,,,,,,,
4764,,directmemory_phase4,928422,,,,,,,,object_02a.png,,,50,,,1,,object_13a.png,object_02b.png,object_14a.png,object_02b.png,,0.7551020408163265,,1,,,,,,,,,,,,
3570.89999999851,,directmemory_phase4,931994,,,,,,,,object_08b.png,,,49,,,1,,object_10b.png,object_12a.png,object_14c.png,object_10b.png,,0.76,,1,,,,,,,,,,,,
1555.7999999970198,,directmemory_phase4,933553,,,,,,,,object_02c.png,,,51,,,1,,object_10b.png,object_09c.png,object_13c.png,object_13c.png,,0.7647058823529411,,1,,,,,,,,,,,,
2950.6999999955297,,directmemory_phase4,936507,,,,,,,,object_13a.png,,,50,,,1,,object_14c.png,object_15a.png,object_11a.png,object_15a.png,,0.7692307692307693,,1,,,,,,,,,,,,
3261.7999999970198,,directmemory_phase4,939775,,,,,,,,object_05b.png,,,49,,,1,,object_05a.png,object_01a.png,object_02c.png,object_05a.png,,0.7735849056603774,,1,,,,,,,,,,,,
3955.10000000149,,directmemory_phase4,943738,,,,,,,,object_14c.png,,,51,,,1,,object_05a.png,object_09c.png,object_07b.png,object_07b.png,,0.7777777777777778,,1,,,,,,,,,,,,
1514.2000000029802,,directmemory_phase4,945259,,,,,,,,object_09c.png,,,50,,,1,,object_14c.png,object_01a.png,object_13b.png,object_01a.png,,0.7818181818181819,,1,,,,,,,,,,,,
4165.29999999702,,directmemory_phase4,949428,,,,,,,,object_10c.png,,,49,,,1,,object_12b.png,object_14a.png,object_14c.png,object_12b.png,,0.7857142857142857,,1,,,,,,,,,,,,
9055.69999999553,,directmemory_phase4,958487,,,,,,,,object_08a.png,,,49,,,0,,object_14b.png,object_04c.png,object_05a.png,object_04c.png,,0.7719298245614035,,0,,,,,,,,,,,,
1323.2999999970198,,directmemory_phase4,959818,,,,,,,,object_04a.png,,,51,,,1,,object_04c.png,object_14c.png,object_14a.png,object_14a.png,,0.7758620689655172,,1,,,,,,,,,,,,
2443.5,,directmemory_phase4,962268,,,,,,,,object_12c.png,,,51,,,0,,object_03b.png,object_12a.png,object_13b.png,object_12a.png,,0.7627118644067796,,0,,,,,,,,,,,,
2347.89999999851,,directmemory_phase4,964623,,,,,,,,object_03b.png,,,51,,,1,,object_10b.png,object_08b.png,object_13b.png,object_13b.png,,0.7666666666666667,,1,,,,,,,,,,,,
null,,thebreak,964731,,,,,,,,<p></p>,,,null,,,,,,,,,,,,,,,,,,,,,,,,
20952,,intro_0,985687,,,,,,,,instruct,,,32,,,,,,,,,,,,,,,,,,,,,,,,
null,,learn_phase(without_color)5,989194,,,,,,,,black_plus_sign,,,null,object_06c.png,object_10a.png,,,,,,,,,,,,,,,,,,,,,,
null,,black_cross(without_color)5,989809,,,,,,,,green,,,null,object_06c.png,object_10a.png,,,,,,,,,,,,,,,,,,,,,,
null,,rt_plussign_withcolor5,990321,,,,,,,,green,,,null,object_06c.png,object_10a.png,,,,,,,,,,,,,,,,,,,,,,
1091.3999999985099,,rt_thecrossant_black5,991725,,,,,,,,black_plus_sign,,,49,,,0,,,,,,,0,,,,,,,,,,,,,,
null,,color_black5,991834,,,,,,,,black_plus_sign,,,null,,,,,,,,,,,,,,,,,,,,,,,,
null,,learn_phase(without_color)5,995343,,,,,,,,black_plus_sign,,,null,object_13c.png,object_11b.png,,,,,,,,,,,,,,,,,,,,,,
null,,black_cross(without_color)5,996233,,,,,,,,blue,,,null,object_13c.png,object_11b.png,,,,,,,,,,,,,,,,,,,,,,
null,,rt_plussign_withcolor5,996753,,,,,,,,blue,,,null,object_13c.png,object_11b.png,,,,,,,,,,,,,,,,,,,,,,
1233.7999999970198,,rt_thecrossant_black5,997893,,,,,,,,black_plus_sign,,,49,,,1,,,,,,,0.5,,,,,,,,,,,,,,
null,,color_black5,998005,,,,,,,,black_plus_sign,,,null,,,,,,,,,,,,,,,,,,,,,,,,
null,,learn_phase(without_color)5,1001511,,,,,,,,black_plus_sign,,,null,object_15a.png,object_06b.png,,,,,,,,,,,,,,,,,,,,,,
null,,black_cross(without_color)5,1002608,,,,,,,,blue,,,null,object_15a.png,object_06b.png,,,,,,,,,,,,,,,,,,,,,,
null,,rt_plussign_withcolor5,1003121,,,,,,,,blue,,,null,object_15a.png,object_06b.png,,,,,,,,,,,,,,,,,,,,,,
1557.3000000044703,,rt_thecrossant_black5,1004055,,,,,,,,black_plus_sign,,,49,,,1,,,,,,,0.6666666666666666,,,,,,,,,,,,,,
null,,color_black5,1004163,,,,,,,,black_plus_sign,,,null,,,,,,,,,,,,,,,,,,,,,,,,
null,,learn_phase(without_color)5,1007679,,,,,,,,black_plus_sign,,,null,object_15b.png,object_01a.png,,,,,,,,,,,,,,,,,,,,,,
null,,black_cross(without_color)5,1008646,,,,,,,,green,,,null,object_15b.png,object_01a.png,,,,,,,,,,,,,,,,,,,,,,
null,,rt_plussign_withcolor5,1009149,,,,,,,,green,,,null,object_15b.png,object_01a.png,,,,,,,,,,,,,,,,,,,,,,
1259.8999999985099,,rt_thecrossant_black5,1010198,,,,,,,,black_plus_sign,,,50,,,1,,,,,,,0.75,,,,,,,,,,,,,,
null,,color_black5,1010306,,,,,,,,black_plus_sign,,,null,,,,,,,,,,,,,,,,,,,,,,,,
null,,learn_phase(without_color)5,1013810,,,,,,,,black_plus_sign,,,null,object_04c.png,object_05c.png,,,,,,,,,,,,,,,,,,,,,,
null,,black_cross(without_color)5,1014358,,,,,,,,green,,,null,object_04c.png,object_05c.png,,,,,,,,,,,,,,,,,,,,,,
null,,rt_plussign_withcolor5,1014861,,,,,,,,green,,,null,object_04c.png,object_05c.png,,,,,,,,,,,,,,,,,,,,,,
1337.3999999985099,,rt_thecrossant_black5,1016329,,,,,,,,black_plus_sign,,,50,,,1,,,,,,,0.8,,,,,,,,,,,,,,
null,,color_black5,1016441,,,,,,,,black_plus_sign,,,null,,,,,,,,,,,,,,,,,,,,,,,,
null,,learn_phase(without_color)5,1019954,,,,,,,,black_plus_sign,,,null,object_02b.png,object_03c.png,,,,,,,,,,,,,,,,,,,,,,
null,,black_cross(without_color)5,1020794,,,,,,,,blue,,,null,object_02b.png,object_03c.png,,,,,,,,,,,,,,,,,,,,,,
473.1000000014901,,rt_plussign_withcolor5,1021299,,,,,,,,blue,,,49,object_02b.png,object_03c.png,,,,,,,,,,,,,,,,,,,,,,
null,,rt_thecrossant_black5,1022483,,,,,,,,black_plus_sign,,,null,,,1,,,,,,,0.8333333333333334,,,,,,,,,,,,,,
null,,color_black5,1022588,,,,,,,,black_plus_sign,,,null,,,,,,,,,,,,,,,,,,,,,,,,
null,,learn_phase(without_color)5,1026105,,,,,,,,black_plus_sign,,,null,object_09b.png,object_14a.png,,,,,,,,,,,,,,,,,,,,,,
null,,black_cross(without_color)5,1026693,,,,,,,,blue,,,null,object_09b.png,object_14a.png,,,,,,,,,,,,,,,,,,,,,,
null,,rt_plussign_withcolor5,1027206,,,,,,,,blue,,,null,object_09b.png,object_14a.png,,,,,,,,,,,,,,,,,,,,,,
996.5,,rt_thecrossant_black5,1028645,,,,,,,,black_plus_sign,,,50,,,0,,,,,,,0.7142857142857143,,,,,,,,,,,,,,
null,,color_black5,1028757,,,,,,,,black_plus_sign,,,null,,,,,,,,,,,,,,,,,,,,,,,,
null,,learn_phase(without_color)5,1032266,,,,,,,,black_plus_sign,,,null,object_05a.png,object_01c.png,,,,,,,,,,,,,,,,,,,,,,
null,,black_cross(without_color)5,1032725,,,,,,,,blue,,,null,object_05a.png,object_01c.png,,,,,,,,,,,,,,,,,,,,,,
null,,rt_plussign_withcolor5,1033231,,,,,,,,blue,,,null,object_05a.png,object_01c.png,,,,,,,,,,,,,,,,,,,,,,
842.1999999955297,,rt_thecrossant_black5,1034787,,,,,,,,black_plus_sign,,,49,,,1,,,,,,,0.75,,,,,,,,,,,,,,
null,,color_black5,1034892,,,,,,,,black_plus_sign,,,null,,,,,,,,,,,,,,,,,,,,,,,,
null,,learn_phase(without_color)5,1038401,,,,,,,,black_plus_sign,,,null,object_11a.png,object_03a.png,,,,,,,,,,,,,,,,,,,,,,
null,,black_cross(without_color)5,1039316,,,,,,,,blue,,,null,object_11a.png,object_03a.png,,,,,,,,,,,,,,,,,,,,,,
null,,rt_plussign_withcolor5,1039829,,,,,,,,blue,,,null,object_11a.png,object_03a.png,,,,,,,,,,,,,,,,,,,,,,
650.5,,rt_thecrossant_black5,1040926,,,,,,,,black_plus_sign,,,49,,,1,,,,,,,0.7777777777777778,,,,,,,,,,,,,,
null,,color_black5,1041033,,,,,,,,black_plus_sign,,,null,,,,,,,,,,,,,,,,,,,,,,,,
null,,learn_phase(without_color)5,1044542,,,,,,,,black_plus_sign,,,null,object_01b.png,object_12a.png,,,,,,,,,,,,,,,,,,,,,,
null,,black_cross(without_color)5,1045108,,,,,,,,green,,,null,object_01b.png,object_12a.png,,,,,,,,,,,,,,,,,,,,,,
null,,rt_plussign_withcolor5,1045614,,,,,,,,green,,,null,object_01b.png,object_12a.png,,,,,,,,,,,,,,,,,,,,,,
1067,,rt_thecrossant_black5,1047061,,,,,,,,black_plus_sign,,,50,,,1,,,,,,,0.8,,,,,,,,,,,,,,
null,,color_black5,1047174,,,,,,,,black_plus_sign,,,null,,,,,,,,,,,,,,,,,,,,,,,,
null,,learn_phase(without_color)5,1050693,,,,,,,,black_plus_sign,,,null,object_07c.png,object_07b.png,,,,,,,,,,,,,,,,,,,,,,
null,,black_cross(without_color)5,1051787,,,,,,,,green,,,null,object_07c.png,object_07b.png,,,,,,,,,,,,,,,,,,,,,,
null,,rt_plussign_withcolor5,1052292,,,,,,,,green,,,null,object_07c.png,object_07b.png,,,,,,,,,,,,,,,,,,,,,,
815.8999999985099,,rt_thecrossant_black5,1053223,,,,,,,,black_plus_sign,,,50,,,1,,,,,,,0.8181818181818182,,,,,,,,,,,,,,
null,,color_black5,1053334,,,,,,,,black_plus_sign,,,null,,,,,,,,,,,,,,,,,,,,,,,,
null,,learn_phase(without_color)5,1056843,,,,,,,,black_plus_sign,,,null,object_10b.png,object_04b.png,,,,,,,,,,,,,,,,,,,,,,
null,,black_cross(without_color)5,1057777,,,,,,,,green,,,null,object_10b.png,object_04b.png,,,,,,,,,,,,,,,,,,,,,,
null,,rt_plussign_withcolor5,1058282,,,,,,,,green,,,null,object_10b.png,object_04b.png,,,,,,,,,,,,,,,,,,,,,,
null,,rt_thecrossant_black5,1059374,,,,,,,,black_plus_sign,,,null,,,,,,,,,,0.8181818181818182,,,,,,,,,,,,,,
null,,color_black5,1059485,,,,,,,,black_plus_sign,,,null,,,,,,,,,,,,,,,,,,,,,,,,
null,,learn_phase(without_color)5,1063000,,,,,,,,black_plus_sign,,,null,object_12b.png,object_07a.png,,,,,,,,,,,,,,,,,,,,,,
null,,black_cross(without_color)5,1063936,,,,,,,,blue,,,null,object_12b.png,object_07a.png,,,,,,,,,,,,,,,,,,,,,,
null,,rt_plussign_withcolor5,1064448,,,,,,,,blue,,,null,object_12b.png,object_07a.png,,,,,,,,,,,,,,,,,,,,,,
1043.6999999955297,,rt_thecrossant_black5,1065539,,,,,,,,black_plus_sign,,,49,,,1,,,,,,,0.8333333333333334,,,,,,,,,,,,,,
null,,color_black5,1065653,,,,,,,,black_plus_sign,,,null,,,,,,,,,,,,,,,,,,,,,,,,
null,,learn_phase(without_color)5,1069163,,,,,,,,black_plus_sign,,,null,object_06a.png,object_13b.png,,,,,,,,,,,,,,,,,,,,,,
null,,black_cross(without_color)5,1069979,,,,,,,,blue,,,null,object_06a.png,object_13b.png,,,,,,,,,,,,,,,,,,,,,,
null,,rt_plussign_withcolor5,1070484,,,,,,,,blue,,,null,object_06a.png,object_13b.png,,,,,,,,,,,,,,,,,,,,,,
1244.8999999985099,,rt_thecrossant_black5,1071686,,,,,,,,black_plus_sign,,,49,,,1,,,,,,,0.8461538461538461,,,,,,,,,,,,,,
null,,color_black5,1071806,,,,,,,,black_plus_sign,,,null,,,,,,,,,,,,,,,,,,,,,,,,
null,,learn_phase(without_color)5,1075314,,,,,,,,black_plus_sign,,,null,object_11c.png,object_15c.png,,,,,,,,,,,,,,,,,,,,,,
null,,black_cross(without_color)5,1076265,,,,,,,,green,,,null,object_11c.png,object_15c.png,,,,,,,,,,,,,,,,,,,,,,
448.6000000014901,,rt_plussign_withcolor5,1076774,,,,,,,,green,,,50,object_11c.png,object_15c.png,,,,,,,,,,,,,,,,,,,,,,
null,,rt_thecrossant_black5,1077836,,,,,,,,black_plus_sign,,,null,,,1,,,,,,,0.8571428571428571,,,,,,,,,,,,,,
null,,color_black5,1077948,,,,,,,,black_plus_sign,,,null,,,,,,,,,,,,,,,,,,,,,,,,
null,,thebreak,1078072,,,,,,,,<p></p>,,,null,,,,,,,,,,,,,,,,,,,,,,,,
1408.8999999985099,,intro_0,1079487,,,,,,,,instruct,,,32,,,,,,,,,,,,,,,,,,,,,,,,
3335,,directmemory_phase5,1082827,,,,,,,,object_03a.png,,,49,,,0,,object_06b.png,object_11a.png,object_12b.png,object_11a.png,,0.7540983606557377,,0,,,,,,,,,,,,
1100.1000000014901,,directmemory_phase5,1083935,,,,,,,,object_07a.png,,,50,,,0,,object_04c.png,object_06c.png,object_12b.png,object_12b.png,,0.7419354838709677,,0,,,,,,,,,,,,
979,,directmemory_phase5,1084921,,,,,,,,object_04b.png,,,49,,,0,,object_12a.png,object_01b.png,object_10b.png,object_10b.png,,0.7301587301587301,,0,,,,,,,,,,,,
1072.2000000029802,,directmemory_phase5,1085999,,,,,,,,object_06b.png,,,50,,,1,,object_03a.png,object_15a.png,object_11a.png,object_15a.png,,0.734375,,1,1,,,,,,,,,,,
null,,slowdown_page,1096002,,,,,,,,too_quick,,,null,,,,,,,,,,,,,,,,,,,,,,,,
11671.10000000149,,directmemory_phase5,1107674,,,,,,,,object_01b.png,,,50,,,0,,object_07b.png,object_03a.png,object_12a.png,object_12a.png,,0.7230769230769231,,0,,,,,,,,,,,,
7351,,directmemory_phase5,1115030,,,,,,,,object_03c.png,,,51,,,0,,object_02b.png,object_11a.png,object_04b.png,object_02b.png,,0.7121212121212122,,0,,,,,,,,,,,,
13081.29999999702,,directmemory_phase5,1128118,,,,,,,,object_11c.png,,,49,,,1,,object_15c.png,object_03a.png,object_11a.png,object_15c.png,,0.7164179104477612,,1,,,,,,,,,,,,
2527.10000000149,,directmemory_phase5,1130649,,,,,,,,object_14a.png,,,49,,,1,,object_09b.png,object_01c.png,object_04c.png,object_09b.png,,0.7205882352941176,,1,,,,,,,,,,,,
5808.60000000149,,directmemory_phase5,1136467,,,,,,,,object_10a.png,,,50,,,1,,object_12a.png,object_06c.png,object_05c.png,object_06c.png,,0.7246376811594203,,1,,,,,,,,,,,,
5795.10000000149,,directmemory_phase5,1142269,,,,,,,,object_06a.png,,,51,,,0,,object_09b.png,object_13b.png,object_02b.png,object_13b.png,,0.7142857142857143,,0,,,,,,,,,,,,
8894.29999999702,,directmemory_phase5,1151172,,,,,,,,object_13c.png,,,50,,,1,,object_10b.png,object_11b.png,object_09b.png,object_11b.png,,0.7183098591549296,,1,,,,,,,,,,,,
6523.10000000149,,directmemory_phase5,1157700,,,,,,,,object_05a.png,,,51,,,1,,object_03a.png,object_12a.png,object_01c.png,object_01c.png,,0.7222222222222222,,1,,,,,,,,,,,,
6861.70000000298,,directmemory_phase5,1164564,,,,,,,,object_15b.png,,,49,,,1,,object_01a.png,object_13c.png,object_07c.png,object_01a.png,,0.726027397260274,,1,,,,,,,,,,,,
5233.5,,directmemory_phase5,1169805,,,,,,,,object_05c.png,,,51,,,1,,object_15a.png,object_07c.png,object_04c.png,object_04c.png,,0.7297297297297297,,1,,,,,,,,,,,,
2698.89999999851,,directmemory_phase5,1172507,,,,,,,,object_07c.png,,,49,,,0,,object_01c.png,object_07b.png,object_13b.png,object_07b.png,,0.72,,0,,,,,,,,,,,,
null,,thebreak,1172621,,,,,,,,<p></p>,,,null,,,,,,,,,,,,,,,,,,,,,,,,
2186.4000000059605,,intro_0,1174810,,,,,,,,instruct,,,32,,,,,,,,,,,,,,,,,,,,,,,,
null,,learn_phase(without_color)6,1178321,,,,,,,,black_plus_sign,,,null,object_10a.png,object_06c.png,,,,,,,,,,,,,,,,,,,,,,
null,,black_cross(without_color)6,1179194,,,,,,,,green,,,null,object_10a.png,object_06c.png,,,,,,,,,,,,,,,,,,,,,,
null,,rt_plussign_withcolor6,1179699,,,,,,,,green,,,null,object_10a.png,object_06c.png,,,,,,,,,,,,,,,,,,,,,,
1028.8999999985099,,rt_thecrossant_black6,1180846,,,,,,,,black_plus_sign,,,50,,,1,,,,,,,1,,,,,,,,,,,,,,
null,,color_black6,1180956,,,,,,,,black_plus_sign,,,null,,,,,,,,,,,,,,,,,,,,,,,,
null,,learn_phase(without_color)6,1184465,,,,,,,,black_plus_sign,,,null,object_12a.png,object_01b.png,,,,,,,,,,,,,,,,,,,,,,
null,,black_cross(without_color)6,1185530,,,,,,,,green,,,null,object_12a.png,object_01b.png,,,,,,,,,,,,,,,,,,,,,,
null,,rt_plussign_withcolor6,1186034,,,,,,,,green,,,null,object_12a.png,object_01b.png,,,,,,,,,,,,,,,,,,,,,,
995.8000000044703,,rt_thecrossant_black6,1186989,,,,,,,,black_plus_sign,,,50,,,1,,,,,,,1,,,,,,,,,,,,,,
null,,color_black6,1187101,,,,,,,,black_plus_sign,,,null,,,,,,,,,,,,,,,,,,,,,,,,
null,,learn_phase(without_color)6,1190610,,,,,,,,black_plus_sign,,,null,object_15c.png,object_11c.png,,,,,,,,,,,,,,,,,,,,,,
null,,black_cross(without_color)6,1191296,,,,,,,,blue,,,null,object_15c.png,object_11c.png,,,,,,,,,,,,,,,,,,,,,,
null,,rt_plussign_withcolor6,1191806,,,,,,,,blue,,,null,object_15c.png,object_11c.png,,,,,,,,,,,,,,,,,,,,,,
1166.7999999970198,,rt_thecrossant_black6,1193136,,,,,,,,black_plus_sign,,,49,,,1,,,,,,,1,,,,,,,,,,,,,,
null,,color_black6,1193240,,,,,,,,black_plus_sign,,,null,,,,,,,,,,,,,,,,,,,,,,,,
null,,learn_phase(without_color)6,1196751,,,,,,,,black_plus_sign,,,null,object_06a.png,object_13b.png,,,,,,,,,,,,,,,,,,,,,,
null,,black_cross(without_color)6,1197440,,,,,,,,blue,,,null,object_06a.png,object_13b.png,,,,,,,,,,,,,,,,,,,,,,
null,,rt_plussign_withcolor6,1197945,,,,,,,,blue,,,null,object_06a.png,object_13b.png,,,,,,,,,,,,,,,,,,,,,,
1050,,rt_thecrossant_black6,1199267,,,,,,,,black_plus_sign,,,49,,,1,,,,,,,1,,,,,,,,,,,,,,
null,,color_black6,1199377,,,,,,,,black_plus_sign,,,null,,,,,,,,,,,,,,,,,,,,,,,,
null,,learn_phase(without_color)6,1202887,,,,,,,,black_plus_sign,,,null,object_05c.png,object_04c.png,,,,,,,,,,,,,,,,,,,,,,
null,,black_cross(without_color)6,1203377,,,,,,,,green,,,null,object_05c.png,object_04c.png,,,,,,,,,,,,,,,,,,,,,,
null,,rt_plussign_withcolor6,1203880,,,,,,,,green,,,null,object_05c.png,object_04c.png,,,,,,,,,,,,,,,,,,,,,,
817.2000000029802,,rt_thecrossant_black6,1205405,,,,,,,,black_plus_sign,,,50,,,1,,,,,,,1,,,,,,,,,,,,,,
null,,color_black6,1205513,,,,,,,,black_plus_sign,,,null,,,,,,,,,,,,,,,,,,,,,,,,
null,,learn_phase(without_color)6,1209022,,,,,,,,black_plus_sign,,,null,object_07a.png,object_12b.png,,,,,,,,,,,,,,,,,,,,,,
null,,black_cross(without_color)6,1209810,,,,,,,,blue,,,null,object_07a.png,object_12b.png,,,,,,,,,,,,,,,,,,,,,,
null,,rt_plussign_withcolor6,1210318,,,,,,,,blue,,,null,object_07a.png,object_12b.png,,,,,,,,,,,,,,,,,,,,,,
1384.6999999955297,,rt_thecrossant_black6,1211559,,,,,,,,black_plus_sign,,,49,,,1,,,,,,,1,,,,,,,,,,,,,,
null,,color_black6,1211672,,,,,,,,black_plus_sign,,,null,,,,,,,,,,,,,,,,,,,,,,,,
null,,learn_phase(without_color)6,1215189,,,,,,,,black_plus_sign,,,null,object_04b.png,object_10b.png,,,,,,,,,,,,,,,,,,,,,,
null,,black_cross(without_color)6,1215721,,,,,,,,blue,,,null,object_04b.png,object_10b.png,,,,,,,,,,,,,,,,,,,,,,
null,,rt_plussign_withcolor6,1216234,,,,,,,,blue,,,null,object_04b.png,object_10b.png,,,,,,,,,,,,,,,,,,,,,,
979.8999999985099,,rt_thecrossant_black6,1217719,,,,,,,,black_plus_sign,,,49,,,1,,,,,,,1,,,,,,,,,,,,,,
null,,color_black6,1217825,,,,,,,,black_plus_sign,,,null,,,,,,,,,,,,,,,,,,,,,,,,
null,,learn_phase(without_color)6,1221338,,,,,,,,black_plus_sign,,,null,object_06b.png,object_15a.png,,,,,,,,,,,,,,,,,,,,,,
null,,black_cross(without_color)6,1221979,,,,,,,,green,,,null,object_06b.png,object_15a.png,,,,,,,,,,,,,,,,,,,,,,
null,,rt_plussign_withcolor6,1222496,,,,,,,,green,,,null,object_06b.png,object_15a.png,,,,,,,,,,,,,,,,,,,,,,
709.2000000029802,,rt_thecrossant_black6,1223876,,,,,,,,black_plus_sign,,,50,,,1,,,,,,,1,,,,,,,,,,,,,,
null,,color_black6,1223986,,,,,,,,black_plus_sign,,,null,,,,,,,,,,,,,,,,,,,,,,,,
null,,learn_phase(without_color)6,1227510,,,,,,,,black_plus_sign,,,null,object_07c.png,object_07b.png,,,,,,,,,,,,,,,,,,,,,,
null,,black_cross(without_color)6,1227987,,,,,,,,green,,,null,object_07c.png,object_07b.png,,,,,,,,,,,,,,,,,,,,,,
null,,rt_plussign_withcolor6,1228507,,,,,,,,green,,,null,object_07c.png,object_07b.png,,,,,,,,,,,,,,,,,,,,,,
836.2000000029802,,rt_thecrossant_black6,1230050,,,,,,,,black_plus_sign,,,50,,,1,,,,,,,1,,,,,,,,,,,,,,
null,,color_black6,1230161,,,,,,,,black_plus_sign,,,null,,,,,,,,,,,,,,,,,,,,,,,,
null,,learn_phase(without_color)6,1233676,,,,,,,,black_plus_sign,,,null,object_11a.png,object_03a.png,,,,,,,,,,,,,,,,,,,,,,
null,,black_cross(without_color)6,1234349,,,,,,,,green,,,null,object_11a.png,object_03a.png,,,,,,,,,,,,,,,,,,,,,,
null,,rt_plussign_withcolor6,1234861,,,,,,,,green,,,null,object_11a.png,object_03a.png,,,,,,,,,,,,,,,,,,,,,,
609,,rt_thecrossant_black6,1236208,,,,,,,,black_plus_sign,,,50,,,1,,,,,,,1,,,,,,,,,,,,,,
null,,color_black6,1236317,,,,,,,,black_plus_sign,,,null,,,,,,,,,,,,,,,,,,,,,,,,
null,,learn_phase(without_color)6,1239821,,,,,,,,black_plus_sign,,,null,object_05a.png,object_01c.png,,,,,,,,,,,,,,,,,,,,,,
null,,black_cross(without_color)6,1240914,,,,,,,,blue,,,null,object_05a.png,object_01c.png,,,,,,,,,,,,,,,,,,,,,,
null,,rt_plussign_withcolor6,1241420,,,,,,,,blue,,,null,object_05a.png,object_01c.png,,,,,,,,,,,,,,,,,,,,,,
780.2000000029802,,rt_thecrossant_black6,1242351,,,,,,,,black_plus_sign,,,49,,,1,,,,,,,1,,,,,,,,,,,,,,
null,,color_black6,1242464,,,,,,,,black_plus_sign,,,null,,,,,,,,,,,,,,,,,,,,,,,,
null,,learn_phase(without_color)6,1245977,,,,,,,,black_plus_sign,,,null,object_01a.png,object_15b.png,,,,,,,,,,,,,,,,,,,,,,
null,,black_cross(without_color)6,1246793,,,,,,,,blue,,,null,object_01a.png,object_15b.png,,,,,,,,,,,,,,,,,,,,,,
494.5,,rt_plussign_withcolor6,1247301,,,,,,,,blue,,,49,object_01a.png,object_15b.png,,,,,,,,,,,,,,,,,,,,,,
null,,rt_thecrossant_black6,1248514,,,,,,,,black_plus_sign,,,null,,,1,,,,,,,1,,,,,,,,,,,,,,
null,,color_black6,1248622,,,,,,,,black_plus_sign,,,null,,,,,,,,,,,,,,,,,,,,,,,,
null,,learn_phase(without_color)6,1252130,,,,,,,,black_plus_sign,,,null,object_13c.png,object_11b.png,,,,,,,,,,,,,,,,,,,,,,
null,,black_cross(without_color)6,1252693,,,,,,,,blue,,,null,object_13c.png,object_11b.png,,,,,,,,,,,,,,,,,,,,,,
null,,rt_plussign_withcolor6,1253200,,,,,,,,blue,,,null,object_13c.png,object_11b.png,,,,,,,,,,,,,,,,,,,,,,
944.1999999955297,,rt_thecrossant_black6,1254675,,,,,,,,black_plus_sign,,,49,,,1,,,,,,,1,,,,,,,,,,,,,,
null,,color_black6,1254786,,,,,,,,black_plus_sign,,,null,,,,,,,,,,,,,,,,,,,,,,,,
null,,learn_phase(without_color)6,1258297,,,,,,,,black_plus_sign,,,null,object_03c.png,object_02b.png,,,,,,,,,,,,,,,,,,,,,,
null,,black_cross(without_color)6,1258928,,,,,,,,green,,,null,object_03c.png,object_02b.png,,,,,,,,,,,,,,,,,,,,,,
null,,rt_plussign_withcolor6,1259433,,,,,,,,green,,,null,object_03c.png,object_02b.png,,,,,,,,,,,,,,,,,,,,,,
646.6000000014901,,rt_thecrossant_black6,1260817,,,,,,,,black_plus_sign,,,50,,,1,,,,,,,1,,,,,,,,,,,,,,
null,,color_black6,1260930,,,,,,,,black_plus_sign,,,null,,,,,,,,,,,,,,,,,,,,,,,,
null,,learn_phase(without_color)6,1264446,,,,,,,,black_plus_sign,,,null,object_09b.png,object_14a.png,,,,,,,,,,,,,,,,,,,,,,
null,,black_cross(without_color)6,1265177,,,,,,,,green,,,null,object_09b.png,object_14a.png,,,,,,,,,,,,,,,,,,,,,,
null,,rt_plussign_withcolor6,1265684,,,,,,,,green,,,null,object_09b.png,object_14a.png,,,,,,,,,,,,,,,,,,,,,,
1014.7999999970198,,rt_thecrossant_black6,1266971,,,,,,,,black_plus_sign,,,50,,,1,,,,,,,1,,,,,,,,,,,,,,
null,,color_black6,1267086,,,,,,,,black_plus_sign,,,null,,,,,,,,,,,,,,,,,,,,,,,,
null,,thebreak,1267198,,,,,,,,<p></p>,,,null,,,,,,,,,,,,,,,,,,,,,,,,
1406.6000000014901,,intro_0,1268609,,,,,,,,instruct,,,32,,,,,,,,,,,,,,,,,,,,,,,,
5961,,directmemory_phase6,1274571,,,,,,,,object_13b.png,,,51,,,1,,object_01c.png,object_14a.png,object_06a.png,object_06a.png,,0.7236842105263158,,1,,,,,,,,,,,,
6937.10000000149,,directmemory_phase6,1281510,,,,,,,,object_03a.png,,,49,,,1,,object_11a.png,object_13b.png,object_06b.png,object_11a.png,,0.7272727272727273,,1,,,,,,,,,,,,
7384.89999999851,,directmemory_phase6,1288899,,,,,,,,object_01b.png,,,49,,,0,,object_04c.png,object_03c.png,object_12a.png,object_12a.png,,0.717948717948718,,0,,,,,,,,,,,,
8925,,directmemory_phase6,1297834,,,,,,,,object_05c.png,,,49,,,1,,object_04c.png,object_05a.png,object_07c.png,object_04c.png,,0.7215189873417721,,1,,,,,,,,,,,,
5073.19999999553,,directmemory_phase6,1302914,,,,,,,,object_04b.png,,,50,,,0,,object_12a.png,object_03c.png,object_10b.png,object_10b.png,,0.7125,,0,,,,,,,,,,,,
6184.5999999940395,,directmemory_phase6,1309100,,,,,,,,object_12b.png,,,49,,,0,,object_02b.png,object_07a.png,object_03c.png,object_07a.png,,0.7037037037037037,,0,,,,,,,,,,,,
7645.39999999851,,directmemory_phase6,1316750,,,,,,,,object_13c.png,,,50,,,0,,object_01c.png,object_12b.png,object_11b.png,object_11b.png,,0.6951219512195121,,0,,,,,,,,,,,,
5148.10000000149,,directmemory_phase6,1321905,,,,,,,,object_15b.png,,,50,,,0,,object_12a.png,object_03a.png,object_01a.png,object_01a.png,,0.6867469879518072,,0,,,,,,,,,,,,
7862.20000000298,,directmemory_phase6,1329772,,,,,,,,object_05a.png,,,51,,,1,,object_01b.png,object_10a.png,object_01c.png,object_01c.png,,0.6904761904761905,,1,,,,,,,,,,,,
6670.20000000298,,directmemory_phase6,1336444,,,,,,,,object_15a.png,,,49,,,1,,object_06b.png,object_01c.png,object_01a.png,object_06b.png,,0.6941176470588235,,1,,,,,,,,,,,,
8129.10000000149,,directmemory_phase6,1344577,,,,,,,,object_11c.png,,,51,,,1,,object_07a.png,object_12a.png,object_15c.png,object_15c.png,,0.6976744186046512,,1,,,,,,,,,,,,
6475,,directmemory_phase6,1351061,,,,,,,,object_14a.png,,,51,,,1,,object_06b.png,object_10a.png,object_09b.png,object_09b.png,,0.7011494252873564,,1,,,,,,,,,,,,
6887.10000000149,,directmemory_phase6,1357955,,,,,,,,object_07c.png,,,49,,,1,,object_07b.png,object_04c.png,object_04b.png,object_07b.png,,0.7045454545454546,,1,,,,,,,,,,,,
5978.10000000149,,directmemory_phase6,1363936,,,,,,,,object_03c.png,,,51,,,0,,object_03a.png,object_02b.png,object_13b.png,object_02b.png,,0.6966292134831461,,0,,,,,,,,,,,,
6643.89999999851,,directmemory_phase6,1370583,,,,,,,,object_06c.png,,,51,,,1,,object_07b.png,object_03a.png,object_10a.png,object_10a.png,,0.7,,1,,,,,,,,,,,,
null,,thebreak,1370688,,,,,,,,<p></p>,,,null,,,,,,,,,,,,,,,,,,,,,,,,
54183.10000000149,,intro_0,1424875,,,,,,,,instruct,,,32,,,,,,,,,,,,,,,,,,,,,,,,
null,,learn_phase(without_color)7,1428379,,,,,,,,black_plus_sign,,,null,object_03a.png,object_11a.png,,,,,,,,,,,,,,,,,,,,,,
null,,black_cross(without_color)7,1429442,,,,,,,,green,,,null,object_03a.png,object_11a.png,,,,,,,,,,,,,,,,,,,,,,
null,,rt_plussign_withcolor7,1429953,,,,,,,,green,,,null,object_03a.png,object_11a.png,,,,,,,,,,,,,,,,,,,,,,
null,,rt_thecrossant_black7,1430908,,,,,,,,black_plus_sign,,,null,,,,,,,,,,NaN,,,,,,,,,,,,,,
null,,color_black7,1431027,,,,,,,,black_plus_sign,,,null,,,,,,,,,,,,,,,,,,,,,,,,
null,,learn_phase(without_color)7,1434542,,,,,,,,black_plus_sign,,,null,object_06a.png,object_13b.png,,,,,,,,,,,,,,,,,,,,,,
null,,black_cross(without_color)7,1435644,,,,,,,,blue,,,null,object_06a.png,object_13b.png,,,,,,,,,,,,,,,,,,,,,,
476.79999999701977,,rt_plussign_withcolor7,1436159,,,,,,,,blue,,,49,object_06a.png,object_13b.png,,,,,,,,,,,,,,,,,,,,,,
null,,rt_thecrossant_black7,1437080,,,,,,,,black_plus_sign,,,null,,,1,,,,,,,1,,,,,,,,,,,,,,
null,,color_black7,1437189,,,,,,,,black_plus_sign,,,null,,,,,,,,,,,,,,,,,,,,,,,,
null,,learn_phase(without_color)7,1440700,,,,,,,,black_plus_sign,,,null,object_15a.png,object_06b.png,,,,,,,,,,,,,,,,,,,,,,
null,,black_cross(without_color)7,1441551,,,,,,,,green,,,null,object_15a.png,object_06b.png,,,,,,,,,,,,,,,,,,,,,,
437.3999999985099,,rt_plussign_withcolor7,1442068,,,,,,,,green,,,50,object_15a.png,object_06b.png,,,,,,,,,,,,,,,,,,,,,,
null,,rt_thecrossant_black7,1443241,,,,,,,,black_plus_sign,,,null,,,1,,,,,,,1,,,,,,,,,,,,,,
null,,color_black7,1443347,,,,,,,,black_plus_sign,,,null,,,,,,,,,,,,,,,,,,,,,,,,
null,,learn_phase(without_color)7,1446863,,,,,,,,black_plus_sign,,,null,object_10b.png,object_04b.png,,,,,,,,,,,,,,,,,,,,,,
null,,black_cross(without_color)7,1447638,,,,,,,,green,,,null,object_10b.png,object_04b.png,,,,,,,,,,,,,,,,,,,,,,
419.1000000014901,,rt_plussign_withcolor7,1448154,,,,,,,,green,,,50,object_10b.png,object_04b.png,,,,,,,,,,,,,,,,,,,,,,
null,,rt_thecrossant_black7,1449398,,,,,,,,black_plus_sign,,,null,,,1,,,,,,,1,,,,,,,,,,,,,,
null,,color_black7,1449511,,,,,,,,black_plus_sign,,,null,,,,,,,,,,,,,,,,,,,,,,,,
null,,learn_phase(without_color)7,1453019,,,,,,,,black_plus_sign,,,null,object_12b.png,object_07a.png,,,,,,,,,,,,,,,,,,,,,,
null,,black_cross(without_color)7,1454028,,,,,,,,blue,,,null,object_12b.png,object_07a.png,,,,,,,,,,,,,,,,,,,,,,
null,,rt_plussign_withcolor7,1454548,,,,,,,,blue,,,null,object_12b.png,object_07a.png,,,,,,,,,,,,,,,,,,,,,,
905.7999999970198,,rt_thecrossant_black7,1455561,,,,,,,,black_plus_sign,,,49,,,1,,,,,,,1,,,,,,,,,,,,,,
null,,color_black7,1455670,,,,,,,,black_plus_sign,,,null,,,,,,,,,,,,,,,,,,,,,,,,
null,,learn_phase(without_color)7,1459183,,,,,,,,black_plus_sign,,,null,object_11b.png,object_13c.png,,,,,,,,,,,,,,,,,,,,,,
null,,black_cross(without_color)7,1459636,,,,,,,,green,,,null,object_11b.png,object_13c.png,,,,,,,,,,,,,,,,,,,,,,
null,,rt_plussign_withcolor7,1460145,,,,,,,,green,,,null,object_11b.png,object_13c.png,,,,,,,,,,,,,,,,,,,,,,
1115.7999999970198,,rt_thecrossant_black7,1461709,,,,,,,,black_plus_sign,,,50,,,1,,,,,,,1,,,,,,,,,,,,,,
null,,color_black7,1461817,,,,,,,,black_plus_sign,,,null,,,,,,,,,,,,,,,,,,,,,,,,
null,,learn_phase(without_color)7,1465322,,,,,,,,black_plus_sign,,,null,object_15c.png,object_11c.png,,,,,,,,,,,,,,,,,,,,,,
null,,black_cross(without_color)7,1466381,,,,,,,,blue,,,null,object_15c.png,object_11c.png,,,,,,,,,,,,,,,,,,,,,,
null,,rt_plussign_withcolor7,1466885,,,,,,,,blue,,,null,object_15c.png,object_11c.png,,,,,,,,,,,,,,,,,,,,,,
684.1000000014901,,rt_thecrossant_black7,1467844,,,,,,,,black_plus_sign,,,49,,,1,,,,,,,1,,,,,,,,,,,,,,
null,,color_black7,1467964,,,,,,,,black_plus_sign,,,null,,,,,,,,,,,,,,,,,,,,,,,,
null,,learn_phase(without_color)7,1471479,,,,,,,,black_plus_sign,,,null,object_01b.png,object_12a.png,,,,,,,,,,,,,,,,,,,,,,
null,,black_cross(without_color)7,1472008,,,,,,,,blue,,,null,object_01b.png,object_12a.png,,,,,,,,,,,,,,,,,,,,,,
null,,rt_plussign_withcolor7,1472524,,,,,,,,blue,,,null,object_01b.png,object_12a.png,,,,,,,,,,,,,,,,,,,,,,
1323.5,,rt_thecrossant_black7,1474010,,,,,,,,black_plus_sign,,,49,,,1,,,,,,,1,,,,,,,,,,,,,,
null,,color_black7,1474123,,,,,,,,black_plus_sign,,,null,,,,,,,,,,,,,,,,,,,,,,,,
null,,learn_phase(without_color)7,1477643,,,,,,,,black_plus_sign,,,null,object_06c.png,object_10a.png,,,,,,,,,,,,,,,,,,,,,,
null,,black_cross(without_color)7,1478172,,,,,,,,green,,,null,object_06c.png,object_10a.png,,,,,,,,,,,,,,,,,,,,,,
null,,rt_plussign_withcolor7,1478676,,,,,,,,green,,,null,object_06c.png,object_10a.png,,,,,,,,,,,,,,,,,,,,,,
675.1999999955297,,rt_thecrossant_black7,1480161,,,,,,,,black_plus_sign,,,50,,,1,,,,,,,1,,,,,,,,,,,,,,
null,,color_black7,1480268,,,,,,,,black_plus_sign,,,null,,,,,,,,,,,,,,,,,,,,,,,,
null,,learn_phase(without_color)7,1483781,,,,,,,,black_plus_sign,,,null,object_02b.png,object_03c.png,,,,,,,,,,,,,,,,,,,,,,
null,,black_cross(without_color)7,1484806,,,,,,,,green,,,null,object_02b.png,object_03c.png,,,,,,,,,,,,,,,,,,,,,,
450.5,,rt_plussign_withcolor7,1485311,,,,,,,,green,,,49,object_02b.png,object_03c.png,,,,,,,,,,,,,,,,,,,,,,
null,,rt_thecrossant_black7,1486306,,,,,,,,black_plus_sign,,,null,,,0,,,,,,,0.8888888888888888,,,,,,,,,,,,,,
null,,color_black7,1486411,,,,,,,,black_plus_sign,,,null,,,,,,,,,,,,,,,,,,,,,,,,
null,,learn_phase(without_color)7,1489924,,,,,,,,black_plus_sign,,,null,object_05c.png,object_04c.png,,,,,,,,,,,,,,,,,,,,,,
null,,black_cross(without_color)7,1490911,,,,,,,,blue,,,null,object_05c.png,object_04c.png,,,,,,,,,,,,,,,,,,,,,,
null,,rt_plussign_withcolor7,1491422,,,,,,,,blue,,,null,object_05c.png,object_04c.png,,,,,,,,,,,,,,,,,,,,,,
1438.3999999985099,,rt_thecrossant_black7,1492460,,,,,,,,black_plus_sign,,,49,,,1,,,,,,,0.9,,,,,,,,,,,,,,
null,,color_black7,1492574,,,,,,,,black_plus_sign,,,null,,,,,,,,,,,,,,,,,,,,,,,,
null,,learn_phase(without_color)7,1496090,,,,,,,,black_plus_sign,,,null,object_09b.png,object_14a.png,,,,,,,,,,,,,,,,,,,,,,
null,,black_cross(without_color)7,1497139,,,,,,,,green,,,null,object_09b.png,object_14a.png,,,,,,,,,,,,,,,,,,,,,,
481.3999999985099,,rt_plussign_withcolor7,1497648,,,,,,,,green,,,50,object_09b.png,object_14a.png,,,,,,,,,,,,,,,,,,,,,,
null,,rt_thecrossant_black7,1498622,,,,,,,,black_plus_sign,,,null,,,1,,,,,,,0.9090909090909091,,,,,,,,,,,,,,
null,,color_black7,1498735,,,,,,,,black_plus_sign,,,null,,,,,,,,,,,,,,,,,,,,,,,,
null,,learn_phase(without_color)7,1502244,,,,,,,,black_plus_sign,,,null,object_07b.png,object_07c.png,,,,,,,,,,,,,,,,,,,,,,
null,,black_cross(without_color)7,1502900,,,,,,,,blue,,,null,object_07b.png,object_07c.png,,,,,,,,,,,,,,,,,,,,,,
null,,rt_plussign_withcolor7,1503414,,,,,,,,blue,,,null,object_07b.png,object_07c.png,,,,,,,,,,,,,,,,,,,,,,
1149.3999999985099,,rt_thecrossant_black7,1504787,,,,,,,,black_plus_sign,,,49,,,1,,,,,,,0.9166666666666666,,,,,,,,,,,,,,
null,,color_black7,1504890,,,,,,,,black_plus_sign,,,null,,,,,,,,,,,,,,,,,,,,,,,,
null,,learn_phase(without_color)7,1508400,,,,,,,,black_plus_sign,,,null,object_01c.png,object_05a.png,,,,,,,,,,,,,,,,,,,,,,
null,,black_cross(without_color)7,1509221,,,,,,,,blue,,,null,object_01c.png,object_05a.png,,,,,,,,,,,,,,,,,,,,,,
null,,rt_plussign_withcolor7,1509737,,,,,,,,blue,,,null,object_01c.png,object_05a.png,,,,,,,,,,,,,,,,,,,,,,
793.1999999955297,,rt_thecrossant_black7,1510950,,,,,,,,black_plus_sign,,,49,,,1,,,,,,,0.9230769230769231,,,,,,,,,,,,,,
null,,color_black7,1511072,,,,,,,,black_plus_sign,,,null,,,,,,,,,,,,,,,,,,,,,,,,
null,,learn_phase(without_color)7,1514578,,,,,,,,black_plus_sign,,,null,object_01a.png,object_15b.png,,,,,,,,,,,,,,,,,,,,,,
null,,black_cross(without_color)7,1515300,,,,,,,,green,,,null,object_01a.png,object_15b.png,,,,,,,,,,,,,,,,,,,,,,
444.5,,rt_plussign_withcolor7,1515810,,,,,,,,green,,,50,object_01a.png,object_15b.png,,,,,,,,,,,,,,,,,,,,,,
null,,rt_thecrossant_black7,1517112,,,,,,,,black_plus_sign,,,null,,,1,,,,,,,0.9285714285714286,,,,,,,,,,,,,,
null,,color_black7,1517222,,,,,,,,black_plus_sign,,,null,,,,,,,,,,,,,,,,,,,,,,,,
null,,thebreak,1517337,,,,,,,,<p></p>,,,null,,,,,,,,,,,,,,,,,,,,,,,,
4371.20000000298,,intro_0,1521713,,,,,,,,instruct,,,32,,,,,,,,,,,,,,,,,,,,,,,,
2460.2999999970198,,directmemory_phase7,1524178,,,,,,,,object_09b.png,,,50,,,1,,object_03c.png,object_14a.png,object_02b.png,object_14a.png,,0.7032967032967034,,1,,,,,,,,,,,,
2109.60000000149,,directmemory_phase7,1526292,,,,,,,,object_01c.png,,,49,,,0,,object_05c.png,object_05a.png,object_11a.png,object_05a.png,,0.6956521739130435,,0,,,,,,,,,,,,
2032.5,,directmemory_phase7,1528328,,,,,,,,object_06b.png,,,50,,,1,,object_07c.png,object_15a.png,object_02b.png,object_15a.png,,0.6989247311827957,,1,,,,,,,,,,,,
2389.10000000149,,directmemory_phase7,1530719,,,,,,,,object_13b.png,,,50,,,1,,object_04c.png,object_06a.png,object_06b.png,object_06a.png,,0.7021276595744681,,1,,,,,,,,,,,,
7000.20000000298,,directmemory_phase7,1537724,,,,,,,,object_06c.png,,,49,,,0,,object_13b.png,object_06a.png,object_10a.png,object_10a.png,,0.6947368421052632,,0,,,,,,,,,,,,
6299,,directmemory_phase7,1544028,,,,,,,,object_10b.png,,,49,,,0,,object_07a.png,object_10a.png,object_04b.png,object_04b.png,,0.6875,,0,,,,,,,,,,,,
5559,,directmemory_phase7,1549599,,,,,,,,object_07b.png,,,50,,,0,,object_01c.png,object_04c.png,object_07c.png,object_07c.png,,0.6804123711340206,,0,,,,,,,,,,,,
5764.5999999940395,,directmemory_phase7,1555372,,,,,,,,object_07a.png,,,51,,,1,,object_11a.png,object_01b.png,object_12b.png,object_12b.png,,0.6836734693877551,,1,,,,,,,,,,,,
9142.20000000298,,directmemory_phase7,1564519,,,,,,,,object_01b.png,,,49,,,0,,object_04c.png,object_06b.png,object_12a.png,object_12a.png,,0.6767676767676768,,0,,,,,,,,,,,,
6985.5,,directmemory_phase7,1571509,,,,,,,,object_15c.png,,,51,,,1,,object_15a.png,object_05c.png,object_11c.png,object_11c.png,,0.68,,1,,,,,,,,,,,,
9203.20000000298,,directmemory_phase7,1580714,,,,,,,,object_04c.png,,,51,,,0,,object_05c.png,object_04b.png,object_11a.png,object_05c.png,,0.6732673267326733,,0,,,,,,,,,,,,
9729.60000000149,,directmemory_phase7,1590448,,,,,,,,object_02b.png,,,51,,,0,,object_05a.png,object_03c.png,object_15b.png,object_03c.png,,0.6666666666666666,,0,,,,,,,,,,,,
10794.10000000149,,directmemory_phase7,1601246,,,,,,,,object_13c.png,,,51,,,0,,object_11b.png,object_06a.png,object_04c.png,object_11b.png,,0.6601941747572816,,0,,,,,,,,,,,,
7115.5,,directmemory_phase7,1608366,,,,,,,,object_03a.png,,,49,,,1,,object_11a.png,object_12b.png,object_09b.png,object_11a.png,,0.6634615384615384,,1,,,,,,,,,,,,
12990.60000000149,,directmemory_phase7,1621364,,,,,,,,object_01a.png,,,51,,,0,,object_11a.png,object_15b.png,object_06b.png,object_15b.png,,0.6571428571428571,,0,,,,,,,,,,,,
null,,thebreak,1621470,,,,,,,,<p></p>,,,null,,,,,,,,,,,,,,,,,,,,,,,,
23767.10000000149,,intro_0,1645240,,,,,,,,instruct,,,32,,,,,,,,,,,,,,,,,,,,,,,,
null,,learn_phase(without_color)8,1648748,,,,,,,,black_plus_sign,,,null,object_15a.png,object_06b.png,,,,,,,,,,,,,,,,,,,,,,
null,,black_cross(without_color)8,1649281,,,,,,,,green,,,null,object_15a.png,object_06b.png,,,,,,,,,,,,,,,,,,,,,,
null,,rt_plussign_withcolor8,1649793,,,,,,,,green,,,null,object_15a.png,object_06b.png,,,,,,,,,,,,,,,,,,,,,,
null,,rt_thecrossant_black8,1651279,,,,,,,,black_plus_sign,,,null,,,,,,,,,,NaN,,,,,,,,,,,,,,
null,,color_black8,1651389,,,,,,,,black_plus_sign,,,null,,,,,,,,,,,,,,,,,,,,,,,,
null,,learn_phase(without_color)8,1654901,,,,,,,,black_plus_sign,,,null,object_15c.png,object_11c.png,,,,,,,,,,,,,,,,,,,,,,
null,,black_cross(without_color)8,1655543,,,,,,,,blue,,,null,object_15c.png,object_11c.png,,,,,,,,,,,,,,,,,,,,,,
null,,rt_plussign_withcolor8,1656053,,,,,,,,blue,,,null,object_15c.png,object_11c.png,,,,,,,,,,,,,,,,,,,,,,
914.3000000044703,,rt_thecrossant_black8,1657435,,,,,,,,black_plus_sign,,,49,,,1,,,,,,,1,,,,,,,,,,,,,,
null,,color_black8,1657555,,,,,,,,black_plus_sign,,,null,,,,,,,,,,,,,,,,,,,,,,,,
null,,learn_phase(without_color)8,1661065,,,,,,,,black_plus_sign,,,null,object_05a.png,object_01c.png,,,,,,,,,,,,,,,,,,,,,,
null,,black_cross(without_color)8,1661900,,,,,,,,green,,,null,object_05a.png,object_01c.png,,,,,,,,,,,,,,,,,,,,,,
428.29999999701977,,rt_plussign_withcolor8,1662405,,,,,,,,green,,,50,object_05a.png,object_01c.png,,,,,,,,,,,,,,,,,,,,,,
null,,rt_thecrossant_black8,1663588,,,,,,,,black_plus_sign,,,null,,,1,,,,,,,1,,,,,,,,,,,,,,
null,,color_black8,1663697,,,,,,,,black_plus_sign,,,null,,,,,,,,,,,,,,,,,,,,,,,,
null,,learn_phase(without_color)8,1667205,,,,,,,,black_plus_sign,,,null,object_05c.png,object_04c.png,,,,,,,,,,,,,,,,,,,,,,
null,,black_cross(without_color)8,1667852,,,,,,,,blue,,,null,object_05c.png,object_04c.png,,,,,,,,,,,,,,,,,,,,,,
null,,rt_plussign_withcolor8,1668363,,,,,,,,blue,,,null,object_05c.png,object_04c.png,,,,,,,,,,,,,,,,,,,,,,
1051.8000000044703,,rt_thecrossant_black8,1669738,,,,,,,,black_plus_sign,,,49,,,1,,,,,,,1,,,,,,,,,,,,,,
null,,color_black8,1669850,,,,,,,,black_plus_sign,,,null,,,,,,,,,,,,,,,,,,,,,,,,
null,,learn_phase(without_color)8,1673370,,,,,,,,black_plus_sign,,,null,object_07b.png,object_07c.png,,,,,,,,,,,,,,,,,,,,,,
null,,black_cross(without_color)8,1674225,,,,,,,,green,,,null,object_07b.png,object_07c.png,,,,,,,,,,,,,,,,,,,,,,
509,,rt_plussign_withcolor8,1674737,,,,,,,,green,,,50,object_07b.png,object_07c.png,,,,,,,,,,,,,,,,,,,,,,
null,,rt_thecrossant_black8,1675901,,,,,,,,black_plus_sign,,,null,,,1,,,,,,,1,,,,,,,,,,,,,,
null,,color_black8,1676006,,,,,,,,black_plus_sign,,,null,,,,,,,,,,,,,,,,,,,,,,,,
null,,learn_phase(without_color)8,1679515,,,,,,,,black_plus_sign,,,null,object_09b.png,object_14a.png,,,,,,,,,,,,,,,,,,,,,,
null,,black_cross(without_color)8,1680326,,,,,,,,blue,,,null,object_09b.png,object_14a.png,,,,,,,,,,,,,,,,,,,,,,
489.09999999403954,,rt_plussign_withcolor8,1680832,,,,,,,,blue,,,49,object_09b.png,object_14a.png,,,,,,,,,,,,,,,,,,,,,,
null,,rt_thecrossant_black8,1682059,,,,,,,,black_plus_sign,,,null,,,1,,,,,,,1,,,,,,,,,,,,,,
null,,color_black8,1682165,,,,,,,,black_plus_sign,,,null,,,,,,,,,,,,,,,,,,,,,,,,
null,,learn_phase(without_color)8,1685677,,,,,,,,black_plus_sign,,,null,object_15b.png,object_01a.png,,,,,,,,,,,,,,,,,,,,,,
null,,black_cross(without_color)8,1686140,,,,,,,,green,,,null,object_15b.png,object_01a.png,,,,,,,,,,,,,,,,,,,,,,
474.6000000014901,,rt_plussign_withcolor8,1686647,,,,,,,,green,,,50,object_15b.png,object_01a.png,,,,,,,,,,,,,,,,,,,,,,
null,,rt_thecrossant_black8,1688210,,,,,,,,black_plus_sign,,,null,,,1,,,,,,,1,,,,,,,,,,,,,,
null,,color_black8,1688332,,,,,,,,black_plus_sign,,,null,,,,,,,,,,,,,,,,,,,,,,,,
null,,learn_phase(without_color)8,1691841,,,,,,,,black_plus_sign,,,null,object_11a.png,object_03a.png,,,,,,,,,,,,,,,,,,,,,,
null,,black_cross(without_color)8,1692380,,,,,,,,blue,,,null,object_11a.png,object_03a.png,,,,,,,,,,,,,,,,,,,,,,
null,,rt_plussign_withcolor8,1692897,,,,,,,,blue,,,null,object_11a.png,object_03a.png,,,,,,,,,,,,,,,,,,,,,,
695.1000000014901,,rt_thecrossant_black8,1694389,,,,,,,,black_plus_sign,,,49,,,1,,,,,,,1,,,,,,,,,,,,,,
null,,color_black8,1694494,,,,,,,,black_plus_sign,,,null,,,,,,,,,,,,,,,,,,,,,,,,
null,,learn_phase(without_color)8,1698008,,,,,,,,black_plus_sign,,,null,object_06a.png,object_13b.png,,,,,,,,,,,,,,,,,,,,,,
null,,black_cross(without_color)8,1698531,,,,,,,,blue,,,null,object_06a.png,object_13b.png,,,,,,,,,,,,,,,,,,,,,,
null,,rt_plussign_withcolor8,1699034,,,,,,,,blue,,,null,object_06a.png,object_13b.png,,,,,,,,,,,,,,,,,,,,,,
null,,rt_thecrossant_black8,1700528,,,,,,,,black_plus_sign,,,null,,,,,,,,,,1,,,,,,,,,,,,,,
null,,color_black8,1700632,,,,,,,,black_plus_sign,,,null,,,,,,,,,,,,,,,,,,,,,,,,
null,,learn_phase(without_color)8,1704157,,,,,,,,black_plus_sign,,,null,object_01b.png,object_12a.png,,,,,,,,,,,,,,,,,,,,,,
null,,black_cross(without_color)8,1705225,,,,,,,,blue,,,null,object_01b.png,object_12a.png,,,,,,,,,,,,,,,,,,,,,,
null,,rt_plussign_withcolor8,1705739,,,,,,,,blue,,,null,object_01b.png,object_12a.png,,,,,,,,,,,,,,,,,,,,,,
810.7999999970198,,rt_thecrossant_black8,1706698,,,,,,,,black_plus_sign,,,49,,,1,,,,,,,1,,,,,,,,,,,,,,
null,,color_black8,1706809,,,,,,,,black_plus_sign,,,null,,,,,,,,,,,,,,,,,,,,,,,,
null,,learn_phase(without_color)8,1710328,,,,,,,,black_plus_sign,,,null,object_04b.png,object_10b.png,,,,,,,,,,,,,,,,,,,,,,
null,,black_cross(without_color)8,1711016,,,,,,,,green,,,null,object_04b.png,object_10b.png,,,,,,,,,,,,,,,,,,,,,,
null,,rt_plussign_withcolor8,1711524,,,,,,,,green,,,null,object_04b.png,object_10b.png,,,,,,,,,,,,,,,,,,,,,,
null,,rt_thecrossant_black8,1712860,,,,,,,,black_plus_sign,,,null,,,,,,,,,,1,,,,,,,,,,,,,,
null,,warning_page,1717879,,,,,,,,warning,,,null,,,,,,,,,,,,,,,,,,,,,,,,
null,,color_black8,1718000,,,,,,,,black_plus_sign,,,null,,,,,,,,,,,,,,,,,,,,,,,,
null,,learn_phase(without_color)8,1721510,,,,,,,,black_plus_sign,,,null,object_12b.png,object_07a.png,,,,,,,,,,,,,,,,,,,,,,
null,,black_cross(without_color)8,1722565,,,,,,,,green,,,null,object_12b.png,object_07a.png,,,,,,,,,,,,,,,,,,,,,,
423.8999999985099,,rt_plussign_withcolor8,1723076,,,,,,,,green,,,50,object_12b.png,object_07a.png,,,,,,,,,,,,,,,,,,,,,,
null,,rt_thecrossant_black8,1724041,,,,,,,,black_plus_sign,,,null,,,1,,,,,,,1,,,,,,,,,,,,,,
null,,color_black8,1724163,,,,,,,,black_plus_sign,,,null,,,,,,,,,,,,,,,,,,,,,,,,
null,,learn_phase(without_color)8,1727674,,,,,,,,black_plus_sign,,,null,object_10a.png,object_06c.png,,,,,,,,,,,,,,,,,,,,,,
null,,black_cross(without_color)8,1728636,,,,,,,,blue,,,null,object_10a.png,object_06c.png,,,,,,,,,,,,,,,,,,,,,,
443.79999999701977,,rt_plussign_withcolor8,1729140,,,,,,,,blue,,,49,object_10a.png,object_06c.png,,,,,,,,,,,,,,,,,,,,,,
null,,rt_thecrossant_black8,1730196,,,,,,,,black_plus_sign,,,null,,,1,,,,,,,1,,,,,,,,,,,,,,
null,,color_black8,1730310,,,,,,,,black_plus_sign,,,null,,,,,,,,,,,,,,,,,,,,,,,,
null,,learn_phase(without_color)8,1733830,,,,,,,,black_plus_sign,,,null,object_02b.png,object_03c.png,,,,,,,,,,,,,,,,,,,,,,
null,,black_cross(without_color)8,1734588,,,,,,,,green,,,null,object_02b.png,object_03c.png,,,,,,,,,,,,,,,,,,,,,,
446.6000000014901,,rt_plussign_withcolor8,1735100,,,,,,,,green,,,50,object_02b.png,object_03c.png,,,,,,,,,,,,,,,,,,,,,,
null,,rt_thecrossant_black8,1736370,,,,,,,,black_plus_sign,,,null,,,1,,,,,,,1,,,,,,,,,,,,,,
null,,color_black8,1736481,,,,,,,,black_plus_sign,,,null,,,,,,,,,,,,,,,,,,,,,,,,
null,,learn_phase(without_color)8,1739998,,,,,,,,black_plus_sign,,,null,object_11b.png,object_13c.png,,,,,,,,,,,,,,,,,,,,,,
null,,black_cross(without_color)8,1740570,,,,,,,,green,,,null,object_11b.png,object_13c.png,,,,,,,,,,,,,,,,,,,,,,
null,,rt_plussign_withcolor8,1741083,,,,,,,,green,,,null,object_11b.png,object_13c.png,,,,,,,,,,,,,,,,,,,,,,
937.4000000059605,,rt_thecrossant_black8,1742522,,,,,,,,black_plus_sign,,,50,,,1,,,,,,,1,,,,,,,,,,,,,,
null,,color_black8,1742643,,,,,,,,black_plus_sign,,,null,,,,,,,,,,,,,,,,,,,,,,,,
null,,thebreak,1742753,,,,,,,,<p></p>,,,null,,,,,,,,,,,,,,,,,,,,,,,,
1452.5,,intro_0,1744209,,,,,,,,instruct,,,32,,,,,,,,,,,,,,,,,,,,,,,,
3903.2000000029802,,directmemory_phase8,1748115,,,,,,,,object_01b.png,,,49,,,0,,object_02b.png,object_11b.png,object_12a.png,object_12a.png,,0.6509433962264151,,0,,,,,,,,,,,,
4014.5,,directmemory_phase8,1752133,,,,,,,,object_06a.png,,,50,,,1,,object_04b.png,object_13b.png,object_12b.png,object_13b.png,,0.6542056074766355,,1,,,,,,,,,,,,
5620.69999999553,,directmemory_phase8,1757757,,,,,,,,object_04c.png,,,49,,,1,,object_05c.png,object_03a.png,object_12b.png,object_05c.png,,0.6574074074074074,,1,,,,,,,,,,,,
7071.79999999702,,directmemory_phase8,1764833,,,,,,,,object_04b.png,,,50,,,1,,object_03a.png,object_10b.png,object_04c.png,object_10b.png,,0.6605504587155964,,1,,,,,,,,,,,,
4209.20000000298,,directmemory_phase8,1769046,,,,,,,,object_13c.png,,,49,,,0,,object_01a.png,object_11b.png,object_09b.png,object_11b.png,,0.6545454545454545,,0,,,,,,,,,,,,
4700.4000000059605,,directmemory_phase8,1773750,,,,,,,,object_03c.png,,,51,,,0,,object_02b.png,object_13b.png,object_11b.png,object_02b.png,,0.6486486486486487,,0,,,,,,,,,,,,
6076.19999999553,,directmemory_phase8,1779834,,,,,,,,object_15c.png,,,51,,,0,,object_04b.png,object_11c.png,object_12b.png,object_11c.png,,0.6428571428571429,,0,,,,,,,,,,,,
3718.89999999851,,directmemory_phase8,1783558,,,,,,,,object_01a.png,,,50,,,0,,object_06c.png,object_13b.png,object_15b.png,object_15b.png,,0.6371681415929203,,0,,,,,,,,,,,,
6545.39999999851,,directmemory_phase8,1790106,,,,,,,,object_07c.png,,,50,,,1,,object_07a.png,object_07b.png,object_01a.png,object_07b.png,,0.6403508771929824,,1,,,,,,,,,,,,
6207.70000000298,,directmemory_phase8,1796319,,,,,,,,object_12b.png,,,49,,,1,,object_07a.png,object_06c.png,object_10a.png,object_07a.png,,0.6434782608695652,,1,,,,,,,,,,,,
3770.7000000029802,,directmemory_phase8,1800093,,,,,,,,object_14a.png,,,49,,,1,,object_09b.png,object_11b.png,object_07b.png,object_09b.png,,0.646551724137931,,1,,,,,,,,,,,,
3250.2000000029802,,directmemory_phase8,1803348,,,,,,,,object_05a.png,,,51,,,1,,object_07a.png,object_15a.png,object_01c.png,object_01c.png,,0.6495726495726496,,1,,,,,,,,,,,,
2253.89999999851,,directmemory_phase8,1805611,,,,,,,,object_11a.png,,,49,,,1,,object_03a.png,object_01b.png,object_10b.png,object_03a.png,,0.652542372881356,,1,,,,,,,,,,,,
2179.10000000149,,directmemory_phase8,1807798,,,,,,,,object_15a.png,,,50,,,0,,object_06b.png,object_11b.png,object_04c.png,object_06b.png,,0.6470588235294118,,0,,,,,,,,,,,,
2463.7999999970198,,directmemory_phase8,1810268,,,,,,,,object_06c.png,,,51,,,0,,object_10a.png,object_04c.png,object_07c.png,object_10a.png,,0.6416666666666667,,0,,,,,,,,,,,,
null,,thebreak,1810378,,,,,,,,<p></p>,,,null,,,,,,,,,,,,,,,,,,,,,,,,
8388.10000000149,,intro_0,1818771,,,,,,,,instruct,,,32,,,,,,,,,,,,,,,,,,,,,,,,
9706.89999999851,,intro_1,1828480,,,,,,,,instruct,,,32,,,,,,,,,,,,,,,,,,,,,,,,
8413.29999999702,,intro_2,1836895,,,,,,,,instruct,,,32,,,,,,,,,,,,,,,,,,,,,,,,
