rt,responses,trial_type,time_elapsed,identifier_a,identifier_b,identifier_c,tasktype,browser_type,local_time,UTC_time,stimulus,button_pressed,response,key_press,stimulus_left,stimulus_right,accuracy,practice_cumulative_accuracy,stimulus_down_left,stimulus_down_mid,stimulus_down_right,stimulus_correct,prac_weighted_accuracy,cumulative_accuracy,weighted_accuracy,stimulus_middle,problems,smooth,distraction,strategies,easier,similar,comments,detectfocus,breakfocus,completion_code
19735.300000071526,{worker_id:62d0880f5ba6d972d1bfc63c},id_enter,19737,object_10b.png; object_09a.png; object_04c.png; object_10c.png; object_09b.png; object_05c.png; object_11c.png; object_05b.png; object_03b.png; object_11b.png; object_08a.png; object_03c.png; object_13a.png; object_15a.png; object_14a.png,object_01a.png; object_08b.png; object_12a.png; object_10a.png; object_11a.png; object_04a.png; object_02c.png; object_13b.png; object_09c.png; object_15c.png; object_06c.png; object_05a.png; object_01c.png; object_06a.png; object_07b.png,object_14b.png; object_02a.png; object_13c.png; object_08c.png; object_15b.png; object_06b.png; object_12b.png; object_03a.png; object_01b.png; object_07a.png; object_02b.png; object_12c.png; object_14c.png; object_07c.png; object_04b.png,blocked,Mozilla/5.0 (Windows NT 10.0; Win64; x64) AppleWebKit/537.36 (KHTML, like Gecko) Chrome/135.0.0.0 Safari/537.36,5/2/2025, 3:21:48 PM,2025-05-02 19:21:48.230,,,,,,,,,,,,,,,,,,,,,,,,,,
12067.899999976158,,make_fullscreen,31817,,,,,,,,fullscreen,0,,,,,,,,,,,,,,,,,,,,,,,,
3957.7999999523163,,instruct_1,35776,,,,,,,,instruct,0,Next,,,,,,,,,,,,,,,,,,,,,,,
9134.299999952316,,instruct_2,44913,,,,,,,,instruct,1,Next,,,,,,,,,,,,,,,,,,,,,,,
5038.800000071526,,instruct_3,49953,,,,,,,,instruct,1,Next,,,,,,,,,,,,,,,,,,,,,,,
14479.100000023842,,instruct_4,64433,,,,,,,,instruct,1,Next,,,,,,,,,,,,,,,,,,,,,,,
7277.799999952316,,instruct_5,71713,,,,,,,,instruct,1,Next,,,,,,,,,,,,,,,,,,,,,,,
3255.399999976158,,instruct_6,74970,,,,,,,,instruct,1,Next,,,,,,,,,,,,,,,,,,,,,,,
16039.200000047684,,instruct_7,91010,,,,,,,,instruct,1,Next,,,,,,,,,,,,,,,,,,,,,,,
null,,prac_atten_color_black,91418,,,,,,,,black_plus_sign,,,null,,,,,,,,,,,,,,,,,,,,,,
null,,prac_atten_color,92435,,,,,,,,<p style='position:absolute;top: 50%;right: 50%;transform: translate(50%, -50%);font-size: 125px;color: blue;'>+</p>,,,null,,,,,,,,,,,,,,,,,,,,,,
1869.8999999761581,,prac_atten_color_black,94444,,,,,,,,black_plus_sign,,,49,,,,,,,,,,,,,,,,,,,,,,
null,,prac_atten_color_black,94851,,,,,,,,black_plus_sign,,,null,,,,,,,,,,,,,,,,,,,,,,
null,,prac_atten_color,95513,,,,,,,,<p style='position:absolute;top: 50%;right: 50%;transform: translate(50%, -50%);font-size: 125px;color: green;'>+</p>,,,null,,,,,,,,,,,,,,,,,,,,,,
1608.7000000476837,,prac_atten_color_black,97522,,,,,,,,black_plus_sign,,,50,,,,,,,,,,,,,,,,,,,,,,
null,,prac_atten_color_black,98265,,,,,,,,black_plus_sign,,,null,,,,,,,,,,,,,,,,,,,,,,
null,,prac_atten_color,99029,,,,,,,,<p style='position:absolute;top: 50%;right: 50%;transform: translate(50%, -50%);font-size: 125px;color: green;'>+</p>,,,null,,,,,,,,,,,,,,,,,,,,,,
460.7000000476837,,prac_atten_color_black,101038,,,,,,,,black_plus_sign,,,50,,,,,,,,,,,,,,,,,,,,,,
null,,prac_atten_color_black,101681,,,,,,,,black_plus_sign,,,null,,,,,,,,,,,,,,,,,,,,,,
null,,prac_atten_color,102405,,,,,,,,<p style='position:absolute;top: 50%;right: 50%;transform: translate(50%, -50%);font-size: 125px;color: blue;'>+</p>,,,null,,,,,,,,,,,,,,,,,,,,,,
637.1999999284744,,prac_atten_color_black,104419,,,,,,,,black_plus_sign,,,49,,,,,,,,,,,,,,,,,,,,,,
null,,prac_atten_color_black,105112,,,,,,,,black_plus_sign,,,null,,,,,,,,,,,,,,,,,,,,,,
null,,prac_atten_color,105743,,,,,,,,<p style='position:absolute;top: 50%;right: 50%;transform: translate(50%, -50%);font-size: 125px;color: green;'>+</p>,,,null,,,,,,,,,,,,,,,,,,,,,,
66.29999995231628,,prac_atten_color_black,107753,,,,,,,,black_plus_sign,,,50,,,,,,,,,,,,,,,,,,,,,,
null,,prac_atten_color_black,108536,,,,,,,,black_plus_sign,,,null,,,,,,,,,,,,,,,,,,,,,,
null,,prac_atten_color,108977,,,,,,,,<p style='position:absolute;top: 50%;right: 50%;transform: translate(50%, -50%);font-size: 125px;color: green;'>+</p>,,,null,,,,,,,,,,,,,,,,,,,,,,
449.09999990463257,,prac_atten_color_black,110992,,,,,,,,black_plus_sign,,,50,,,,,,,,,,,,,,,,,,,,,,
null,,prac_atten_color_black,111960,,,,,,,,black_plus_sign,,,null,,,,,,,,,,,,,,,,,,,,,,
649,,prac_atten_color,112641,,,,,,,,<p style='position:absolute;top: 50%;right: 50%;transform: translate(50%, -50%);font-size: 125px;color: blue;'>+</p>,,,49,,,,,,,,,,,,,,,,,,,,,,
null,,prac_atten_color_black,114656,,,,,,,,black_plus_sign,,,null,,,,,,,,,,,,,,,,,,,,,,
null,,prac_atten_color_black,115389,,,,,,,,black_plus_sign,,,null,,,,,,,,,,,,,,,,,,,,,,
708.5999999046326,,prac_atten_color,116381,,,,,,,,<p style='position:absolute;top: 50%;right: 50%;transform: translate(50%, -50%);font-size: 125px;color: green;'>+</p>,,,50,,,,,,,,,,,,,,,,,,,,,,
null,,prac_atten_color_black,118384,,,,,,,,black_plus_sign,,,null,,,,,,,,,,,,,,,,,,,,,,
null,,prac_atten_color_black,118823,,,,,,,,black_plus_sign,,,null,,,,,,,,,,,,,,,,,,,,,,
null,,prac_atten_color,119467,,,,,,,,<p style='position:absolute;top: 50%;right: 50%;transform: translate(50%, -50%);font-size: 125px;color: blue;'>+</p>,,,null,,,,,,,,,,,,,,,,,,,,,,
310.7000000476837,,prac_atten_color_black,121481,,,,,,,,black_plus_sign,,,49,,,,,,,,,,,,,,,,,,,,,,
null,,prac_atten_color_black,122267,,,,,,,,black_plus_sign,,,null,,,,,,,,,,,,,,,,,,,,,,
null,,prac_atten_color,122705,,,,,,,,<p style='position:absolute;top: 50%;right: 50%;transform: translate(50%, -50%);font-size: 125px;color: blue;'>+</p>,,,null,,,,,,,,,,,,,,,,,,,,,,
225.39999997615814,,prac_atten_color_black,124718,,,,,,,,black_plus_sign,,,49,,,,,,,,,,,,,,,,,,,,,,
5011.600000023842,,attentioncheck_feedback,129731,,,,,,,,cross_check_feedback,0,,,,,,,,,,,,,,,,,,,,,,,,
7471.400000095367,,last_instruct,137203,,,,,,,,instruct,,,32,,,,,,,,,,,,,,,,,,,,,,
null,,prac_learn_phase(without_color),140720,,,,,,,,black_plus_sign,,,null,object_01c.png,object_13a.png,,,,,,,,,,,,,,,,,,,,
null,,prac_black_cross(without_color),141766,,,,,,,,blue,,,null,object_01c.png,object_13a.png,,,,,,,,,,,,,,,,,,,,
null,,prac_rt_plussign_withcolor,142279,,,,,,,,blue,,,null,object_01c.png,object_13a.png,,,,,,,,,,,,,,,,,,,,
1059.1000000238419,,prac_rt_thecrossant_black,143249,,,,,,,,black_plus_sign,,,49,,,1,1,,,,,,,,,,,,,,,,,,
null,,prac_color_black,143357,,,,,,,,black_plus_sign,,,null,,,,,,,,,,,,,,,,,,,,,,
null,,prac_learn_phase(without_color),146866,,,,,,,,black_plus_sign,,,null,object_05b.png,object_13b.png,,,,,,,,,,,,,,,,,,,,
null,,black_cross(without_color)1,147339,,,,,,,,green,,,null,object_01c.png,object_13a.png,,,,,,,,,,,,,,,,,,,,
null,,prac_rt_plussign_withcolor,147843,,,,,,,,green,,,null,object_05b.png,object_13b.png,,,,,,,,,,,,,,,,,,,,
1900,,prac_rt_thecrossant_black,149386,,,,,,,,black_plus_sign,,,50,,,1,1,,,,,,,,,,,,,,,,,,
null,,prac_color_black,149495,,,,,,,,black_plus_sign,,,null,,,,,,,,,,,,,,,,,,,,,,
null,,prac_learn_phase(without_color),153003,,,,,,,,black_plus_sign,,,null,object_01a.png,object_10b.png,,,,,,,,,,,,,,,,,,,,
null,,black_cross(without_color)1,153486,,,,,,,,green,,,null,object_01c.png,object_13a.png,,,,,,,,,,,,,,,,,,,,
null,,prac_rt_plussign_withcolor,153990,,,,,,,,green,,,null,object_01a.png,object_10b.png,,,,,,,,,,,,,,,,,,,,
1403.5,,prac_rt_thecrossant_black,155067,,,,,,,,black_plus_sign,,,50,,,1,1,,,,,,,,,,,,,,,,,,
null,,prac_color_black,155175,,,,,,,,black_plus_sign,,,null,,,,,,,,,,,,,,,,,,,,,,
null,,prac_learn_phase(without_color),158688,,,,,,,,black_plus_sign,,,null,object_15c.png,object_11b.png,,,,,,,,,,,,,,,,,,,,
null,,black_cross(without_color)1,159158,,,,,,,,green,,,null,object_01c.png,object_13a.png,,,,,,,,,,,,,,,,,,,,
null,,prac_rt_plussign_withcolor,159662,,,,,,,,blue,,,null,object_15c.png,object_11b.png,,,,,,,,,,,,,,,,,,,,
1639.5,,prac_rt_thecrossant_black,161183,,,,,,,,black_plus_sign,,,49,,,1,1,,,,,,,,,,,,,,,,,,
null,,prac_color_black,161292,,,,,,,,black_plus_sign,,,null,,,,,,,,,,,,,,,,,,,,,,
7342,,instruct_dir_01,168635,,,,,,,,instruct,0,Next,,,,,,,,,,,,,,,,,,,,,,,
8616,,instruct_dir_2,177252,,,,,,,,instruct,1,Next,,,,,,,,,,,,,,,,,,,,,,,
7878.5,,instruct_dir_3,185132,,,,,,,,instruct,1,Next,,,,,,,,,,,,,,,,,,,,,,,
9039.299999952316,,instruct_dir_4,194173,,,,,,,,instruct,1,Start,,,,,,,,,,,,,,,,,,,,,,,
null,,thebreak,194283,,,,,,,,<p></p>,,,null,,,,,,,,,,,,,,,,,,,,,,
3080.7999999523163,,intro_0,197365,,,,,,,,instruct,,,32,,,,,,,,,,,,,,,,,,,,,,
3086.7999999523163,,prac_directmemory_phase,200453,,,,,,,,practice/object_04a.png,,,50,,,0,,practice/object_01b.png,practice/object_02a.png,practice/object_04b.png,practice/object_04b.png,0,0,,,,,,,,,,,,
4477.899999976158,,prac_directmemory_phase,204932,,,,,,,,practice/object_02a.png,,,51,,,1,,practice/object_04b.png,practice/object_01a.png,practice/object_02b.png,practice/object_02b.png,1,0.5,,,,,,,,,,,,
4063.5,,prac_directmemory_phase,208997,,,,,,,,practice/object_03a.png,,,50,,,1,,practice/object_04a.png,practice/object_03b.png,practice/object_01b.png,practice/object_03b.png,1,0.6666666666666666,,,,,,,,,,,,
2863.4000000953674,,prac_directmemory_phase,211861,,,,,,,,practice/object_01a.png,,,51,,,1,,practice/object_02b.png,practice/object_04a.png,practice/object_01b.png,practice/object_01b.png,1,0.75,,,,,,,,,,,,
10502.599999904633,,practice_feedback,222365,,,,,,,,practice_feedback,1,,,,,,,,,,,,,,,,,,,,,,,,
6927.100000023842,,proceed_actualTask,229293,,,,,,,,proceed_actualTask,1,Continue,,,,,,,,,,,,,,,,,,,,,,,
10695.399999976158,,last_inst,239989,,,,,,,,last_inst,,,32,,,,,,,,,,,,,,,,,,,,,,
null,,learn_phase(without_color)1,243494,,,,,,,,black_plus_sign,,,null,object_01c.png,object_13a.png,,,,,,,,,,,,,,,,,,,,
null,,black_cross(without_color)1,243964,,,,,,,,green,,,null,object_01c.png,object_13a.png,,,,,,,,,,,,,,,,,,,,
null,,rt_plussign_withcolor1,244467,,,,,,,,green,,,null,object_01c.png,object_13a.png,,,,,,,,,,,,,,,,,,,,
1027.1000000238419,,rt_thecrossant_black1,246008,,,,,,,,black_plus_sign,,,50,,,1,,,,,,,1,,,,,,,,,,,,
null,,color_black1,246118,,,,,,,,black_plus_sign,,,null,,,,,,,,,,,,,,,,,,,,,,
null,,learn_phase(without_color)1,249635,,,,,,,,black_plus_sign,,,null,object_05b.png,object_13b.png,,,,,,,,,,,,,,,,,,,,
null,,black_cross(without_color)1,250346,,,,,,,,green,,,null,object_05b.png,object_13b.png,,,,,,,,,,,,,,,,,,,,
null,,rt_plussign_withcolor1,250848,,,,,,,,green,,,null,object_05b.png,object_13b.png,,,,,,,,,,,,,,,,,,,,
1139.2000000476837,,rt_thecrossant_black1,252155,,,,,,,,black_plus_sign,,,50,,,1,,,,,,,1,,,,,,,,,,,,
null,,color_black1,252265,,,,,,,,black_plus_sign,,,null,,,,,,,,,,,,,,,,,,,,,,
null,,learn_phase(without_color)1,255771,,,,,,,,black_plus_sign,,,null,object_01a.png,object_10b.png,,,,,,,,,,,,,,,,,,,,
null,,black_cross(without_color)1,256447,,,,,,,,blue,,,null,object_01a.png,object_10b.png,,,,,,,,,,,,,,,,,,,,
null,,rt_plussign_withcolor1,256951,,,,,,,,blue,,,null,object_01a.png,object_10b.png,,,,,,,,,,,,,,,,,,,,
1055.7000000476837,,rt_thecrossant_black1,258297,,,,,,,,black_plus_sign,,,49,,,1,,,,,,,1,,,,,,,,,,,,
null,,color_black1,258407,,,,,,,,black_plus_sign,,,null,,,,,,,,,,,,,,,,,,,,,,
null,,learn_phase(without_color)1,261923,,,,,,,,black_plus_sign,,,null,object_15c.png,object_11b.png,,,,,,,,,,,,,,,,,,,,
null,,black_cross(without_color)1,262993,,,,,,,,blue,,,null,object_15c.png,object_11b.png,,,,,,,,,,,,,,,,,,,,
null,,rt_plussign_withcolor1,263495,,,,,,,,blue,,,null,object_15c.png,object_11b.png,,,,,,,,,,,,,,,,,,,,
1174.5,,rt_thecrossant_black1,264452,,,,,,,,black_plus_sign,,,49,,,1,,,,,,,1,,,,,,,,,,,,
null,,color_black1,264562,,,,,,,,black_plus_sign,,,null,,,,,,,,,,,,,,,,,,,,,,
null,,learn_phase(without_color)1,268079,,,,,,,,black_plus_sign,,,null,object_15a.png,object_06a.png,,,,,,,,,,,,,,,,,,,,
null,,black_cross(without_color)1,268626,,,,,,,,green,,,null,object_15a.png,object_06a.png,,,,,,,,,,,,,,,,,,,,
null,,rt_plussign_withcolor1,269131,,,,,,,,green,,,null,object_15a.png,object_06a.png,,,,,,,,,,,,,,,,,,,,
2014.6000000238419,,rt_thecrossant_black1,270606,,,,,,,,black_plus_sign,,,50,,,1,,,,,,,1,,,,,,,,,,,,
null,,color_black1,270715,,,,,,,,black_plus_sign,,,null,,,,,,,,,,,,,,,,,,,,,,
null,,learn_phase(without_color)1,274219,,,,,,,,black_plus_sign,,,null,object_05c.png,object_04a.png,,,,,,,,,,,,,,,,,,,,
null,,black_cross(without_color)1,275198,,,,,,,,blue,,,null,object_05c.png,object_04a.png,,,,,,,,,,,,,,,,,,,,
null,,rt_plussign_withcolor1,275703,,,,,,,,blue,,,null,object_05c.png,object_04a.png,,,,,,,,,,,,,,,,,,,,
1079.5,,rt_thecrossant_black1,276739,,,,,,,,black_plus_sign,,,49,,,1,,,,,,,1,,,,,,,,,,,,
null,,color_black1,276848,,,,,,,,black_plus_sign,,,null,,,,,,,,,,,,,,,,,,,,,,
null,,learn_phase(without_color)1,280359,,,,,,,,black_plus_sign,,,null,object_10a.png,object_10c.png,,,,,,,,,,,,,,,,,,,,
null,,black_cross(without_color)1,281367,,,,,,,,blue,,,null,object_10a.png,object_10c.png,,,,,,,,,,,,,,,,,,,,
null,,rt_plussign_withcolor1,281869,,,,,,,,blue,,,null,object_10a.png,object_10c.png,,,,,,,,,,,,,,,,,,,,
1367.3999999761581,,rt_thecrossant_black1,282877,,,,,,,,black_plus_sign,,,49,,,1,,,,,,,1,,,,,,,,,,,,
null,,color_black1,282987,,,,,,,,black_plus_sign,,,null,,,,,,,,,,,,,,,,,,,,,,
null,,learn_phase(without_color)1,286489,,,,,,,,black_plus_sign,,,null,object_03b.png,object_09c.png,,,,,,,,,,,,,,,,,,,,
null,,black_cross(without_color)1,287162,,,,,,,,blue,,,null,object_03b.png,object_09c.png,,,,,,,,,,,,,,,,,,,,
null,,rt_plussign_withcolor1,287675,,,,,,,,blue,,,null,object_03b.png,object_09c.png,,,,,,,,,,,,,,,,,,,,
1491.8999999761581,,rt_thecrossant_black1,289024,,,,,,,,black_plus_sign,,,49,,,1,,,,,,,1,,,,,,,,,,,,
null,,color_black1,289135,,,,,,,,black_plus_sign,,,null,,,,,,,,,,,,,,,,,,,,,,
null,,learn_phase(without_color)1,292646,,,,,,,,black_plus_sign,,,null,object_14a.png,object_07b.png,,,,,,,,,,,,,,,,,,,,
null,,black_cross(without_color)1,293582,,,,,,,,green,,,null,object_14a.png,object_07b.png,,,,,,,,,,,,,,,,,,,,
null,,rt_plussign_withcolor1,294092,,,,,,,,green,,,null,object_14a.png,object_07b.png,,,,,,,,,,,,,,,,,,,,
1198.5,,rt_thecrossant_black1,295176,,,,,,,,black_plus_sign,,,50,,,1,,,,,,,1,,,,,,,,,,,,
null,,color_black1,295288,,,,,,,,black_plus_sign,,,null,,,,,,,,,,,,,,,,,,,,,,
null,,learn_phase(without_color)1,298797,,,,,,,,black_plus_sign,,,null,object_09b.png,object_11a.png,,,,,,,,,,,,,,,,,,,,
null,,black_cross(without_color)1,299585,,,,,,,,blue,,,null,object_09b.png,object_11a.png,,,,,,,,,,,,,,,,,,,,
null,,rt_plussign_withcolor1,300088,,,,,,,,blue,,,null,object_09b.png,object_11a.png,,,,,,,,,,,,,,,,,,,,
1305.5999999046326,,rt_thecrossant_black1,301315,,,,,,,,black_plus_sign,,,49,,,1,,,,,,,1,,,,,,,,,,,,
null,,color_black1,301426,,,,,,,,black_plus_sign,,,null,,,,,,,,,,,,,,,,,,,,,,
null,,learn_phase(without_color)1,304936,,,,,,,,black_plus_sign,,,null,object_04c.png,object_12a.png,,,,,,,,,,,,,,,,,,,,
null,,black_cross(without_color)1,305835,,,,,,,,green,,,null,object_04c.png,object_12a.png,,,,,,,,,,,,,,,,,,,,
null,,rt_plussign_withcolor1,306336,,,,,,,,green,,,null,object_04c.png,object_12a.png,,,,,,,,,,,,,,,,,,,,
1467.5,,rt_thecrossant_black1,307454,,,,,,,,black_plus_sign,,,50,,,1,,,,,,,1,,,,,,,,,,,,
null,,color_black1,307564,,,,,,,,black_plus_sign,,,null,,,,,,,,,,,,,,,,,,,,,,
null,,learn_phase(without_color)1,311075,,,,,,,,black_plus_sign,,,null,object_06c.png,object_08a.png,,,,,,,,,,,,,,,,,,,,
null,,black_cross(without_color)1,312018,,,,,,,,green,,,null,object_06c.png,object_08a.png,,,,,,,,,,,,,,,,,,,,
null,,rt_plussign_withcolor1,312522,,,,,,,,green,,,null,object_06c.png,object_08a.png,,,,,,,,,,,,,,,,,,,,
1393.2000000476837,,rt_thecrossant_black1,313591,,,,,,,,black_plus_sign,,,50,,,1,,,,,,,1,,,,,,,,,,,,
null,,color_black1,313702,,,,,,,,black_plus_sign,,,null,,,,,,,,,,,,,,,,,,,,,,
null,,learn_phase(without_color)1,317212,,,,,,,,black_plus_sign,,,null,object_03c.png,object_05a.png,,,,,,,,,,,,,,,,,,,,
null,,black_cross(without_color)1,318062,,,,,,,,blue,,,null,object_03c.png,object_05a.png,,,,,,,,,,,,,,,,,,,,
null,,rt_plussign_withcolor1,318564,,,,,,,,blue,,,null,object_03c.png,object_05a.png,,,,,,,,,,,,,,,,,,,,
1442.7000000476837,,rt_thecrossant_black1,319739,,,,,,,,black_plus_sign,,,49,,,1,,,,,,,1,,,,,,,,,,,,
null,,color_black1,319848,,,,,,,,black_plus_sign,,,null,,,,,,,,,,,,,,,,,,,,,,
null,,learn_phase(without_color)1,323357,,,,,,,,black_plus_sign,,,null,object_09a.png,object_08b.png,,,,,,,,,,,,,,,,,,,,
null,,black_cross(without_color)1,324397,,,,,,,,green,,,null,object_09a.png,object_08b.png,,,,,,,,,,,,,,,,,,,,
null,,rt_plussign_withcolor1,324902,,,,,,,,green,,,null,object_09a.png,object_08b.png,,,,,,,,,,,,,,,,,,,,
1660.8999999761581,,rt_thecrossant_black1,325879,,,,,,,,black_plus_sign,,,50,,,1,,,,,,,1,,,,,,,,,,,,
null,,color_black1,325987,,,,,,,,black_plus_sign,,,null,,,,,,,,,,,,,,,,,,,,,,
null,,learn_phase(without_color)1,329491,,,,,,,,black_plus_sign,,,null,object_02c.png,object_11c.png,,,,,,,,,,,,,,,,,,,,
null,,black_cross(without_color)1,329900,,,,,,,,green,,,null,object_02c.png,object_11c.png,,,,,,,,,,,,,,,,,,,,
null,,rt_plussign_withcolor1,330402,,,,,,,,green,,,null,object_02c.png,object_11c.png,,,,,,,,,,,,,,,,,,,,
1756.3000000715256,,rt_thecrossant_black1,332016,,,,,,,,black_plus_sign,,,50,,,1,,,,,,,1,,,,,,,,,,,,
null,,color_black1,332127,,,,,,,,black_plus_sign,,,null,,,,,,,,,,,,,,,,,,,,,,
null,,thebreak,332229,,,,,,,,<p></p>,,,null,,,,,,,,,,,,,,,,,,,,,,
1938.5,,intro_0,334168,,,,,,,,instruct,,,32,,,,,,,,,,,,,,,,,,,,,,
2367.600000023842,,directmemory_phase1,336536,,,,,,,,object_09b.png,,,49,,,0,,object_10b.png,object_11a.png,object_10a.png,object_11a.png,,0,0,,,,,,,,,,,
2510.5,,directmemory_phase1,339048,,,,,,,,object_10b.png,,,51,,,1,,object_01c.png,object_03c.png,object_01a.png,object_01a.png,,0.5,1,,,,,,,,,,,
2463.100000023842,,directmemory_phase1,341512,,,,,,,,object_13a.png,,,49,,,0,,object_13b.png,object_15a.png,object_01c.png,object_01c.png,,0.3333333333333333,0,,,,,,,,,,,
2542.7999999523163,,directmemory_phase1,344056,,,,,,,,object_03b.png,,,49,,,1,,object_09c.png,object_12a.png,object_09a.png,object_09c.png,,0.5,1,,,,,,,,,,,
3646.399999976158,,directmemory_phase1,347704,,,,,,,,object_04c.png,,,51,,,0,,object_12a.png,object_08b.png,object_15a.png,object_12a.png,,0.4,0,,,,,,,,,,,
2670.899999976158,,directmemory_phase1,350376,,,,,,,,object_11c.png,,,50,,,0,,object_02c.png,object_04a.png,object_11b.png,object_02c.png,,0.3333333333333333,0,,,,,,,,,,,
3214.2000000476837,,directmemory_phase1,353592,,,,,,,,object_15a.png,,,49,,,0,,object_09a.png,object_06a.png,object_11a.png,object_06a.png,,0.2857142857142857,0,,,,,,,,,,,
3535.5,,directmemory_phase1,357129,,,,,,,,object_10c.png,,,51,,,0,,object_10a.png,object_11a.png,object_13a.png,object_10a.png,,0.25,0,,,,,,,,,,,
2478.5999999046326,,directmemory_phase1,359608,,,,,,,,object_14a.png,,,51,,,0,,object_05c.png,object_07b.png,object_05a.png,object_07b.png,,0.2222222222222222,0,,,,,,,,,,,
3327.399999976158,,directmemory_phase1,362937,,,,,,,,object_11b.png,,,51,,,0,,object_15c.png,object_01c.png,object_05b.png,object_15c.png,,0.2,0,,,,,,,,,,,
4398.899999976158,,directmemory_phase1,367337,,,,,,,,object_08a.png,,,50,,,0,,object_06c.png,object_15c.png,object_03b.png,object_06c.png,,0.18181818181818182,0,,,,,,,,,,,
3935.100000023842,,directmemory_phase1,371273,,,,,,,,object_05b.png,,,51,,,0,,object_13b.png,object_08b.png,object_15a.png,object_13b.png,,0.16666666666666666,0,,,,,,,,,,,
3870.6999999284744,,directmemory_phase1,375145,,,,,,,,object_09a.png,,,51,,,1,,object_06c.png,object_10c.png,object_08b.png,object_08b.png,,0.23076923076923078,1,,,,,,,,,,,
4319,,directmemory_phase1,379465,,,,,,,,object_05c.png,,,51,,,0,,object_03c.png,object_04a.png,object_15c.png,object_04a.png,,0.21428571428571427,0,,,,,,,,,,,
3934.899999976158,,directmemory_phase1,383401,,,,,,,,object_03c.png,,,51,,,0,,object_15a.png,object_05a.png,object_06a.png,object_05a.png,,0.2,0,,,,,,,,,,,
null,,thebreak,383513,,,,,,,,<p></p>,,,null,,,,,,,,,,,,,,,,,,,,,,
1775.5,,intro_0,385289,,,,,,,,instruct,,,32,,,,,,,,,,,,,,,,,,,,,,
null,,learn_phase(without_color)2,388800,,,,,,,,black_plus_sign,,,null,object_09a.png,object_08b.png,,,,,,,,,,,,,,,,,,,,
null,,black_cross(without_color)2,389269,,,,,,,,green,,,null,object_09a.png,object_08b.png,,,,,,,,,,,,,,,,,,,,
null,,rt_plussign_withcolor2,389774,,,,,,,,green,,,null,object_09a.png,object_08b.png,,,,,,,,,,,,,,,,,,,,
1327.1999999284744,,rt_thecrossant_black2,391315,,,,,,,,black_plus_sign,,,50,,,1,,,,,,,1,,,,,,,,,,,,
null,,color_black2,391424,,,,,,,,black_plus_sign,,,null,,,,,,,,,,,,,,,,,,,,,,
null,,learn_phase(without_color)2,394937,,,,,,,,black_plus_sign,,,null,object_05a.png,object_03c.png,,,,,,,,,,,,,,,,,,,,
null,,black_cross(without_color)2,395800,,,,,,,,green,,,null,object_05a.png,object_03c.png,,,,,,,,,,,,,,,,,,,,
null,,rt_plussign_withcolor2,396303,,,,,,,,green,,,null,object_05a.png,object_03c.png,,,,,,,,,,,,,,,,,,,,
null,,rt_thecrossant_black2,397464,,,,,,,,black_plus_sign,,,null,,,,,,,,,,1,,,,,,,,,,,,
null,,color_black2,397574,,,,,,,,black_plus_sign,,,null,,,,,,,,,,,,,,,,,,,,,,
null,,learn_phase(without_color)2,401089,,,,,,,,black_plus_sign,,,null,object_11c.png,object_02c.png,,,,,,,,,,,,,,,,,,,,
null,,black_cross(without_color)2,401605,,,,,,,,blue,,,null,object_11c.png,object_02c.png,,,,,,,,,,,,,,,,,,,,
null,,rt_plussign_withcolor2,402120,,,,,,,,blue,,,null,object_11c.png,object_02c.png,,,,,,,,,,,,,,,,,,,,
1451.5,,rt_thecrossant_black2,403625,,,,,,,,black_plus_sign,,,49,,,1,,,,,,,1,,,,,,,,,,,,
null,,color_black2,403734,,,,,,,,black_plus_sign,,,null,,,,,,,,,,,,,,,,,,,,,,
null,,learn_phase(without_color)2,407242,,,,,,,,black_plus_sign,,,null,object_05b.png,object_13b.png,,,,,,,,,,,,,,,,,,,,
null,,black_cross(without_color)2,408167,,,,,,,,green,,,null,object_05b.png,object_13b.png,,,,,,,,,,,,,,,,,,,,
null,,rt_plussign_withcolor2,408670,,,,,,,,green,,,null,object_05b.png,object_13b.png,,,,,,,,,,,,,,,,,,,,
1319.2000000476837,,rt_thecrossant_black2,409768,,,,,,,,black_plus_sign,,,50,,,1,,,,,,,1,,,,,,,,,,,,
null,,color_black2,409877,,,,,,,,black_plus_sign,,,null,,,,,,,,,,,,,,,,,,,,,,
null,,learn_phase(without_color)2,413388,,,,,,,,black_plus_sign,,,null,object_15c.png,object_11b.png,,,,,,,,,,,,,,,,,,,,
null,,black_cross(without_color)2,414426,,,,,,,,green,,,null,object_15c.png,object_11b.png,,,,,,,,,,,,,,,,,,,,
null,,rt_plussign_withcolor2,414938,,,,,,,,green,,,null,object_15c.png,object_11b.png,,,,,,,,,,,,,,,,,,,,
1541.2999999523163,,rt_thecrossant_black2,415928,,,,,,,,black_plus_sign,,,50,,,1,,,,,,,1,,,,,,,,,,,,
null,,color_black2,416040,,,,,,,,black_plus_sign,,,null,,,,,,,,,,,,,,,,,,,,,,
null,,learn_phase(without_color)2,419552,,,,,,,,black_plus_sign,,,null,object_05c.png,object_04a.png,,,,,,,,,,,,,,,,,,,,
null,,black_cross(without_color)2,420586,,,,,,,,green,,,null,object_05c.png,object_04a.png,,,,,,,,,,,,,,,,,,,,
null,,rt_plussign_withcolor2,421089,,,,,,,,green,,,null,object_05c.png,object_04a.png,,,,,,,,,,,,,,,,,,,,
1595.8999999761581,,rt_thecrossant_black2,422076,,,,,,,,black_plus_sign,,,50,,,1,,,,,,,1,,,,,,,,,,,,
null,,color_black2,422184,,,,,,,,black_plus_sign,,,null,,,,,,,,,,,,,,,,,,,,,,
null,,learn_phase(without_color)2,425698,,,,,,,,black_plus_sign,,,null,object_04c.png,object_12a.png,,,,,,,,,,,,,,,,,,,,
null,,black_cross(without_color)2,426357,,,,,,,,green,,,null,object_04c.png,object_12a.png,,,,,,,,,,,,,,,,,,,,
null,,rt_plussign_withcolor2,426859,,,,,,,,green,,,null,object_04c.png,object_12a.png,,,,,,,,,,,,,,,,,,,,
1485.8999999761581,,rt_thecrossant_black2,428227,,,,,,,,black_plus_sign,,,50,,,1,,,,,,,1,,,,,,,,,,,,
null,,color_black2,428337,,,,,,,,black_plus_sign,,,null,,,,,,,,,,,,,,,,,,,,,,
null,,learn_phase(without_color)2,431840,,,,,,,,black_plus_sign,,,null,object_14a.png,object_07b.png,,,,,,,,,,,,,,,,,,,,
null,,black_cross(without_color)2,432689,,,,,,,,blue,,,null,object_14a.png,object_07b.png,,,,,,,,,,,,,,,,,,,,
null,,rt_plussign_withcolor2,433204,,,,,,,,blue,,,null,object_14a.png,object_07b.png,,,,,,,,,,,,,,,,,,,,
1105.2999999523163,,rt_thecrossant_black2,434365,,,,,,,,black_plus_sign,,,49,,,1,,,,,,,1,,,,,,,,,,,,
null,,color_black2,434475,,,,,,,,black_plus_sign,,,null,,,,,,,,,,,,,,,,,,,,,,
null,,learn_phase(without_color)2,437984,,,,,,,,black_plus_sign,,,null,object_06c.png,object_08a.png,,,,,,,,,,,,,,,,,,,,
null,,black_cross(without_color)2,438627,,,,,,,,blue,,,null,object_06c.png,object_08a.png,,,,,,,,,,,,,,,,,,,,
null,,rt_plussign_withcolor2,439128,,,,,,,,blue,,,null,object_06c.png,object_08a.png,,,,,,,,,,,,,,,,,,,,
1536.2999999523163,,rt_thecrossant_black2,440493,,,,,,,,black_plus_sign,,,49,,,1,,,,,,,1,,,,,,,,,,,,
null,,color_black2,440603,,,,,,,,black_plus_sign,,,null,,,,,,,,,,,,,,,,,,,,,,
null,,learn_phase(without_color)2,444106,,,,,,,,black_plus_sign,,,null,object_06a.png,object_15a.png,,,,,,,,,,,,,,,,,,,,
null,,black_cross(without_color)2,445206,,,,,,,,blue,,,null,object_06a.png,object_15a.png,,,,,,,,,,,,,,,,,,,,
null,,rt_plussign_withcolor2,445711,,,,,,,,blue,,,null,object_06a.png,object_15a.png,,,,,,,,,,,,,,,,,,,,
1055.3999999761581,,rt_thecrossant_black2,446622,,,,,,,,black_plus_sign,,,49,,,1,,,,,,,1,,,,,,,,,,,,
null,,color_black2,446731,,,,,,,,black_plus_sign,,,null,,,,,,,,,,,,,,,,,,,,,,
null,,learn_phase(without_color)2,450240,,,,,,,,black_plus_sign,,,null,object_09b.png,object_11a.png,,,,,,,,,,,,,,,,,,,,
null,,black_cross(without_color)2,451043,,,,,,,,green,,,null,object_09b.png,object_11a.png,,,,,,,,,,,,,,,,,,,,
null,,rt_plussign_withcolor2,451547,,,,,,,,green,,,null,object_09b.png,object_11a.png,,,,,,,,,,,,,,,,,,,,
1545.1999999284744,,rt_thecrossant_black2,452770,,,,,,,,black_plus_sign,,,50,,,1,,,,,,,1,,,,,,,,,,,,
null,,color_black2,452880,,,,,,,,black_plus_sign,,,null,,,,,,,,,,,,,,,,,,,,,,
null,,learn_phase(without_color)2,456391,,,,,,,,black_plus_sign,,,null,object_10b.png,object_01a.png,,,,,,,,,,,,,,,,,,,,
null,,black_cross(without_color)2,456875,,,,,,,,blue,,,null,object_10b.png,object_01a.png,,,,,,,,,,,,,,,,,,,,
null,,rt_plussign_withcolor2,457375,,,,,,,,blue,,,null,object_10b.png,object_01a.png,,,,,,,,,,,,,,,,,,,,
1303.8000000715256,,rt_thecrossant_black2,458906,,,,,,,,black_plus_sign,,,49,,,1,,,,,,,1,,,,,,,,,,,,
null,,color_black2,459018,,,,,,,,black_plus_sign,,,null,,,,,,,,,,,,,,,,,,,,,,
null,,learn_phase(without_color)2,462530,,,,,,,,black_plus_sign,,,null,object_10a.png,object_10c.png,,,,,,,,,,,,,,,,,,,,
null,,black_cross(without_color)2,463077,,,,,,,,green,,,null,object_10a.png,object_10c.png,,,,,,,,,,,,,,,,,,,,
null,,rt_plussign_withcolor2,463582,,,,,,,,green,,,null,object_10a.png,object_10c.png,,,,,,,,,,,,,,,,,,,,
792.7000000476837,,rt_thecrossant_black2,465050,,,,,,,,black_plus_sign,,,50,,,1,,,,,,,1,,,,,,,,,,,,
null,,color_black2,465159,,,,,,,,black_plus_sign,,,null,,,,,,,,,,,,,,,,,,,,,,
null,,learn_phase(without_color)2,468668,,,,,,,,black_plus_sign,,,null,object_13a.png,object_01c.png,,,,,,,,,,,,,,,,,,,,
null,,black_cross(without_color)2,469625,,,,,,,,green,,,null,object_13a.png,object_01c.png,,,,,,,,,,,,,,,,,,,,
null,,rt_plussign_withcolor2,470130,,,,,,,,green,,,null,object_13a.png,object_01c.png,,,,,,,,,,,,,,,,,,,,
971.5,,rt_thecrossant_black2,471179,,,,,,,,black_plus_sign,,,50,,,1,,,,,,,1,,,,,,,,,,,,
null,,color_black2,471290,,,,,,,,black_plus_sign,,,null,,,,,,,,,,,,,,,,,,,,,,
null,,learn_phase(without_color)2,474804,,,,,,,,black_plus_sign,,,null,object_09c.png,object_03b.png,,,,,,,,,,,,,,,,,,,,
null,,black_cross(without_color)2,475710,,,,,,,,blue,,,null,object_09c.png,object_03b.png,,,,,,,,,,,,,,,,,,,,
null,,rt_plussign_withcolor2,476220,,,,,,,,blue,,,null,object_09c.png,object_03b.png,,,,,,,,,,,,,,,,,,,,
1307.7000000476837,,rt_thecrossant_black2,477336,,,,,,,,black_plus_sign,,,49,,,1,,,,,,,1,,,,,,,,,,,,
null,,color_black2,477446,,,,,,,,black_plus_sign,,,null,,,,,,,,,,,,,,,,,,,,,,
null,,thebreak,477557,,,,,,,,<p></p>,,,null,,,,,,,,,,,,,,,,,,,,,,
4182.099999904633,,intro_0,481740,,,,,,,,instruct,,,32,,,,,,,,,,,,,,,,,,,,,,
3742.600000023842,,directmemory_phase2,485483,,,,,,,,object_03c.png,,,51,,,0,,object_05a.png,object_15c.png,object_11b.png,object_05a.png,,0.1875,0,,,,,,,,,,,
3327.600000023842,,directmemory_phase2,488812,,,,,,,,object_05b.png,,,49,,,1,,object_13b.png,object_01c.png,object_09b.png,object_13b.png,,0.23529411764705882,1,,,,,,,,,,,
4111.100000023842,,directmemory_phase2,492924,,,,,,,,object_04c.png,,,50,,,0,,object_12a.png,object_06a.png,object_05c.png,object_12a.png,,0.2222222222222222,0,,,,,,,,,,,
3054.7999999523163,,directmemory_phase2,495980,,,,,,,,object_13a.png,,,49,,,0,,object_05c.png,object_01c.png,object_08b.png,object_01c.png,,0.21052631578947367,0,,,,,,,,,,,
3646.6999999284744,,directmemory_phase2,499628,,,,,,,,object_11c.png,,,49,,,1,,object_02c.png,object_08b.png,object_11b.png,object_02c.png,,0.25,1,,,,,,,,,,,
3087.2000000476837,,directmemory_phase2,502716,,,,,,,,object_09b.png,,,49,,,0,,object_05b.png,object_11a.png,object_12a.png,object_11a.png,,0.23809523809523808,0,,,,,,,,,,,
4174.600000023842,,directmemory_phase2,506892,,,,,,,,object_05c.png,,,50,,,0,,object_04a.png,object_10a.png,object_11b.png,object_04a.png,,0.22727272727272727,0,,,,,,,,,,,
3983,,directmemory_phase2,510876,,,,,,,,object_14a.png,,,51,,,1,,object_11a.png,object_05c.png,object_07b.png,object_07b.png,,0.2608695652173913,1,,,,,,,,,,,
2494.9000000953674,,directmemory_phase2,513372,,,,,,,,object_10b.png,,,49,,,0,,object_10c.png,object_01a.png,object_05a.png,object_01a.png,,0.25,0,,,,,,,,,,,
3102.3000000715256,,directmemory_phase2,516476,,,,,,,,object_08a.png,,,50,,,0,,object_06c.png,object_08b.png,object_13a.png,object_06c.png,,0.24,0,,,,,,,,,,,
2895.3000000715256,,directmemory_phase2,519373,,,,,,,,object_03b.png,,,50,,,0,,object_12a.png,object_13a.png,object_09c.png,object_09c.png,,0.23076923076923078,0,,,,,,,,,,,
2974.399999976158,,directmemory_phase2,522349,,,,,,,,object_10c.png,,,50,,,1,,object_09b.png,object_10a.png,object_08b.png,object_10a.png,,0.25925925925925924,1,,,,,,,,,,,
2174.100000023842,,directmemory_phase2,524524,,,,,,,,object_11b.png,,,49,,,1,,object_15c.png,object_08b.png,object_10c.png,object_15c.png,,0.2857142857142857,1,,,,,,,,,,,
1519,,directmemory_phase2,526044,,,,,,,,object_09a.png,,,50,,,1,,object_10c.png,object_08b.png,object_15c.png,object_08b.png,,0.3103448275862069,1,,,,,,,,,,,
2414.1999999284744,,directmemory_phase2,528460,,,,,,,,object_15a.png,,,49,,,1,,object_06a.png,object_02c.png,object_11b.png,object_06a.png,,0.3333333333333333,1,,,,,,,,,,,
null,,thebreak,528563,,,,,,,,<p></p>,,,null,,,,,,,,,,,,,,,,,,,,,,
1752.3999999761581,,intro_0,530316,,,,,,,,instruct,,,32,,,,,,,,,,,,,,,,,,,,,,
null,,learn_phase(without_color)3,533822,,,,,,,,black_plus_sign,,,null,object_08a.png,object_06c.png,,,,,,,,,,,,,,,,,,,,
null,,black_cross(without_color)3,534785,,,,,,,,blue,,,null,object_08a.png,object_06c.png,,,,,,,,,,,,,,,,,,,,
null,,rt_plussign_withcolor3,535300,,,,,,,,blue,,,null,object_08a.png,object_06c.png,,,,,,,,,,,,,,,,,,,,
1936.7999999523163,,rt_thecrossant_black3,536353,,,,,,,,black_plus_sign,,,49,,,1,,,,,,,1,,,,,,,,,,,,
null,,color_black3,536461,,,,,,,,black_plus_sign,,,null,,,,,,,,,,,,,,,,,,,,,,
null,,learn_phase(without_color)3,539968,,,,,,,,black_plus_sign,,,null,object_01a.png,object_10b.png,,,,,,,,,,,,,,,,,,,,
null,,black_cross(without_color)3,540707,,,,,,,,green,,,null,object_01a.png,object_10b.png,,,,,,,,,,,,,,,,,,,,
null,,rt_plussign_withcolor3,541210,,,,,,,,green,,,null,object_01a.png,object_10b.png,,,,,,,,,,,,,,,,,,,,
2155.5,,rt_thecrossant_black3,542483,,,,,,,,black_plus_sign,,,50,,,1,,,,,,,1,,,,,,,,,,,,
null,,color_black3,542593,,,,,,,,black_plus_sign,,,null,,,,,,,,,,,,,,,,,,,,,,
null,,learn_phase(without_color)3,546097,,,,,,,,black_plus_sign,,,null,object_05b.png,object_13b.png,,,,,,,,,,,,,,,,,,,,
null,,black_cross(without_color)3,546551,,,,,,,,green,,,null,object_05b.png,object_13b.png,,,,,,,,,,,,,,,,,,,,
null,,rt_plussign_withcolor3,547057,,,,,,,,green,,,null,object_05b.png,object_13b.png,,,,,,,,,,,,,,,,,,,,
1068,,rt_thecrossant_black3,548626,,,,,,,,black_plus_sign,,,50,,,1,,,,,,,1,,,,,,,,,,,,
null,,color_black3,548735,,,,,,,,black_plus_sign,,,null,,,,,,,,,,,,,,,,,,,,,,
null,,learn_phase(without_color)3,552239,,,,,,,,black_plus_sign,,,null,object_11b.png,object_15c.png,,,,,,,,,,,,,,,,,,,,
null,,black_cross(without_color)3,553287,,,,,,,,blue,,,null,object_11b.png,object_15c.png,,,,,,,,,,,,,,,,,,,,
null,,rt_plussign_withcolor3,553789,,,,,,,,blue,,,null,object_11b.png,object_15c.png,,,,,,,,,,,,,,,,,,,,
831.2999999523163,,rt_thecrossant_black3,554747,,,,,,,,black_plus_sign,,,49,,,1,,,,,,,1,,,,,,,,,,,,
null,,color_black3,554857,,,,,,,,black_plus_sign,,,null,,,,,,,,,,,,,,,,,,,,,,
null,,learn_phase(without_color)3,558365,,,,,,,,black_plus_sign,,,null,object_11c.png,object_02c.png,,,,,,,,,,,,,,,,,,,,
null,,black_cross(without_color)3,558835,,,,,,,,blue,,,null,object_11c.png,object_02c.png,,,,,,,,,,,,,,,,,,,,
null,,rt_plussign_withcolor3,559339,,,,,,,,blue,,,null,object_11c.png,object_02c.png,,,,,,,,,,,,,,,,,,,,
1560.8999999761581,,rt_thecrossant_black3,560894,,,,,,,,black_plus_sign,,,49,,,1,,,,,,,1,,,,,,,,,,,,
null,,color_black3,561004,,,,,,,,black_plus_sign,,,null,,,,,,,,,,,,,,,,,,,,,,
null,,learn_phase(without_color)3,564506,,,,,,,,black_plus_sign,,,null,object_15a.png,object_06a.png,,,,,,,,,,,,,,,,,,,,
null,,black_cross(without_color)3,565464,,,,,,,,blue,,,null,object_15a.png,object_06a.png,,,,,,,,,,,,,,,,,,,,
null,,rt_plussign_withcolor3,565968,,,,,,,,blue,,,null,object_15a.png,object_06a.png,,,,,,,,,,,,,,,,,,,,
891.7000000476837,,rt_thecrossant_black3,567020,,,,,,,,black_plus_sign,,,49,,,1,,,,,,,1,,,,,,,,,,,,
null,,color_black3,567130,,,,,,,,black_plus_sign,,,null,,,,,,,,,,,,,,,,,,,,,,
null,,learn_phase(without_color)3,570643,,,,,,,,black_plus_sign,,,null,object_01c.png,object_13a.png,,,,,,,,,,,,,,,,,,,,
null,,black_cross(without_color)3,571336,,,,,,,,blue,,,null,object_01c.png,object_13a.png,,,,,,,,,,,,,,,,,,,,
null,,rt_plussign_withcolor3,571840,,,,,,,,blue,,,null,object_01c.png,object_13a.png,,,,,,,,,,,,,,,,,,,,
1739.7000000476837,,rt_thecrossant_black3,573154,,,,,,,,black_plus_sign,,,49,,,1,,,,,,,1,,,,,,,,,,,,
null,,color_black3,573262,,,,,,,,black_plus_sign,,,null,,,,,,,,,,,,,,,,,,,,,,
null,,learn_phase(without_color)3,576773,,,,,,,,black_plus_sign,,,null,object_05a.png,object_03c.png,,,,,,,,,,,,,,,,,,,,
null,,black_cross(without_color)3,577373,,,,,,,,green,,,null,object_05a.png,object_03c.png,,,,,,,,,,,,,,,,,,,,
null,,rt_plussign_withcolor3,577877,,,,,,,,green,,,null,object_05a.png,object_03c.png,,,,,,,,,,,,,,,,,,,,
1707.3000000715256,,rt_thecrossant_black3,579309,,,,,,,,black_plus_sign,,,50,,,1,,,,,,,1,,,,,,,,,,,,
null,,color_black3,579419,,,,,,,,black_plus_sign,,,null,,,,,,,,,,,,,,,,,,,,,,
null,,learn_phase(without_color)3,582934,,,,,,,,black_plus_sign,,,null,object_14a.png,object_07b.png,,,,,,,,,,,,,,,,,,,,
null,,black_cross(without_color)3,583691,,,,,,,,green,,,null,object_14a.png,object_07b.png,,,,,,,,,,,,,,,,,,,,
null,,rt_plussign_withcolor3,584196,,,,,,,,green,,,null,object_14a.png,object_07b.png,,,,,,,,,,,,,,,,,,,,
1077.5,,rt_thecrossant_black3,585456,,,,,,,,black_plus_sign,,,50,,,1,,,,,,,1,,,,,,,,,,,,
null,,color_black3,585566,,,,,,,,black_plus_sign,,,null,,,,,,,,,,,,,,,,,,,,,,
null,,learn_phase(without_color)3,589075,,,,,,,,black_plus_sign,,,null,object_09b.png,object_11a.png,,,,,,,,,,,,,,,,,,,,
null,,black_cross(without_color)3,589890,,,,,,,,green,,,null,object_09b.png,object_11a.png,,,,,,,,,,,,,,,,,,,,
null,,rt_plussign_withcolor3,590406,,,,,,,,green,,,null,object_09b.png,object_11a.png,,,,,,,,,,,,,,,,,,,,
1474.2000000476837,,rt_thecrossant_black3,591617,,,,,,,,black_plus_sign,,,50,,,1,,,,,,,1,,,,,,,,,,,,
null,,color_black3,591726,,,,,,,,black_plus_sign,,,null,,,,,,,,,,,,,,,,,,,,,,
null,,learn_phase(without_color)3,595229,,,,,,,,black_plus_sign,,,null,object_10c.png,object_10a.png,,,,,,,,,,,,,,,,,,,,
null,,black_cross(without_color)3,595736,,,,,,,,blue,,,null,object_10c.png,object_10a.png,,,,,,,,,,,,,,,,,,,,
null,,rt_plussign_withcolor3,596245,,,,,,,,blue,,,null,object_10c.png,object_10a.png,,,,,,,,,,,,,,,,,,,,
1597.8000000715256,,rt_thecrossant_black3,597754,,,,,,,,black_plus_sign,,,49,,,1,,,,,,,1,,,,,,,,,,,,
null,,color_black3,597862,,,,,,,,black_plus_sign,,,null,,,,,,,,,,,,,,,,,,,,,,
null,,learn_phase(without_color)3,601374,,,,,,,,black_plus_sign,,,null,object_04a.png,object_05c.png,,,,,,,,,,,,,,,,,,,,
null,,black_cross(without_color)3,601863,,,,,,,,blue,,,null,object_04a.png,object_05c.png,,,,,,,,,,,,,,,,,,,,
null,,rt_plussign_withcolor3,602368,,,,,,,,blue,,,null,object_04a.png,object_05c.png,,,,,,,,,,,,,,,,,,,,
1258.7000000476837,,rt_thecrossant_black3,603894,,,,,,,,black_plus_sign,,,49,,,1,,,,,,,1,,,,,,,,,,,,
null,,color_black3,604003,,,,,,,,black_plus_sign,,,null,,,,,,,,,,,,,,,,,,,,,,
null,,learn_phase(without_color)3,607512,,,,,,,,black_plus_sign,,,null,object_09c.png,object_03b.png,,,,,,,,,,,,,,,,,,,,
null,,black_cross(without_color)3,607920,,,,,,,,blue,,,null,object_09c.png,object_03b.png,,,,,,,,,,,,,,,,,,,,
null,,rt_plussign_withcolor3,608423,,,,,,,,blue,,,null,object_09c.png,object_03b.png,,,,,,,,,,,,,,,,,,,,
1086.4000000953674,,rt_thecrossant_black3,610030,,,,,,,,black_plus_sign,,,49,,,1,,,,,,,1,,,,,,,,,,,,
null,,color_black3,610141,,,,,,,,black_plus_sign,,,null,,,,,,,,,,,,,,,,,,,,,,
null,,learn_phase(without_color)3,613644,,,,,,,,black_plus_sign,,,null,object_12a.png,object_04c.png,,,,,,,,,,,,,,,,,,,,
null,,black_cross(without_color)3,614749,,,,,,,,green,,,null,object_12a.png,object_04c.png,,,,,,,,,,,,,,,,,,,,
null,,rt_plussign_withcolor3,615253,,,,,,,,green,,,null,object_12a.png,object_04c.png,,,,,,,,,,,,,,,,,,,,
941.5,,rt_thecrossant_black3,616162,,,,,,,,black_plus_sign,,,50,,,1,,,,,,,1,,,,,,,,,,,,
null,,color_black3,616272,,,,,,,,black_plus_sign,,,null,,,,,,,,,,,,,,,,,,,,,,
null,,learn_phase(without_color)3,619778,,,,,,,,black_plus_sign,,,null,object_08b.png,object_09a.png,,,,,,,,,,,,,,,,,,,,
null,,black_cross(without_color)3,620772,,,,,,,,blue,,,null,object_08b.png,object_09a.png,,,,,,,,,,,,,,,,,,,,
null,,rt_plussign_withcolor3,621274,,,,,,,,blue,,,null,object_08b.png,object_09a.png,,,,,,,,,,,,,,,,,,,,
1648.5,,rt_thecrossant_black3,622296,,,,,,,,black_plus_sign,,,49,,,1,,,,,,,1,,,,,,,,,,,,
null,,color_black3,622404,,,,,,,,black_plus_sign,,,null,,,,,,,,,,,,,,,,,,,,,,
null,,thebreak,622513,,,,,,,,<p></p>,,,null,,,,,,,,,,,,,,,,,,,,,,
2012.5,,intro_0,624527,,,,,,,,instruct,,,32,,,,,,,,,,,,,,,,,,,,,,
3855.600000023842,,directmemory_phase3,628383,,,,,,,,object_11b.png,,,51,,,1,,object_10a.png,object_05c.png,object_15c.png,object_15c.png,,0.3548387096774194,1,,,,,,,,,,,
2254.600000023842,,directmemory_phase3,630639,,,,,,,,object_04c.png,,,49,,,0,,object_15a.png,object_12a.png,object_05a.png,object_12a.png,,0.34375,0,,,,,,,,,,,
2302.600000023842,,directmemory_phase3,632943,,,,,,,,object_15a.png,,,49,,,0,,object_08a.png,object_06a.png,object_15c.png,object_06a.png,,0.3333333333333333,0,,,,,,,,,,,
4030.0999999046326,,directmemory_phase3,636975,,,,,,,,object_14a.png,,,49,,,1,,object_07b.png,object_02c.png,object_04c.png,object_07b.png,,0.35294117647058826,1,,,,,,,,,,,
3919.399999976158,,directmemory_phase3,640895,,,,,,,,object_05c.png,,,51,,,0,,object_09a.png,object_04a.png,object_02c.png,object_04a.png,,0.34285714285714286,0,,,,,,,,,,,
2943.100000023842,,directmemory_phase3,643839,,,,,,,,object_03c.png,,,50,,,1,,object_11b.png,object_05a.png,object_13b.png,object_05a.png,,0.3611111111111111,1,,,,,,,,,,,
2222.6999999284744,,directmemory_phase3,646064,,,,,,,,object_09a.png,,,51,,,1,,object_13b.png,object_09b.png,object_08b.png,object_08b.png,,0.3783783783783784,1,,,,,,,,,,,
3134.2999999523163,,directmemory_phase3,649200,,,,,,,,object_10c.png,,,49,,,1,,object_10a.png,object_06c.png,object_11c.png,object_10a.png,,0.39473684210526316,1,,,,,,,,,,,
3358.1999999284744,,directmemory_phase3,652559,,,,,,,,object_08a.png,,,50,,,1,,object_15a.png,object_06c.png,object_10a.png,object_06c.png,,0.41025641025641024,1,,,,,,,,,,,
3342.5,,directmemory_phase3,655903,,,,,,,,object_03b.png,,,49,,,1,,object_09c.png,object_08b.png,object_11c.png,object_09c.png,,0.425,1,,,,,,,,,,,
2719,,directmemory_phase3,658623,,,,,,,,object_09b.png,,,49,,,0,,object_08a.png,object_11a.png,object_09c.png,object_11a.png,,0.4146341463414634,0,,,,,,,,,,,
3519.100000023842,,directmemory_phase3,662144,,,,,,,,object_10b.png,,,49,,,1,,object_01a.png,object_12a.png,object_13a.png,object_01a.png,,0.42857142857142855,1,,,,,,,,,,,
3087,,directmemory_phase3,665232,,,,,,,,object_13a.png,,,51,,,0,,object_10b.png,object_01c.png,object_06c.png,object_01c.png,,0.4186046511627907,0,,,,,,,,,,,
3133.7000000476837,,directmemory_phase3,668367,,,,,,,,object_05b.png,,,51,,,0,,object_09a.png,object_13b.png,object_04a.png,object_13b.png,,0.4090909090909091,0,,,,,,,,,,,
1918.8999999761581,,directmemory_phase3,670288,,,,,,,,object_11c.png,,,49,,,1,,object_02c.png,object_12a.png,object_08a.png,object_02c.png,,0.4222222222222222,1,,,,,,,,,,,
null,,thebreak,670391,,,,,,,,<p></p>,,,null,,,,,,,,,,,,,,,,,,,,,,
1656.5,,intro_0,672048,,,,,,,,instruct,,,32,,,,,,,,,,,,,,,,,,,,,,
null,,learn_phase(without_color)4,675563,,,,,,,,black_plus_sign,,,null,object_04a.png,object_05c.png,,,,,,,,,,,,,,,,,,,,
null,,black_cross(without_color)4,676130,,,,,,,,green,,,null,object_04a.png,object_05c.png,,,,,,,,,,,,,,,,,,,,
null,,rt_plussign_withcolor4,676635,,,,,,,,green,,,null,object_04a.png,object_05c.png,,,,,,,,,,,,,,,,,,,,
1275.3999999761581,,rt_thecrossant_black4,678088,,,,,,,,black_plus_sign,,,50,,,1,,,,,,,1,,,,,,,,,,,,
null,,color_black4,678196,,,,,,,,black_plus_sign,,,null,,,,,,,,,,,,,,,,,,,,,,
null,,learn_phase(without_color)4,681712,,,,,,,,black_plus_sign,,,null,object_07b.png,object_14a.png,,,,,,,,,,,,,,,,,,,,
null,,black_cross(without_color)4,682186,,,,,,,,green,,,null,object_07b.png,object_14a.png,,,,,,,,,,,,,,,,,,,,
null,,rt_plussign_withcolor4,682688,,,,,,,,green,,,null,object_07b.png,object_14a.png,,,,,,,,,,,,,,,,,,,,
1077.3000000715256,,rt_thecrossant_black4,684235,,,,,,,,black_plus_sign,,,50,,,1,,,,,,,1,,,,,,,,,,,,
null,,color_black4,684345,,,,,,,,black_plus_sign,,,null,,,,,,,,,,,,,,,,,,,,,,
null,,learn_phase(without_color)4,687852,,,,,,,,black_plus_sign,,,null,object_13a.png,object_01c.png,,,,,,,,,,,,,,,,,,,,
null,,black_cross(without_color)4,688420,,,,,,,,green,,,null,object_13a.png,object_01c.png,,,,,,,,,,,,,,,,,,,,
null,,rt_plussign_withcolor4,688922,,,,,,,,green,,,null,object_13a.png,object_01c.png,,,,,,,,,,,,,,,,,,,,
690,,rt_thecrossant_black4,690369,,,,,,,,black_plus_sign,,,50,,,1,,,,,,,1,,,,,,,,,,,,
null,,color_black4,690479,,,,,,,,black_plus_sign,,,null,,,,,,,,,,,,,,,,,,,,,,
null,,learn_phase(without_color)4,693987,,,,,,,,black_plus_sign,,,null,object_03b.png,object_09c.png,,,,,,,,,,,,,,,,,,,,
null,,black_cross(without_color)4,694884,,,,,,,,blue,,,null,object_03b.png,object_09c.png,,,,,,,,,,,,,,,,,,,,
null,,rt_plussign_withcolor4,695386,,,,,,,,blue,,,null,object_03b.png,object_09c.png,,,,,,,,,,,,,,,,,,,,
1228,,rt_thecrossant_black4,696503,,,,,,,,black_plus_sign,,,49,,,1,,,,,,,1,,,,,,,,,,,,
null,,color_black4,696614,,,,,,,,black_plus_sign,,,null,,,,,,,,,,,,,,,,,,,,,,
null,,learn_phase(without_color)4,700127,,,,,,,,black_plus_sign,,,null,object_03c.png,object_05a.png,,,,,,,,,,,,,,,,,,,,
null,,black_cross(without_color)4,701008,,,,,,,,blue,,,null,object_03c.png,object_05a.png,,,,,,,,,,,,,,,,,,,,
null,,rt_plussign_withcolor4,701513,,,,,,,,blue,,,null,object_03c.png,object_05a.png,,,,,,,,,,,,,,,,,,,,
1266.6999999284744,,rt_thecrossant_black4,702661,,,,,,,,black_plus_sign,,,49,,,1,,,,,,,1,,,,,,,,,,,,
null,,color_black4,702771,,,,,,,,black_plus_sign,,,null,,,,,,,,,,,,,,,,,,,,,,
null,,learn_phase(without_color)4,706274,,,,,,,,black_plus_sign,,,null,object_11c.png,object_02c.png,,,,,,,,,,,,,,,,,,,,
null,,black_cross(without_color)4,707125,,,,,,,,blue,,,null,object_11c.png,object_02c.png,,,,,,,,,,,,,,,,,,,,
null,,rt_plussign_withcolor4,707630,,,,,,,,blue,,,null,object_11c.png,object_02c.png,,,,,,,,,,,,,,,,,,,,
1320,,rt_thecrossant_black4,708796,,,,,,,,black_plus_sign,,,49,,,1,,,,,,,1,,,,,,,,,,,,
null,,color_black4,708906,,,,,,,,black_plus_sign,,,null,,,,,,,,,,,,,,,,,,,,,,
null,,learn_phase(without_color)4,712415,,,,,,,,black_plus_sign,,,null,object_10a.png,object_10c.png,,,,,,,,,,,,,,,,,,,,
null,,black_cross(without_color)4,713229,,,,,,,,green,,,null,object_10a.png,object_10c.png,,,,,,,,,,,,,,,,,,,,
null,,rt_plussign_withcolor4,713735,,,,,,,,green,,,null,object_10a.png,object_10c.png,,,,,,,,,,,,,,,,,,,,
1314.0999999046326,,rt_thecrossant_black4,714951,,,,,,,,black_plus_sign,,,50,,,1,,,,,,,1,,,,,,,,,,,,
null,,color_black4,715063,,,,,,,,black_plus_sign,,,null,,,,,,,,,,,,,,,,,,,,,,
null,,learn_phase(without_color)4,718570,,,,,,,,black_plus_sign,,,null,object_15a.png,object_06a.png,,,,,,,,,,,,,,,,,,,,
null,,black_cross(without_color)4,719201,,,,,,,,green,,,null,object_15a.png,object_06a.png,,,,,,,,,,,,,,,,,,,,
null,,rt_plussign_withcolor4,719703,,,,,,,,green,,,null,object_15a.png,object_06a.png,,,,,,,,,,,,,,,,,,,,
1163.1000000238419,,rt_thecrossant_black4,721083,,,,,,,,black_plus_sign,,,50,,,1,,,,,,,1,,,,,,,,,,,,
null,,color_black4,721191,,,,,,,,black_plus_sign,,,null,,,,,,,,,,,,,,,,,,,,,,
null,,learn_phase(without_color)4,724706,,,,,,,,black_plus_sign,,,null,object_06c.png,object_08a.png,,,,,,,,,,,,,,,,,,,,
null,,black_cross(without_color)4,725272,,,,,,,,blue,,,null,object_06c.png,object_08a.png,,,,,,,,,,,,,,,,,,,,
null,,rt_plussign_withcolor4,725783,,,,,,,,blue,,,null,object_06c.png,object_08a.png,,,,,,,,,,,,,,,,,,,,
null,,rt_thecrossant_black4,727228,,,,,,,,black_plus_sign,,,null,,,,,,,,,,1,,,,,,,,,,,,
null,,color_black4,727337,,,,,,,,black_plus_sign,,,null,,,,,,,,,,,,,,,,,,,,,,
null,,learn_phase(without_color)4,730841,,,,,,,,black_plus_sign,,,null,object_11b.png,object_15c.png,,,,,,,,,,,,,,,,,,,,
null,,black_cross(without_color)4,731409,,,,,,,,green,,,null,object_11b.png,object_15c.png,,,,,,,,,,,,,,,,,,,,
null,,rt_plussign_withcolor4,731910,,,,,,,,green,,,null,object_11b.png,object_15c.png,,,,,,,,,,,,,,,,,,,,
895.2000000476837,,rt_thecrossant_black4,733359,,,,,,,,black_plus_sign,,,50,,,1,,,,,,,1,,,,,,,,,,,,
null,,color_black4,733470,,,,,,,,black_plus_sign,,,null,,,,,,,,,,,,,,,,,,,,,,
null,,learn_phase(without_color)4,736982,,,,,,,,black_plus_sign,,,null,object_11a.png,object_09b.png,,,,,,,,,,,,,,,,,,,,
null,,black_cross(without_color)4,737844,,,,,,,,green,,,null,object_11a.png,object_09b.png,,,,,,,,,,,,,,,,,,,,
null,,rt_plussign_withcolor4,738359,,,,,,,,green,,,null,object_11a.png,object_09b.png,,,,,,,,,,,,,,,,,,,,
841.3999999761581,,rt_thecrossant_black4,739524,,,,,,,,black_plus_sign,,,50,,,1,,,,,,,1,,,,,,,,,,,,
null,,color_black4,739633,,,,,,,,black_plus_sign,,,null,,,,,,,,,,,,,,,,,,,,,,
null,,learn_phase(without_color)4,743147,,,,,,,,black_plus_sign,,,null,object_01a.png,object_10b.png,,,,,,,,,,,,,,,,,,,,
null,,black_cross(without_color)4,744138,,,,,,,,green,,,null,object_01a.png,object_10b.png,,,,,,,,,,,,,,,,,,,,
null,,rt_plussign_withcolor4,744640,,,,,,,,green,,,null,object_01a.png,object_10b.png,,,,,,,,,,,,,,,,,,,,
1253.2999999523163,,rt_thecrossant_black4,745680,,,,,,,,black_plus_sign,,,50,,,1,,,,,,,1,,,,,,,,,,,,
null,,color_black4,745790,,,,,,,,black_plus_sign,,,null,,,,,,,,,,,,,,,,,,,,,,
null,,learn_phase(without_color)4,749292,,,,,,,,black_plus_sign,,,null,object_13b.png,object_05b.png,,,,,,,,,,,,,,,,,,,,
null,,black_cross(without_color)4,749952,,,,,,,,blue,,,null,object_13b.png,object_05b.png,,,,,,,,,,,,,,,,,,,,
null,,rt_plussign_withcolor4,750457,,,,,,,,blue,,,null,object_13b.png,object_05b.png,,,,,,,,,,,,,,,,,,,,
1629.3999999761581,,rt_thecrossant_black4,751825,,,,,,,,black_plus_sign,,,49,,,1,,,,,,,1,,,,,,,,,,,,
null,,color_black4,751934,,,,,,,,black_plus_sign,,,null,,,,,,,,,,,,,,,,,,,,,,
null,,learn_phase(without_color)4,755447,,,,,,,,black_plus_sign,,,null,object_09a.png,object_08b.png,,,,,,,,,,,,,,,,,,,,
null,,black_cross(without_color)4,756187,,,,,,,,blue,,,null,object_09a.png,object_08b.png,,,,,,,,,,,,,,,,,,,,
null,,rt_plussign_withcolor4,756690,,,,,,,,blue,,,null,object_09a.png,object_08b.png,,,,,,,,,,,,,,,,,,,,
1270.3999999761581,,rt_thecrossant_black4,757962,,,,,,,,black_plus_sign,,,49,,,1,,,,,,,1,,,,,,,,,,,,
null,,color_black4,758071,,,,,,,,black_plus_sign,,,null,,,,,,,,,,,,,,,,,,,,,,
null,,learn_phase(without_color)4,761577,,,,,,,,black_plus_sign,,,null,object_12a.png,object_04c.png,,,,,,,,,,,,,,,,,,,,
null,,black_cross(without_color)4,762188,,,,,,,,blue,,,null,object_12a.png,object_04c.png,,,,,,,,,,,,,,,,,,,,
null,,rt_plussign_withcolor4,762694,,,,,,,,blue,,,null,object_12a.png,object_04c.png,,,,,,,,,,,,,,,,,,,,
1231.2999999523163,,rt_thecrossant_black4,764096,,,,,,,,black_plus_sign,,,49,,,1,,,,,,,1,,,,,,,,,,,,
null,,color_black4,764205,,,,,,,,black_plus_sign,,,null,,,,,,,,,,,,,,,,,,,,,,
null,,thebreak,764314,,,,,,,,<p></p>,,,null,,,,,,,,,,,,,,,,,,,,,,
1926.6000000238419,,intro_0,766242,,,,,,,,instruct,,,32,,,,,,,,,,,,,,,,,,,,,,
2176.3000000715256,,directmemory_phase4,768419,,,,,,,,object_08a.png,,,49,,,1,,object_06c.png,object_15c.png,object_13a.png,object_06c.png,,0.43478260869565216,1,,,,,,,,,,,
4029.7000000476837,,directmemory_phase4,772450,,,,,,,,object_09b.png,,,51,,,0,,object_08a.png,object_11a.png,object_13b.png,object_11a.png,,0.425531914893617,0,,,,,,,,,,,
1774.7000000476837,,directmemory_phase4,774226,,,,,,,,object_09a.png,,,50,,,1,,object_10c.png,object_08b.png,object_06a.png,object_08b.png,,0.4375,1,,,,,,,,,,,
2559,,directmemory_phase4,776786,,,,,,,,object_13a.png,,,51,,,1,,object_10a.png,object_04c.png,object_01c.png,object_01c.png,,0.4489795918367347,1,,,,,,,,,,,
1839,,directmemory_phase4,778626,,,,,,,,object_15a.png,,,49,,,0,,object_12a.png,object_05b.png,object_06a.png,object_06a.png,,0.44,0,,,,,,,,,,,
2511.5,,directmemory_phase4,781139,,,,,,,,object_11b.png,,,50,,,1,,object_04c.png,object_15c.png,object_13b.png,object_15c.png,,0.45098039215686275,1,,,,,,,,,,,
2046,,directmemory_phase4,783186,,,,,,,,object_14a.png,,,49,,,1,,object_07b.png,object_01a.png,object_03b.png,object_07b.png,,0.46153846153846156,1,,,,,,,,,,,
2655.8000000715256,,directmemory_phase4,785843,,,,,,,,object_05c.png,,,51,,,1,,object_09c.png,object_10c.png,object_04a.png,object_04a.png,,0.4716981132075472,1,,,,,,,,,,,
2095,,directmemory_phase4,787939,,,,,,,,object_10b.png,,,51,,,1,,object_06a.png,object_15a.png,object_01a.png,object_01a.png,,0.48148148148148145,1,,,,,,,,,,,
3262,,directmemory_phase4,791203,,,,,,,,object_10c.png,,,50,,,0,,object_01a.png,object_09a.png,object_10a.png,object_10a.png,,0.4727272727272727,0,,,,,,,,,,,
2863.2000000476837,,directmemory_phase4,794067,,,,,,,,object_05b.png,,,49,,,1,,object_13b.png,object_08b.png,object_13a.png,object_13b.png,,0.48214285714285715,1,,,,,,,,,,,
2862.100000023842,,directmemory_phase4,796931,,,,,,,,object_04c.png,,,50,,,0,,object_11a.png,object_11b.png,object_12a.png,object_12a.png,,0.47368421052631576,0,,,,,,,,,,,
2863.2000000476837,,directmemory_phase4,799795,,,,,,,,object_03b.png,,,51,,,0,,object_09c.png,object_01c.png,object_09b.png,object_09c.png,,0.46551724137931033,0,,,,,,,,,,,
2591,,directmemory_phase4,802387,,,,,,,,object_03c.png,,,49,,,1,,object_05a.png,object_08b.png,object_11b.png,object_05a.png,,0.4745762711864407,1,,,,,,,,,,,
1550.3999999761581,,directmemory_phase4,803939,,,,,,,,object_11c.png,,,49,,,1,,object_02c.png,object_06a.png,object_08a.png,object_02c.png,,0.48333333333333334,1,,,,,,,,,,,
null,,thebreak,804043,,,,,,,,<p></p>,,,null,,,,,,,,,,,,,,,,,,,,,,
1767.3999999761581,,intro_0,805811,,,,,,,,instruct,,,32,,,,,,,,,,,,,,,,,,,,,,
null,,learn_phase(without_color)5,809320,,,,,,,,black_plus_sign,,,null,object_08c.png,object_10a.png,,,,,,,,,,,,,,,,,,,,
null,,black_cross(without_color)5,809917,,,,,,,,green,,,null,object_08c.png,object_10a.png,,,,,,,,,,,,,,,,,,,,
null,,rt_plussign_withcolor5,810424,,,,,,,,green,,,null,object_08c.png,object_10a.png,,,,,,,,,,,,,,,,,,,,
1814.3000000715256,,rt_thecrossant_black5,811852,,,,,,,,black_plus_sign,,,50,,,1,,,,,,,1,,,,,,,,,,,,
null,,color_black5,811964,,,,,,,,black_plus_sign,,,null,,,,,,,,,,,,,,,,,,,,,,
null,,learn_phase(without_color)5,815475,,,,,,,,black_plus_sign,,,null,object_11a.png,object_15b.png,,,,,,,,,,,,,,,,,,,,
null,,black_cross(without_color)5,816292,,,,,,,,green,,,null,object_11a.png,object_15b.png,,,,,,,,,,,,,,,,,,,,
null,,rt_plussign_withcolor5,816795,,,,,,,,green,,,null,object_11a.png,object_15b.png,,,,,,,,,,,,,,,,,,,,
1076.3999999761581,,rt_thecrossant_black5,817990,,,,,,,,black_plus_sign,,,50,,,1,,,,,,,1,,,,,,,,,,,,
null,,color_black5,818099,,,,,,,,black_plus_sign,,,null,,,,,,,,,,,,,,,,,,,,,,
null,,learn_phase(without_color)5,821614,,,,,,,,black_plus_sign,,,null,object_04b.png,object_07b.png,,,,,,,,,,,,,,,,,,,,
null,,black_cross(without_color)5,822292,,,,,,,,blue,,,null,object_04b.png,object_07b.png,,,,,,,,,,,,,,,,,,,,
null,,rt_plussign_withcolor5,822798,,,,,,,,blue,,,null,object_04b.png,object_07b.png,,,,,,,,,,,,,,,,,,,,
1399.3999999761581,,rt_thecrossant_black5,824149,,,,,,,,black_plus_sign,,,49,,,1,,,,,,,1,,,,,,,,,,,,
null,,color_black5,824258,,,,,,,,black_plus_sign,,,null,,,,,,,,,,,,,,,,,,,,,,
null,,learn_phase(without_color)5,827774,,,,,,,,black_plus_sign,,,null,object_14c.png,object_01c.png,,,,,,,,,,,,,,,,,,,,
null,,black_cross(without_color)5,828468,,,,,,,,green,,,null,object_14c.png,object_01c.png,,,,,,,,,,,,,,,,,,,,
null,,rt_plussign_withcolor5,828972,,,,,,,,green,,,null,object_14c.png,object_01c.png,,,,,,,,,,,,,,,,,,,,
1138.6999999284744,,rt_thecrossant_black5,830307,,,,,,,,black_plus_sign,,,50,,,1,,,,,,,1,,,,,,,,,,,,
null,,color_black5,830417,,,,,,,,black_plus_sign,,,null,,,,,,,,,,,,,,,,,,,,,,
null,,learn_phase(without_color)5,833931,,,,,,,,black_plus_sign,,,null,object_14b.png,object_01a.png,,,,,,,,,,,,,,,,,,,,
null,,black_cross(without_color)5,834841,,,,,,,,blue,,,null,object_14b.png,object_01a.png,,,,,,,,,,,,,,,,,,,,
null,,rt_plussign_withcolor5,835349,,,,,,,,blue,,,null,object_14b.png,object_01a.png,,,,,,,,,,,,,,,,,,,,
1130.7999999523163,,rt_thecrossant_black5,836465,,,,,,,,black_plus_sign,,,49,,,1,,,,,,,1,,,,,,,,,,,,
null,,color_black5,836573,,,,,,,,black_plus_sign,,,null,,,,,,,,,,,,,,,,,,,,,,
null,,learn_phase(without_color)5,840087,,,,,,,,black_plus_sign,,,null,object_12b.png,object_02c.png,,,,,,,,,,,,,,,,,,,,
null,,black_cross(without_color)5,840970,,,,,,,,blue,,,null,object_12b.png,object_02c.png,,,,,,,,,,,,,,,,,,,,
null,,rt_plussign_withcolor5,841472,,,,,,,,blue,,,null,object_12b.png,object_02c.png,,,,,,,,,,,,,,,,,,,,
1445.3999999761581,,rt_thecrossant_black5,842616,,,,,,,,black_plus_sign,,,49,,,1,,,,,,,1,,,,,,,,,,,,
null,,color_black5,842726,,,,,,,,black_plus_sign,,,null,,,,,,,,,,,,,,,,,,,,,,
null,,learn_phase(without_color)5,846238,,,,,,,,black_plus_sign,,,null,object_12a.png,object_13c.png,,,,,,,,,,,,,,,,,,,,
null,,black_cross(without_color)5,846946,,,,,,,,green,,,null,object_12a.png,object_13c.png,,,,,,,,,,,,,,,,,,,,
null,,rt_plussign_withcolor5,847449,,,,,,,,green,,,null,object_12a.png,object_13c.png,,,,,,,,,,,,,,,,,,,,
1811.3999999761581,,rt_thecrossant_black5,848768,,,,,,,,black_plus_sign,,,50,,,1,,,,,,,1,,,,,,,,,,,,
null,,color_black5,848878,,,,,,,,black_plus_sign,,,null,,,,,,,,,,,,,,,,,,,,,,
null,,learn_phase(without_color)5,852379,,,,,,,,black_plus_sign,,,null,object_03a.png,object_13b.png,,,,,,,,,,,,,,,,,,,,
null,,black_cross(without_color)5,853293,,,,,,,,blue,,,null,object_03a.png,object_13b.png,,,,,,,,,,,,,,,,,,,,
null,,rt_plussign_withcolor5,853796,,,,,,,,blue,,,null,object_03a.png,object_13b.png,,,,,,,,,,,,,,,,,,,,
1207.6000000238419,,rt_thecrossant_black5,854908,,,,,,,,black_plus_sign,,,49,,,1,,,,,,,1,,,,,,,,,,,,
null,,color_black5,855019,,,,,,,,black_plus_sign,,,null,,,,,,,,,,,,,,,,,,,,,,
null,,learn_phase(without_color)5,858530,,,,,,,,black_plus_sign,,,null,object_15c.png,object_07a.png,,,,,,,,,,,,,,,,,,,,
null,,black_cross(without_color)5,859001,,,,,,,,blue,,,null,object_15c.png,object_07a.png,,,,,,,,,,,,,,,,,,,,
null,,rt_plussign_withcolor5,859506,,,,,,,,blue,,,null,object_15c.png,object_07a.png,,,,,,,,,,,,,,,,,,,,
1388.7999999523163,,rt_thecrossant_black5,861048,,,,,,,,black_plus_sign,,,49,,,1,,,,,,,1,,,,,,,,,,,,
null,,color_black5,861157,,,,,,,,black_plus_sign,,,null,,,,,,,,,,,,,,,,,,,,,,
null,,learn_phase(without_color)5,864661,,,,,,,,black_plus_sign,,,null,object_06c.png,object_02b.png,,,,,,,,,,,,,,,,,,,,
null,,black_cross(without_color)5,865748,,,,,,,,green,,,null,object_06c.png,object_02b.png,,,,,,,,,,,,,,,,,,,,
null,,rt_plussign_withcolor5,866265,,,,,,,,green,,,null,object_06c.png,object_02b.png,,,,,,,,,,,,,,,,,,,,
1213.3999999761581,,rt_thecrossant_black5,867209,,,,,,,,black_plus_sign,,,50,,,1,,,,,,,1,,,,,,,,,,,,
null,,color_black5,867318,,,,,,,,black_plus_sign,,,null,,,,,,,,,,,,,,,,,,,,,,
null,,learn_phase(without_color)5,870829,,,,,,,,black_plus_sign,,,null,object_08b.png,object_02a.png,,,,,,,,,,,,,,,,,,,,
null,,black_cross(without_color)5,871271,,,,,,,,green,,,null,object_08b.png,object_02a.png,,,,,,,,,,,,,,,,,,,,
null,,rt_plussign_withcolor5,871777,,,,,,,,green,,,null,object_08b.png,object_02a.png,,,,,,,,,,,,,,,,,,,,
1558,,rt_thecrossant_black5,873366,,,,,,,,black_plus_sign,,,50,,,1,,,,,,,1,,,,,,,,,,,,
null,,color_black5,873477,,,,,,,,black_plus_sign,,,null,,,,,,,,,,,,,,,,,,,,,,
null,,learn_phase(without_color)5,876981,,,,,,,,black_plus_sign,,,null,object_04a.png,object_06b.png,,,,,,,,,,,,,,,,,,,,
null,,black_cross(without_color)5,877498,,,,,,,,green,,,null,object_04a.png,object_06b.png,,,,,,,,,,,,,,,,,,,,
null,,rt_plussign_withcolor5,878005,,,,,,,,green,,,null,object_04a.png,object_06b.png,,,,,,,,,,,,,,,,,,,,
750.2000000476837,,rt_thecrossant_black5,879502,,,,,,,,black_plus_sign,,,50,,,1,,,,,,,1,,,,,,,,,,,,
null,,color_black5,879611,,,,,,,,black_plus_sign,,,null,,,,,,,,,,,,,,,,,,,,,,
null,,learn_phase(without_color)5,883120,,,,,,,,black_plus_sign,,,null,object_12c.png,object_05a.png,,,,,,,,,,,,,,,,,,,,
null,,black_cross(without_color)5,884159,,,,,,,,blue,,,null,object_12c.png,object_05a.png,,,,,,,,,,,,,,,,,,,,
null,,rt_plussign_withcolor5,884661,,,,,,,,blue,,,null,object_12c.png,object_05a.png,,,,,,,,,,,,,,,,,,,,
930.5,,rt_thecrossant_black5,885641,,,,,,,,black_plus_sign,,,49,,,1,,,,,,,1,,,,,,,,,,,,
null,,color_black5,885752,,,,,,,,black_plus_sign,,,null,,,,,,,,,,,,,,,,,,,,,,
null,,learn_phase(without_color)5,889268,,,,,,,,black_plus_sign,,,null,object_06a.png,object_07c.png,,,,,,,,,,,,,,,,,,,,
null,,black_cross(without_color)5,890024,,,,,,,,blue,,,null,object_06a.png,object_07c.png,,,,,,,,,,,,,,,,,,,,
null,,rt_plussign_withcolor5,890529,,,,,,,,blue,,,null,object_06a.png,object_07c.png,,,,,,,,,,,,,,,,,,,,
1382.6999999284744,,rt_thecrossant_black5,891785,,,,,,,,black_plus_sign,,,49,,,1,,,,,,,1,,,,,,,,,,,,
null,,color_black5,891895,,,,,,,,black_plus_sign,,,null,,,,,,,,,,,,,,,,,,,,,,
null,,learn_phase(without_color)5,895403,,,,,,,,black_plus_sign,,,null,object_09c.png,object_01b.png,,,,,,,,,,,,,,,,,,,,
null,,black_cross(without_color)5,896373,,,,,,,,blue,,,null,object_09c.png,object_01b.png,,,,,,,,,,,,,,,,,,,,
null,,rt_plussign_withcolor5,896887,,,,,,,,blue,,,null,object_09c.png,object_01b.png,,,,,,,,,,,,,,,,,,,,
1300.6999999284744,,rt_thecrossant_black5,897924,,,,,,,,black_plus_sign,,,49,,,1,,,,,,,1,,,,,,,,,,,,
null,,color_black5,898035,,,,,,,,black_plus_sign,,,null,,,,,,,,,,,,,,,,,,,,,,
null,,thebreak,898145,,,,,,,,<p></p>,,,null,,,,,,,,,,,,,,,,,,,,,,
1619.6000000238419,,intro_0,899765,,,,,,,,instruct,,,32,,,,,,,,,,,,,,,,,,,,,,
2303.600000023842,,directmemory_phase5,902070,,,,,,,,object_08c.png,,,49,,,1,,object_10a.png,object_02c.png,object_06b.png,object_10a.png,,0.4918032786885246,1,,,,,,,,,,,
2654.399999976158,,directmemory_phase5,904726,,,,,,,,object_07a.png,,,51,,,0,,object_07c.png,object_15c.png,object_06c.png,object_15c.png,,0.4838709677419355,0,,,,,,,,,,,
2782.600000023842,,directmemory_phase5,907510,,,,,,,,object_13b.png,,,49,,,0,,object_06b.png,object_12a.png,object_03a.png,object_03a.png,,0.47619047619047616,0,,,,,,,,,,,
2942.7000000476837,,directmemory_phase5,910454,,,,,,,,object_12c.png,,,49,,,1,,object_05a.png,object_02c.png,object_14b.png,object_05a.png,,0.484375,1,,,,,,,,,,,
3134.7999999523163,,directmemory_phase5,913590,,,,,,,,object_09c.png,,,49,,,0,,object_12b.png,object_13b.png,object_01b.png,object_01b.png,,0.47692307692307695,0,,,,,,,,,,,
2942.1999999284744,,directmemory_phase5,916534,,,,,,,,object_12a.png,,,51,,,1,,object_02b.png,object_02c.png,object_13c.png,object_13c.png,,0.48484848484848486,1,,,,,,,,,,,
2734.899999976158,,directmemory_phase5,919270,,,,,,,,object_08b.png,,,49,,,0,,object_03a.png,object_13b.png,object_02a.png,object_02a.png,,0.47761194029850745,0,,,,,,,,,,,
2702.8000000715256,,directmemory_phase5,921974,,,,,,,,object_01c.png,,,50,,,0,,object_12b.png,object_15c.png,object_14c.png,object_14c.png,,0.47058823529411764,0,,,,,,,,,,,
2191.100000023842,,directmemory_phase5,924166,,,,,,,,object_07c.png,,,50,,,1,,object_08c.png,object_06a.png,object_09c.png,object_06a.png,,0.4782608695652174,1,,,,,,,,,,,
2670.2999999523163,,directmemory_phase5,926838,,,,,,,,object_07b.png,,,49,,,0,,object_12a.png,object_04b.png,object_15b.png,object_04b.png,,0.4714285714285714,0,,,,,,,,,,,
2286.600000023842,,directmemory_phase5,929126,,,,,,,,object_02b.png,,,50,,,1,,object_12c.png,object_06c.png,object_05a.png,object_06c.png,,0.4788732394366197,1,,,,,,,,,,,
2910.5,,directmemory_phase5,932038,,,,,,,,object_04a.png,,,50,,,1,,object_06a.png,object_06b.png,object_13c.png,object_06b.png,,0.4861111111111111,1,,,,,,,,,,,
2639,,directmemory_phase5,934678,,,,,,,,object_15b.png,,,50,,,0,,object_06c.png,object_08c.png,object_11a.png,object_11a.png,,0.4794520547945205,0,,,,,,,,,,,
2830.5,,directmemory_phase5,937510,,,,,,,,object_14b.png,,,51,,,1,,object_05a.png,object_12c.png,object_01a.png,object_01a.png,,0.4864864864864865,1,,,,,,,,,,,
2686.7000000476837,,directmemory_phase5,940198,,,,,,,,object_02c.png,,,50,,,1,,object_06a.png,object_12b.png,object_14b.png,object_12b.png,,0.49333333333333335,1,,,,,,,,,,,
null,,thebreak,940314,,,,,,,,<p></p>,,,null,,,,,,,,,,,,,,,,,,,,,,
1931.9000000953674,,intro_0,942247,,,,,,,,instruct,,,32,,,,,,,,,,,,,,,,,,,,,,
null,,learn_phase(without_color)6,945756,,,,,,,,black_plus_sign,,,null,object_07b.png,object_04b.png,,,,,,,,,,,,,,,,,,,,
null,,black_cross(without_color)6,946278,,,,,,,,blue,,,null,object_07b.png,object_04b.png,,,,,,,,,,,,,,,,,,,,
null,,rt_plussign_withcolor6,946782,,,,,,,,blue,,,null,object_07b.png,object_04b.png,,,,,,,,,,,,,,,,,,,,
940.7000000476837,,rt_thecrossant_black6,948276,,,,,,,,black_plus_sign,,,49,,,1,,,,,,,1,,,,,,,,,,,,
null,,color_black6,948386,,,,,,,,black_plus_sign,,,null,,,,,,,,,,,,,,,,,,,,,,
null,,learn_phase(without_color)6,951903,,,,,,,,black_plus_sign,,,null,object_02b.png,object_06c.png,,,,,,,,,,,,,,,,,,,,
null,,black_cross(without_color)6,952735,,,,,,,,green,,,null,object_02b.png,object_06c.png,,,,,,,,,,,,,,,,,,,,
null,,rt_plussign_withcolor6,953247,,,,,,,,green,,,null,object_02b.png,object_06c.png,,,,,,,,,,,,,,,,,,,,
1260.4000000953674,,rt_thecrossant_black6,954425,,,,,,,,black_plus_sign,,,50,,,1,,,,,,,1,,,,,,,,,,,,
null,,color_black6,954537,,,,,,,,black_plus_sign,,,null,,,,,,,,,,,,,,,,,,,,,,
null,,learn_phase(without_color)6,958041,,,,,,,,black_plus_sign,,,null,object_08b.png,object_02a.png,,,,,,,,,,,,,,,,,,,,
null,,black_cross(without_color)6,958751,,,,,,,,green,,,null,object_08b.png,object_02a.png,,,,,,,,,,,,,,,,,,,,
null,,rt_plussign_withcolor6,959254,,,,,,,,green,,,null,object_08b.png,object_02a.png,,,,,,,,,,,,,,,,,,,,
1279.3999999761581,,rt_thecrossant_black6,960558,,,,,,,,black_plus_sign,,,50,,,1,,,,,,,1,,,,,,,,,,,,
null,,color_black6,960668,,,,,,,,black_plus_sign,,,null,,,,,,,,,,,,,,,,,,,,,,
null,,learn_phase(without_color)6,964178,,,,,,,,black_plus_sign,,,null,object_15b.png,object_11a.png,,,,,,,,,,,,,,,,,,,,
null,,black_cross(without_color)6,965186,,,,,,,,green,,,null,object_15b.png,object_11a.png,,,,,,,,,,,,,,,,,,,,
null,,rt_plussign_withcolor6,965692,,,,,,,,green,,,null,object_15b.png,object_11a.png,,,,,,,,,,,,,,,,,,,,
1314.1999999284744,,rt_thecrossant_black6,966699,,,,,,,,black_plus_sign,,,50,,,1,,,,,,,1,,,,,,,,,,,,
null,,color_black6,966807,,,,,,,,black_plus_sign,,,null,,,,,,,,,,,,,,,,,,,,,,
null,,learn_phase(without_color)6,970319,,,,,,,,black_plus_sign,,,null,object_07c.png,object_06a.png,,,,,,,,,,,,,,,,,,,,
null,,black_cross(without_color)6,970869,,,,,,,,blue,,,null,object_07c.png,object_06a.png,,,,,,,,,,,,,,,,,,,,
null,,rt_plussign_withcolor6,971371,,,,,,,,blue,,,null,object_07c.png,object_06a.png,,,,,,,,,,,,,,,,,,,,
1581,,rt_thecrossant_black6,972851,,,,,,,,black_plus_sign,,,49,,,1,,,,,,,1,,,,,,,,,,,,
null,,color_black6,972960,,,,,,,,black_plus_sign,,,null,,,,,,,,,,,,,,,,,,,,,,
null,,learn_phase(without_color)6,976473,,,,,,,,black_plus_sign,,,null,object_05a.png,object_12c.png,,,,,,,,,,,,,,,,,,,,
null,,black_cross(without_color)6,976900,,,,,,,,blue,,,null,object_05a.png,object_12c.png,,,,,,,,,,,,,,,,,,,,
null,,rt_plussign_withcolor6,977407,,,,,,,,blue,,,null,object_05a.png,object_12c.png,,,,,,,,,,,,,,,,,,,,
1043.6000000238419,,rt_thecrossant_black6,978993,,,,,,,,black_plus_sign,,,49,,,1,,,,,,,1,,,,,,,,,,,,
null,,color_black6,979103,,,,,,,,black_plus_sign,,,null,,,,,,,,,,,,,,,,,,,,,,
null,,learn_phase(without_color)6,982613,,,,,,,,black_plus_sign,,,null,object_12b.png,object_02c.png,,,,,,,,,,,,,,,,,,,,
null,,black_cross(without_color)6,983464,,,,,,,,blue,,,null,object_12b.png,object_02c.png,,,,,,,,,,,,,,,,,,,,
null,,rt_plussign_withcolor6,983981,,,,,,,,blue,,,null,object_12b.png,object_02c.png,,,,,,,,,,,,,,,,,,,,
1060.8000000715256,,rt_thecrossant_black6,985149,,,,,,,,black_plus_sign,,,49,,,1,,,,,,,1,,,,,,,,,,,,
null,,color_black6,985258,,,,,,,,black_plus_sign,,,null,,,,,,,,,,,,,,,,,,,,,,
null,,learn_phase(without_color)6,988770,,,,,,,,black_plus_sign,,,null,object_01b.png,object_09c.png,,,,,,,,,,,,,,,,,,,,
null,,black_cross(without_color)6,989351,,,,,,,,blue,,,null,object_01b.png,object_09c.png,,,,,,,,,,,,,,,,,,,,
null,,rt_plussign_withcolor6,989855,,,,,,,,blue,,,null,object_01b.png,object_09c.png,,,,,,,,,,,,,,,,,,,,
null,,rt_thecrossant_black6,991287,,,,,,,,black_plus_sign,,,null,,,,,,,,,,1,,,,,,,,,,,,
null,,color_black6,991397,,,,,,,,black_plus_sign,,,null,,,,,,,,,,,,,,,,,,,,,,
null,,learn_phase(without_color)6,994901,,,,,,,,black_plus_sign,,,null,object_14c.png,object_01c.png,,,,,,,,,,,,,,,,,,,,
null,,black_cross(without_color)6,995546,,,,,,,,blue,,,null,object_14c.png,object_01c.png,,,,,,,,,,,,,,,,,,,,
null,,rt_plussign_withcolor6,996049,,,,,,,,blue,,,null,object_14c.png,object_01c.png,,,,,,,,,,,,,,,,,,,,
792.0999999046326,,rt_thecrossant_black6,997434,,,,,,,,black_plus_sign,,,49,,,1,,,,,,,1,,,,,,,,,,,,
null,,color_black6,997544,,,,,,,,black_plus_sign,,,null,,,,,,,,,,,,,,,,,,,,,,
null,,learn_phase(without_color)6,1001059,,,,,,,,black_plus_sign,,,null,object_15c.png,object_07a.png,,,,,,,,,,,,,,,,,,,,
null,,black_cross(without_color)6,1002124,,,,,,,,blue,,,null,object_15c.png,object_07a.png,,,,,,,,,,,,,,,,,,,,
null,,rt_plussign_withcolor6,1002640,,,,,,,,blue,,,null,object_15c.png,object_07a.png,,,,,,,,,,,,,,,,,,,,
863.1000000238419,,rt_thecrossant_black6,1003601,,,,,,,,black_plus_sign,,,49,,,1,,,,,,,1,,,,,,,,,,,,
null,,color_black6,1003710,,,,,,,,black_plus_sign,,,null,,,,,,,,,,,,,,,,,,,,,,
null,,learn_phase(without_color)6,1007221,,,,,,,,black_plus_sign,,,null,object_08c.png,object_10a.png,,,,,,,,,,,,,,,,,,,,
null,,black_cross(without_color)6,1007930,,,,,,,,green,,,null,object_08c.png,object_10a.png,,,,,,,,,,,,,,,,,,,,
null,,rt_plussign_withcolor6,1008431,,,,,,,,green,,,null,object_08c.png,object_10a.png,,,,,,,,,,,,,,,,,,,,
1797.8000000715256,,rt_thecrossant_black6,1009738,,,,,,,,black_plus_sign,,,50,,,1,,,,,,,1,,,,,,,,,,,,
null,,color_black6,1009847,,,,,,,,black_plus_sign,,,null,,,,,,,,,,,,,,,,,,,,,,
null,,learn_phase(without_color)6,1013351,,,,,,,,black_plus_sign,,,null,object_03a.png,object_13b.png,,,,,,,,,,,,,,,,,,,,
null,,black_cross(without_color)6,1014114,,,,,,,,green,,,null,object_03a.png,object_13b.png,,,,,,,,,,,,,,,,,,,,
null,,rt_plussign_withcolor6,1014622,,,,,,,,green,,,null,object_03a.png,object_13b.png,,,,,,,,,,,,,,,,,,,,
1070.9000000953674,,rt_thecrossant_black6,1015880,,,,,,,,black_plus_sign,,,50,,,1,,,,,,,1,,,,,,,,,,,,
null,,color_black6,1015990,,,,,,,,black_plus_sign,,,null,,,,,,,,,,,,,,,,,,,,,,
null,,learn_phase(without_color)6,1019503,,,,,,,,black_plus_sign,,,null,object_13c.png,object_12a.png,,,,,,,,,,,,,,,,,,,,
null,,black_cross(without_color)6,1020577,,,,,,,,blue,,,null,object_13c.png,object_12a.png,,,,,,,,,,,,,,,,,,,,
null,,rt_plussign_withcolor6,1021082,,,,,,,,blue,,,null,object_13c.png,object_12a.png,,,,,,,,,,,,,,,,,,,,
1172.5999999046326,,rt_thecrossant_black6,1022025,,,,,,,,black_plus_sign,,,49,,,1,,,,,,,1,,,,,,,,,,,,
null,,color_black6,1022135,,,,,,,,black_plus_sign,,,null,,,,,,,,,,,,,,,,,,,,,,
null,,learn_phase(without_color)6,1025648,,,,,,,,black_plus_sign,,,null,object_01a.png,object_14b.png,,,,,,,,,,,,,,,,,,,,
null,,black_cross(without_color)6,1026375,,,,,,,,blue,,,null,object_01a.png,object_14b.png,,,,,,,,,,,,,,,,,,,,
null,,rt_plussign_withcolor6,1026879,,,,,,,,blue,,,null,object_01a.png,object_14b.png,,,,,,,,,,,,,,,,,,,,
1578,,rt_thecrossant_black6,1028169,,,,,,,,black_plus_sign,,,49,,,1,,,,,,,1,,,,,,,,,,,,
null,,color_black6,1028278,,,,,,,,black_plus_sign,,,null,,,,,,,,,,,,,,,,,,,,,,
null,,learn_phase(without_color)6,1031787,,,,,,,,black_plus_sign,,,null,object_06b.png,object_04a.png,,,,,,,,,,,,,,,,,,,,
null,,black_cross(without_color)6,1032839,,,,,,,,blue,,,null,object_06b.png,object_04a.png,,,,,,,,,,,,,,,,,,,,
null,,rt_plussign_withcolor6,1033345,,,,,,,,blue,,,null,object_06b.png,object_04a.png,,,,,,,,,,,,,,,,,,,,
1081,,rt_thecrossant_black6,1034302,,,,,,,,black_plus_sign,,,49,,,1,,,,,,,1,,,,,,,,,,,,
null,,color_black6,1034411,,,,,,,,black_plus_sign,,,null,,,,,,,,,,,,,,,,,,,,,,
null,,thebreak,1034518,,,,,,,,<p></p>,,,null,,,,,,,,,,,,,,,,,,,,,,
1665.7000000476837,,intro_0,1036185,,,,,,,,instruct,,,32,,,,,,,,,,,,,,,,,,,,,,
3230.7000000476837,,directmemory_phase6,1039416,,,,,,,,object_08c.png,,,51,,,0,,object_10a.png,object_05a.png,object_02a.png,object_10a.png,,0.4868421052631579,0,,,,,,,,,,,
3150.3000000715256,,directmemory_phase6,1042568,,,,,,,,object_02b.png,,,50,,,1,,object_12b.png,object_06c.png,object_13b.png,object_06c.png,,0.4935064935064935,1,,,,,,,,,,,
2367,,directmemory_phase6,1044937,,,,,,,,object_02c.png,,,51,,,1,,object_01b.png,object_13b.png,object_12b.png,object_12b.png,,0.5,1,,,,,,,,,,,
2942.5,,directmemory_phase6,1047881,,,,,,,,object_04a.png,,,49,,,1,,object_06b.png,object_07a.png,object_13b.png,object_06b.png,,0.5063291139240507,1,,,,,,,,,,,
3166.100000023842,,directmemory_phase6,1051048,,,,,,,,object_12a.png,,,50,,,0,,object_03a.png,object_06a.png,object_13c.png,object_13c.png,,0.5,0,,,,,,,,,,,
2270.7999999523163,,directmemory_phase6,1053320,,,,,,,,object_15c.png,,,49,,,1,,object_07a.png,object_02a.png,object_01c.png,object_07a.png,,0.5061728395061729,1,,,,,,,,,,,
2383.399999976158,,directmemory_phase6,1055705,,,,,,,,object_01c.png,,,51,,,0,,object_14c.png,object_03a.png,object_04a.png,object_14c.png,,0.5,0,,,,,,,,,,,
2430.399999976158,,directmemory_phase6,1058137,,,,,,,,object_04b.png,,,50,,,0,,object_07b.png,object_13b.png,object_15b.png,object_07b.png,,0.4939759036144578,0,,,,,,,,,,,
2606.5,,directmemory_phase6,1060745,,,,,,,,object_06a.png,,,49,,,0,,object_10a.png,object_07c.png,object_03a.png,object_07c.png,,0.4880952380952381,0,,,,,,,,,,,
2990.5,,directmemory_phase6,1063737,,,,,,,,object_08b.png,,,50,,,0,,object_02a.png,object_07c.png,object_05a.png,object_02a.png,,0.4823529411764706,0,,,,,,,,,,,
2654.399999976158,,directmemory_phase6,1066393,,,,,,,,object_15b.png,,,49,,,0,,object_03a.png,object_11a.png,object_04a.png,object_11a.png,,0.47674418604651164,0,,,,,,,,,,,
2751,,directmemory_phase6,1069146,,,,,,,,object_14b.png,,,49,,,1,,object_01a.png,object_15c.png,object_07a.png,object_01a.png,,0.4827586206896552,1,,,,,,,,,,,
2701.9000000953674,,directmemory_phase6,1071849,,,,,,,,object_12c.png,,,51,,,0,,object_01b.png,object_05a.png,object_11a.png,object_05a.png,,0.4772727272727273,0,,,,,,,,,,,
2445.7000000476837,,directmemory_phase6,1074297,,,,,,,,object_01b.png,,,51,,,0,,object_07c.png,object_09c.png,object_01c.png,object_09c.png,,0.47191011235955055,0,,,,,,,,,,,
2479.899999976158,,directmemory_phase6,1076778,,,,,,,,object_13b.png,,,50,,,1,,object_06a.png,object_03a.png,object_12c.png,object_03a.png,,0.4777777777777778,1,,,,,,,,,,,
null,,thebreak,1076882,,,,,,,,<p></p>,,,null,,,,,,,,,,,,,,,,,,,,,,
1623.0999999046326,,intro_0,1078506,,,,,,,,instruct,,,32,,,,,,,,,,,,,,,,,,,,,,
null,,learn_phase(without_color)7,1082017,,,,,,,,black_plus_sign,,,null,object_07c.png,object_06a.png,,,,,,,,,,,,,,,,,,,,
null,,black_cross(without_color)7,1082895,,,,,,,,green,,,null,object_07c.png,object_06a.png,,,,,,,,,,,,,,,,,,,,
null,,rt_plussign_withcolor7,1083412,,,,,,,,green,,,null,object_07c.png,object_06a.png,,,,,,,,,,,,,,,,,,,,
1319,,rt_thecrossant_black7,1084555,,,,,,,,black_plus_sign,,,50,,,1,,,,,,,1,,,,,,,,,,,,
null,,color_black7,1084663,,,,,,,,black_plus_sign,,,null,,,,,,,,,,,,,,,,,,,,,,
null,,learn_phase(without_color)7,1088174,,,,,,,,black_plus_sign,,,null,object_02c.png,object_12b.png,,,,,,,,,,,,,,,,,,,,
null,,black_cross(without_color)7,1089183,,,,,,,,green,,,null,object_02c.png,object_12b.png,,,,,,,,,,,,,,,,,,,,
null,,rt_plussign_withcolor7,1089686,,,,,,,,green,,,null,object_02c.png,object_12b.png,,,,,,,,,,,,,,,,,,,,
1332.6999999284744,,rt_thecrossant_black7,1090705,,,,,,,,black_plus_sign,,,50,,,1,,,,,,,1,,,,,,,,,,,,
null,,color_black7,1090815,,,,,,,,black_plus_sign,,,null,,,,,,,,,,,,,,,,,,,,,,
null,,learn_phase(without_color)7,1094329,,,,,,,,black_plus_sign,,,null,object_01c.png,object_14c.png,,,,,,,,,,,,,,,,,,,,
null,,black_cross(without_color)7,1094942,,,,,,,,blue,,,null,object_01c.png,object_14c.png,,,,,,,,,,,,,,,,,,,,
null,,rt_plussign_withcolor7,1095459,,,,,,,,blue,,,null,object_01c.png,object_14c.png,,,,,,,,,,,,,,,,,,,,
1419.1000000238419,,rt_thecrossant_black7,1096857,,,,,,,,black_plus_sign,,,49,,,1,,,,,,,1,,,,,,,,,,,,
null,,color_black7,1096968,,,,,,,,black_plus_sign,,,null,,,,,,,,,,,,,,,,,,,,,,
null,,learn_phase(without_color)7,1100476,,,,,,,,black_plus_sign,,,null,object_02a.png,object_08b.png,,,,,,,,,,,,,,,,,,,,
null,,black_cross(without_color)7,1101217,,,,,,,,blue,,,null,object_02a.png,object_08b.png,,,,,,,,,,,,,,,,,,,,
null,,rt_plussign_withcolor7,1101723,,,,,,,,blue,,,null,object_02a.png,object_08b.png,,,,,,,,,,,,,,,,,,,,
1314.6000000238419,,rt_thecrossant_black7,1103012,,,,,,,,black_plus_sign,,,49,,,1,,,,,,,1,,,,,,,,,,,,
null,,color_black7,1103122,,,,,,,,black_plus_sign,,,null,,,,,,,,,,,,,,,,,,,,,,
null,,learn_phase(without_color)7,1106638,,,,,,,,black_plus_sign,,,null,object_13b.png,object_03a.png,,,,,,,,,,,,,,,,,,,,
null,,black_cross(without_color)7,1107634,,,,,,,,blue,,,null,object_13b.png,object_03a.png,,,,,,,,,,,,,,,,,,,,
null,,rt_plussign_withcolor7,1108138,,,,,,,,blue,,,null,object_13b.png,object_03a.png,,,,,,,,,,,,,,,,,,,,
1082.3999999761581,,rt_thecrossant_black7,1109159,,,,,,,,black_plus_sign,,,49,,,1,,,,,,,1,,,,,,,,,,,,
null,,color_black7,1109269,,,,,,,,black_plus_sign,,,null,,,,,,,,,,,,,,,,,,,,,,
null,,learn_phase(without_color)7,1112772,,,,,,,,black_plus_sign,,,null,object_10a.png,object_08c.png,,,,,,,,,,,,,,,,,,,,
null,,black_cross(without_color)7,1113875,,,,,,,,green,,,null,object_10a.png,object_08c.png,,,,,,,,,,,,,,,,,,,,
null,,rt_plussign_withcolor7,1114378,,,,,,,,green,,,null,object_10a.png,object_08c.png,,,,,,,,,,,,,,,,,,,,
1508.5,,rt_thecrossant_black7,1115287,,,,,,,,black_plus_sign,,,50,,,1,,,,,,,1,,,,,,,,,,,,
null,,color_black7,1115397,,,,,,,,black_plus_sign,,,null,,,,,,,,,,,,,,,,,,,,,,
null,,learn_phase(without_color)7,1118905,,,,,,,,black_plus_sign,,,null,object_15b.png,object_11a.png,,,,,,,,,,,,,,,,,,,,
null,,black_cross(without_color)7,1119834,,,,,,,,blue,,,null,object_15b.png,object_11a.png,,,,,,,,,,,,,,,,,,,,
null,,rt_plussign_withcolor7,1120341,,,,,,,,blue,,,null,object_15b.png,object_11a.png,,,,,,,,,,,,,,,,,,,,
1395.8000000715256,,rt_thecrossant_black7,1121427,,,,,,,,black_plus_sign,,,49,,,1,,,,,,,1,,,,,,,,,,,,
null,,color_black7,1121538,,,,,,,,black_plus_sign,,,null,,,,,,,,,,,,,,,,,,,,,,
null,,learn_phase(without_color)7,1125043,,,,,,,,black_plus_sign,,,null,object_06c.png,object_02b.png,,,,,,,,,,,,,,,,,,,,
null,,black_cross(without_color)7,1125844,,,,,,,,green,,,null,object_06c.png,object_02b.png,,,,,,,,,,,,,,,,,,,,
null,,rt_plussign_withcolor7,1126360,,,,,,,,green,,,null,object_06c.png,object_02b.png,,,,,,,,,,,,,,,,,,,,
1538.6999999284744,,rt_thecrossant_black7,1127582,,,,,,,,black_plus_sign,,,50,,,1,,,,,,,1,,,,,,,,,,,,
null,,color_black7,1127692,,,,,,,,black_plus_sign,,,null,,,,,,,,,,,,,,,,,,,,,,
null,,learn_phase(without_color)7,1131208,,,,,,,,black_plus_sign,,,null,object_13c.png,object_12a.png,,,,,,,,,,,,,,,,,,,,
null,,black_cross(without_color)7,1132285,,,,,,,,blue,,,null,object_13c.png,object_12a.png,,,,,,,,,,,,,,,,,,,,
null,,rt_plussign_withcolor7,1132794,,,,,,,,blue,,,null,object_13c.png,object_12a.png,,,,,,,,,,,,,,,,,,,,
1339,,rt_thecrossant_black7,1133746,,,,,,,,black_plus_sign,,,49,,,1,,,,,,,1,,,,,,,,,,,,
null,,color_black7,1133856,,,,,,,,black_plus_sign,,,null,,,,,,,,,,,,,,,,,,,,,,
null,,learn_phase(without_color)7,1137361,,,,,,,,black_plus_sign,,,null,object_09c.png,object_01b.png,,,,,,,,,,,,,,,,,,,,
null,,black_cross(without_color)7,1137989,,,,,,,,blue,,,null,object_09c.png,object_01b.png,,,,,,,,,,,,,,,,,,,,
null,,rt_plussign_withcolor7,1138492,,,,,,,,blue,,,null,object_09c.png,object_01b.png,,,,,,,,,,,,,,,,,,,,
1557.8999999761581,,rt_thecrossant_black7,1139887,,,,,,,,black_plus_sign,,,49,,,1,,,,,,,1,,,,,,,,,,,,
null,,color_black7,1139998,,,,,,,,black_plus_sign,,,null,,,,,,,,,,,,,,,,,,,,,,
null,,learn_phase(without_color)7,1143511,,,,,,,,black_plus_sign,,,null,object_12c.png,object_05a.png,,,,,,,,,,,,,,,,,,,,
null,,black_cross(without_color)7,1144255,,,,,,,,blue,,,null,object_12c.png,object_05a.png,,,,,,,,,,,,,,,,,,,,
null,,rt_plussign_withcolor7,1144757,,,,,,,,blue,,,null,object_12c.png,object_05a.png,,,,,,,,,,,,,,,,,,,,
1045.2999999523163,,rt_thecrossant_black7,1146027,,,,,,,,black_plus_sign,,,49,,,1,,,,,,,1,,,,,,,,,,,,
null,,color_black7,1146136,,,,,,,,black_plus_sign,,,null,,,,,,,,,,,,,,,,,,,,,,
null,,learn_phase(without_color)7,1149642,,,,,,,,black_plus_sign,,,null,object_04a.png,object_06b.png,,,,,,,,,,,,,,,,,,,,
null,,black_cross(without_color)7,1150588,,,,,,,,green,,,null,object_04a.png,object_06b.png,,,,,,,,,,,,,,,,,,,,
null,,rt_plussign_withcolor7,1151091,,,,,,,,green,,,null,object_04a.png,object_06b.png,,,,,,,,,,,,,,,,,,,,
1452.3999999761581,,rt_thecrossant_black7,1152158,,,,,,,,black_plus_sign,,,50,,,1,,,,,,,1,,,,,,,,,,,,
null,,color_black7,1152268,,,,,,,,black_plus_sign,,,null,,,,,,,,,,,,,,,,,,,,,,
null,,learn_phase(without_color)7,1155778,,,,,,,,black_plus_sign,,,null,object_07a.png,object_15c.png,,,,,,,,,,,,,,,,,,,,
null,,black_cross(without_color)7,1156782,,,,,,,,green,,,null,object_07a.png,object_15c.png,,,,,,,,,,,,,,,,,,,,
null,,rt_plussign_withcolor7,1157286,,,,,,,,green,,,null,object_07a.png,object_15c.png,,,,,,,,,,,,,,,,,,,,
1568.2999999523163,,rt_thecrossant_black7,1158302,,,,,,,,black_plus_sign,,,50,,,1,,,,,,,1,,,,,,,,,,,,
null,,color_black7,1158411,,,,,,,,black_plus_sign,,,null,,,,,,,,,,,,,,,,,,,,,,
null,,learn_phase(without_color)7,1161922,,,,,,,,black_plus_sign,,,null,object_04b.png,object_07b.png,,,,,,,,,,,,,,,,,,,,
null,,black_cross(without_color)7,1162379,,,,,,,,blue,,,null,object_04b.png,object_07b.png,,,,,,,,,,,,,,,,,,,,
null,,rt_plussign_withcolor7,1162886,,,,,,,,blue,,,null,object_04b.png,object_07b.png,,,,,,,,,,,,,,,,,,,,
1558.7999999523163,,rt_thecrossant_black7,1164456,,,,,,,,black_plus_sign,,,49,,,1,,,,,,,1,,,,,,,,,,,,
null,,color_black7,1164566,,,,,,,,black_plus_sign,,,null,,,,,,,,,,,,,,,,,,,,,,
null,,learn_phase(without_color)7,1168080,,,,,,,,black_plus_sign,,,null,object_14b.png,object_01a.png,,,,,,,,,,,,,,,,,,,,
null,,black_cross(without_color)7,1169032,,,,,,,,blue,,,null,object_14b.png,object_01a.png,,,,,,,,,,,,,,,,,,,,
null,,rt_plussign_withcolor7,1169536,,,,,,,,blue,,,null,object_14b.png,object_01a.png,,,,,,,,,,,,,,,,,,,,
829.6000000238419,,rt_thecrossant_black7,1170593,,,,,,,,black_plus_sign,,,49,,,1,,,,,,,1,,,,,,,,,,,,
null,,color_black7,1170703,,,,,,,,black_plus_sign,,,null,,,,,,,,,,,,,,,,,,,,,,
null,,thebreak,1170814,,,,,,,,<p></p>,,,null,,,,,,,,,,,,,,,,,,,,,,
1245.4000000953674,,intro_0,1172060,,,,,,,,instruct,,,32,,,,,,,,,,,,,,,,,,,,,,
1374.3999999761581,,directmemory_phase7,1173435,,,,,,,,object_06b.png,,,50,,,1,,object_03a.png,object_04a.png,object_06a.png,object_04a.png,,0.4835164835164835,1,,,,,,,,,,,
2671.399999976158,,directmemory_phase7,1176108,,,,,,,,object_02a.png,,,50,,,1,,object_06b.png,object_08b.png,object_01c.png,object_08b.png,,0.4891304347826087,1,,,,,,,,,,,
3534.3000000715256,,directmemory_phase7,1179644,,,,,,,,object_13b.png,,,51,,,1,,object_07a.png,object_01c.png,object_03a.png,object_03a.png,,0.4946236559139785,1,,,,,,,,,,,
3278.7999999523163,,directmemory_phase7,1182924,,,,,,,,object_15b.png,,,50,,,0,,object_05a.png,object_14c.png,object_11a.png,object_11a.png,,0.48936170212765956,0,,,,,,,,,,,
3054.600000023842,,directmemory_phase7,1185980,,,,,,,,object_06a.png,,,51,,,0,,object_11a.png,object_07c.png,object_02a.png,object_07c.png,,0.4842105263157895,0,,,,,,,,,,,
3166.5,,directmemory_phase7,1189148,,,,,,,,object_08c.png,,,49,,,0,,object_01b.png,object_10a.png,object_12a.png,object_10a.png,,0.4791666666666667,0,,,,,,,,,,,
1454.1999999284744,,directmemory_phase7,1190604,,,,,,,,object_07a.png,,,51,,,1,,object_01c.png,object_06b.png,object_15c.png,object_15c.png,,0.4845360824742268,1,,,,,,,,,,,
2110,,directmemory_phase7,1192716,,,,,,,,object_02b.png,,,49,,,1,,object_06c.png,object_13b.png,object_07c.png,object_06c.png,,0.4897959183673469,1,,,,,,,,,,,
2894.7000000476837,,directmemory_phase7,1195612,,,,,,,,object_13c.png,,,50,,,1,,object_07c.png,object_12a.png,object_04a.png,object_12a.png,,0.494949494949495,1,,,,,,,,,,,
2559.1999999284744,,directmemory_phase7,1198173,,,,,,,,object_01c.png,,,50,,,1,,object_10a.png,object_14c.png,object_02a.png,object_14c.png,,0.5,1,,,,,,,,,,,
1853.7999999523163,,directmemory_phase7,1200028,,,,,,,,object_02c.png,,,50,,,1,,object_05a.png,object_12b.png,object_07a.png,object_12b.png,,0.504950495049505,1,,,,,,,,,,,
2143.2999999523163,,directmemory_phase7,1202173,,,,,,,,object_01a.png,,,51,,,0,,object_14b.png,object_01b.png,object_06c.png,object_14b.png,,0.5,0,,,,,,,,,,,
1838.6000000238419,,directmemory_phase7,1204013,,,,,,,,object_04b.png,,,49,,,1,,object_07b.png,object_04a.png,object_12c.png,object_07b.png,,0.5048543689320388,1,,,,,,,,,,,
2045.8999999761581,,directmemory_phase7,1206060,,,,,,,,object_01b.png,,,51,,,1,,object_01c.png,object_08c.png,object_09c.png,object_09c.png,,0.5096153846153846,1,,,,,,,,,,,
2287,,directmemory_phase7,1208349,,,,,,,,object_12c.png,,,50,,,1,,object_06b.png,object_05a.png,object_15c.png,object_05a.png,,0.5142857142857142,1,,,,,,,,,,,
null,,thebreak,1208464,,,,,,,,<p></p>,,,null,,,,,,,,,,,,,,,,,,,,,,
1852,,intro_0,1210317,,,,,,,,instruct,,,32,,,,,,,,,,,,,,,,,,,,,,
null,,learn_phase(without_color)8,1213829,,,,,,,,black_plus_sign,,,null,object_09c.png,object_01b.png,,,,,,,,,,,,,,,,,,,,
null,,black_cross(without_color)8,1214703,,,,,,,,green,,,null,object_09c.png,object_01b.png,,,,,,,,,,,,,,,,,,,,
null,,rt_plussign_withcolor8,1215205,,,,,,,,green,,,null,object_09c.png,object_01b.png,,,,,,,,,,,,,,,,,,,,
1334.6000000238419,,rt_thecrossant_black8,1216362,,,,,,,,black_plus_sign,,,50,,,1,,,,,,,1,,,,,,,,,,,,
null,,color_black8,1216472,,,,,,,,black_plus_sign,,,null,,,,,,,,,,,,,,,,,,,,,,
null,,learn_phase(without_color)8,1219987,,,,,,,,black_plus_sign,,,null,object_06b.png,object_04a.png,,,,,,,,,,,,,,,,,,,,
null,,black_cross(without_color)8,1221068,,,,,,,,green,,,null,object_06b.png,object_04a.png,,,,,,,,,,,,,,,,,,,,
null,,rt_plussign_withcolor8,1221583,,,,,,,,green,,,null,object_06b.png,object_04a.png,,,,,,,,,,,,,,,,,,,,
1261.1000000238419,,rt_thecrossant_black8,1222529,,,,,,,,black_plus_sign,,,50,,,1,,,,,,,1,,,,,,,,,,,,
null,,color_black8,1222639,,,,,,,,black_plus_sign,,,null,,,,,,,,,,,,,,,,,,,,,,
null,,learn_phase(without_color)8,1226150,,,,,,,,black_plus_sign,,,null,object_06a.png,object_07c.png,,,,,,,,,,,,,,,,,,,,
null,,black_cross(without_color)8,1226920,,,,,,,,green,,,null,object_06a.png,object_07c.png,,,,,,,,,,,,,,,,,,,,
null,,rt_plussign_withcolor8,1227424,,,,,,,,green,,,null,object_06a.png,object_07c.png,,,,,,,,,,,,,,,,,,,,
1402,,rt_thecrossant_black8,1228663,,,,,,,,black_plus_sign,,,50,,,1,,,,,,,1,,,,,,,,,,,,
null,,color_black8,1228772,,,,,,,,black_plus_sign,,,null,,,,,,,,,,,,,,,,,,,,,,
null,,learn_phase(without_color)8,1232284,,,,,,,,black_plus_sign,,,null,object_12b.png,object_02c.png,,,,,,,,,,,,,,,,,,,,
null,,black_cross(without_color)8,1233177,,,,,,,,blue,,,null,object_12b.png,object_02c.png,,,,,,,,,,,,,,,,,,,,
null,,rt_plussign_withcolor8,1233693,,,,,,,,blue,,,null,object_12b.png,object_02c.png,,,,,,,,,,,,,,,,,,,,
1311.3999999761581,,rt_thecrossant_black8,1234823,,,,,,,,black_plus_sign,,,49,,,1,,,,,,,1,,,,,,,,,,,,
null,,color_black8,1234932,,,,,,,,black_plus_sign,,,null,,,,,,,,,,,,,,,,,,,,,,
null,,learn_phase(without_color)8,1238434,,,,,,,,black_plus_sign,,,null,object_10a.png,object_08c.png,,,,,,,,,,,,,,,,,,,,
null,,black_cross(without_color)8,1239519,,,,,,,,green,,,null,object_10a.png,object_08c.png,,,,,,,,,,,,,,,,,,,,
null,,rt_plussign_withcolor8,1240023,,,,,,,,green,,,null,object_10a.png,object_08c.png,,,,,,,,,,,,,,,,,,,,
1177.2999999523163,,rt_thecrossant_black8,1240948,,,,,,,,black_plus_sign,,,50,,,1,,,,,,,1,,,,,,,,,,,,
null,,color_black8,1241058,,,,,,,,black_plus_sign,,,null,,,,,,,,,,,,,,,,,,,,,,
null,,learn_phase(without_color)8,1244569,,,,,,,,black_plus_sign,,,null,object_07a.png,object_15c.png,,,,,,,,,,,,,,,,,,,,
null,,black_cross(without_color)8,1245496,,,,,,,,blue,,,null,object_07a.png,object_15c.png,,,,,,,,,,,,,,,,,,,,
null,,rt_plussign_withcolor8,1246000,,,,,,,,blue,,,null,object_07a.png,object_15c.png,,,,,,,,,,,,,,,,,,,,
1432.5,,rt_thecrossant_black8,1247084,,,,,,,,black_plus_sign,,,49,,,1,,,,,,,1,,,,,,,,,,,,
null,,color_black8,1247193,,,,,,,,black_plus_sign,,,null,,,,,,,,,,,,,,,,,,,,,,
null,,learn_phase(without_color)8,1250707,,,,,,,,black_plus_sign,,,null,object_02a.png,object_08b.png,,,,,,,,,,,,,,,,,,,,
null,,black_cross(without_color)8,1251787,,,,,,,,green,,,null,object_02a.png,object_08b.png,,,,,,,,,,,,,,,,,,,,
null,,rt_plussign_withcolor8,1252297,,,,,,,,green,,,null,object_02a.png,object_08b.png,,,,,,,,,,,,,,,,,,,,
1572.1999999284744,,rt_thecrossant_black8,1253235,,,,,,,,black_plus_sign,,,50,,,1,,,,,,,1,,,,,,,,,,,,
null,,color_black8,1253344,,,,,,,,black_plus_sign,,,null,,,,,,,,,,,,,,,,,,,,,,
null,,learn_phase(without_color)8,1256854,,,,,,,,black_plus_sign,,,null,object_14c.png,object_01c.png,,,,,,,,,,,,,,,,,,,,
null,,black_cross(without_color)8,1257560,,,,,,,,blue,,,null,object_14c.png,object_01c.png,,,,,,,,,,,,,,,,,,,,
null,,rt_plussign_withcolor8,1258076,,,,,,,,blue,,,null,object_14c.png,object_01c.png,,,,,,,,,,,,,,,,,,,,
1574.3999999761581,,rt_thecrossant_black8,1259390,,,,,,,,black_plus_sign,,,49,,,1,,,,,,,1,,,,,,,,,,,,
null,,color_black8,1259500,,,,,,,,black_plus_sign,,,null,,,,,,,,,,,,,,,,,,,,,,
null,,learn_phase(without_color)8,1263016,,,,,,,,black_plus_sign,,,null,object_13c.png,object_12a.png,,,,,,,,,,,,,,,,,,,,
null,,black_cross(without_color)8,1263421,,,,,,,,green,,,null,object_13c.png,object_12a.png,,,,,,,,,,,,,,,,,,,,
null,,rt_plussign_withcolor8,1263924,,,,,,,,green,,,null,object_13c.png,object_12a.png,,,,,,,,,,,,,,,,,,,,
1176.3999999761581,,rt_thecrossant_black8,1265529,,,,,,,,black_plus_sign,,,50,,,1,,,,,,,1,,,,,,,,,,,,
null,,color_black8,1265640,,,,,,,,black_plus_sign,,,null,,,,,,,,,,,,,,,,,,,,,,
null,,learn_phase(without_color)8,1269147,,,,,,,,black_plus_sign,,,null,object_13b.png,object_03a.png,,,,,,,,,,,,,,,,,,,,
null,,black_cross(without_color)8,1270008,,,,,,,,green,,,null,object_13b.png,object_03a.png,,,,,,,,,,,,,,,,,,,,
null,,rt_plussign_withcolor8,1270512,,,,,,,,green,,,null,object_13b.png,object_03a.png,,,,,,,,,,,,,,,,,,,,
768.5,,rt_thecrossant_black8,1271679,,,,,,,,black_plus_sign,,,50,,,1,,,,,,,1,,,,,,,,,,,,
null,,color_black8,1271788,,,,,,,,black_plus_sign,,,null,,,,,,,,,,,,,,,,,,,,,,
null,,learn_phase(without_color)8,1275301,,,,,,,,black_plus_sign,,,null,object_02b.png,object_06c.png,,,,,,,,,,,,,,,,,,,,
null,,black_cross(without_color)8,1276038,,,,,,,,green,,,null,object_02b.png,object_06c.png,,,,,,,,,,,,,,,,,,,,
null,,rt_plussign_withcolor8,1276539,,,,,,,,green,,,null,object_02b.png,object_06c.png,,,,,,,,,,,,,,,,,,,,
1448.1000000238419,,rt_thecrossant_black8,1277819,,,,,,,,black_plus_sign,,,50,,,1,,,,,,,1,,,,,,,,,,,,
null,,color_black8,1277928,,,,,,,,black_plus_sign,,,null,,,,,,,,,,,,,,,,,,,,,,
null,,learn_phase(without_color)8,1281436,,,,,,,,black_plus_sign,,,null,object_12c.png,object_05a.png,,,,,,,,,,,,,,,,,,,,
null,,black_cross(without_color)8,1282063,,,,,,,,blue,,,null,object_12c.png,object_05a.png,,,,,,,,,,,,,,,,,,,,
null,,rt_plussign_withcolor8,1282568,,,,,,,,blue,,,null,object_12c.png,object_05a.png,,,,,,,,,,,,,,,,,,,,
1326.2999999523163,,rt_thecrossant_black8,1283957,,,,,,,,black_plus_sign,,,49,,,1,,,,,,,1,,,,,,,,,,,,
null,,color_black8,1284065,,,,,,,,black_plus_sign,,,null,,,,,,,,,,,,,,,,,,,,,,
null,,learn_phase(without_color)8,1287580,,,,,,,,black_plus_sign,,,null,object_04b.png,object_07b.png,,,,,,,,,,,,,,,,,,,,
null,,black_cross(without_color)8,1288178,,,,,,,,blue,,,null,object_04b.png,object_07b.png,,,,,,,,,,,,,,,,,,,,
null,,rt_plussign_withcolor8,1288683,,,,,,,,blue,,,null,object_04b.png,object_07b.png,,,,,,,,,,,,,,,,,,,,
1006.3999999761581,,rt_thecrossant_black8,1290116,,,,,,,,black_plus_sign,,,49,,,1,,,,,,,1,,,,,,,,,,,,
null,,color_black8,1290225,,,,,,,,black_plus_sign,,,null,,,,,,,,,,,,,,,,,,,,,,
null,,learn_phase(without_color)8,1293733,,,,,,,,black_plus_sign,,,null,object_11a.png,object_15b.png,,,,,,,,,,,,,,,,,,,,
null,,black_cross(without_color)8,1294193,,,,,,,,blue,,,null,object_11a.png,object_15b.png,,,,,,,,,,,,,,,,,,,,
null,,rt_plussign_withcolor8,1294696,,,,,,,,blue,,,null,object_11a.png,object_15b.png,,,,,,,,,,,,,,,,,,,,
1553.7999999523163,,rt_thecrossant_black8,1296258,,,,,,,,black_plus_sign,,,49,,,1,,,,,,,1,,,,,,,,,,,,
null,,color_black8,1296367,,,,,,,,black_plus_sign,,,null,,,,,,,,,,,,,,,,,,,,,,
null,,learn_phase(without_color)8,1299870,,,,,,,,black_plus_sign,,,null,object_01a.png,object_14b.png,,,,,,,,,,,,,,,,,,,,
null,,black_cross(without_color)8,1300471,,,,,,,,green,,,null,object_01a.png,object_14b.png,,,,,,,,,,,,,,,,,,,,
null,,rt_plussign_withcolor8,1300975,,,,,,,,green,,,null,object_01a.png,object_14b.png,,,,,,,,,,,,,,,,,,,,
863.8999999761581,,rt_thecrossant_black8,1302396,,,,,,,,black_plus_sign,,,50,,,1,,,,,,,1,,,,,,,,,,,,
null,,color_black8,1302506,,,,,,,,black_plus_sign,,,null,,,,,,,,,,,,,,,,,,,,,,
null,,thebreak,1302616,,,,,,,,<p></p>,,,null,,,,,,,,,,,,,,,,,,,,,,
1510.3999999761581,,intro_0,1304127,,,,,,,,instruct,,,32,,,,,,,,,,,,,,,,,,,,,,
2863.399999976158,,directmemory_phase8,1306991,,,,,,,,object_08b.png,,,50,,,0,,object_02a.png,object_02b.png,object_05a.png,object_02a.png,,0.5094339622641509,0,,,,,,,,,,,
1822.3999999761581,,directmemory_phase8,1308815,,,,,,,,object_09c.png,,,49,,,1,,object_01b.png,object_15b.png,object_04a.png,object_01b.png,,0.514018691588785,1,,,,,,,,,,,
2702,,directmemory_phase8,1311519,,,,,,,,object_08c.png,,,49,,,0,,object_01a.png,object_01b.png,object_10a.png,object_10a.png,,0.5092592592592593,0,,,,,,,,,,,
3102,,directmemory_phase8,1314623,,,,,,,,object_11a.png,,,49,,,0,,object_10a.png,object_15b.png,object_12c.png,object_15b.png,,0.5045871559633027,0,,,,,,,,,,,
2030.5,,directmemory_phase8,1316655,,,,,,,,object_12b.png,,,50,,,1,,object_15b.png,object_02c.png,object_01a.png,object_02c.png,,0.509090909090909,1,,,,,,,,,,,
1326.5,,directmemory_phase8,1317983,,,,,,,,object_05a.png,,,50,,,1,,object_13b.png,object_12c.png,object_13c.png,object_12c.png,,0.5135135135135135,1,,,,,,,,,,,
2670.600000023842,,directmemory_phase8,1320655,,,,,,,,object_07c.png,,,49,,,1,,object_06a.png,object_10a.png,object_02a.png,object_06a.png,,0.5178571428571429,1,,,,,,,,,,,
1902.6000000238419,,directmemory_phase8,1322560,,,,,,,,object_06b.png,,,49,,,1,,object_04a.png,object_09c.png,object_13c.png,object_04a.png,,0.5221238938053098,1,,,,,,,,,,,
2414.4000000953674,,directmemory_phase8,1324976,,,,,,,,object_13c.png,,,51,,,1,,object_04a.png,object_15b.png,object_12a.png,object_12a.png,,0.5263157894736842,1,,,,,,,,,,,
1950.1000000238419,,directmemory_phase8,1326927,,,,,,,,object_01a.png,,,50,,,1,,object_02c.png,object_14b.png,object_08c.png,object_14b.png,,0.5304347826086957,1,,,,,,,,,,,
2335.2000000476837,,directmemory_phase8,1329264,,,,,,,,object_02b.png,,,51,,,1,,object_01c.png,object_14c.png,object_06c.png,object_06c.png,,0.5344827586206896,1,,,,,,,,,,,
1806.2999999523163,,directmemory_phase8,1331072,,,,,,,,object_07b.png,,,50,,,1,,object_15c.png,object_04b.png,object_07c.png,object_04b.png,,0.5384615384615384,1,,,,,,,,,,,
1422.2999999523163,,directmemory_phase8,1332496,,,,,,,,object_07a.png,,,50,,,0,,object_15c.png,object_06a.png,object_14c.png,object_15c.png,,0.5338983050847458,0,,,,,,,,,,,
2926.399999976158,,directmemory_phase8,1335424,,,,,,,,object_01c.png,,,51,,,0,,object_04a.png,object_14c.png,object_03a.png,object_14c.png,,0.5294117647058824,0,,,,,,,,,,,
1630.2999999523163,,directmemory_phase8,1337056,,,,,,,,object_03a.png,,,50,,,1,,object_07a.png,object_13b.png,object_06c.png,object_13b.png,,0.5333333333333333,1,,,,,,,,,,,
null,,thebreak,1337170,,,,,,,,<p></p>,,,null,,,,,,,,,,,,,,,,,,,,,,
4108,,intro_0,1341280,,,,,,,,instruct,,,32,,,,,,,,,,,,,,,,,,,,,,
10928.200000047684,,intro_1,1352209,,,,,,,,instruct,,,32,,,,,,,,,,,,,,,,,,,,,,
3470.899999976158,,intro_2,1355680,,,,,,,,instruct,,,32,,,,,,,,,,,,,,,,,,,,,,
,,intro_3,1373983,,,,,,,,instruct,,,,,,,,,,,,,,,,,,,,,,,,,
6577,,intro_4,1380561,,,,,,,,instruct,,,32,,,,,,,,,,,,,,,,,,,,,,
3293.899999976158,,inference_phase,1383856,,,,,,,,object_02b.png,,,49,object_11b.png,object_15c.png,0,,,,,object_08a.png,,0,,object_08a.png,,,,,,,,,,
2094,,inference_phase,1385952,,,,,,,,object_09a.png,,,51,object_02a.png,object_12b.png,0,,,,,object_02a.png,,0,,object_06a.png,,,,,,,,,,
2703.3000000715256,,inference_phase,1388657,,,,,,,,object_13a.png,,,49,object_14c.png,object_06b.png,1,,,,,object_14c.png,,0.3333333333333333,,object_05a.png,,,,,,,,,,
1998.8999999761581,,inference_phase,1390657,,,,,,,,object_15b.png,,,51,object_09b.png,object_10b.png,0,,,,,object_09b.png,,0.25,,object_04a.png,,,,,,,,,,
2526.1999999284744,,inference_phase,1393185,,,,,,,,object_11b.png,,,49,object_12a.png,object_02b.png,0,,,,,object_07a.png,,0.2,,object_07a.png,,,,,,,,,,
3262.7999999523163,,inference_phase,1396449,,,,,,,,object_04b.png,,,49,object_14a.png,object_10c.png,1,,,,,object_14a.png,,0.3333333333333333,,object_06a.png,,,,,,,,,,
3086.2999999523163,,inference_phase,1399537,,,,,,,,object_04c.png,,,49,object_13c.png,object_01b.png,1,,,,,object_13c.png,,0.42857142857142855,,object_13b.png,,,,,,,,,,
3950.899999976158,,inference_phase,1403490,,,,,,,,object_11c.png,,,51,object_10a.png,object_02a.png,0,,,,,object_12b.png,,0.375,,object_12b.png,,,,,,,,,,
2734,,inference_phase,1406225,,,,,,,,object_03b.png,,,51,object_01b.png,object_02a.png,0,,,,,object_01b.png,,0.3333333333333333,,object_15c.png,,,,,,,,,,
2254.5,,inference_phase,1408482,,,,,,,,object_10c.png,,,51,object_02c.png,object_12c.png,0,,,,,object_08c.png,,0.3,,object_08c.png,,,,,,,,,,
1838.3999999761581,,inference_phase,1410322,,,,,,,,object_07c.png,,,51,object_15a.png,object_11c.png,0,,,,,object_15a.png,,0.2727272727272727,,object_01c.png,,,,,,,,,,
2991.2000000476837,,inference_phase,1413314,,,,,,,,object_06b.png,,,49,object_11c.png,object_15c.png,0,,,,,object_05c.png,,0.25,,object_05c.png,,,,,,,,,,
2333.7000000476837,,inference_phase,1415650,,,,,,,,object_10b.png,,,49,object_14b.png,object_01b.png,1,,,,,object_14b.png,,0.3076923076923077,,object_01c.png,,,,,,,,,,
2766.6999999284744,,inference_phase,1418418,,,,,,,,object_03c.png,,,50,object_10a.png,object_12c.png,0,,,,,object_12c.png,,0.2857142857142857,,object_14c.png,,,,,,,,,,
2718.600000023842,,inference_phase,1421138,,,,,,,,object_05b.png,,,51,object_10a.png,object_03a.png,1,,,,,object_03a.png,,0.3333333333333333,,object_15b.png,,,,,,,,,,
,,survey,1693200,,,,,,,,survey-questions,,,,,,,,,,,,,,,,none,high,No,It was very hard as I could not see any similarities in the objects. Like you had said, if you could find something to tie the shapes together, that would work. The only things I could find were I tied the what looked like chili peppers to what looked like a honeycomb and the two that had a rope looking feature.  ,They were all hard for me. I had a problem that I kept thinking about what would tie them together when the image had gone and the plus sign was up. I think I may have missed come color check ins because of that.,Never and believe me I would have remembered!,It was not at all boring. It was too hard for me, but probably not for other people. ,,,
14547.899999976158,,thank_you,1707769,,,,,,,,<p> Congratulations, you are all done!</p><p> <strong>Please click space on your keyboard to end the experiment!</strong> The secret code to enter at the beginning screen is: <strong>CIMBPENS</strong></p><p> Please make sure to submit the HIT and email uciccnl@gmail.com if you had any issues! </p><br><p>Please remember to submit this data by clicking space after copying the code. Failure of submission will lead to in-complete payment</p>,,,32,,,,,,,,,,,,,,,,,,,,1,0,C78LSMTN
