rt,responses,trial_type,time_elapsed,identifier_a,identifier_b,identifier_c,tasktype,browser_type,local_time,UTC_time,stimulus,button_pressed,response,key_press,stimulus_left,stimulus_right,accuracy,practice_cumulative_accuracy,stimulus_down_left,stimulus_down_mid,stimulus_down_right,stimulus_correct,prac_weighted_accuracy,cumulative_accuracy,failed_practice,weighted_accuracy,stimulus_middle,problems,smooth,distraction,strategies,easier,similar,comments,detectfocus,breakfocus,completion_code
7532.4000000059605,{worker_id:6100372e3a116cb5cb36ebea},id_enter,7535,object_10a.png; object_03a.png; object_08a.png; object_11a.png; object_05c.png; object_13a.png; object_07a.png; object_05a.png; object_15b.png; object_12c.png; object_08c.png; object_03c.png; object_12a.png; object_02b.png; object_01a.png,object_11b.png; object_09c.png; object_13c.png; object_10b.png; object_05b.png; object_15a.png; object_02a.png; object_04b.png; object_09b.png; object_01c.png; object_14c.png; object_12b.png; object_04a.png; object_13b.png; object_06c.png,object_07b.png; object_08b.png; object_14b.png; object_06a.png; object_09a.png; object_10c.png; object_14a.png; object_15c.png; object_06b.png; object_03b.png; object_02c.png; object_07c.png; object_01b.png; object_04c.png; object_11c.png,interleaved,Mozilla/5.0 (Windows NT 10.0; Win64; x64) AppleWebKit/537.36 (KHTML, like Gecko) Chrome/135.0.0.0 Safari/537.36,5/2/2025, 12:42:13 PM,2025-05-02 19:42:13.522,,,,,,,,,,,,,,,,,,,,,,,,,,,
28395.40000000596,,make_fullscreen,35958,,,,,,,,fullscreen,0,,,,,,,,,,,,,,,,,,,,,,,,,
9044.5,,instruct_1,45005,,,,,,,,instruct,0,Next,,,,,,,,,,,,,,,,,,,,,,,,
18894.59999999404,,instruct_2,63902,,,,,,,,instruct,1,Next,,,,,,,,,,,,,,,,,,,,,,,,
13174.300000011921,,instruct_3,77077,,,,,,,,instruct,1,Next,,,,,,,,,,,,,,,,,,,,,,,,
34502.69999998808,,instruct_4,111581,,,,,,,,instruct,1,Next,,,,,,,,,,,,,,,,,,,,,,,,
23742.40000000596,,instruct_5,135325,,,,,,,,instruct,1,Next,,,,,,,,,,,,,,,,,,,,,,,,
5806.9000000059605,,instruct_6,141133,,,,,,,,instruct,1,Next,,,,,,,,,,,,,,,,,,,,,,,,
84478.80000001192,,instruct_7,225613,,,,,,,,instruct,1,Next,,,,,,,,,,,,,,,,,,,,,,,,
null,,prac_atten_color_black,226193,,,,,,,,black_plus_sign,,,null,,,,,,,,,,,,,,,,,,,,,,,
null,,prac_atten_color,227024,,,,,,,,<p style='position:absolute;top: 50%;right: 50%;transform: translate(50%, -50%);font-size: 125px;color: blue;'>+</p>,,,null,,,,,,,,,,,,,,,,,,,,,,,
1019,,prac_atten_color_black,229025,,,,,,,,black_plus_sign,,,49,,,,,,,,,,,,,,,,,,,,,,,
null,,prac_atten_color_black,229600,,,,,,,,black_plus_sign,,,null,,,,,,,,,,,,,,,,,,,,,,,
529.5,,prac_atten_color,230270,,,,,,,,<p style='position:absolute;top: 50%;right: 50%;transform: translate(50%, -50%);font-size: 125px;color: green;'>+</p>,,,50,,,,,,,,,,,,,,,,,,,,,,,
null,,prac_atten_color_black,232272,,,,,,,,black_plus_sign,,,null,,,,,,,,,,,,,,,,,,,,,,,
null,,prac_atten_color_black,233006,,,,,,,,black_plus_sign,,,null,,,,,,,,,,,,,,,,,,,,,,,
null,,prac_atten_color,233658,,,,,,,,<p style='position:absolute;top: 50%;right: 50%;transform: translate(50%, -50%);font-size: 125px;color: green;'>+</p>,,,null,,,,,,,,,,,,,,,,,,,,,,,
null,,prac_atten_color_black,235659,,,,,,,,black_plus_sign,,,null,,,,,,,,,,,,,,,,,,,,,,,
7118.200000017881,,attentioncheck_help,242779,,,,,,,,instruct,,,32,,,,,,,,,,,,,,,,,,,,,,,
null,,prac_atten_color_black,243531,,,,,,,,black_plus_sign,,,null,,,,,,,,,,,,,,,,,,,,,,,
374.60000002384186,,prac_atten_color,244480,,,,,,,,<p style='position:absolute;top: 50%;right: 50%;transform: translate(50%, -50%);font-size: 125px;color: blue;'>+</p>,,,49,,,,,,,,,,,,,,,,,,,,,,,
null,,prac_atten_color_black,246482,,,,,,,,black_plus_sign,,,null,,,,,,,,,,,,,,,,,,,,,,,
null,,prac_atten_color_black,246938,,,,,,,,black_plus_sign,,,null,,,,,,,,,,,,,,,,,,,,,,,
407.60000002384186,,prac_atten_color,247700,,,,,,,,<p style='position:absolute;top: 50%;right: 50%;transform: translate(50%, -50%);font-size: 125px;color: green;'>+</p>,,,50,,,,,,,,,,,,,,,,,,,,,,,
null,,prac_atten_color_black,249701,,,,,,,,black_plus_sign,,,null,,,,,,,,,,,,,,,,,,,,,,,
null,,prac_atten_color_black,250345,,,,,,,,black_plus_sign,,,null,,,,,,,,,,,,,,,,,,,,,,,
417,,prac_atten_color,251430,,,,,,,,<p style='position:absolute;top: 50%;right: 50%;transform: translate(50%, -50%);font-size: 125px;color: green;'>+</p>,,,50,,,,,,,,,,,,,,,,,,,,,,,
null,,prac_atten_color_black,253431,,,,,,,,black_plus_sign,,,null,,,,,,,,,,,,,,,,,,,,,,,
null,,prac_atten_color_black,253751,,,,,,,,black_plus_sign,,,null,,,,,,,,,,,,,,,,,,,,,,,
418.80000001192093,,prac_atten_color,254741,,,,,,,,<p style='position:absolute;top: 50%;right: 50%;transform: translate(50%, -50%);font-size: 125px;color: blue;'>+</p>,,,49,,,,,,,,,,,,,,,,,,,,,,,
null,,prac_atten_color_black,256743,,,,,,,,black_plus_sign,,,null,,,,,,,,,,,,,,,,,,,,,,,
null,,prac_atten_color_black,257159,,,,,,,,black_plus_sign,,,null,,,,,,,,,,,,,,,,,,,,,,,
491.09999999403954,,prac_atten_color,258219,,,,,,,,<p style='position:absolute;top: 50%;right: 50%;transform: translate(50%, -50%);font-size: 125px;color: green;'>+</p>,,,50,,,,,,,,,,,,,,,,,,,,,,,
null,,prac_atten_color_black,260222,,,,,,,,black_plus_sign,,,null,,,,,,,,,,,,,,,,,,,,,,,
null,,prac_atten_color_black,260567,,,,,,,,black_plus_sign,,,null,,,,,,,,,,,,,,,,,,,,,,,
435.19999998807907,,prac_atten_color,261036,,,,,,,,<p style='position:absolute;top: 50%;right: 50%;transform: translate(50%, -50%);font-size: 125px;color: blue;'>+</p>,,,49,,,,,,,,,,,,,,,,,,,,,,,
null,,prac_atten_color_black,263037,,,,,,,,black_plus_sign,,,null,,,,,,,,,,,,,,,,,,,,,,,
null,,prac_atten_color_black,263973,,,,,,,,black_plus_sign,,,null,,,,,,,,,,,,,,,,,,,,,,,
null,,prac_atten_color,264442,,,,,,,,<p style='position:absolute;top: 50%;right: 50%;transform: translate(50%, -50%);font-size: 125px;color: blue;'>+</p>,,,null,,,,,,,,,,,,,,,,,,,,,,,
49.099999994039536,,prac_atten_color_black,266444,,,,,,,,black_plus_sign,,,49,,,,,,,,,,,,,,,,,,,,,,,
12160,,attentioncheck_feedback,278606,,,,,,,,cross_check_feedback,0,,,,,,,,,,,,,,,,,,,,,,,,,
4869.199999988079,,last_instruct,283476,,,,,,,,instruct,,,32,,,,,,,,,,,,,,,,,,,,,,,
null,,prac_learn_phase(without_color),286978,,,,,,,,black_plus_sign,,,null,object_03c.png,object_12b.png,,,,,,,,,,,,,,,,,,,,,
null,,prac_black_cross(without_color),287850,,,,,,,,green,,,null,object_03c.png,object_12b.png,,,,,,,,,,,,,,,,,,,,,
481.19999998807907,,prac_rt_plussign_withcolor,288351,,,,,,,,green,,,50,object_03c.png,object_12b.png,,,,,,,,,,,,,,,,,,,,,
null,,prac_rt_thecrossant_black,289484,,,,,,,,black_plus_sign,,,null,,,1,1,,,,,,,,,,,,,,,,,,,
null,,prac_color_black,289585,,,,,,,,black_plus_sign,,,null,,,,,,,,,,,,,,,,,,,,,,,
null,,prac_learn_phase(without_color),293088,,,,,,,,black_plus_sign,,,null,object_14a.png,object_02a.png,,,,,,,,,,,,,,,,,,,,,
null,,black_cross(without_color)1,293753,,,,,,,,green,,,null,object_03c.png,object_12b.png,,,,,,,,,,,,,,,,,,,,,
null,,prac_rt_plussign_withcolor,294255,,,,,,,,blue,,,null,object_14a.png,object_02a.png,,,,,,,,,,,,,,,,,,,,,
733.3000000119209,,prac_rt_thecrossant_black,295489,,,,,,,,black_plus_sign,,,49,,,1,1,,,,,,,,,,,,,,,,,,,
null,,prac_color_black,295591,,,,,,,,black_plus_sign,,,null,,,,,,,,,,,,,,,,,,,,,,,
null,,prac_learn_phase(without_color),299095,,,,,,,,black_plus_sign,,,null,object_14c.png,object_02c.png,,,,,,,,,,,,,,,,,,,,,
null,,black_cross(without_color)1,299761,,,,,,,,green,,,null,object_03c.png,object_12b.png,,,,,,,,,,,,,,,,,,,,,
null,,prac_rt_plussign_withcolor,300263,,,,,,,,green,,,null,object_14c.png,object_02c.png,,,,,,,,,,,,,,,,,,,,,
1046.7000000178814,,prac_rt_thecrossant_black,301768,,,,,,,,black_plus_sign,,,50,,,1,1,,,,,,,,,,,,,,,,,,,
null,,prac_color_black,301871,,,,,,,,black_plus_sign,,,null,,,,,,,,,,,,,,,,,,,,,,,
null,,prac_learn_phase(without_color),305373,,,,,,,,black_plus_sign,,,null,object_06b.png,object_09b.png,,,,,,,,,,,,,,,,,,,,,
null,,black_cross(without_color)1,306040,,,,,,,,green,,,null,object_03c.png,object_12b.png,,,,,,,,,,,,,,,,,,,,,
null,,prac_rt_plussign_withcolor,306541,,,,,,,,blue,,,null,object_06b.png,object_09b.png,,,,,,,,,,,,,,,,,,,,,
640.3000000119209,,prac_rt_thecrossant_black,307648,,,,,,,,black_plus_sign,,,49,,,1,1,,,,,,,,,,,,,,,,,,,
null,,prac_color_black,307749,,,,,,,,black_plus_sign,,,null,,,,,,,,,,,,,,,,,,,,,,,
2391,,instruct_dir_01,310141,,,,,,,,instruct,0,Next,,,,,,,,,,,,,,,,,,,,,,,,
9126.800000011921,,instruct_dir_2,319269,,,,,,,,instruct,1,Next,,,,,,,,,,,,,,,,,,,,,,,,
3078.9000000059605,,instruct_dir_3,322349,,,,,,,,instruct,1,Next,,,,,,,,,,,,,,,,,,,,,,,,
3790.7999999821186,,instruct_dir_4,326141,,,,,,,,instruct,1,Start,,,,,,,,,,,,,,,,,,,,,,,,
null,,thebreak,326243,,,,,,,,<p></p>,,,null,,,,,,,,,,,,,,,,,,,,,,,
1071.2000000178814,,intro_0,327315,,,,,,,,instruct,,,32,,,,,,,,,,,,,,,,,,,,,,,
4103.100000023842,,prac_directmemory_phase,331420,,,,,,,,practice/object_01a.png,,,51,,,1,,practice/object_04b.png,practice/object_02a.png,practice/object_01b.png,practice/object_01b.png,1,1,,,,,,,,,,,,,
5842.9000000059605,,prac_directmemory_phase,337267,,,,,,,,practice/object_03a.png,,,50,,,0,,practice/object_03b.png,practice/object_04b.png,practice/object_01a.png,practice/object_03b.png,0,0.5,,,,,,,,,,,,,
1686.300000011921,,prac_directmemory_phase,338955,,,,,,,,practice/object_04a.png,,,50,,,0,,practice/object_04b.png,practice/object_03b.png,practice/object_02a.png,practice/object_04b.png,0,0.3333333333333333,,,,,,,,,,,,,
1647.300000011921,,prac_directmemory_phase,340604,,,,,,,,practice/object_02a.png,,,51,,,1,,practice/object_01b.png,practice/object_01a.png,practice/object_02b.png,practice/object_02b.png,1,0.5,,,,,,,,,,,,,
8119.799999982119,,practice_feedback_force_restart,348725,,,,,,,,practice_feedback,0,,,,,,,,,,,,,1,,,,,,,,,,,,
1549.3999999761581,,last_instruct,350275,,,,,,,,instruct,,,32,,,,,,,,,,,,,,,,,,,,,,,
null,,prac_learn_phase(without_color),353777,,,,,,,,black_plus_sign,,,null,object_03c.png,object_12b.png,,,,,,,,,,,,,,,,,,,,,
null,,prac_black_cross(without_color),354476,,,,,,,,green,,,null,object_03c.png,object_12b.png,,,,,,,,,,,,,,,,,,,,,
null,,prac_rt_plussign_withcolor,354978,,,,,,,,green,,,null,object_03c.png,object_12b.png,,,,,,,,,,,,,,,,,,,,,
1252.9000000059605,,prac_rt_thecrossant_black,356283,,,,,,,,black_plus_sign,,,50,,,1,1,,,,,,,,,,,,,,,,,,,
null,,prac_color_black,356385,,,,,,,,black_plus_sign,,,null,,,,,,,,,,,,,,,,,,,,,,,
null,,prac_learn_phase(without_color),359888,,,,,,,,black_plus_sign,,,null,object_14a.png,object_02a.png,,,,,,,,,,,,,,,,,,,,,
null,,black_cross(without_color)1,360554,,,,,,,,green,,,null,object_03c.png,object_12b.png,,,,,,,,,,,,,,,,,,,,,
null,,prac_rt_plussign_withcolor,361055,,,,,,,,blue,,,null,object_14a.png,object_02a.png,,,,,,,,,,,,,,,,,,,,,
943.4000000059605,,prac_rt_thecrossant_black,362634,,,,,,,,black_plus_sign,,,50,,,0,0.8333333333333334,,,,,,,,,,,,,,,,,,,
null,,prac_color_black,362740,,,,,,,,black_plus_sign,,,null,,,,,,,,,,,,,,,,,,,,,,,
null,,prac_learn_phase(without_color),366243,,,,,,,,black_plus_sign,,,null,object_14c.png,object_02c.png,,,,,,,,,,,,,,,,,,,,,
null,,black_cross(without_color)1,366910,,,,,,,,green,,,null,object_03c.png,object_12b.png,,,,,,,,,,,,,,,,,,,,,
null,,prac_rt_plussign_withcolor,367411,,,,,,,,green,,,null,object_14c.png,object_02c.png,,,,,,,,,,,,,,,,,,,,,
547.2000000178814,,prac_rt_thecrossant_black,368326,,,,,,,,black_plus_sign,,,50,,,1,0.8571428571428571,,,,,,,,,,,,,,,,,,,
null,,prac_color_black,368429,,,,,,,,black_plus_sign,,,null,,,,,,,,,,,,,,,,,,,,,,,
null,,prac_learn_phase(without_color),371931,,,,,,,,black_plus_sign,,,null,object_06b.png,object_09b.png,,,,,,,,,,,,,,,,,,,,,
null,,black_cross(without_color)1,372598,,,,,,,,green,,,null,object_03c.png,object_12b.png,,,,,,,,,,,,,,,,,,,,,
null,,prac_rt_plussign_withcolor,373100,,,,,,,,blue,,,null,object_06b.png,object_09b.png,,,,,,,,,,,,,,,,,,,,,
1273,,prac_rt_thecrossant_black,374306,,,,,,,,black_plus_sign,,,49,,,1,0.875,,,,,,,,,,,,,,,,,,,
null,,prac_color_black,374409,,,,,,,,black_plus_sign,,,null,,,,,,,,,,,,,,,,,,,,,,,
858.5,,instruct_dir_01,375269,,,,,,,,instruct,0,Next,,,,,,,,,,,,,,,,,,,,,,,,
1047,,instruct_dir_2,376317,,,,,,,,instruct,1,Next,,,,,,,,,,,,,,,,,,,,,,,,
1247,,instruct_dir_3,377565,,,,,,,,instruct,1,Next,,,,,,,,,,,,,,,,,,,,,,,,
894.9000000059605,,instruct_dir_4,378461,,,,,,,,instruct,1,Start,,,,,,,,,,,,,,,,,,,,,,,,
null,,thebreak,378575,,,,,,,,<p></p>,,,null,,,,,,,,,,,,,,,,,,,,,,,
1036.0999999940395,,intro_0,379612,,,,,,,,instruct,,,32,,,,,,,,,,,,,,,,,,,,,,,
2190.300000011921,,prac_directmemory_phase,381804,,,,,,,,practice/object_01a.png,,,51,,,1,,practice/object_04b.png,practice/object_02a.png,practice/object_01b.png,practice/object_01b.png,1,1,,,,,,,,,,,,,
2934,,prac_directmemory_phase,384740,,,,,,,,practice/object_03a.png,,,50,,,0,,practice/object_03b.png,practice/object_04b.png,practice/object_01a.png,practice/object_03b.png,0,0.5,,,,,,,,,,,,,
1620.9000000059605,,prac_directmemory_phase,386363,,,,,,,,practice/object_04a.png,,,50,,,0,,practice/object_04b.png,practice/object_03b.png,practice/object_02a.png,practice/object_04b.png,0,0.3333333333333333,,,,,,,,,,,,,
1311.2999999821186,,prac_directmemory_phase,387676,,,,,,,,practice/object_02a.png,,,51,,,1,,practice/object_01b.png,practice/object_01a.png,practice/object_02b.png,practice/object_02b.png,1,0.5,,,,,,,,,,,,,
5607.5999999940395,,practice_feedback_force_restart,393285,,,,,,,,practice_feedback,0,,,,,,,,,,,,,2,,,,,,,,,,,,
990.5,,last_instruct,394277,,,,,,,,instruct,,,32,,,,,,,,,,,,,,,,,,,,,,,
null,,prac_learn_phase(without_color),397778,,,,,,,,black_plus_sign,,,null,object_03c.png,object_12b.png,,,,,,,,,,,,,,,,,,,,,
null,,prac_black_cross(without_color),398745,,,,,,,,green,,,null,object_03c.png,object_12b.png,,,,,,,,,,,,,,,,,,,,,
null,,prac_rt_plussign_withcolor,399246,,,,,,,,green,,,null,object_03c.png,object_12b.png,,,,,,,,,,,,,,,,,,,,,
1122.7999999821186,,prac_rt_thecrossant_black,400284,,,,,,,,black_plus_sign,,,50,,,1,0.8888888888888888,,,,,,,,,,,,,,,,,,,
null,,prac_color_black,400386,,,,,,,,black_plus_sign,,,null,,,,,,,,,,,,,,,,,,,,,,,
null,,prac_learn_phase(without_color),403889,,,,,,,,black_plus_sign,,,null,object_14a.png,object_02a.png,,,,,,,,,,,,,,,,,,,,,
null,,black_cross(without_color)1,404555,,,,,,,,green,,,null,object_03c.png,object_12b.png,,,,,,,,,,,,,,,,,,,,,
480,,prac_rt_plussign_withcolor,405057,,,,,,,,blue,,,49,object_14a.png,object_02a.png,,,,,,,,,,,,,,,,,,,,,
null,,prac_rt_thecrossant_black,406011,,,,,,,,black_plus_sign,,,null,,,1,0.9,,,,,,,,,,,,,,,,,,,
null,,prac_color_black,406114,,,,,,,,black_plus_sign,,,null,,,,,,,,,,,,,,,,,,,,,,,
null,,prac_learn_phase(without_color),409616,,,,,,,,black_plus_sign,,,null,object_14c.png,object_02c.png,,,,,,,,,,,,,,,,,,,,,
null,,black_cross(without_color)1,410283,,,,,,,,green,,,null,object_03c.png,object_12b.png,,,,,,,,,,,,,,,,,,,,,
null,,prac_rt_plussign_withcolor,410784,,,,,,,,green,,,null,object_14c.png,object_02c.png,,,,,,,,,,,,,,,,,,,,,
1639.5,,prac_rt_thecrossant_black,411720,,,,,,,,black_plus_sign,,,50,,,1,0.9090909090909091,,,,,,,,,,,,,,,,,,,
null,,prac_color_black,411828,,,,,,,,black_plus_sign,,,null,,,,,,,,,,,,,,,,,,,,,,,
null,,prac_learn_phase(without_color),415331,,,,,,,,black_plus_sign,,,null,object_06b.png,object_09b.png,,,,,,,,,,,,,,,,,,,,,
null,,black_cross(without_color)1,416006,,,,,,,,green,,,null,object_03c.png,object_12b.png,,,,,,,,,,,,,,,,,,,,,
null,,prac_rt_plussign_withcolor,416509,,,,,,,,blue,,,null,object_06b.png,object_09b.png,,,,,,,,,,,,,,,,,,,,,
1405.699999988079,,prac_rt_thecrossant_black,417962,,,,,,,,black_plus_sign,,,49,,,1,0.9166666666666666,,,,,,,,,,,,,,,,,,,
null,,prac_color_black,418064,,,,,,,,black_plus_sign,,,null,,,,,,,,,,,,,,,,,,,,,,,
683.0999999940395,,instruct_dir_01,418749,,,,,,,,instruct,0,Next,,,,,,,,,,,,,,,,,,,,,,,,
783,,instruct_dir_2,419533,,,,,,,,instruct,1,Next,,,,,,,,,,,,,,,,,,,,,,,,
766.9000000059605,,instruct_dir_3,420301,,,,,,,,instruct,1,Next,,,,,,,,,,,,,,,,,,,,,,,,
463,,instruct_dir_4,420765,,,,,,,,instruct,1,Start,,,,,,,,,,,,,,,,,,,,,,,,
null,,thebreak,420867,,,,,,,,<p></p>,,,null,,,,,,,,,,,,,,,,,,,,,,,
728.2000000178814,,intro_0,421596,,,,,,,,instruct,,,32,,,,,,,,,,,,,,,,,,,,,,,
1205.7000000178814,,prac_directmemory_phase,422803,,,,,,,,practice/object_01a.png,,,51,,,1,,practice/object_04b.png,practice/object_02a.png,practice/object_01b.png,practice/object_01b.png,1,1,,,,,,,,,,,,,
2670.7000000178814,,prac_directmemory_phase,425476,,,,,,,,practice/object_03a.png,,,49,,,1,,practice/object_03b.png,practice/object_04b.png,practice/object_01a.png,practice/object_03b.png,1,1,,,,,,,,,,,,,
2885,,prac_directmemory_phase,428364,,,,,,,,practice/object_04a.png,,,49,,,1,,practice/object_04b.png,practice/object_03b.png,practice/object_02a.png,practice/object_04b.png,1,1,,,,,,,,,,,,,
1118.0999999940395,,prac_directmemory_phase,429484,,,,,,,,practice/object_02a.png,,,51,,,1,,practice/object_01b.png,practice/object_01a.png,practice/object_02b.png,practice/object_02b.png,1,1,,,,,,,,,,,,,
4207.699999988079,,practice_feedback,433693,,,,,,,,practice_feedback,1,,,,,,,,,,,,,,,,,,,,,,,,,
12222.699999988079,,proceed_actualTask,445917,,,,,,,,proceed_actualTask,1,Continue,,,,,,,,,,,,,,,,,,,,,,,,
2277.5,,last_inst,448196,,,,,,,,last_inst,,,32,,,,,,,,,,,,,,,,,,,,,,,
null,,learn_phase(without_color)1,451698,,,,,,,,black_plus_sign,,,null,object_03c.png,object_12b.png,,,,,,,,,,,,,,,,,,,,,
null,,black_cross(without_color)1,452365,,,,,,,,green,,,null,object_03c.png,object_12b.png,,,,,,,,,,,,,,,,,,,,,
469.5,,rt_plussign_withcolor1,452867,,,,,,,,green,,,50,object_03c.png,object_12b.png,,,,,,,,,,,,,,,,,,,,,
null,,rt_thecrossant_black1,454206,,,,,,,,black_plus_sign,,,null,,,1,,,,,,,1,,,,,,,,,,,,,
null,,color_black1,454308,,,,,,,,black_plus_sign,,,null,,,,,,,,,,,,,,,,,,,,,,,
null,,learn_phase(without_color)1,457812,,,,,,,,black_plus_sign,,,null,object_14a.png,object_02a.png,,,,,,,,,,,,,,,,,,,,,
null,,black_cross(without_color)1,458869,,,,,,,,green,,,null,object_14a.png,object_02a.png,,,,,,,,,,,,,,,,,,,,,
492.90000000596046,,rt_plussign_withcolor1,459371,,,,,,,,green,,,50,object_14a.png,object_02a.png,,,,,,,,,,,,,,,,,,,,,
null,,rt_thecrossant_black1,460319,,,,,,,,black_plus_sign,,,null,,,1,,,,,,,1,,,,,,,,,,,,,
null,,color_black1,460421,,,,,,,,black_plus_sign,,,null,,,,,,,,,,,,,,,,,,,,,,,
null,,learn_phase(without_color)1,463922,,,,,,,,black_plus_sign,,,null,object_14c.png,object_02c.png,,,,,,,,,,,,,,,,,,,,,
null,,black_cross(without_color)1,464503,,,,,,,,blue,,,null,object_14c.png,object_02c.png,,,,,,,,,,,,,,,,,,,,,
null,,rt_plussign_withcolor1,465005,,,,,,,,blue,,,null,object_14c.png,object_02c.png,,,,,,,,,,,,,,,,,,,,,
1512.4000000059605,,rt_thecrossant_black1,466428,,,,,,,,black_plus_sign,,,49,,,1,,,,,,,1,,,,,,,,,,,,,
null,,color_black1,466531,,,,,,,,black_plus_sign,,,null,,,,,,,,,,,,,,,,,,,,,,,
null,,learn_phase(without_color)1,470034,,,,,,,,black_plus_sign,,,null,object_06b.png,object_09b.png,,,,,,,,,,,,,,,,,,,,,
null,,black_cross(without_color)1,470734,,,,,,,,blue,,,null,object_06b.png,object_09b.png,,,,,,,,,,,,,,,,,,,,,
null,,rt_plussign_withcolor1,471236,,,,,,,,blue,,,null,object_06b.png,object_09b.png,,,,,,,,,,,,,,,,,,,,,
734,,rt_thecrossant_black1,472540,,,,,,,,black_plus_sign,,,49,,,1,,,,,,,1,,,,,,,,,,,,,
null,,color_black1,472642,,,,,,,,black_plus_sign,,,null,,,,,,,,,,,,,,,,,,,,,,,
null,,learn_phase(without_color)1,476145,,,,,,,,black_plus_sign,,,null,object_05a.png,object_04b.png,,,,,,,,,,,,,,,,,,,,,
null,,black_cross(without_color)1,476952,,,,,,,,green,,,null,object_05a.png,object_04b.png,,,,,,,,,,,,,,,,,,,,,
null,,rt_plussign_withcolor1,477454,,,,,,,,green,,,null,object_05a.png,object_04b.png,,,,,,,,,,,,,,,,,,,,,
873.1999999880791,,rt_thecrossant_black1,478652,,,,,,,,black_plus_sign,,,49,,,0,,,,,,,0.8,,,,,,,,,,,,,
null,,color_black1,478755,,,,,,,,black_plus_sign,,,null,,,,,,,,,,,,,,,,,,,,,,,
null,,learn_phase(without_color)1,482256,,,,,,,,black_plus_sign,,,null,object_08b.png,object_09c.png,,,,,,,,,,,,,,,,,,,,,
null,,black_cross(without_color)1,483208,,,,,,,,blue,,,null,object_08b.png,object_09c.png,,,,,,,,,,,,,,,,,,,,,
null,,rt_plussign_withcolor1,483710,,,,,,,,blue,,,null,object_08b.png,object_09c.png,,,,,,,,,,,,,,,,,,,,,
908.2000000178814,,rt_thecrossant_black1,484763,,,,,,,,black_plus_sign,,,49,,,1,,,,,,,0.8333333333333334,,,,,,,,,,,,,
null,,color_black1,484865,,,,,,,,black_plus_sign,,,null,,,,,,,,,,,,,,,,,,,,,,,
null,,learn_phase(without_color)1,488368,,,,,,,,black_plus_sign,,,null,object_04c.png,object_13b.png,,,,,,,,,,,,,,,,,,,,,
null,,black_cross(without_color)1,489188,,,,,,,,blue,,,null,object_04c.png,object_13b.png,,,,,,,,,,,,,,,,,,,,,
null,,rt_plussign_withcolor1,489689,,,,,,,,blue,,,null,object_04c.png,object_13b.png,,,,,,,,,,,,,,,,,,,,,
1371,,rt_thecrossant_black1,490874,,,,,,,,black_plus_sign,,,49,,,1,,,,,,,0.8571428571428571,,,,,,,,,,,,,
null,,color_black1,490976,,,,,,,,black_plus_sign,,,null,,,,,,,,,,,,,,,,,,,,,,,
null,,learn_phase(without_color)1,494479,,,,,,,,black_plus_sign,,,null,object_05c.png,object_05b.png,,,,,,,,,,,,,,,,,,,,,
null,,black_cross(without_color)1,495495,,,,,,,,blue,,,null,object_05c.png,object_05b.png,,,,,,,,,,,,,,,,,,,,,
484.2999999821186,,rt_plussign_withcolor1,495996,,,,,,,,blue,,,49,object_05c.png,object_05b.png,,,,,,,,,,,,,,,,,,,,,
null,,rt_thecrossant_black1,496985,,,,,,,,black_plus_sign,,,null,,,1,,,,,,,0.875,,,,,,,,,,,,,
null,,color_black1,497088,,,,,,,,black_plus_sign,,,null,,,,,,,,,,,,,,,,,,,,,,,
null,,learn_phase(without_color)1,500591,,,,,,,,black_plus_sign,,,null,object_09c.png,object_03a.png,,,,,,,,,,,,,,,,,,,,,
null,,black_cross(without_color)1,501650,,,,,,,,green,,,null,object_09c.png,object_03a.png,,,,,,,,,,,,,,,,,,,,,
null,,rt_plussign_withcolor1,502151,,,,,,,,green,,,null,object_09c.png,object_03a.png,,,,,,,,,,,,,,,,,,,,,
1973.2999999821186,,rt_thecrossant_black1,503097,,,,,,,,black_plus_sign,,,50,,,1,,,,,,,0.8888888888888888,,,,,,,,,,,,,
null,,color_black1,503200,,,,,,,,black_plus_sign,,,null,,,,,,,,,,,,,,,,,,,,,,,
null,,learn_phase(without_color)1,506703,,,,,,,,black_plus_sign,,,null,object_09b.png,object_15b.png,,,,,,,,,,,,,,,,,,,,,
null,,black_cross(without_color)1,507147,,,,,,,,blue,,,null,object_09b.png,object_15b.png,,,,,,,,,,,,,,,,,,,,,
null,,rt_plussign_withcolor1,507648,,,,,,,,blue,,,null,object_09b.png,object_15b.png,,,,,,,,,,,,,,,,,,,,,
1614.4000000059605,,rt_thecrossant_black1,509210,,,,,,,,black_plus_sign,,,49,,,1,,,,,,,0.9,,,,,,,,,,,,,
null,,color_black1,509312,,,,,,,,black_plus_sign,,,null,,,,,,,,,,,,,,,,,,,,,,,
null,,learn_phase(without_color)1,512815,,,,,,,,black_plus_sign,,,null,object_06c.png,object_01a.png,,,,,,,,,,,,,,,,,,,,,
null,,black_cross(without_color)1,513819,,,,,,,,green,,,null,object_06c.png,object_01a.png,,,,,,,,,,,,,,,,,,,,,
null,,rt_plussign_withcolor1,514322,,,,,,,,green,,,null,object_06c.png,object_01a.png,,,,,,,,,,,,,,,,,,,,,
949.1999999880791,,rt_thecrossant_black1,515323,,,,,,,,black_plus_sign,,,50,,,1,,,,,,,0.9090909090909091,,,,,,,,,,,,,
null,,color_black1,515426,,,,,,,,black_plus_sign,,,null,,,,,,,,,,,,,,,,,,,,,,,
null,,learn_phase(without_color)1,518929,,,,,,,,black_plus_sign,,,null,object_06a.png,object_10b.png,,,,,,,,,,,,,,,,,,,,,
null,,black_cross(without_color)1,520018,,,,,,,,green,,,null,object_06a.png,object_10b.png,,,,,,,,,,,,,,,,,,,,,
null,,rt_plussign_withcolor1,520519,,,,,,,,green,,,null,object_06a.png,object_10b.png,,,,,,,,,,,,,,,,,,,,,
1384.300000011921,,rt_thecrossant_black1,521435,,,,,,,,black_plus_sign,,,50,,,1,,,,,,,0.9166666666666666,,,,,,,,,,,,,
null,,color_black1,521538,,,,,,,,black_plus_sign,,,null,,,,,,,,,,,,,,,,,,,,,,,
null,,learn_phase(without_color)1,525041,,,,,,,,black_plus_sign,,,null,object_15a.png,object_10c.png,,,,,,,,,,,,,,,,,,,,,
null,,black_cross(without_color)1,526010,,,,,,,,blue,,,null,object_15a.png,object_10c.png,,,,,,,,,,,,,,,,,,,,,
null,,rt_plussign_withcolor1,526511,,,,,,,,blue,,,null,object_15a.png,object_10c.png,,,,,,,,,,,,,,,,,,,,,
1950.0999999940395,,rt_thecrossant_black1,527546,,,,,,,,black_plus_sign,,,49,,,1,,,,,,,0.9230769230769231,,,,,,,,,,,,,
null,,color_black1,527648,,,,,,,,black_plus_sign,,,null,,,,,,,,,,,,,,,,,,,,,,,
null,,learn_phase(without_color)1,531150,,,,,,,,black_plus_sign,,,null,object_08c.png,object_14c.png,,,,,,,,,,,,,,,,,,,,,
null,,black_cross(without_color)1,531669,,,,,,,,green,,,null,object_08c.png,object_14c.png,,,,,,,,,,,,,,,,,,,,,
null,,rt_plussign_withcolor1,532172,,,,,,,,green,,,null,object_08c.png,object_14c.png,,,,,,,,,,,,,,,,,,,,,
1217.5999999940395,,rt_thecrossant_black1,533662,,,,,,,,black_plus_sign,,,50,,,1,,,,,,,0.9285714285714286,,,,,,,,,,,,,
null,,color_black1,533764,,,,,,,,black_plus_sign,,,null,,,,,,,,,,,,,,,,,,,,,,,
null,,learn_phase(without_color)1,537266,,,,,,,,black_plus_sign,,,null,object_12c.png,object_01c.png,,,,,,,,,,,,,,,,,,,,,
null,,black_cross(without_color)1,538130,,,,,,,,blue,,,null,object_12c.png,object_01c.png,,,,,,,,,,,,,,,,,,,,,
null,,rt_plussign_withcolor1,538632,,,,,,,,blue,,,null,object_12c.png,object_01c.png,,,,,,,,,,,,,,,,,,,,,
643.2000000178814,,rt_thecrossant_black1,539773,,,,,,,,black_plus_sign,,,49,,,1,,,,,,,0.9333333333333333,,,,,,,,,,,,,
null,,color_black1,539875,,,,,,,,black_plus_sign,,,null,,,,,,,,,,,,,,,,,,,,,,,
null,,learn_phase(without_color)1,543377,,,,,,,,black_plus_sign,,,null,object_07a.png,object_02a.png,,,,,,,,,,,,,,,,,,,,,
null,,black_cross(without_color)1,544419,,,,,,,,green,,,null,object_07a.png,object_02a.png,,,,,,,,,,,,,,,,,,,,,
null,,rt_plussign_withcolor1,544920,,,,,,,,green,,,null,object_07a.png,object_02a.png,,,,,,,,,,,,,,,,,,,,,
963.6999999880791,,rt_thecrossant_black1,545884,,,,,,,,black_plus_sign,,,50,,,1,,,,,,,0.9375,,,,,,,,,,,,,
null,,color_black1,545986,,,,,,,,black_plus_sign,,,null,,,,,,,,,,,,,,,,,,,,,,,
null,,learn_phase(without_color)1,549503,,,,,,,,black_plus_sign,,,null,object_14b.png,object_13c.png,,,,,,,,,,,,,,,,,,,,,
null,,black_cross(without_color)1,550209,,,,,,,,blue,,,null,object_14b.png,object_13c.png,,,,,,,,,,,,,,,,,,,,,
null,,rt_plussign_withcolor1,550711,,,,,,,,blue,,,null,object_14b.png,object_13c.png,,,,,,,,,,,,,,,,,,,,,
1485,,rt_thecrossant_black1,552009,,,,,,,,black_plus_sign,,,49,,,1,,,,,,,0.9411764705882353,,,,,,,,,,,,,
null,,color_black1,552111,,,,,,,,black_plus_sign,,,null,,,,,,,,,,,,,,,,,,,,,,,
null,,learn_phase(without_color)1,555614,,,,,,,,black_plus_sign,,,null,object_12a.png,object_04a.png,,,,,,,,,,,,,,,,,,,,,
null,,black_cross(without_color)1,556064,,,,,,,,blue,,,null,object_12a.png,object_04a.png,,,,,,,,,,,,,,,,,,,,,
482.80000001192093,,rt_plussign_withcolor1,556565,,,,,,,,blue,,,49,object_12a.png,object_04a.png,,,,,,,,,,,,,,,,,,,,,
null,,rt_thecrossant_black1,558120,,,,,,,,black_plus_sign,,,null,,,1,,,,,,,0.9444444444444444,,,,,,,,,,,,,
null,,color_black1,558223,,,,,,,,black_plus_sign,,,null,,,,,,,,,,,,,,,,,,,,,,,
null,,learn_phase(without_color)1,561726,,,,,,,,black_plus_sign,,,null,object_13c.png,object_08a.png,,,,,,,,,,,,,,,,,,,,,
null,,black_cross(without_color)1,562698,,,,,,,,blue,,,null,object_13c.png,object_08a.png,,,,,,,,,,,,,,,,,,,,,
null,,rt_plussign_withcolor1,563200,,,,,,,,blue,,,null,object_13c.png,object_08a.png,,,,,,,,,,,,,,,,,,,,,
1166.4000000059605,,rt_thecrossant_black1,564232,,,,,,,,black_plus_sign,,,49,,,1,,,,,,,0.9473684210526315,,,,,,,,,,,,,
null,,color_black1,564335,,,,,,,,black_plus_sign,,,null,,,,,,,,,,,,,,,,,,,,,,,
null,,learn_phase(without_color)1,567838,,,,,,,,black_plus_sign,,,null,object_05b.png,object_09a.png,,,,,,,,,,,,,,,,,,,,,
null,,black_cross(without_color)1,568264,,,,,,,,green,,,null,object_05b.png,object_09a.png,,,,,,,,,,,,,,,,,,,,,
null,,rt_plussign_withcolor1,568765,,,,,,,,green,,,null,object_05b.png,object_09a.png,,,,,,,,,,,,,,,,,,,,,
1554.300000011921,,rt_thecrossant_black1,570344,,,,,,,,black_plus_sign,,,50,,,1,,,,,,,0.95,,,,,,,,,,,,,
null,,color_black1,570446,,,,,,,,black_plus_sign,,,null,,,,,,,,,,,,,,,,,,,,,,,
null,,learn_phase(without_color)1,573950,,,,,,,,black_plus_sign,,,null,object_15a.png,object_13a.png,,,,,,,,,,,,,,,,,,,,,
null,,black_cross(without_color)1,574703,,,,,,,,green,,,null,object_15a.png,object_13a.png,,,,,,,,,,,,,,,,,,,,,
null,,rt_plussign_withcolor1,575205,,,,,,,,green,,,null,object_15a.png,object_13a.png,,,,,,,,,,,,,,,,,,,,,
1072.8999999761581,,rt_thecrossant_black1,576463,,,,,,,,black_plus_sign,,,50,,,1,,,,,,,0.9523809523809523,,,,,,,,,,,,,
null,,color_black1,576566,,,,,,,,black_plus_sign,,,null,,,,,,,,,,,,,,,,,,,,,,,
null,,learn_phase(without_color)1,580068,,,,,,,,black_plus_sign,,,null,object_10a.png,object_11b.png,,,,,,,,,,,,,,,,,,,,,
null,,black_cross(without_color)1,580606,,,,,,,,blue,,,null,object_10a.png,object_11b.png,,,,,,,,,,,,,,,,,,,,,
null,,rt_plussign_withcolor1,581108,,,,,,,,blue,,,null,object_10a.png,object_11b.png,,,,,,,,,,,,,,,,,,,,,
1345.699999988079,,rt_thecrossant_black1,582574,,,,,,,,black_plus_sign,,,49,,,1,,,,,,,0.9545454545454546,,,,,,,,,,,,,
null,,color_black1,582676,,,,,,,,black_plus_sign,,,null,,,,,,,,,,,,,,,,,,,,,,,
null,,learn_phase(without_color)1,586179,,,,,,,,black_plus_sign,,,null,object_15c.png,object_04b.png,,,,,,,,,,,,,,,,,,,,,
null,,black_cross(without_color)1,586731,,,,,,,,blue,,,null,object_15c.png,object_04b.png,,,,,,,,,,,,,,,,,,,,,
null,,rt_plussign_withcolor1,587234,,,,,,,,blue,,,null,object_15c.png,object_04b.png,,,,,,,,,,,,,,,,,,,,,
756.1999999880791,,rt_thecrossant_black1,588687,,,,,,,,black_plus_sign,,,49,,,1,,,,,,,0.9565217391304348,,,,,,,,,,,,,
null,,color_black1,588790,,,,,,,,black_plus_sign,,,null,,,,,,,,,,,,,,,,,,,,,,,
null,,learn_phase(without_color)1,592293,,,,,,,,black_plus_sign,,,null,object_02b.png,object_13b.png,,,,,,,,,,,,,,,,,,,,,
null,,black_cross(without_color)1,592918,,,,,,,,blue,,,null,object_02b.png,object_13b.png,,,,,,,,,,,,,,,,,,,,,
null,,rt_plussign_withcolor1,593419,,,,,,,,blue,,,null,object_02b.png,object_13b.png,,,,,,,,,,,,,,,,,,,,,
1303.1000000238419,,rt_thecrossant_black1,594798,,,,,,,,black_plus_sign,,,49,,,1,,,,,,,0.9583333333333334,,,,,,,,,,,,,
null,,color_black1,594900,,,,,,,,black_plus_sign,,,null,,,,,,,,,,,,,,,,,,,,,,,
null,,learn_phase(without_color)1,598403,,,,,,,,black_plus_sign,,,null,object_10b.png,object_11a.png,,,,,,,,,,,,,,,,,,,,,
null,,black_cross(without_color)1,598886,,,,,,,,green,,,null,object_10b.png,object_11a.png,,,,,,,,,,,,,,,,,,,,,
null,,rt_plussign_withcolor1,599387,,,,,,,,green,,,null,object_10b.png,object_11a.png,,,,,,,,,,,,,,,,,,,,,
1002.0999999940395,,rt_thecrossant_black1,600909,,,,,,,,black_plus_sign,,,50,,,1,,,,,,,0.96,,,,,,,,,,,,,
null,,color_black1,601012,,,,,,,,black_plus_sign,,,null,,,,,,,,,,,,,,,,,,,,,,,
null,,learn_phase(without_color)1,604516,,,,,,,,black_plus_sign,,,null,object_07c.png,object_12b.png,,,,,,,,,,,,,,,,,,,,,
null,,black_cross(without_color)1,604969,,,,,,,,green,,,null,object_07c.png,object_12b.png,,,,,,,,,,,,,,,,,,,,,
null,,rt_plussign_withcolor1,605470,,,,,,,,green,,,null,object_07c.png,object_12b.png,,,,,,,,,,,,,,,,,,,,,
649.5,,rt_thecrossant_black1,607022,,,,,,,,black_plus_sign,,,50,,,1,,,,,,,0.9615384615384616,,,,,,,,,,,,,
null,,color_black1,607124,,,,,,,,black_plus_sign,,,null,,,,,,,,,,,,,,,,,,,,,,,
null,,learn_phase(without_color)1,610627,,,,,,,,black_plus_sign,,,null,object_06c.png,object_11c.png,,,,,,,,,,,,,,,,,,,,,
null,,black_cross(without_color)1,611449,,,,,,,,green,,,null,object_06c.png,object_11c.png,,,,,,,,,,,,,,,,,,,,,
null,,rt_plussign_withcolor1,611950,,,,,,,,green,,,null,object_06c.png,object_11c.png,,,,,,,,,,,,,,,,,,,,,
857.5999999940395,,rt_thecrossant_black1,613133,,,,,,,,black_plus_sign,,,49,,,0,,,,,,,0.9259259259259259,,,,,,,,,,,,,
null,,color_black1,613235,,,,,,,,black_plus_sign,,,null,,,,,,,,,,,,,,,,,,,,,,,
null,,learn_phase(without_color)1,616738,,,,,,,,black_plus_sign,,,null,object_04a.png,object_01b.png,,,,,,,,,,,,,,,,,,,,,
null,,black_cross(without_color)1,617432,,,,,,,,green,,,null,object_04a.png,object_01b.png,,,,,,,,,,,,,,,,,,,,,
null,,rt_plussign_withcolor1,617935,,,,,,,,green,,,null,object_04a.png,object_01b.png,,,,,,,,,,,,,,,,,,,,,
1675.699999988079,,rt_thecrossant_black1,619245,,,,,,,,black_plus_sign,,,50,,,1,,,,,,,0.9285714285714286,,,,,,,,,,,,,
null,,color_black1,619347,,,,,,,,black_plus_sign,,,null,,,,,,,,,,,,,,,,,,,,,,,
null,,learn_phase(without_color)1,622849,,,,,,,,black_plus_sign,,,null,object_11b.png,object_07b.png,,,,,,,,,,,,,,,,,,,,,
null,,black_cross(without_color)1,623659,,,,,,,,green,,,null,object_11b.png,object_07b.png,,,,,,,,,,,,,,,,,,,,,
null,,rt_plussign_withcolor1,624161,,,,,,,,green,,,null,object_11b.png,object_07b.png,,,,,,,,,,,,,,,,,,,,,
null,,rt_thecrossant_black1,625356,,,,,,,,black_plus_sign,,,null,,,,,,,,,,0.9285714285714286,,,,,,,,,,,,,
null,,color_black1,625459,,,,,,,,black_plus_sign,,,null,,,,,,,,,,,,,,,,,,,,,,,
null,,learn_phase(without_color)1,628962,,,,,,,,black_plus_sign,,,null,object_01c.png,object_03b.png,,,,,,,,,,,,,,,,,,,,,
null,,black_cross(without_color)1,629375,,,,,,,,green,,,null,object_01c.png,object_03b.png,,,,,,,,,,,,,,,,,,,,,
null,,rt_plussign_withcolor1,629877,,,,,,,,green,,,null,object_01c.png,object_03b.png,,,,,,,,,,,,,,,,,,,,,
1688.1000000238419,,rt_thecrossant_black1,631469,,,,,,,,black_plus_sign,,,50,,,1,,,,,,,0.9310344827586207,,,,,,,,,,,,,
null,,color_black1,631572,,,,,,,,black_plus_sign,,,null,,,,,,,,,,,,,,,,,,,,,,,
null,,thebreak,631684,,,,,,,,<p></p>,,,null,,,,,,,,,,,,,,,,,,,,,,,
1726.300000011921,,intro_0,633411,,,,,,,,instruct,,,32,,,,,,,,,,,,,,,,,,,,,,,
4279.5,,directmemory_phase1,637692,,,,,,,,object_07b.png,,,49,,,1,,object_11b.png,object_14c.png,object_02c.png,object_11b.png,,1,,1,,,,,,,,,,,
4765.5999999940395,,directmemory_phase1,642460,,,,,,,,object_01a.png,,,49,,,1,,object_06c.png,object_09c.png,object_08a.png,object_06c.png,,1,,1,,,,,,,,,,,
4781.5999999940395,,directmemory_phase1,647244,,,,,,,,object_04a.png,,,51,,,1,,object_04c.png,object_13c.png,object_01b.png,object_01b.png,,1,,1,,,,,,,,,,,
4429.699999988079,,directmemory_phase1,651675,,,,,,,,object_10a.png,,,51,,,0,,object_11b.png,object_12b.png,object_12a.png,object_11b.png,,0.75,,0,,,,,,,,,,,
3406.0999999940395,,directmemory_phase1,655084,,,,,,,,object_15c.png,,,49,,,1,,object_04b.png,object_11b.png,object_14b.png,object_04b.png,,0.8,,1,,,,,,,,,,,
5197.199999988079,,directmemory_phase1,660284,,,,,,,,object_10c.png,,,51,,,0,,object_02c.png,object_15a.png,object_04b.png,object_15a.png,,0.6666666666666666,,0,,,,,,,,,,,
3901.0999999940395,,directmemory_phase1,664187,,,,,,,,object_08c.png,,,49,,,0,,object_08a.png,object_14c.png,object_11b.png,object_14c.png,,0.5714285714285714,,0,,,,,,,,,,,
3703.199999988079,,directmemory_phase1,667892,,,,,,,,object_09b.png,,,51,,,1,,object_08b.png,object_04a.png,object_06b.png,object_06b.png,,0.625,,1,,,,,,,,,,,
4420.699999988079,,directmemory_phase1,672315,,,,,,,,object_08a.png,,,49,,,0,,object_09c.png,object_10a.png,object_13c.png,object_13c.png,,0.5555555555555556,,0,,,,,,,,,,,
1910.699999988079,,directmemory_phase1,674228,,,,,,,,object_04c.png,,,49,,,0,,object_02c.png,object_13b.png,object_09c.png,object_13b.png,,0.5,,0,,,,,,,,,,,
4013.7000000178814,,directmemory_phase1,678244,,,,,,,,object_05b.png,,,50,,,0,,object_07c.png,object_13b.png,object_09a.png,object_09a.png,,0.45454545454545453,,0,,,,,,,,,,,
2757.100000023842,,directmemory_phase1,681003,,,,,,,,object_05c.png,,,51,,,0,,object_05b.png,object_09b.png,object_12c.png,object_05b.png,,0.4166666666666667,,0,,,,,,,,,,,
3974.699999988079,,directmemory_phase1,684980,,,,,,,,object_07a.png,,,51,,,1,,object_13b.png,object_02b.png,object_02a.png,object_02a.png,,0.46153846153846156,,1,,,,,,,,,,,
5805.9000000059605,,directmemory_phase1,690788,,,,,,,,object_02b.png,,,50,,,1,,object_15b.png,object_13b.png,object_11b.png,object_13b.png,,0.5,,1,,,,,,,,,,,
3141.300000011921,,directmemory_phase1,693932,,,,,,,,object_12c.png,,,51,,,1,,object_13b.png,object_08a.png,object_01c.png,object_01c.png,,0.5333333333333333,,1,,,,,,,,,,,
4405.299999982119,,directmemory_phase1,698340,,,,,,,,object_14a.png,,,51,,,1,,object_14c.png,object_06b.png,object_02a.png,object_02a.png,,0.5625,,1,,,,,,,,,,,
3710,,directmemory_phase1,702052,,,,,,,,object_07c.png,,,50,,,1,,object_06a.png,object_12b.png,object_10b.png,object_12b.png,,0.5882352941176471,,1,,,,,,,,,,,
3997.399999976158,,directmemory_phase1,706052,,,,,,,,object_03c.png,,,50,,,1,,object_12a.png,object_12b.png,object_01c.png,object_12b.png,,0.6111111111111112,,1,,,,,,,,,,,
4613.5,,directmemory_phase1,710667,,,,,,,,object_02c.png,,,51,,,1,,object_10b.png,object_07c.png,object_14c.png,object_14c.png,,0.631578947368421,,1,,,,,,,,,,,
3734,,directmemory_phase1,714404,,,,,,,,object_13a.png,,,50,,,1,,object_10a.png,object_15a.png,object_14c.png,object_15a.png,,0.65,,1,,,,,,,,,,,
5693.300000011921,,directmemory_phase1,720100,,,,,,,,object_13c.png,,,51,,,1,,object_09a.png,object_14c.png,object_14b.png,object_14b.png,,0.6666666666666666,,1,,,,,,,,,,,
4645.800000011921,,directmemory_phase1,724748,,,,,,,,object_12a.png,,,50,,,1,,object_05a.png,object_04a.png,object_02a.png,object_04a.png,,0.6818181818181818,,1,,,,,,,,,,,
6300.9000000059605,,directmemory_phase1,731051,,,,,,,,object_03a.png,,,51,,,1,,object_02a.png,object_12c.png,object_09c.png,object_09c.png,,0.6956521739130435,,1,,,,,,,,,,,
3237.699999988079,,directmemory_phase1,734292,,,,,,,,object_11a.png,,,50,,,0,,object_10b.png,object_13b.png,object_07a.png,object_10b.png,,0.6666666666666666,,0,,,,,,,,,,,
2821.7000000178814,,directmemory_phase1,737116,,,,,,,,object_05a.png,,,50,,,0,,object_01c.png,object_12c.png,object_04b.png,object_04b.png,,0.64,,0,,,,,,,,,,,
3093.5,,directmemory_phase1,740212,,,,,,,,object_08b.png,,,50,,,1,,object_01b.png,object_09c.png,object_13c.png,object_09c.png,,0.6538461538461539,,1,,,,,,,,,,,
3501.0999999940395,,directmemory_phase1,743716,,,,,,,,object_15b.png,,,50,,,0,,object_09c.png,object_12c.png,object_09b.png,object_09b.png,,0.6296296296296297,,0,,,,,,,,,,,
5389.0999999940395,,directmemory_phase1,749107,,,,,,,,object_03b.png,,,51,,,0,,object_10c.png,object_01c.png,object_04b.png,object_01c.png,,0.6071428571428571,,0,,,,,,,,,,,
4862.199999988079,,directmemory_phase1,753971,,,,,,,,object_11c.png,,,50,,,0,,object_06c.png,object_15a.png,object_15c.png,object_06c.png,,0.5862068965517241,,0,,,,,,,,,,,
5343.300000011921,,directmemory_phase1,759316,,,,,,,,object_06a.png,,,51,,,0,,object_10b.png,object_04b.png,object_14a.png,object_10b.png,,0.5666666666666667,,0,,,,,,,,,,,
null,,thebreak,759420,,,,,,,,<p></p>,,,null,,,,,,,,,,,,,,,,,,,,,,,
1287,,intro_0,760708,,,,,,,,instruct,,,32,,,,,,,,,,,,,,,,,,,,,,,
null,,learn_phase(without_color)2,764209,,,,,,,,black_plus_sign,,,null,object_01c.png,object_12c.png,,,,,,,,,,,,,,,,,,,,,
null,,black_cross(without_color)2,765217,,,,,,,,green,,,null,object_01c.png,object_12c.png,,,,,,,,,,,,,,,,,,,,,
null,,rt_plussign_withcolor2,765719,,,,,,,,green,,,null,object_01c.png,object_12c.png,,,,,,,,,,,,,,,,,,,,,
1988.5999999940395,,rt_thecrossant_black2,766716,,,,,,,,black_plus_sign,,,50,,,1,,,,,,,1,,,,,,,,,,,,,
null,,color_black2,766819,,,,,,,,black_plus_sign,,,null,,,,,,,,,,,,,,,,,,,,,,,
null,,learn_phase(without_color)2,770322,,,,,,,,black_plus_sign,,,null,object_01c.png,object_03b.png,,,,,,,,,,,,,,,,,,,,,
null,,black_cross(without_color)2,770911,,,,,,,,blue,,,null,object_01c.png,object_03b.png,,,,,,,,,,,,,,,,,,,,,
null,,rt_plussign_withcolor2,771421,,,,,,,,blue,,,null,object_01c.png,object_03b.png,,,,,,,,,,,,,,,,,,,,,
1351.1000000238419,,rt_thecrossant_black2,772836,,,,,,,,black_plus_sign,,,49,,,1,,,,,,,1,,,,,,,,,,,,,
null,,color_black2,772939,,,,,,,,black_plus_sign,,,null,,,,,,,,,,,,,,,,,,,,,,,
null,,learn_phase(without_color)2,776442,,,,,,,,black_plus_sign,,,null,object_08a.png,object_13c.png,,,,,,,,,,,,,,,,,,,,,
null,,black_cross(without_color)2,777505,,,,,,,,green,,,null,object_08a.png,object_13c.png,,,,,,,,,,,,,,,,,,,,,
null,,rt_plussign_withcolor2,778006,,,,,,,,green,,,null,object_08a.png,object_13c.png,,,,,,,,,,,,,,,,,,,,,
731.6000000238419,,rt_thecrossant_black2,778948,,,,,,,,black_plus_sign,,,50,,,1,,,,,,,1,,,,,,,,,,,,,
null,,color_black2,779050,,,,,,,,black_plus_sign,,,null,,,,,,,,,,,,,,,,,,,,,,,
null,,learn_phase(without_color)2,782553,,,,,,,,black_plus_sign,,,null,object_05c.png,object_05b.png,,,,,,,,,,,,,,,,,,,,,
null,,black_cross(without_color)2,783286,,,,,,,,blue,,,null,object_05c.png,object_05b.png,,,,,,,,,,,,,,,,,,,,,
null,,rt_plussign_withcolor2,783788,,,,,,,,blue,,,null,object_05c.png,object_05b.png,,,,,,,,,,,,,,,,,,,,,
1358.300000011921,,rt_thecrossant_black2,785059,,,,,,,,black_plus_sign,,,49,,,1,,,,,,,1,,,,,,,,,,,,,
null,,color_black2,785162,,,,,,,,black_plus_sign,,,null,,,,,,,,,,,,,,,,,,,,,,,
null,,learn_phase(without_color)2,788669,,,,,,,,black_plus_sign,,,null,object_03a.png,object_09c.png,,,,,,,,,,,,,,,,,,,,,
null,,black_cross(without_color)2,789531,,,,,,,,blue,,,null,object_03a.png,object_09c.png,,,,,,,,,,,,,,,,,,,,,
null,,rt_plussign_withcolor2,790033,,,,,,,,blue,,,null,object_03a.png,object_09c.png,,,,,,,,,,,,,,,,,,,,,
1759.9000000059605,,rt_thecrossant_black2,791176,,,,,,,,black_plus_sign,,,49,,,1,,,,,,,1,,,,,,,,,,,,,
null,,color_black2,791278,,,,,,,,black_plus_sign,,,null,,,,,,,,,,,,,,,,,,,,,,,
null,,learn_phase(without_color)2,794781,,,,,,,,black_plus_sign,,,null,object_08c.png,object_14c.png,,,,,,,,,,,,,,,,,,,,,
null,,black_cross(without_color)2,795702,,,,,,,,green,,,null,object_08c.png,object_14c.png,,,,,,,,,,,,,,,,,,,,,
null,,rt_plussign_withcolor2,796204,,,,,,,,green,,,null,object_08c.png,object_14c.png,,,,,,,,,,,,,,,,,,,,,
null,,rt_thecrossant_black2,797287,,,,,,,,black_plus_sign,,,null,,,,,,,,,,1,,,,,,,,,,,,,
null,,color_black2,797390,,,,,,,,black_plus_sign,,,null,,,,,,,,,,,,,,,,,,,,,,,
null,,learn_phase(without_color)2,800894,,,,,,,,black_plus_sign,,,null,object_02c.png,object_14c.png,,,,,,,,,,,,,,,,,,,,,
null,,black_cross(without_color)2,801866,,,,,,,,green,,,null,object_02c.png,object_14c.png,,,,,,,,,,,,,,,,,,,,,
null,,rt_plussign_withcolor2,802368,,,,,,,,green,,,null,object_02c.png,object_14c.png,,,,,,,,,,,,,,,,,,,,,
1260,,rt_thecrossant_black2,803401,,,,,,,,black_plus_sign,,,50,,,1,,,,,,,1,,,,,,,,,,,,,
null,,color_black2,803503,,,,,,,,black_plus_sign,,,null,,,,,,,,,,,,,,,,,,,,,,,
null,,learn_phase(without_color)2,807006,,,,,,,,black_plus_sign,,,null,object_14b.png,object_13c.png,,,,,,,,,,,,,,,,,,,,,
null,,black_cross(without_color)2,807720,,,,,,,,blue,,,null,object_14b.png,object_13c.png,,,,,,,,,,,,,,,,,,,,,
null,,rt_plussign_withcolor2,808222,,,,,,,,blue,,,null,object_14b.png,object_13c.png,,,,,,,,,,,,,,,,,,,,,
1345.800000011921,,rt_thecrossant_black2,809514,,,,,,,,black_plus_sign,,,49,,,1,,,,,,,1,,,,,,,,,,,,,
null,,color_black2,809617,,,,,,,,black_plus_sign,,,null,,,,,,,,,,,,,,,,,,,,,,,
null,,learn_phase(without_color)2,813119,,,,,,,,black_plus_sign,,,null,object_10b.png,object_11a.png,,,,,,,,,,,,,,,,,,,,,
null,,black_cross(without_color)2,814038,,,,,,,,green,,,null,object_10b.png,object_11a.png,,,,,,,,,,,,,,,,,,,,,
null,,rt_plussign_withcolor2,814539,,,,,,,,green,,,null,object_10b.png,object_11a.png,,,,,,,,,,,,,,,,,,,,,
1273.699999988079,,rt_thecrossant_black2,815636,,,,,,,,black_plus_sign,,,50,,,1,,,,,,,1,,,,,,,,,,,,,
null,,color_black2,815738,,,,,,,,black_plus_sign,,,null,,,,,,,,,,,,,,,,,,,,,,,
null,,learn_phase(without_color)2,819241,,,,,,,,black_plus_sign,,,null,object_10c.png,object_15a.png,,,,,,,,,,,,,,,,,,,,,
null,,black_cross(without_color)2,819672,,,,,,,,blue,,,null,object_10c.png,object_15a.png,,,,,,,,,,,,,,,,,,,,,
null,,rt_plussign_withcolor2,820174,,,,,,,,blue,,,null,object_10c.png,object_15a.png,,,,,,,,,,,,,,,,,,,,,
1394.699999988079,,rt_thecrossant_black2,821748,,,,,,,,black_plus_sign,,,49,,,1,,,,,,,1,,,,,,,,,,,,,
null,,color_black2,821851,,,,,,,,black_plus_sign,,,null,,,,,,,,,,,,,,,,,,,,,,,
null,,learn_phase(without_color)2,825352,,,,,,,,black_plus_sign,,,null,object_13b.png,object_02b.png,,,,,,,,,,,,,,,,,,,,,
null,,black_cross(without_color)2,826306,,,,,,,,green,,,null,object_13b.png,object_02b.png,,,,,,,,,,,,,,,,,,,,,
null,,rt_plussign_withcolor2,826809,,,,,,,,green,,,null,object_13b.png,object_02b.png,,,,,,,,,,,,,,,,,,,,,
809.4000000059605,,rt_thecrossant_black2,827859,,,,,,,,black_plus_sign,,,49,,,0,,,,,,,0.9,,,,,,,,,,,,,
null,,color_black2,827961,,,,,,,,black_plus_sign,,,null,,,,,,,,,,,,,,,,,,,,,,,
null,,learn_phase(without_color)2,831464,,,,,,,,black_plus_sign,,,null,object_15a.png,object_13a.png,,,,,,,,,,,,,,,,,,,,,
null,,black_cross(without_color)2,831927,,,,,,,,blue,,,null,object_15a.png,object_13a.png,,,,,,,,,,,,,,,,,,,,,
null,,rt_plussign_withcolor2,832428,,,,,,,,blue,,,null,object_15a.png,object_13a.png,,,,,,,,,,,,,,,,,,,,,
null,,rt_thecrossant_black2,833971,,,,,,,,black_plus_sign,,,null,,,,,,,,,,0.9,,,,,,,,,,,,,
null,,warning_page,838973,,,,,,,,warning,,,null,,,,,,,,,,,,,,,,,,,,,,,
null,,color_black2,839075,,,,,,,,black_plus_sign,,,null,,,,,,,,,,,,,,,,,,,,,,,
null,,learn_phase(without_color)2,842579,,,,,,,,black_plus_sign,,,null,object_15c.png,object_04b.png,,,,,,,,,,,,,,,,,,,,,
null,,black_cross(without_color)2,843665,,,,,,,,blue,,,null,object_15c.png,object_04b.png,,,,,,,,,,,,,,,,,,,,,
null,,rt_plussign_withcolor2,844167,,,,,,,,blue,,,null,object_15c.png,object_04b.png,,,,,,,,,,,,,,,,,,,,,
715,,rt_thecrossant_black2,845084,,,,,,,,black_plus_sign,,,49,,,1,,,,,,,0.9090909090909091,,,,,,,,,,,,,
null,,color_black2,845192,,,,,,,,black_plus_sign,,,null,,,,,,,,,,,,,,,,,,,,,,,
null,,learn_phase(without_color)2,848709,,,,,,,,black_plus_sign,,,null,object_02a.png,object_14a.png,,,,,,,,,,,,,,,,,,,,,
null,,black_cross(without_color)2,849226,,,,,,,,blue,,,null,object_02a.png,object_14a.png,,,,,,,,,,,,,,,,,,,,,
null,,rt_plussign_withcolor2,849728,,,,,,,,blue,,,null,object_02a.png,object_14a.png,,,,,,,,,,,,,,,,,,,,,
1331.2000000178814,,rt_thecrossant_black2,851215,,,,,,,,black_plus_sign,,,49,,,1,,,,,,,0.9166666666666666,,,,,,,,,,,,,
null,,color_black2,851318,,,,,,,,black_plus_sign,,,null,,,,,,,,,,,,,,,,,,,,,,,
null,,learn_phase(without_color)2,854821,,,,,,,,black_plus_sign,,,null,object_09c.png,object_08b.png,,,,,,,,,,,,,,,,,,,,,
null,,black_cross(without_color)2,855852,,,,,,,,blue,,,null,object_09c.png,object_08b.png,,,,,,,,,,,,,,,,,,,,,
null,,rt_plussign_withcolor2,856354,,,,,,,,blue,,,null,object_09c.png,object_08b.png,,,,,,,,,,,,,,,,,,,,,
646.5,,rt_thecrossant_black2,857328,,,,,,,,black_plus_sign,,,49,,,1,,,,,,,0.9230769230769231,,,,,,,,,,,,,
null,,color_black2,857430,,,,,,,,black_plus_sign,,,null,,,,,,,,,,,,,,,,,,,,,,,
null,,learn_phase(without_color)2,860933,,,,,,,,black_plus_sign,,,null,object_12a.png,object_04a.png,,,,,,,,,,,,,,,,,,,,,
null,,black_cross(without_color)2,861735,,,,,,,,blue,,,null,object_12a.png,object_04a.png,,,,,,,,,,,,,,,,,,,,,
475.5,,rt_plussign_withcolor2,862237,,,,,,,,blue,,,49,object_12a.png,object_04a.png,,,,,,,,,,,,,,,,,,,,,
null,,rt_thecrossant_black2,863450,,,,,,,,black_plus_sign,,,null,,,1,,,,,,,0.9285714285714286,,,,,,,,,,,,,
null,,color_black2,863554,,,,,,,,black_plus_sign,,,null,,,,,,,,,,,,,,,,,,,,,,,
null,,learn_phase(without_color)2,867058,,,,,,,,black_plus_sign,,,null,object_02a.png,object_07a.png,,,,,,,,,,,,,,,,,,,,,
null,,black_cross(without_color)2,867998,,,,,,,,blue,,,null,object_02a.png,object_07a.png,,,,,,,,,,,,,,,,,,,,,
null,,rt_plussign_withcolor2,868500,,,,,,,,blue,,,null,object_02a.png,object_07a.png,,,,,,,,,,,,,,,,,,,,,
1109.300000011921,,rt_thecrossant_black2,869565,,,,,,,,black_plus_sign,,,49,,,1,,,,,,,0.9333333333333333,,,,,,,,,,,,,
null,,color_black2,869668,,,,,,,,black_plus_sign,,,null,,,,,,,,,,,,,,,,,,,,,,,
null,,learn_phase(without_color)2,873172,,,,,,,,black_plus_sign,,,null,object_06c.png,object_11c.png,,,,,,,,,,,,,,,,,,,,,
null,,black_cross(without_color)2,874124,,,,,,,,blue,,,null,object_06c.png,object_11c.png,,,,,,,,,,,,,,,,,,,,,
null,,rt_plussign_withcolor2,874626,,,,,,,,blue,,,null,object_06c.png,object_11c.png,,,,,,,,,,,,,,,,,,,,,
1662.0999999940395,,rt_thecrossant_black2,875680,,,,,,,,black_plus_sign,,,49,,,1,,,,,,,0.9375,,,,,,,,,,,,,
null,,color_black2,875782,,,,,,,,black_plus_sign,,,null,,,,,,,,,,,,,,,,,,,,,,,
null,,learn_phase(without_color)2,879288,,,,,,,,black_plus_sign,,,null,object_04b.png,object_05a.png,,,,,,,,,,,,,,,,,,,,,
null,,black_cross(without_color)2,880379,,,,,,,,blue,,,null,object_04b.png,object_05a.png,,,,,,,,,,,,,,,,,,,,,
null,,rt_plussign_withcolor2,880881,,,,,,,,blue,,,null,object_04b.png,object_05a.png,,,,,,,,,,,,,,,,,,,,,
1713.5,,rt_thecrossant_black2,881795,,,,,,,,black_plus_sign,,,49,,,1,,,,,,,0.9411764705882353,,,,,,,,,,,,,
null,,color_black2,881898,,,,,,,,black_plus_sign,,,null,,,,,,,,,,,,,,,,,,,,,,,
null,,learn_phase(without_color)2,885400,,,,,,,,black_plus_sign,,,null,object_13b.png,object_04c.png,,,,,,,,,,,,,,,,,,,,,
null,,black_cross(without_color)2,885862,,,,,,,,green,,,null,object_13b.png,object_04c.png,,,,,,,,,,,,,,,,,,,,,
null,,rt_plussign_withcolor2,886364,,,,,,,,green,,,null,object_13b.png,object_04c.png,,,,,,,,,,,,,,,,,,,,,
1402.8999999761581,,rt_thecrossant_black2,887908,,,,,,,,black_plus_sign,,,50,,,1,,,,,,,0.9444444444444444,,,,,,,,,,,,,
null,,color_black2,888011,,,,,,,,black_plus_sign,,,null,,,,,,,,,,,,,,,,,,,,,,,
null,,learn_phase(without_color)2,891514,,,,,,,,black_plus_sign,,,null,object_06b.png,object_09b.png,,,,,,,,,,,,,,,,,,,,,
null,,black_cross(without_color)2,892119,,,,,,,,green,,,null,object_06b.png,object_09b.png,,,,,,,,,,,,,,,,,,,,,
null,,rt_plussign_withcolor2,892621,,,,,,,,green,,,null,object_06b.png,object_09b.png,,,,,,,,,,,,,,,,,,,,,
779,,rt_thecrossant_black2,894020,,,,,,,,black_plus_sign,,,50,,,1,,,,,,,0.9473684210526315,,,,,,,,,,,,,
null,,color_black2,894123,,,,,,,,black_plus_sign,,,null,,,,,,,,,,,,,,,,,,,,,,,
null,,learn_phase(without_color)2,897626,,,,,,,,black_plus_sign,,,null,object_10a.png,object_11b.png,,,,,,,,,,,,,,,,,,,,,
null,,black_cross(without_color)2,898705,,,,,,,,blue,,,null,object_10a.png,object_11b.png,,,,,,,,,,,,,,,,,,,,,
null,,rt_plussign_withcolor2,899207,,,,,,,,blue,,,null,object_10a.png,object_11b.png,,,,,,,,,,,,,,,,,,,,,
793.7000000178814,,rt_thecrossant_black2,900133,,,,,,,,black_plus_sign,,,49,,,1,,,,,,,0.95,,,,,,,,,,,,,
null,,color_black2,900237,,,,,,,,black_plus_sign,,,null,,,,,,,,,,,,,,,,,,,,,,,
null,,learn_phase(without_color)2,903741,,,,,,,,black_plus_sign,,,null,object_06a.png,object_10b.png,,,,,,,,,,,,,,,,,,,,,
null,,black_cross(without_color)2,904625,,,,,,,,blue,,,null,object_06a.png,object_10b.png,,,,,,,,,,,,,,,,,,,,,
null,,rt_plussign_withcolor2,905127,,,,,,,,blue,,,null,object_06a.png,object_10b.png,,,,,,,,,,,,,,,,,,,,,
1491.699999988079,,rt_thecrossant_black2,906248,,,,,,,,black_plus_sign,,,49,,,1,,,,,,,0.9523809523809523,,,,,,,,,,,,,
null,,color_black2,906351,,,,,,,,black_plus_sign,,,null,,,,,,,,,,,,,,,,,,,,,,,
null,,learn_phase(without_color)2,909854,,,,,,,,black_plus_sign,,,null,object_07c.png,object_12b.png,,,,,,,,,,,,,,,,,,,,,
null,,black_cross(without_color)2,910722,,,,,,,,green,,,null,object_07c.png,object_12b.png,,,,,,,,,,,,,,,,,,,,,
null,,rt_plussign_withcolor2,911223,,,,,,,,green,,,null,object_07c.png,object_12b.png,,,,,,,,,,,,,,,,,,,,,
1240.9000000059605,,rt_thecrossant_black2,912362,,,,,,,,black_plus_sign,,,50,,,1,,,,,,,0.9545454545454546,,,,,,,,,,,,,
null,,color_black2,912465,,,,,,,,black_plus_sign,,,null,,,,,,,,,,,,,,,,,,,,,,,
null,,learn_phase(without_color)2,915967,,,,,,,,black_plus_sign,,,null,object_09a.png,object_05b.png,,,,,,,,,,,,,,,,,,,,,
null,,black_cross(without_color)2,916560,,,,,,,,green,,,null,object_09a.png,object_05b.png,,,,,,,,,,,,,,,,,,,,,
null,,rt_plussign_withcolor2,917062,,,,,,,,green,,,null,object_09a.png,object_05b.png,,,,,,,,,,,,,,,,,,,,,
1207.4000000059605,,rt_thecrossant_black2,918475,,,,,,,,black_plus_sign,,,50,,,1,,,,,,,0.9565217391304348,,,,,,,,,,,,,
null,,color_black2,918590,,,,,,,,black_plus_sign,,,null,,,,,,,,,,,,,,,,,,,,,,,
null,,learn_phase(without_color)2,922094,,,,,,,,black_plus_sign,,,null,object_15b.png,object_09b.png,,,,,,,,,,,,,,,,,,,,,
null,,black_cross(without_color)2,922576,,,,,,,,green,,,null,object_15b.png,object_09b.png,,,,,,,,,,,,,,,,,,,,,
null,,rt_plussign_withcolor2,923078,,,,,,,,green,,,null,object_15b.png,object_09b.png,,,,,,,,,,,,,,,,,,,,,
798.2000000178814,,rt_thecrossant_black2,924603,,,,,,,,black_plus_sign,,,50,,,1,,,,,,,0.9583333333333334,,,,,,,,,,,,,
null,,color_black2,924705,,,,,,,,black_plus_sign,,,null,,,,,,,,,,,,,,,,,,,,,,,
null,,learn_phase(without_color)2,928208,,,,,,,,black_plus_sign,,,null,object_06c.png,object_01a.png,,,,,,,,,,,,,,,,,,,,,
null,,black_cross(without_color)2,928619,,,,,,,,green,,,null,object_06c.png,object_01a.png,,,,,,,,,,,,,,,,,,,,,
447.59999999403954,,rt_plussign_withcolor2,929122,,,,,,,,green,,,50,object_06c.png,object_01a.png,,,,,,,,,,,,,,,,,,,,,
null,,rt_thecrossant_black2,930715,,,,,,,,black_plus_sign,,,null,,,1,,,,,,,0.96,,,,,,,,,,,,,
null,,color_black2,930819,,,,,,,,black_plus_sign,,,null,,,,,,,,,,,,,,,,,,,,,,,
null,,learn_phase(without_color)2,934323,,,,,,,,black_plus_sign,,,null,object_07b.png,object_11b.png,,,,,,,,,,,,,,,,,,,,,
null,,black_cross(without_color)2,935312,,,,,,,,blue,,,null,object_07b.png,object_11b.png,,,,,,,,,,,,,,,,,,,,,
null,,rt_plussign_withcolor2,935815,,,,,,,,blue,,,null,object_07b.png,object_11b.png,,,,,,,,,,,,,,,,,,,,,
1144.4000000059605,,rt_thecrossant_black2,936831,,,,,,,,black_plus_sign,,,49,,,1,,,,,,,0.9615384615384616,,,,,,,,,,,,,
null,,color_black2,936934,,,,,,,,black_plus_sign,,,null,,,,,,,,,,,,,,,,,,,,,,,
null,,learn_phase(without_color)2,940436,,,,,,,,black_plus_sign,,,null,object_12b.png,object_03c.png,,,,,,,,,,,,,,,,,,,,,
null,,black_cross(without_color)2,941079,,,,,,,,blue,,,null,object_12b.png,object_03c.png,,,,,,,,,,,,,,,,,,,,,
null,,rt_plussign_withcolor2,941581,,,,,,,,blue,,,null,object_12b.png,object_03c.png,,,,,,,,,,,,,,,,,,,,,
1556.300000011921,,rt_thecrossant_black2,942942,,,,,,,,black_plus_sign,,,49,,,1,,,,,,,0.9629629629629629,,,,,,,,,,,,,
null,,color_black2,943044,,,,,,,,black_plus_sign,,,null,,,,,,,,,,,,,,,,,,,,,,,
null,,learn_phase(without_color)2,946546,,,,,,,,black_plus_sign,,,null,object_04a.png,object_01b.png,,,,,,,,,,,,,,,,,,,,,
null,,black_cross(without_color)2,947503,,,,,,,,blue,,,null,object_04a.png,object_01b.png,,,,,,,,,,,,,,,,,,,,,
null,,rt_plussign_withcolor2,948005,,,,,,,,blue,,,null,object_04a.png,object_01b.png,,,,,,,,,,,,,,,,,,,,,
986.9000000059605,,rt_thecrossant_black2,949055,,,,,,,,black_plus_sign,,,49,,,1,,,,,,,0.9642857142857143,,,,,,,,,,,,,
null,,color_black2,949158,,,,,,,,black_plus_sign,,,null,,,,,,,,,,,,,,,,,,,,,,,
null,,thebreak,949261,,,,,,,,<p></p>,,,null,,,,,,,,,,,,,,,,,,,,,,,
14998.40000000596,,intro_0,964260,,,,,,,,instruct,,,32,,,,,,,,,,,,,,,,,,,,,,,
3989,,directmemory_phase2,968251,,,,,,,,object_04c.png,,,50,,,0,,object_14c.png,object_06a.png,object_13b.png,object_13b.png,,0.5483870967741935,,0,,,,,,,,,,,
2501.4000000059605,,directmemory_phase2,970755,,,,,,,,object_01a.png,,,50,,,1,,object_03a.png,object_06c.png,object_04b.png,object_06c.png,,0.5625,,1,,,,,,,,,,,
2701.5,,directmemory_phase2,973459,,,,,,,,object_06b.png,,,50,,,1,,object_03b.png,object_09b.png,object_01c.png,object_09b.png,,0.5757575757575758,,1,,,,,,,,,,,
1717.7999999821186,,directmemory_phase2,975180,,,,,,,,object_14a.png,,,51,,,1,,object_11b.png,object_07c.png,object_02a.png,object_02a.png,,0.5882352941176471,,1,,,,,,,,,,,
1517.2000000178814,,directmemory_phase2,976699,,,,,,,,object_08a.png,,,49,,,1,,object_13c.png,object_05b.png,object_10a.png,object_13c.png,,0.6,,1,,,,,,,,,,,
3541.699999988079,,directmemory_phase2,980244,,,,,,,,object_15b.png,,,51,,,1,,object_01c.png,object_05c.png,object_09b.png,object_09b.png,,0.6111111111111112,,1,,,,,,,,,,,
4333.299999982119,,directmemory_phase2,984580,,,,,,,,object_05a.png,,,50,,,1,,object_08c.png,object_04b.png,object_01c.png,object_04b.png,,0.6216216216216216,,1,,,,,,,,,,,
4125.299999982119,,directmemory_phase2,988708,,,,,,,,object_13c.png,,,50,,,1,,object_04b.png,object_14b.png,object_07c.png,object_14b.png,,0.631578947368421,,1,,,,,,,,,,,
2605.199999988079,,directmemory_phase2,991315,,,,,,,,object_01c.png,,,51,,,1,,object_14b.png,object_09b.png,object_03b.png,object_03b.png,,0.6410256410256411,,1,,,,,,,,,,,
1429.5999999940395,,directmemory_phase2,992748,,,,,,,,object_10a.png,,,51,,,1,,object_04a.png,object_11a.png,object_11b.png,object_11b.png,,0.65,,1,,,,,,,,,,,
2868.300000011921,,directmemory_phase2,995619,,,,,,,,object_04a.png,,,49,,,1,,object_01b.png,object_06a.png,object_09b.png,object_01b.png,,0.6585365853658537,,1,,,,,,,,,,,
4822.5999999940395,,directmemory_phase2,1000443,,,,,,,,object_12a.png,,,50,,,1,,object_08a.png,object_04a.png,object_05b.png,object_04a.png,,0.6666666666666666,,1,,,,,,,,,,,
4966.5,,directmemory_phase2,1005411,,,,,,,,object_12c.png,,,49,,,0,,object_12a.png,object_01c.png,object_04a.png,object_01c.png,,0.6511627906976745,,0,,,,,,,,,,,
1877.2000000178814,,directmemory_phase2,1007291,,,,,,,,object_07c.png,,,50,,,1,,object_01b.png,object_12b.png,object_13b.png,object_12b.png,,0.6590909090909091,,1,,,,,,,,,,,
3629.0999999940395,,directmemory_phase2,1010923,,,,,,,,object_11a.png,,,51,,,1,,object_09b.png,object_12a.png,object_10b.png,object_10b.png,,0.6666666666666666,,1,,,,,,,,,,,
3486.5999999940395,,directmemory_phase2,1014412,,,,,,,,object_07a.png,,,51,,,0,,object_11a.png,object_02a.png,object_14c.png,object_02a.png,,0.6521739130434783,,0,,,,,,,,,,,
3597.2000000178814,,directmemory_phase2,1018011,,,,,,,,object_04b.png,,,50,,,0,,object_15c.png,object_04c.png,object_05b.png,object_15c.png,,0.6382978723404256,,0,,,,,,,,,,,
1405.9000000059605,,directmemory_phase2,1019420,,,,,,,,object_15a.png,,,49,,,1,,object_10c.png,object_03b.png,object_10b.png,object_10c.png,,0.6458333333333334,,1,,,,,,,,,,,
3509.2999999821186,,directmemory_phase2,1022932,,,,,,,,object_11c.png,,,50,,,0,,object_06c.png,object_05b.png,object_14b.png,object_06c.png,,0.6326530612244898,,0,,,,,,,,,,,
4420.300000011921,,directmemory_phase2,1027355,,,,,,,,object_03a.png,,,50,,,1,,object_10a.png,object_09c.png,object_02a.png,object_09c.png,,0.64,,1,,,,,,,,,,,
3445,,directmemory_phase2,1030803,,,,,,,,object_05c.png,,,51,,,0,,object_05b.png,object_04a.png,object_15b.png,object_05b.png,,0.6274509803921569,,0,,,,,,,,,,,
2172.300000011921,,directmemory_phase2,1032979,,,,,,,,object_11b.png,,,51,,,1,,object_14b.png,object_09c.png,object_07b.png,object_07b.png,,0.6346153846153846,,1,,,,,,,,,,,
3606.5999999940395,,directmemory_phase2,1036587,,,,,,,,object_06a.png,,,49,,,1,,object_10b.png,object_11b.png,object_07b.png,object_10b.png,,0.6415094339622641,,1,,,,,,,,,,,
4606.800000011921,,directmemory_phase2,1041196,,,,,,,,object_14c.png,,,50,,,1,,object_04a.png,object_02c.png,object_10c.png,object_02c.png,,0.6481481481481481,,1,,,,,,,,,,,
3821.5,,directmemory_phase2,1045020,,,,,,,,object_09c.png,,,49,,,1,,object_08b.png,object_09a.png,object_13c.png,object_08b.png,,0.6545454545454545,,1,,,,,,,,,,,
1108.4000000059605,,directmemory_phase2,1046131,,,,,,,,object_03c.png,,,50,,,1,,object_11a.png,object_12b.png,object_10b.png,object_12b.png,,0.6607142857142857,,1,,,,,,,,,,,
3782.5,,directmemory_phase2,1049915,,,,,,,,object_08c.png,,,49,,,1,,object_14c.png,object_04b.png,object_03c.png,object_14c.png,,0.6666666666666666,,1,,,,,,,,,,,
2309.199999988079,,directmemory_phase2,1052227,,,,,,,,object_13a.png,,,49,,,1,,object_15a.png,object_05b.png,object_03c.png,object_15a.png,,0.6724137931034483,,1,,,,,,,,,,,
3910.5,,directmemory_phase2,1056141,,,,,,,,object_05b.png,,,50,,,1,,object_15a.png,object_09a.png,object_04c.png,object_09a.png,,0.6779661016949152,,1,,,,,,,,,,,
4971.5,,directmemory_phase2,1061115,,,,,,,,object_02b.png,,,50,,,1,,object_15b.png,object_13b.png,object_13c.png,object_13b.png,,0.6833333333333333,,1,,,,,,,,,,,
null,,thebreak,1061218,,,,,,,,<p></p>,,,null,,,,,,,,,,,,,,,,,,,,,,,
5264.4000000059605,,intro_0,1066484,,,,,,,,instruct,,,32,,,,,,,,,,,,,,,,,,,,,,,
null,,learn_phase(without_color)3,1069986,,,,,,,,black_plus_sign,,,null,object_03b.png,object_01c.png,,,,,,,,,,,,,,,,,,,,,
null,,black_cross(without_color)3,1070931,,,,,,,,blue,,,null,object_03b.png,object_01c.png,,,,,,,,,,,,,,,,,,,,,
null,,rt_plussign_withcolor3,1071434,,,,,,,,blue,,,null,object_03b.png,object_01c.png,,,,,,,,,,,,,,,,,,,,,
1129.300000011921,,rt_thecrossant_black3,1072495,,,,,,,,black_plus_sign,,,49,,,1,,,,,,,1,,,,,,,,,,,,,
null,,color_black3,1072597,,,,,,,,black_plus_sign,,,null,,,,,,,,,,,,,,,,,,,,,,,
null,,learn_phase(without_color)3,1076100,,,,,,,,black_plus_sign,,,null,object_13c.png,object_14b.png,,,,,,,,,,,,,,,,,,,,,
null,,black_cross(without_color)3,1076992,,,,,,,,green,,,null,object_13c.png,object_14b.png,,,,,,,,,,,,,,,,,,,,,
498.7999999821186,,rt_plussign_withcolor3,1077495,,,,,,,,green,,,50,object_13c.png,object_14b.png,,,,,,,,,,,,,,,,,,,,,
null,,rt_thecrossant_black3,1078608,,,,,,,,black_plus_sign,,,null,,,1,,,,,,,1,,,,,,,,,,,,,
null,,color_black3,1078710,,,,,,,,black_plus_sign,,,null,,,,,,,,,,,,,,,,,,,,,,,
null,,learn_phase(without_color)3,1082214,,,,,,,,black_plus_sign,,,null,object_11c.png,object_06c.png,,,,,,,,,,,,,,,,,,,,,
null,,black_cross(without_color)3,1082985,,,,,,,,green,,,null,object_11c.png,object_06c.png,,,,,,,,,,,,,,,,,,,,,
null,,rt_plussign_withcolor3,1083487,,,,,,,,green,,,null,object_11c.png,object_06c.png,,,,,,,,,,,,,,,,,,,,,
1311.7000000178814,,rt_thecrossant_black3,1084720,,,,,,,,black_plus_sign,,,50,,,1,,,,,,,1,,,,,,,,,,,,,
null,,color_black3,1084823,,,,,,,,black_plus_sign,,,null,,,,,,,,,,,,,,,,,,,,,,,
null,,learn_phase(without_color)3,1088326,,,,,,,,black_plus_sign,,,null,object_07c.png,object_12b.png,,,,,,,,,,,,,,,,,,,,,
null,,black_cross(without_color)3,1089092,,,,,,,,blue,,,null,object_07c.png,object_12b.png,,,,,,,,,,,,,,,,,,,,,
null,,rt_plussign_withcolor3,1089594,,,,,,,,blue,,,null,object_07c.png,object_12b.png,,,,,,,,,,,,,,,,,,,,,
1116.7000000178814,,rt_thecrossant_black3,1090834,,,,,,,,black_plus_sign,,,49,,,1,,,,,,,1,,,,,,,,,,,,,
null,,color_black3,1090940,,,,,,,,black_plus_sign,,,null,,,,,,,,,,,,,,,,,,,,,,,
null,,learn_phase(without_color)3,1094443,,,,,,,,black_plus_sign,,,null,object_05a.png,object_04b.png,,,,,,,,,,,,,,,,,,,,,
null,,black_cross(without_color)3,1095398,,,,,,,,blue,,,null,object_05a.png,object_04b.png,,,,,,,,,,,,,,,,,,,,,
null,,rt_plussign_withcolor3,1095900,,,,,,,,blue,,,null,object_05a.png,object_04b.png,,,,,,,,,,,,,,,,,,,,,
1412.4000000059605,,rt_thecrossant_black3,1096956,,,,,,,,black_plus_sign,,,49,,,1,,,,,,,1,,,,,,,,,,,,,
null,,color_black3,1097058,,,,,,,,black_plus_sign,,,null,,,,,,,,,,,,,,,,,,,,,,,
null,,learn_phase(without_color)3,1100561,,,,,,,,black_plus_sign,,,null,object_10b.png,object_06a.png,,,,,,,,,,,,,,,,,,,,,
null,,black_cross(without_color)3,1101329,,,,,,,,green,,,null,object_10b.png,object_06a.png,,,,,,,,,,,,,,,,,,,,,
null,,rt_plussign_withcolor3,1101831,,,,,,,,green,,,null,object_10b.png,object_06a.png,,,,,,,,,,,,,,,,,,,,,
1463.7000000178814,,rt_thecrossant_black3,1103069,,,,,,,,black_plus_sign,,,50,,,1,,,,,,,1,,,,,,,,,,,,,
null,,color_black3,1103171,,,,,,,,black_plus_sign,,,null,,,,,,,,,,,,,,,,,,,,,,,
null,,learn_phase(without_color)3,1106673,,,,,,,,black_plus_sign,,,null,object_08c.png,object_14c.png,,,,,,,,,,,,,,,,,,,,,
null,,black_cross(without_color)3,1107372,,,,,,,,green,,,null,object_08c.png,object_14c.png,,,,,,,,,,,,,,,,,,,,,
null,,rt_plussign_withcolor3,1107874,,,,,,,,green,,,null,object_08c.png,object_14c.png,,,,,,,,,,,,,,,,,,,,,
1176.699999988079,,rt_thecrossant_black3,1109181,,,,,,,,black_plus_sign,,,50,,,1,,,,,,,1,,,,,,,,,,,,,
null,,color_black3,1109284,,,,,,,,black_plus_sign,,,null,,,,,,,,,,,,,,,,,,,,,,,
null,,learn_phase(without_color)3,1112788,,,,,,,,black_plus_sign,,,null,object_02a.png,object_14a.png,,,,,,,,,,,,,,,,,,,,,
null,,black_cross(without_color)3,1113479,,,,,,,,green,,,null,object_02a.png,object_14a.png,,,,,,,,,,,,,,,,,,,,,
403.19999998807907,,rt_plussign_withcolor3,1113982,,,,,,,,green,,,50,object_02a.png,object_14a.png,,,,,,,,,,,,,,,,,,,,,
null,,rt_thecrossant_black3,1115296,,,,,,,,black_plus_sign,,,null,,,1,,,,,,,1,,,,,,,,,,,,,
null,,color_black3,1115399,,,,,,,,black_plus_sign,,,null,,,,,,,,,,,,,,,,,,,,,,,
null,,learn_phase(without_color)3,1118901,,,,,,,,black_plus_sign,,,null,object_06c.png,object_01a.png,,,,,,,,,,,,,,,,,,,,,
null,,black_cross(without_color)3,1119499,,,,,,,,green,,,null,object_06c.png,object_01a.png,,,,,,,,,,,,,,,,,,,,,
null,,rt_plussign_withcolor3,1120002,,,,,,,,green,,,null,object_06c.png,object_01a.png,,,,,,,,,,,,,,,,,,,,,
1093.5999999940395,,rt_thecrossant_black3,1121408,,,,,,,,black_plus_sign,,,50,,,1,,,,,,,1,,,,,,,,,,,,,
null,,color_black3,1121511,,,,,,,,black_plus_sign,,,null,,,,,,,,,,,,,,,,,,,,,,,
null,,learn_phase(without_color)3,1125015,,,,,,,,black_plus_sign,,,null,object_10c.png,object_15a.png,,,,,,,,,,,,,,,,,,,,,
null,,black_cross(without_color)3,1125442,,,,,,,,blue,,,null,object_10c.png,object_15a.png,,,,,,,,,,,,,,,,,,,,,
null,,rt_plussign_withcolor3,1125945,,,,,,,,blue,,,null,object_10c.png,object_15a.png,,,,,,,,,,,,,,,,,,,,,
929.5,,rt_thecrossant_black3,1127521,,,,,,,,black_plus_sign,,,49,,,1,,,,,,,1,,,,,,,,,,,,,
null,,color_black3,1127624,,,,,,,,black_plus_sign,,,null,,,,,,,,,,,,,,,,,,,,,,,
null,,learn_phase(without_color)3,1131127,,,,,,,,black_plus_sign,,,null,object_08b.png,object_09c.png,,,,,,,,,,,,,,,,,,,,,
null,,black_cross(without_color)3,1131605,,,,,,,,blue,,,null,object_08b.png,object_09c.png,,,,,,,,,,,,,,,,,,,,,
null,,rt_plussign_withcolor3,1132108,,,,,,,,blue,,,null,object_08b.png,object_09c.png,,,,,,,,,,,,,,,,,,,,,
754.9000000059605,,rt_thecrossant_black3,1133634,,,,,,,,black_plus_sign,,,49,,,1,,,,,,,1,,,,,,,,,,,,,
null,,color_black3,1133741,,,,,,,,black_plus_sign,,,null,,,,,,,,,,,,,,,,,,,,,,,
null,,learn_phase(without_color)3,1137245,,,,,,,,black_plus_sign,,,null,object_15b.png,object_09b.png,,,,,,,,,,,,,,,,,,,,,
null,,black_cross(without_color)3,1137921,,,,,,,,green,,,null,object_15b.png,object_09b.png,,,,,,,,,,,,,,,,,,,,,
null,,rt_plussign_withcolor3,1138423,,,,,,,,green,,,null,object_15b.png,object_09b.png,,,,,,,,,,,,,,,,,,,,,
1234.300000011921,,rt_thecrossant_black3,1139752,,,,,,,,black_plus_sign,,,50,,,1,,,,,,,1,,,,,,,,,,,,,
null,,color_black3,1139854,,,,,,,,black_plus_sign,,,null,,,,,,,,,,,,,,,,,,,,,,,
null,,learn_phase(without_color)3,1143358,,,,,,,,black_plus_sign,,,null,object_04c.png,object_13b.png,,,,,,,,,,,,,,,,,,,,,
null,,black_cross(without_color)3,1144429,,,,,,,,blue,,,null,object_04c.png,object_13b.png,,,,,,,,,,,,,,,,,,,,,
null,,rt_plussign_withcolor3,1144931,,,,,,,,blue,,,null,object_04c.png,object_13b.png,,,,,,,,,,,,,,,,,,,,,
860.2000000178814,,rt_thecrossant_black3,1145865,,,,,,,,black_plus_sign,,,49,,,1,,,,,,,1,,,,,,,,,,,,,
null,,color_black3,1145969,,,,,,,,black_plus_sign,,,null,,,,,,,,,,,,,,,,,,,,,,,
null,,learn_phase(without_color)3,1149471,,,,,,,,black_plus_sign,,,null,object_05b.png,object_09a.png,,,,,,,,,,,,,,,,,,,,,
null,,black_cross(without_color)3,1150549,,,,,,,,blue,,,null,object_05b.png,object_09a.png,,,,,,,,,,,,,,,,,,,,,
null,,rt_plussign_withcolor3,1151051,,,,,,,,blue,,,null,object_05b.png,object_09a.png,,,,,,,,,,,,,,,,,,,,,
1327.6000000238419,,rt_thecrossant_black3,1151982,,,,,,,,black_plus_sign,,,49,,,1,,,,,,,1,,,,,,,,,,,,,
null,,color_black3,1152085,,,,,,,,black_plus_sign,,,null,,,,,,,,,,,,,,,,,,,,,,,
null,,learn_phase(without_color)3,1155588,,,,,,,,black_plus_sign,,,null,object_01b.png,object_04a.png,,,,,,,,,,,,,,,,,,,,,
null,,black_cross(without_color)3,1156061,,,,,,,,green,,,null,object_01b.png,object_04a.png,,,,,,,,,,,,,,,,,,,,,
null,,rt_plussign_withcolor3,1156563,,,,,,,,green,,,null,object_01b.png,object_04a.png,,,,,,,,,,,,,,,,,,,,,
1185.6000000238419,,rt_thecrossant_black3,1158094,,,,,,,,black_plus_sign,,,50,,,1,,,,,,,1,,,,,,,,,,,,,
null,,color_black3,1158197,,,,,,,,black_plus_sign,,,null,,,,,,,,,,,,,,,,,,,,,,,
null,,learn_phase(without_color)3,1161701,,,,,,,,black_plus_sign,,,null,object_05c.png,object_05b.png,,,,,,,,,,,,,,,,,,,,,
null,,black_cross(without_color)3,1162712,,,,,,,,blue,,,null,object_05c.png,object_05b.png,,,,,,,,,,,,,,,,,,,,,
null,,rt_plussign_withcolor3,1163214,,,,,,,,blue,,,null,object_05c.png,object_05b.png,,,,,,,,,,,,,,,,,,,,,
664,,rt_thecrossant_black3,1164208,,,,,,,,black_plus_sign,,,49,,,1,,,,,,,1,,,,,,,,,,,,,
null,,color_black3,1164310,,,,,,,,black_plus_sign,,,null,,,,,,,,,,,,,,,,,,,,,,,
null,,learn_phase(without_color)3,1167812,,,,,,,,black_plus_sign,,,null,object_02c.png,object_14c.png,,,,,,,,,,,,,,,,,,,,,
null,,black_cross(without_color)3,1168221,,,,,,,,blue,,,null,object_02c.png,object_14c.png,,,,,,,,,,,,,,,,,,,,,
null,,rt_plussign_withcolor3,1168723,,,,,,,,blue,,,null,object_02c.png,object_14c.png,,,,,,,,,,,,,,,,,,,,,
1219.3999999761581,,rt_thecrossant_black3,1170319,,,,,,,,black_plus_sign,,,49,,,1,,,,,,,1,,,,,,,,,,,,,
null,,color_black3,1170422,,,,,,,,black_plus_sign,,,null,,,,,,,,,,,,,,,,,,,,,,,
null,,learn_phase(without_color)3,1173924,,,,,,,,black_plus_sign,,,null,object_11b.png,object_07b.png,,,,,,,,,,,,,,,,,,,,,
null,,black_cross(without_color)3,1174762,,,,,,,,blue,,,null,object_11b.png,object_07b.png,,,,,,,,,,,,,,,,,,,,,
null,,rt_plussign_withcolor3,1175265,,,,,,,,blue,,,null,object_11b.png,object_07b.png,,,,,,,,,,,,,,,,,,,,,
563,,rt_thecrossant_black3,1176431,,,,,,,,black_plus_sign,,,49,,,1,,,,,,,1,,,,,,,,,,,,,
null,,color_black3,1176533,,,,,,,,black_plus_sign,,,null,,,,,,,,,,,,,,,,,,,,,,,
null,,learn_phase(without_color)3,1180036,,,,,,,,black_plus_sign,,,null,object_11a.png,object_10b.png,,,,,,,,,,,,,,,,,,,,,
null,,black_cross(without_color)3,1180460,,,,,,,,blue,,,null,object_11a.png,object_10b.png,,,,,,,,,,,,,,,,,,,,,
null,,rt_plussign_withcolor3,1180962,,,,,,,,blue,,,null,object_11a.png,object_10b.png,,,,,,,,,,,,,,,,,,,,,
1151.8999999761581,,rt_thecrossant_black3,1182543,,,,,,,,black_plus_sign,,,49,,,1,,,,,,,1,,,,,,,,,,,,,
null,,color_black3,1182657,,,,,,,,black_plus_sign,,,null,,,,,,,,,,,,,,,,,,,,,,,
null,,learn_phase(without_color)3,1186160,,,,,,,,black_plus_sign,,,null,object_08a.png,object_13c.png,,,,,,,,,,,,,,,,,,,,,
null,,black_cross(without_color)3,1186783,,,,,,,,blue,,,null,object_08a.png,object_13c.png,,,,,,,,,,,,,,,,,,,,,
null,,rt_plussign_withcolor3,1187292,,,,,,,,blue,,,null,object_08a.png,object_13c.png,,,,,,,,,,,,,,,,,,,,,
535.2999999821186,,rt_thecrossant_black3,1188682,,,,,,,,black_plus_sign,,,49,,,1,,,,,,,1,,,,,,,,,,,,,
null,,color_black3,1188784,,,,,,,,black_plus_sign,,,null,,,,,,,,,,,,,,,,,,,,,,,
null,,learn_phase(without_color)3,1192288,,,,,,,,black_plus_sign,,,null,object_02b.png,object_13b.png,,,,,,,,,,,,,,,,,,,,,
null,,black_cross(without_color)3,1193122,,,,,,,,blue,,,null,object_02b.png,object_13b.png,,,,,,,,,,,,,,,,,,,,,
null,,rt_plussign_withcolor3,1193625,,,,,,,,blue,,,null,object_02b.png,object_13b.png,,,,,,,,,,,,,,,,,,,,,
753.5,,rt_thecrossant_black3,1194808,,,,,,,,black_plus_sign,,,49,,,1,,,,,,,1,,,,,,,,,,,,,
null,,color_black3,1194911,,,,,,,,black_plus_sign,,,null,,,,,,,,,,,,,,,,,,,,,,,
null,,learn_phase(without_color)3,1198414,,,,,,,,black_plus_sign,,,null,object_02a.png,object_07a.png,,,,,,,,,,,,,,,,,,,,,
null,,black_cross(without_color)3,1199403,,,,,,,,blue,,,null,object_02a.png,object_07a.png,,,,,,,,,,,,,,,,,,,,,
null,,rt_plussign_withcolor3,1199906,,,,,,,,blue,,,null,object_02a.png,object_07a.png,,,,,,,,,,,,,,,,,,,,,
1072.2000000178814,,rt_thecrossant_black3,1200921,,,,,,,,black_plus_sign,,,49,,,1,,,,,,,1,,,,,,,,,,,,,
null,,color_black3,1201023,,,,,,,,black_plus_sign,,,null,,,,,,,,,,,,,,,,,,,,,,,
null,,learn_phase(without_color)3,1204527,,,,,,,,black_plus_sign,,,null,object_04a.png,object_12a.png,,,,,,,,,,,,,,,,,,,,,
null,,black_cross(without_color)3,1205618,,,,,,,,blue,,,null,object_04a.png,object_12a.png,,,,,,,,,,,,,,,,,,,,,
null,,rt_plussign_withcolor3,1206120,,,,,,,,blue,,,null,object_04a.png,object_12a.png,,,,,,,,,,,,,,,,,,,,,
1400.1000000238419,,rt_thecrossant_black3,1207035,,,,,,,,black_plus_sign,,,49,,,1,,,,,,,1,,,,,,,,,,,,,
null,,color_black3,1207138,,,,,,,,black_plus_sign,,,null,,,,,,,,,,,,,,,,,,,,,,,
null,,learn_phase(without_color)3,1210641,,,,,,,,black_plus_sign,,,null,object_01c.png,object_12c.png,,,,,,,,,,,,,,,,,,,,,
null,,black_cross(without_color)3,1211438,,,,,,,,blue,,,null,object_01c.png,object_12c.png,,,,,,,,,,,,,,,,,,,,,
null,,rt_plussign_withcolor3,1211946,,,,,,,,blue,,,null,object_01c.png,object_12c.png,,,,,,,,,,,,,,,,,,,,,
1700.0999999940395,,rt_thecrossant_black3,1213153,,,,,,,,black_plus_sign,,,49,,,1,,,,,,,1,,,,,,,,,,,,,
null,,color_black3,1213256,,,,,,,,black_plus_sign,,,null,,,,,,,,,,,,,,,,,,,,,,,
null,,learn_phase(without_color)3,1216759,,,,,,,,black_plus_sign,,,null,object_03a.png,object_09c.png,,,,,,,,,,,,,,,,,,,,,
null,,black_cross(without_color)3,1217490,,,,,,,,green,,,null,object_03a.png,object_09c.png,,,,,,,,,,,,,,,,,,,,,
423.40000000596046,,rt_plussign_withcolor3,1217993,,,,,,,,green,,,50,object_03a.png,object_09c.png,,,,,,,,,,,,,,,,,,,,,
null,,rt_thecrossant_black3,1219267,,,,,,,,black_plus_sign,,,null,,,1,,,,,,,1,,,,,,,,,,,,,
null,,color_black3,1219369,,,,,,,,black_plus_sign,,,null,,,,,,,,,,,,,,,,,,,,,,,
null,,learn_phase(without_color)3,1222873,,,,,,,,black_plus_sign,,,null,object_06b.png,object_09b.png,,,,,,,,,,,,,,,,,,,,,
null,,black_cross(without_color)3,1223765,,,,,,,,green,,,null,object_06b.png,object_09b.png,,,,,,,,,,,,,,,,,,,,,
null,,rt_plussign_withcolor3,1224267,,,,,,,,green,,,null,object_06b.png,object_09b.png,,,,,,,,,,,,,,,,,,,,,
1012.6999999880791,,rt_thecrossant_black3,1225380,,,,,,,,black_plus_sign,,,50,,,1,,,,,,,1,,,,,,,,,,,,,
null,,color_black3,1225483,,,,,,,,black_plus_sign,,,null,,,,,,,,,,,,,,,,,,,,,,,
null,,learn_phase(without_color)3,1228986,,,,,,,,black_plus_sign,,,null,object_15c.png,object_04b.png,,,,,,,,,,,,,,,,,,,,,
null,,black_cross(without_color)3,1229765,,,,,,,,blue,,,null,object_15c.png,object_04b.png,,,,,,,,,,,,,,,,,,,,,
null,,rt_plussign_withcolor3,1230268,,,,,,,,blue,,,null,object_15c.png,object_04b.png,,,,,,,,,,,,,,,,,,,,,
1098.5999999940395,,rt_thecrossant_black3,1231493,,,,,,,,black_plus_sign,,,49,,,1,,,,,,,1,,,,,,,,,,,,,
null,,color_black3,1231596,,,,,,,,black_plus_sign,,,null,,,,,,,,,,,,,,,,,,,,,,,
null,,learn_phase(without_color)3,1235100,,,,,,,,black_plus_sign,,,null,object_15a.png,object_13a.png,,,,,,,,,,,,,,,,,,,,,
null,,black_cross(without_color)3,1236157,,,,,,,,green,,,null,object_15a.png,object_13a.png,,,,,,,,,,,,,,,,,,,,,
373.19999998807907,,rt_plussign_withcolor3,1236658,,,,,,,,green,,,50,object_15a.png,object_13a.png,,,,,,,,,,,,,,,,,,,,,
null,,rt_thecrossant_black3,1237606,,,,,,,,black_plus_sign,,,null,,,1,,,,,,,1,,,,,,,,,,,,,
null,,color_black3,1237710,,,,,,,,black_plus_sign,,,null,,,,,,,,,,,,,,,,,,,,,,,
null,,learn_phase(without_color)3,1241213,,,,,,,,black_plus_sign,,,null,object_03c.png,object_12b.png,,,,,,,,,,,,,,,,,,,,,
null,,black_cross(without_color)3,1241867,,,,,,,,green,,,null,object_03c.png,object_12b.png,,,,,,,,,,,,,,,,,,,,,
null,,rt_plussign_withcolor3,1242369,,,,,,,,green,,,null,object_03c.png,object_12b.png,,,,,,,,,,,,,,,,,,,,,
1306.2999999821186,,rt_thecrossant_black3,1243725,,,,,,,,black_plus_sign,,,50,,,1,,,,,,,1,,,,,,,,,,,,,
null,,color_black3,1243828,,,,,,,,black_plus_sign,,,null,,,,,,,,,,,,,,,,,,,,,,,
null,,learn_phase(without_color)3,1247331,,,,,,,,black_plus_sign,,,null,object_11b.png,object_10a.png,,,,,,,,,,,,,,,,,,,,,
null,,black_cross(without_color)3,1247964,,,,,,,,green,,,null,object_11b.png,object_10a.png,,,,,,,,,,,,,,,,,,,,,
null,,rt_plussign_withcolor3,1248465,,,,,,,,green,,,null,object_11b.png,object_10a.png,,,,,,,,,,,,,,,,,,,,,
1632,,rt_thecrossant_black3,1249838,,,,,,,,black_plus_sign,,,50,,,1,,,,,,,1,,,,,,,,,,,,,
null,,color_black3,1249940,,,,,,,,black_plus_sign,,,null,,,,,,,,,,,,,,,,,,,,,,,
null,,thebreak,1250044,,,,,,,,<p></p>,,,null,,,,,,,,,,,,,,,,,,,,,,,
2621.699999988079,,intro_0,1252668,,,,,,,,instruct,,,32,,,,,,,,,,,,,,,,,,,,,,,
2421.7999999821186,,directmemory_phase3,1255091,,,,,,,,object_06a.png,,,49,,,1,,object_10b.png,object_05b.png,object_07c.png,object_10b.png,,0.6885245901639344,,1,,,,,,,,,,,
2412.2000000178814,,directmemory_phase3,1257507,,,,,,,,object_12a.png,,,50,,,1,,object_13a.png,object_04a.png,object_09c.png,object_04a.png,,0.6935483870967742,,1,,,,,,,,,,,
1446.8999999761581,,directmemory_phase3,1258955,,,,,,,,object_01c.png,,,50,,,1,,object_09c.png,object_03b.png,object_14b.png,object_03b.png,,0.6984126984126984,,1,,,,,,,,,,,
3813.300000011921,,directmemory_phase3,1262772,,,,,,,,object_08b.png,,,50,,,1,,object_14b.png,object_09c.png,object_04b.png,object_09c.png,,0.703125,,1,,,,,,,,,,,
4189.100000023842,,directmemory_phase3,1266963,,,,,,,,object_05a.png,,,51,,,1,,object_09c.png,object_12c.png,object_04b.png,object_04b.png,,0.7076923076923077,,1,,,,,,,,,,,
1412.5,,directmemory_phase3,1268379,,,,,,,,object_04a.png,,,50,,,1,,object_04b.png,object_01b.png,object_07b.png,object_01b.png,,0.7121212121212122,,1,,,,,,,,,,,
2590.399999976158,,directmemory_phase3,1270971,,,,,,,,object_08c.png,,,50,,,1,,object_07a.png,object_14c.png,object_05b.png,object_14c.png,,0.7164179104477612,,1,,,,,,,,,,,
4629.5,,directmemory_phase3,1275604,,,,,,,,object_11a.png,,,49,,,0,,object_05c.png,object_10b.png,object_09b.png,object_10b.png,,0.7058823529411765,,0,,,,,,,,,,,
2931.4000000059605,,directmemory_phase3,1278538,,,,,,,,object_13c.png,,,49,,,1,,object_14b.png,object_15c.png,object_15a.png,object_14b.png,,0.7101449275362319,,1,,,,,,,,,,,
1534.9000000059605,,directmemory_phase3,1280075,,,,,,,,object_07b.png,,,51,,,1,,object_09b.png,object_10c.png,object_11b.png,object_11b.png,,0.7142857142857143,,1,,,,,,,,,,,
1229.4000000059605,,directmemory_phase3,1281308,,,,,,,,object_08a.png,,,49,,,1,,object_13c.png,object_09b.png,object_08c.png,object_13c.png,,0.7183098591549296,,1,,,,,,,,,,,
1324.300000011921,,directmemory_phase3,1282635,,,,,,,,object_14a.png,,,50,,,1,,object_08b.png,object_02a.png,object_10b.png,object_02a.png,,0.7222222222222222,,1,,,,,,,,,,,
3615.0999999940395,,directmemory_phase3,1286252,,,,,,,,object_09a.png,,,50,,,1,,object_08b.png,object_05b.png,object_09c.png,object_05b.png,,0.726027397260274,,1,,,,,,,,,,,
4820.699999988079,,directmemory_phase3,1291075,,,,,,,,object_06b.png,,,51,,,1,,object_14c.png,object_04c.png,object_09b.png,object_09b.png,,0.7297297297297297,,1,,,,,,,,,,,
1116.9000000059605,,directmemory_phase3,1292196,,,,,,,,object_10c.png,,,50,,,1,,object_03b.png,object_15a.png,object_13c.png,object_15a.png,,0.7333333333333333,,1,,,,,,,,,,,
2060.0999999940395,,directmemory_phase3,1294259,,,,,,,,object_13a.png,,,49,,,1,,object_15a.png,object_04a.png,object_07a.png,object_15a.png,,0.7368421052631579,,1,,,,,,,,,,,
1709,,directmemory_phase3,1295971,,,,,,,,object_12b.png,,,49,,,1,,object_07c.png,object_06b.png,object_15a.png,object_07c.png,,0.7402597402597403,,1,,,,,,,,,,,
2221.5,,directmemory_phase3,1298196,,,,,,,,object_07a.png,,,51,,,1,,object_14c.png,object_02b.png,object_02a.png,object_02a.png,,0.7435897435897436,,1,,,,,,,,,,,
3868.199999988079,,directmemory_phase3,1302067,,,,,,,,object_13b.png,,,51,,,1,,object_14b.png,object_01c.png,object_04c.png,object_04c.png,,0.7468354430379747,,1,,,,,,,,,,,
3956.7000000178814,,directmemory_phase3,1306027,,,,,,,,object_01a.png,,,51,,,1,,object_09b.png,object_15b.png,object_06c.png,object_06c.png,,0.75,,1,,,,,,,,,,,
2781,,directmemory_phase3,1308811,,,,,,,,object_04b.png,,,49,,,1,,object_15c.png,object_07b.png,object_05b.png,object_15c.png,,0.7530864197530864,,1,,,,,,,,,,,
5486.4000000059605,,directmemory_phase3,1314300,,,,,,,,object_05c.png,,,51,,,0,,object_08c.png,object_05b.png,object_13b.png,object_05b.png,,0.7439024390243902,,0,,,,,,,,,,,
1827.7000000178814,,directmemory_phase3,1316131,,,,,,,,object_03a.png,,,50,,,1,,object_05a.png,object_09c.png,object_05b.png,object_09c.png,,0.7469879518072289,,1,,,,,,,,,,,
2533.2999999821186,,directmemory_phase3,1318667,,,,,,,,object_06c.png,,,50,,,1,,object_04b.png,object_11c.png,object_10c.png,object_11c.png,,0.75,,1,,,,,,,,,,,
2549.0999999940395,,directmemory_phase3,1321220,,,,,,,,object_02b.png,,,51,,,1,,object_11b.png,object_08c.png,object_13b.png,object_13b.png,,0.7529411764705882,,1,,,,,,,,,,,
3468.5,,directmemory_phase3,1324691,,,,,,,,object_14c.png,,,50,,,1,,object_13c.png,object_02c.png,object_14b.png,object_02c.png,,0.7558139534883721,,1,,,,,,,,,,,
5285.299999982119,,directmemory_phase3,1329979,,,,,,,,object_15b.png,,,50,,,0,,object_09b.png,object_04b.png,object_12a.png,object_09b.png,,0.7471264367816092,,0,,,,,,,,,,,
1549.2000000178814,,directmemory_phase3,1331532,,,,,,,,object_10a.png,,,49,,,1,,object_11b.png,object_14c.png,object_02b.png,object_11b.png,,0.75,,1,,,,,,,,,,,
1316.9000000059605,,directmemory_phase3,1332851,,,,,,,,object_03c.png,,,51,,,1,,object_14c.png,object_08c.png,object_12b.png,object_12b.png,,0.7528089887640449,,1,,,,,,,,,,,
3212.699999988079,,directmemory_phase3,1336067,,,,,,,,object_12c.png,,,50,,,0,,object_15a.png,object_03a.png,object_01c.png,object_01c.png,,0.7444444444444445,,0,,,,,,,,,,,
null,,thebreak,1336171,,,,,,,,<p></p>,,,null,,,,,,,,,,,,,,,,,,,,,,,
6703.5999999940395,,intro_0,1342876,,,,,,,,instruct,,,32,,,,,,,,,,,,,,,,,,,,,,,
null,,learn_phase(without_color)4,1346378,,,,,,,,black_plus_sign,,,null,object_06a.png,object_10b.png,,,,,,,,,,,,,,,,,,,,,
null,,black_cross(without_color)4,1347148,,,,,,,,blue,,,null,object_06a.png,object_10b.png,,,,,,,,,,,,,,,,,,,,,
477.89999997615814,,rt_plussign_withcolor4,1347650,,,,,,,,blue,,,49,object_06a.png,object_10b.png,,,,,,,,,,,,,,,,,,,,,
null,,rt_thecrossant_black4,1348884,,,,,,,,black_plus_sign,,,null,,,1,,,,,,,1,,,,,,,,,,,,,
null,,color_black4,1348987,,,,,,,,black_plus_sign,,,null,,,,,,,,,,,,,,,,,,,,,,,
null,,learn_phase(without_color)4,1352491,,,,,,,,black_plus_sign,,,null,object_01c.png,object_12c.png,,,,,,,,,,,,,,,,,,,,,
null,,black_cross(without_color)4,1353027,,,,,,,,green,,,null,object_01c.png,object_12c.png,,,,,,,,,,,,,,,,,,,,,
null,,rt_plussign_withcolor4,1353528,,,,,,,,green,,,null,object_01c.png,object_12c.png,,,,,,,,,,,,,,,,,,,,,
1381.199999988079,,rt_thecrossant_black4,1354997,,,,,,,,black_plus_sign,,,50,,,1,,,,,,,1,,,,,,,,,,,,,
null,,color_black4,1355100,,,,,,,,black_plus_sign,,,null,,,,,,,,,,,,,,,,,,,,,,,
null,,learn_phase(without_color)4,1358603,,,,,,,,black_plus_sign,,,null,object_09c.png,object_08b.png,,,,,,,,,,,,,,,,,,,,,
null,,black_cross(without_color)4,1359146,,,,,,,,green,,,null,object_09c.png,object_08b.png,,,,,,,,,,,,,,,,,,,,,
null,,rt_plussign_withcolor4,1359648,,,,,,,,green,,,null,object_09c.png,object_08b.png,,,,,,,,,,,,,,,,,,,,,
835,,rt_thecrossant_black4,1361111,,,,,,,,black_plus_sign,,,50,,,1,,,,,,,1,,,,,,,,,,,,,
null,,color_black4,1361214,,,,,,,,black_plus_sign,,,null,,,,,,,,,,,,,,,,,,,,,,,
null,,learn_phase(without_color)4,1364717,,,,,,,,black_plus_sign,,,null,object_07a.png,object_02a.png,,,,,,,,,,,,,,,,,,,,,
null,,black_cross(without_color)4,1365389,,,,,,,,green,,,null,object_07a.png,object_02a.png,,,,,,,,,,,,,,,,,,,,,
null,,rt_plussign_withcolor4,1365891,,,,,,,,green,,,null,object_07a.png,object_02a.png,,,,,,,,,,,,,,,,,,,,,
662.5,,rt_thecrossant_black4,1367225,,,,,,,,black_plus_sign,,,50,,,1,,,,,,,1,,,,,,,,,,,,,
null,,color_black4,1367329,,,,,,,,black_plus_sign,,,null,,,,,,,,,,,,,,,,,,,,,,,
null,,learn_phase(without_color)4,1370833,,,,,,,,black_plus_sign,,,null,object_02b.png,object_13b.png,,,,,,,,,,,,,,,,,,,,,
null,,black_cross(without_color)4,1371590,,,,,,,,green,,,null,object_02b.png,object_13b.png,,,,,,,,,,,,,,,,,,,,,
499.7999999821186,,rt_plussign_withcolor4,1372092,,,,,,,,green,,,50,object_02b.png,object_13b.png,,,,,,,,,,,,,,,,,,,,,
null,,rt_thecrossant_black4,1373340,,,,,,,,black_plus_sign,,,null,,,1,,,,,,,1,,,,,,,,,,,,,
null,,color_black4,1373442,,,,,,,,black_plus_sign,,,null,,,,,,,,,,,,,,,,,,,,,,,
null,,learn_phase(without_color)4,1376945,,,,,,,,black_plus_sign,,,null,object_08a.png,object_13c.png,,,,,,,,,,,,,,,,,,,,,
null,,black_cross(without_color)4,1377499,,,,,,,,blue,,,null,object_08a.png,object_13c.png,,,,,,,,,,,,,,,,,,,,,
null,,rt_plussign_withcolor4,1378001,,,,,,,,blue,,,null,object_08a.png,object_13c.png,,,,,,,,,,,,,,,,,,,,,
1023.1999999880791,,rt_thecrossant_black4,1379452,,,,,,,,black_plus_sign,,,49,,,1,,,,,,,1,,,,,,,,,,,,,
null,,color_black4,1379555,,,,,,,,black_plus_sign,,,null,,,,,,,,,,,,,,,,,,,,,,,
null,,learn_phase(without_color)4,1383059,,,,,,,,black_plus_sign,,,null,object_05b.png,object_05c.png,,,,,,,,,,,,,,,,,,,,,
null,,black_cross(without_color)4,1383480,,,,,,,,green,,,null,object_05b.png,object_05c.png,,,,,,,,,,,,,,,,,,,,,
null,,rt_plussign_withcolor4,1383983,,,,,,,,green,,,null,object_05b.png,object_05c.png,,,,,,,,,,,,,,,,,,,,,
718,,rt_thecrossant_black4,1385568,,,,,,,,black_plus_sign,,,50,,,1,,,,,,,1,,,,,,,,,,,,,
null,,color_black4,1385671,,,,,,,,black_plus_sign,,,null,,,,,,,,,,,,,,,,,,,,,,,
null,,learn_phase(without_color)4,1389174,,,,,,,,black_plus_sign,,,null,object_09a.png,object_05b.png,,,,,,,,,,,,,,,,,,,,,
null,,black_cross(without_color)4,1389950,,,,,,,,blue,,,null,object_09a.png,object_05b.png,,,,,,,,,,,,,,,,,,,,,
null,,rt_plussign_withcolor4,1390453,,,,,,,,blue,,,null,object_09a.png,object_05b.png,,,,,,,,,,,,,,,,,,,,,
570.3000000119209,,rt_thecrossant_black4,1391682,,,,,,,,black_plus_sign,,,49,,,1,,,,,,,1,,,,,,,,,,,,,
null,,color_black4,1391785,,,,,,,,black_plus_sign,,,null,,,,,,,,,,,,,,,,,,,,,,,
null,,learn_phase(without_color)4,1395288,,,,,,,,black_plus_sign,,,null,object_14b.png,object_13c.png,,,,,,,,,,,,,,,,,,,,,
null,,black_cross(without_color)4,1396178,,,,,,,,blue,,,null,object_14b.png,object_13c.png,,,,,,,,,,,,,,,,,,,,,
null,,rt_plussign_withcolor4,1396680,,,,,,,,blue,,,null,object_14b.png,object_13c.png,,,,,,,,,,,,,,,,,,,,,
1107.5,,rt_thecrossant_black4,1397795,,,,,,,,black_plus_sign,,,49,,,1,,,,,,,1,,,,,,,,,,,,,
null,,color_black4,1397905,,,,,,,,black_plus_sign,,,null,,,,,,,,,,,,,,,,,,,,,,,
null,,learn_phase(without_color)4,1401408,,,,,,,,black_plus_sign,,,null,object_11c.png,object_06c.png,,,,,,,,,,,,,,,,,,,,,
null,,black_cross(without_color)4,1402196,,,,,,,,blue,,,null,object_11c.png,object_06c.png,,,,,,,,,,,,,,,,,,,,,
null,,rt_plussign_withcolor4,1402698,,,,,,,,blue,,,null,object_11c.png,object_06c.png,,,,,,,,,,,,,,,,,,,,,
1490.699999988079,,rt_thecrossant_black4,1403916,,,,,,,,black_plus_sign,,,49,,,1,,,,,,,1,,,,,,,,,,,,,
null,,color_black4,1404019,,,,,,,,black_plus_sign,,,null,,,,,,,,,,,,,,,,,,,,,,,
null,,learn_phase(without_color)4,1407522,,,,,,,,black_plus_sign,,,null,object_11a.png,object_10b.png,,,,,,,,,,,,,,,,,,,,,
null,,black_cross(without_color)4,1408548,,,,,,,,blue,,,null,object_11a.png,object_10b.png,,,,,,,,,,,,,,,,,,,,,
null,,rt_plussign_withcolor4,1409051,,,,,,,,blue,,,null,object_11a.png,object_10b.png,,,,,,,,,,,,,,,,,,,,,
null,,rt_thecrossant_black4,1410049,,,,,,,,black_plus_sign,,,null,,,,,,,,,,1,,,,,,,,,,,,,
null,,color_black4,1410152,,,,,,,,black_plus_sign,,,null,,,,,,,,,,,,,,,,,,,,,,,
null,,learn_phase(without_color)4,1413655,,,,,,,,black_plus_sign,,,null,object_01c.png,object_03b.png,,,,,,,,,,,,,,,,,,,,,
null,,black_cross(without_color)4,1414291,,,,,,,,green,,,null,object_01c.png,object_03b.png,,,,,,,,,,,,,,,,,,,,,
null,,rt_plussign_withcolor4,1414792,,,,,,,,green,,,null,object_01c.png,object_03b.png,,,,,,,,,,,,,,,,,,,,,
1148.300000011921,,rt_thecrossant_black4,1416162,,,,,,,,black_plus_sign,,,50,,,1,,,,,,,1,,,,,,,,,,,,,
null,,color_black4,1416278,,,,,,,,black_plus_sign,,,null,,,,,,,,,,,,,,,,,,,,,,,
null,,learn_phase(without_color)4,1419782,,,,,,,,black_plus_sign,,,null,object_03a.png,object_09c.png,,,,,,,,,,,,,,,,,,,,,
null,,black_cross(without_color)4,1420451,,,,,,,,blue,,,null,object_03a.png,object_09c.png,,,,,,,,,,,,,,,,,,,,,
null,,rt_plussign_withcolor4,1420954,,,,,,,,blue,,,null,object_03a.png,object_09c.png,,,,,,,,,,,,,,,,,,,,,
981.7000000178814,,rt_thecrossant_black4,1422306,,,,,,,,black_plus_sign,,,49,,,1,,,,,,,1,,,,,,,,,,,,,
null,,color_black4,1422408,,,,,,,,black_plus_sign,,,null,,,,,,,,,,,,,,,,,,,,,,,
null,,learn_phase(without_color)4,1425912,,,,,,,,black_plus_sign,,,null,object_10c.png,object_15a.png,,,,,,,,,,,,,,,,,,,,,
null,,black_cross(without_color)4,1426781,,,,,,,,blue,,,null,object_10c.png,object_15a.png,,,,,,,,,,,,,,,,,,,,,
null,,rt_plussign_withcolor4,1427282,,,,,,,,blue,,,null,object_10c.png,object_15a.png,,,,,,,,,,,,,,,,,,,,,
821.2000000178814,,rt_thecrossant_black4,1428421,,,,,,,,black_plus_sign,,,49,,,1,,,,,,,1,,,,,,,,,,,,,
null,,color_black4,1428524,,,,,,,,black_plus_sign,,,null,,,,,,,,,,,,,,,,,,,,,,,
null,,learn_phase(without_color)4,1432026,,,,,,,,black_plus_sign,,,null,object_01b.png,object_04a.png,,,,,,,,,,,,,,,,,,,,,
null,,black_cross(without_color)4,1432471,,,,,,,,blue,,,null,object_01b.png,object_04a.png,,,,,,,,,,,,,,,,,,,,,
null,,rt_plussign_withcolor4,1432975,,,,,,,,blue,,,null,object_01b.png,object_04a.png,,,,,,,,,,,,,,,,,,,,,
1359.300000011921,,rt_thecrossant_black4,1434534,,,,,,,,black_plus_sign,,,49,,,1,,,,,,,1,,,,,,,,,,,,,
null,,color_black4,1434644,,,,,,,,black_plus_sign,,,null,,,,,,,,,,,,,,,,,,,,,,,
null,,learn_phase(without_color)4,1438147,,,,,,,,black_plus_sign,,,null,object_07c.png,object_12b.png,,,,,,,,,,,,,,,,,,,,,
null,,black_cross(without_color)4,1439093,,,,,,,,green,,,null,object_07c.png,object_12b.png,,,,,,,,,,,,,,,,,,,,,
null,,rt_plussign_withcolor4,1439596,,,,,,,,green,,,null,object_07c.png,object_12b.png,,,,,,,,,,,,,,,,,,,,,
780.5,,rt_thecrossant_black4,1440657,,,,,,,,black_plus_sign,,,50,,,1,,,,,,,1,,,,,,,,,,,,,
null,,color_black4,1440759,,,,,,,,black_plus_sign,,,null,,,,,,,,,,,,,,,,,,,,,,,
null,,learn_phase(without_color)4,1444263,,,,,,,,black_plus_sign,,,null,object_09b.png,object_06b.png,,,,,,,,,,,,,,,,,,,,,
null,,black_cross(without_color)4,1444816,,,,,,,,blue,,,null,object_09b.png,object_06b.png,,,,,,,,,,,,,,,,,,,,,
null,,rt_plussign_withcolor4,1445319,,,,,,,,blue,,,null,object_09b.png,object_06b.png,,,,,,,,,,,,,,,,,,,,,
1221.5,,rt_thecrossant_black4,1446772,,,,,,,,black_plus_sign,,,49,,,1,,,,,,,1,,,,,,,,,,,,,
null,,color_black4,1446874,,,,,,,,black_plus_sign,,,null,,,,,,,,,,,,,,,,,,,,,,,
null,,learn_phase(without_color)4,1450377,,,,,,,,black_plus_sign,,,null,object_11b.png,object_10a.png,,,,,,,,,,,,,,,,,,,,,
null,,black_cross(without_color)4,1451136,,,,,,,,green,,,null,object_11b.png,object_10a.png,,,,,,,,,,,,,,,,,,,,,
null,,rt_plussign_withcolor4,1451639,,,,,,,,green,,,null,object_11b.png,object_10a.png,,,,,,,,,,,,,,,,,,,,,
773,,rt_thecrossant_black4,1452885,,,,,,,,black_plus_sign,,,50,,,1,,,,,,,1,,,,,,,,,,,,,
null,,color_black4,1452988,,,,,,,,black_plus_sign,,,null,,,,,,,,,,,,,,,,,,,,,,,
null,,learn_phase(without_color)4,1456492,,,,,,,,black_plus_sign,,,null,object_14c.png,object_08c.png,,,,,,,,,,,,,,,,,,,,,
null,,black_cross(without_color)4,1457082,,,,,,,,green,,,null,object_14c.png,object_08c.png,,,,,,,,,,,,,,,,,,,,,
null,,rt_plussign_withcolor4,1457583,,,,,,,,green,,,null,object_14c.png,object_08c.png,,,,,,,,,,,,,,,,,,,,,
923,,rt_thecrossant_black4,1459000,,,,,,,,black_plus_sign,,,50,,,1,,,,,,,1,,,,,,,,,,,,,
null,,color_black4,1459102,,,,,,,,black_plus_sign,,,null,,,,,,,,,,,,,,,,,,,,,,,
null,,learn_phase(without_color)4,1462605,,,,,,,,black_plus_sign,,,null,object_13b.png,object_04c.png,,,,,,,,,,,,,,,,,,,,,
null,,black_cross(without_color)4,1463372,,,,,,,,blue,,,null,object_13b.png,object_04c.png,,,,,,,,,,,,,,,,,,,,,
478.40000000596046,,rt_plussign_withcolor4,1463874,,,,,,,,blue,,,49,object_13b.png,object_04c.png,,,,,,,,,,,,,,,,,,,,,
null,,rt_thecrossant_black4,1465115,,,,,,,,black_plus_sign,,,null,,,1,,,,,,,1,,,,,,,,,,,,,
null,,color_black4,1465218,,,,,,,,black_plus_sign,,,null,,,,,,,,,,,,,,,,,,,,,,,
null,,learn_phase(without_color)4,1468722,,,,,,,,black_plus_sign,,,null,object_14c.png,object_02c.png,,,,,,,,,,,,,,,,,,,,,
null,,black_cross(without_color)4,1469473,,,,,,,,blue,,,null,object_14c.png,object_02c.png,,,,,,,,,,,,,,,,,,,,,
441,,rt_plussign_withcolor4,1469976,,,,,,,,blue,,,49,object_14c.png,object_02c.png,,,,,,,,,,,,,,,,,,,,,
null,,rt_thecrossant_black4,1471233,,,,,,,,black_plus_sign,,,null,,,1,,,,,,,1,,,,,,,,,,,,,
null,,color_black4,1471341,,,,,,,,black_plus_sign,,,null,,,,,,,,,,,,,,,,,,,,,,,
null,,learn_phase(without_color)4,1474844,,,,,,,,black_plus_sign,,,null,object_02a.png,object_14a.png,,,,,,,,,,,,,,,,,,,,,
null,,black_cross(without_color)4,1475273,,,,,,,,blue,,,null,object_02a.png,object_14a.png,,,,,,,,,,,,,,,,,,,,,
null,,rt_plussign_withcolor4,1475787,,,,,,,,blue,,,null,object_02a.png,object_14a.png,,,,,,,,,,,,,,,,,,,,,
1142.5,,rt_thecrossant_black4,1477364,,,,,,,,black_plus_sign,,,49,,,1,,,,,,,1,,,,,,,,,,,,,
null,,color_black4,1477471,,,,,,,,black_plus_sign,,,null,,,,,,,,,,,,,,,,,,,,,,,
null,,learn_phase(without_color)4,1480973,,,,,,,,black_plus_sign,,,null,object_03c.png,object_12b.png,,,,,,,,,,,,,,,,,,,,,
null,,black_cross(without_color)4,1481914,,,,,,,,green,,,null,object_03c.png,object_12b.png,,,,,,,,,,,,,,,,,,,,,
null,,rt_plussign_withcolor4,1482416,,,,,,,,green,,,null,object_03c.png,object_12b.png,,,,,,,,,,,,,,,,,,,,,
726.9000000059605,,rt_thecrossant_black4,1483479,,,,,,,,black_plus_sign,,,50,,,1,,,,,,,1,,,,,,,,,,,,,
null,,color_black4,1483582,,,,,,,,black_plus_sign,,,null,,,,,,,,,,,,,,,,,,,,,,,
null,,learn_phase(without_color)4,1487084,,,,,,,,black_plus_sign,,,null,object_15c.png,object_04b.png,,,,,,,,,,,,,,,,,,,,,
null,,black_cross(without_color)4,1488072,,,,,,,,blue,,,null,object_15c.png,object_04b.png,,,,,,,,,,,,,,,,,,,,,
null,,rt_plussign_withcolor4,1488589,,,,,,,,blue,,,null,object_15c.png,object_04b.png,,,,,,,,,,,,,,,,,,,,,
1876.5999999940395,,rt_thecrossant_black4,1489605,,,,,,,,black_plus_sign,,,49,,,1,,,,,,,1,,,,,,,,,,,,,
null,,color_black4,1489707,,,,,,,,black_plus_sign,,,null,,,,,,,,,,,,,,,,,,,,,,,
null,,learn_phase(without_color)4,1493210,,,,,,,,black_plus_sign,,,null,object_05a.png,object_04b.png,,,,,,,,,,,,,,,,,,,,,
null,,black_cross(without_color)4,1493816,,,,,,,,green,,,null,object_05a.png,object_04b.png,,,,,,,,,,,,,,,,,,,,,
null,,rt_plussign_withcolor4,1494318,,,,,,,,green,,,null,object_05a.png,object_04b.png,,,,,,,,,,,,,,,,,,,,,
1552.300000011921,,rt_thecrossant_black4,1495718,,,,,,,,black_plus_sign,,,50,,,1,,,,,,,1,,,,,,,,,,,,,
null,,color_black4,1495820,,,,,,,,black_plus_sign,,,null,,,,,,,,,,,,,,,,,,,,,,,
null,,learn_phase(without_color)4,1499324,,,,,,,,black_plus_sign,,,null,object_15b.png,object_09b.png,,,,,,,,,,,,,,,,,,,,,
null,,black_cross(without_color)4,1500250,,,,,,,,blue,,,null,object_15b.png,object_09b.png,,,,,,,,,,,,,,,,,,,,,
null,,rt_plussign_withcolor4,1500751,,,,,,,,blue,,,null,object_15b.png,object_09b.png,,,,,,,,,,,,,,,,,,,,,
1097.3999999761581,,rt_thecrossant_black4,1501831,,,,,,,,black_plus_sign,,,49,,,1,,,,,,,1,,,,,,,,,,,,,
null,,color_black4,1501934,,,,,,,,black_plus_sign,,,null,,,,,,,,,,,,,,,,,,,,,,,
null,,learn_phase(without_color)4,1505437,,,,,,,,black_plus_sign,,,null,object_15a.png,object_13a.png,,,,,,,,,,,,,,,,,,,,,
null,,black_cross(without_color)4,1506090,,,,,,,,blue,,,null,object_15a.png,object_13a.png,,,,,,,,,,,,,,,,,,,,,
null,,rt_plussign_withcolor4,1506592,,,,,,,,blue,,,null,object_15a.png,object_13a.png,,,,,,,,,,,,,,,,,,,,,
null,,rt_thecrossant_black4,1507945,,,,,,,,black_plus_sign,,,null,,,,,,,,,,1,,,,,,,,,,,,,
null,,color_black4,1508047,,,,,,,,black_plus_sign,,,null,,,,,,,,,,,,,,,,,,,,,,,
null,,learn_phase(without_color)4,1511550,,,,,,,,black_plus_sign,,,null,object_06c.png,object_01a.png,,,,,,,,,,,,,,,,,,,,,
null,,black_cross(without_color)4,1512295,,,,,,,,green,,,null,object_06c.png,object_01a.png,,,,,,,,,,,,,,,,,,,,,
null,,rt_plussign_withcolor4,1512797,,,,,,,,green,,,null,object_06c.png,object_01a.png,,,,,,,,,,,,,,,,,,,,,
826.4000000059605,,rt_thecrossant_black4,1514058,,,,,,,,black_plus_sign,,,50,,,1,,,,,,,1,,,,,,,,,,,,,
null,,color_black4,1514161,,,,,,,,black_plus_sign,,,null,,,,,,,,,,,,,,,,,,,,,,,
null,,learn_phase(without_color)4,1517665,,,,,,,,black_plus_sign,,,null,object_04a.png,object_12a.png,,,,,,,,,,,,,,,,,,,,,
null,,black_cross(without_color)4,1518318,,,,,,,,blue,,,null,object_04a.png,object_12a.png,,,,,,,,,,,,,,,,,,,,,
null,,rt_plussign_withcolor4,1518820,,,,,,,,blue,,,null,object_04a.png,object_12a.png,,,,,,,,,,,,,,,,,,,,,
982.9000000059605,,rt_thecrossant_black4,1520172,,,,,,,,black_plus_sign,,,49,,,1,,,,,,,1,,,,,,,,,,,,,
null,,color_black4,1520275,,,,,,,,black_plus_sign,,,null,,,,,,,,,,,,,,,,,,,,,,,
null,,learn_phase(without_color)4,1523791,,,,,,,,black_plus_sign,,,null,object_11b.png,object_07b.png,,,,,,,,,,,,,,,,,,,,,
null,,black_cross(without_color)4,1524478,,,,,,,,blue,,,null,object_11b.png,object_07b.png,,,,,,,,,,,,,,,,,,,,,
null,,rt_plussign_withcolor4,1524979,,,,,,,,blue,,,null,object_11b.png,object_07b.png,,,,,,,,,,,,,,,,,,,,,
908.6999999880791,,rt_thecrossant_black4,1526298,,,,,,,,black_plus_sign,,,49,,,1,,,,,,,1,,,,,,,,,,,,,
null,,color_black4,1526400,,,,,,,,black_plus_sign,,,null,,,,,,,,,,,,,,,,,,,,,,,
null,,thebreak,1526503,,,,,,,,<p></p>,,,null,,,,,,,,,,,,,,,,,,,,,,,
1202.0999999940395,,intro_0,1527707,,,,,,,,instruct,,,32,,,,,,,,,,,,,,,,,,,,,,,
2062.199999988079,,directmemory_phase4,1529771,,,,,,,,object_02c.png,,,50,,,1,,object_01b.png,object_14c.png,object_15a.png,object_14c.png,,0.7472527472527473,,1,,,,,,,,,,,
2797.199999988079,,directmemory_phase4,1532571,,,,,,,,object_11b.png,,,50,,,1,,object_09b.png,object_07b.png,object_14b.png,object_07b.png,,0.75,,1,,,,,,,,,,,
1685.0999999940395,,directmemory_phase4,1534259,,,,,,,,object_13a.png,,,51,,,1,,object_01c.png,object_05c.png,object_15a.png,object_15a.png,,0.7526881720430108,,1,,,,,,,,,,,
1276.699999988079,,directmemory_phase4,1535539,,,,,,,,object_08c.png,,,50,,,1,,object_05a.png,object_14c.png,object_02a.png,object_14c.png,,0.7553191489361702,,1,,,,,,,,,,,
1405,,directmemory_phase4,1536947,,,,,,,,object_04b.png,,,49,,,1,,object_15c.png,object_06b.png,object_02a.png,object_15c.png,,0.7578947368421053,,1,,,,,,,,,,,
4748.9000000059605,,directmemory_phase4,1541699,,,,,,,,object_05a.png,,,49,,,1,,object_04b.png,object_04a.png,object_08c.png,object_04b.png,,0.7604166666666666,,1,,,,,,,,,,,
2141.699999988079,,directmemory_phase4,1543843,,,,,,,,object_02b.png,,,51,,,1,,object_05b.png,object_15b.png,object_13b.png,object_13b.png,,0.7628865979381443,,1,,,,,,,,,,,
1396.7999999821186,,directmemory_phase4,1545243,,,,,,,,object_07a.png,,,51,,,1,,object_15a.png,object_03a.png,object_02a.png,object_02a.png,,0.7653061224489796,,1,,,,,,,,,,,
1693.199999988079,,directmemory_phase4,1546939,,,,,,,,object_10b.png,,,50,,,1,,object_02a.png,object_06a.png,object_10c.png,object_06a.png,,0.7676767676767676,,1,,,,,,,,,,,
4004.699999988079,,directmemory_phase4,1550947,,,,,,,,object_09a.png,,,49,,,1,,object_05b.png,object_13c.png,object_10c.png,object_05b.png,,0.77,,1,,,,,,,,,,,
1236.9000000059605,,directmemory_phase4,1552187,,,,,,,,object_14a.png,,,50,,,1,,object_06b.png,object_02a.png,object_10b.png,object_02a.png,,0.7722772277227723,,1,,,,,,,,,,,
2276.800000011921,,directmemory_phase4,1554467,,,,,,,,object_04c.png,,,49,,,1,,object_13b.png,object_10b.png,object_07b.png,object_13b.png,,0.7745098039215687,,1,,,,,,,,,,,
1413,,directmemory_phase4,1555883,,,,,,,,object_12c.png,,,50,,,1,,object_15b.png,object_01c.png,object_05b.png,object_01c.png,,0.7766990291262136,,1,,,,,,,,,,,
1493.199999988079,,directmemory_phase4,1557379,,,,,,,,object_15b.png,,,51,,,1,,object_04b.png,object_05c.png,object_09b.png,object_09b.png,,0.7788461538461539,,1,,,,,,,,,,,
2124.199999988079,,directmemory_phase4,1559507,,,,,,,,object_11c.png,,,50,,,1,,object_06b.png,object_06c.png,object_13c.png,object_06c.png,,0.780952380952381,,1,,,,,,,,,,,
3588,,directmemory_phase4,1563098,,,,,,,,object_12a.png,,,51,,,1,,object_12b.png,object_08c.png,object_04a.png,object_04a.png,,0.7830188679245284,,1,,,,,,,,,,,
2405.5,,directmemory_phase4,1565507,,,,,,,,object_01c.png,,,49,,,1,,object_03b.png,object_02c.png,object_11b.png,object_03b.png,,0.7850467289719626,,1,,,,,,,,,,,
1110.4000000059605,,directmemory_phase4,1566619,,,,,,,,object_15a.png,,,50,,,1,,object_09c.png,object_10c.png,object_08b.png,object_10c.png,,0.7870370370370371,,1,,,,,,,,,,,
3957.199999988079,,directmemory_phase4,1570579,,,,,,,,object_05c.png,,,50,,,1,,object_07a.png,object_05b.png,object_09c.png,object_05b.png,,0.7889908256880734,,1,,,,,,,,,,,
1293.199999988079,,directmemory_phase4,1571876,,,,,,,,object_08a.png,,,50,,,1,,object_05c.png,object_13c.png,object_12b.png,object_13c.png,,0.7909090909090909,,1,,,,,,,,,,,
3108.300000011921,,directmemory_phase4,1574987,,,,,,,,object_06b.png,,,51,,,1,,object_01c.png,object_07c.png,object_09b.png,object_09b.png,,0.7927927927927928,,1,,,,,,,,,,,
1317,,directmemory_phase4,1576307,,,,,,,,object_03c.png,,,50,,,1,,object_10a.png,object_12b.png,object_15a.png,object_12b.png,,0.7946428571428571,,1,,,,,,,,,,,
