rt,responses,trial_type,time_elapsed,identifier_a,identifier_b,identifier_c,tasktype,browser_type,local_time,UTC_time,stimulus,button_pressed,response,key_press,stimulus_left,stimulus_right,practice_cumulative_accuracy,accuracy,stimulus_down_left,stimulus_down_mid,stimulus_down_right,stimulus_correct,prac_weighted_accuracy,cumulative_accuracy,weighted_accuracy,stimulus_middle,problems,smooth,distraction,strategies,easier,similar,comments,detectfocus,breakfocus,completion_code
26456.40000000014,{worker_id:680d155019b77b986ff85126},id_enter,26463,object_11b.png; object_05b.png; object_12b.png; object_02c.png; object_14c.png; object_01b.png; object_06c.png; object_03c.png; object_09c.png; object_09b.png; object_12a.png; object_13c.png; object_14a.png; object_02b.png; object_13b.png,object_08a.png; object_01a.png; object_14b.png; object_05c.png; object_10c.png; object_02a.png; object_07c.png; object_10a.png; object_04c.png; object_13a.png; object_04b.png; object_06a.png; object_07a.png; object_08c.png; object_10b.png,object_12c.png; object_07b.png; object_11a.png; object_03b.png; object_15c.png; object_06b.png; object_03a.png; object_11c.png; object_04a.png; object_09a.png; object_08b.png; object_05a.png; object_15b.png; object_01c.png; object_15a.png,interleaved,Mozilla/5.0 (Windows NT 10.0; Win64; x64) AppleWebKit/537.36 (KHTML, like Gecko) Chrome/135.0.0.0 Safari/537.36,5/2/2025, 12:40:42 PM,2025-05-02 19:40:42.200,,,,,,,,,,,,,,,,,,,,,,,,,,
105803,,make_fullscreen,132316,,,,,,,,fullscreen,0,,,,,,,,,,,,,,,,,,,,,,,,
22243.100000000093,,instruct_1,154563,,,,,,,,instruct,0,Next,,,,,,,,,,,,,,,,,,,,,,,
70321.09999999986,,instruct_2,224888,,,,,,,,instruct,1,Next,,,,,,,,,,,,,,,,,,,,,,,
44500.60000000009,,instruct_3,269392,,,,,,,,instruct,1,Next,,,,,,,,,,,,,,,,,,,,,,,
89879.79999999981,,instruct_4,359276,,,,,,,,instruct,1,Next,,,,,,,,,,,,,,,,,,,,,,,
44567.89999999991,,instruct_5,403847,,,,,,,,instruct,1,Next,,,,,,,,,,,,,,,,,,,,,,,
7633.799999999814,,instruct_6,411484,,,,,,,,instruct,1,Next,,,,,,,,,,,,,,,,,,,,,,,
38205.39999999991,,instruct_7,449692,,,,,,,,instruct,1,Next,,,,,,,,,,,,,,,,,,,,,,,
null,,prac_atten_color_black,450345,,,,,,,,black_plus_sign,,,null,,,,,,,,,,,,,,,,,,,,,,
null,,prac_atten_color,451106,,,,,,,,<p style='position:absolute;top: 50%;right: 50%;transform: translate(50%, -50%);font-size: 125px;color: blue;'>+</p>,,,null,,,,,,,,,,,,,,,,,,,,,,
null,,prac_atten_color_black,453115,,,,,,,,black_plus_sign,,,null,,,,,,,,,,,,,,,,,,,,,,
17943.200000000186,,attentioncheck_help,471062,,,,,,,,instruct,,,32,,,,,,,,,,,,,,,,,,,,,,
null,,prac_atten_color_black,471724,,,,,,,,black_plus_sign,,,null,,,,,,,,,,,,,,,,,,,,,,
494.79999999981374,,prac_atten_color,472544,,,,,,,,<p style='position:absolute;top: 50%;right: 50%;transform: translate(50%, -50%);font-size: 125px;color: green;'>+</p>,,,49,,,,,,,,,,,,,,,,,,,,,,
null,,prac_atten_color_black,474547,,,,,,,,black_plus_sign,,,null,,,,,,,,,,,,,,,,,,,,,,
4229.299999999814,,attentioncheck_help,478779,,,,,,,,instruct,,,32,,,,,,,,,,,,,,,,,,,,,,
null,,prac_atten_color_black,479372,,,,,,,,black_plus_sign,,,null,,,,,,,,,,,,,,,,,,,,,,
null,,prac_atten_color,479999,,,,,,,,<p style='position:absolute;top: 50%;right: 50%;transform: translate(50%, -50%);font-size: 125px;color: green;'>+</p>,,,null,,,,,,,,,,,,,,,,,,,,,,
441.10000000009313,,prac_atten_color_black,482007,,,,,,,,black_plus_sign,,,50,,,,,,,,,,,,,,,,,,,,,,
null,,prac_atten_color_black,482791,,,,,,,,black_plus_sign,,,null,,,,,,,,,,,,,,,,,,,,,,
null,,prac_atten_color,483332,,,,,,,,<p style='position:absolute;top: 50%;right: 50%;transform: translate(50%, -50%);font-size: 125px;color: blue;'>+</p>,,,null,,,,,,,,,,,,,,,,,,,,,,
129.89999999990687,,prac_atten_color_black,485341,,,,,,,,black_plus_sign,,,49,,,,,,,,,,,,,,,,,,,,,,
null,,prac_atten_color_black,486232,,,,,,,,black_plus_sign,,,null,,,,,,,,,,,,,,,,,,,,,,
null,,prac_atten_color,486658,,,,,,,,<p style='position:absolute;top: 50%;right: 50%;transform: translate(50%, -50%);font-size: 125px;color: green;'>+</p>,,,null,,,,,,,,,,,,,,,,,,,,,,
123.29999999981374,,prac_atten_color_black,488664,,,,,,,,black_plus_sign,,,50,,,,,,,,,,,,,,,,,,,,,,
null,,prac_atten_color_black,489661,,,,,,,,black_plus_sign,,,null,,,,,,,,,,,,,,,,,,,,,,
577.6000000000931,,prac_atten_color,490571,,,,,,,,<p style='position:absolute;top: 50%;right: 50%;transform: translate(50%, -50%);font-size: 125px;color: green;'>+</p>,,,50,,,,,,,,,,,,,,,,,,,,,,
null,,prac_atten_color_black,492579,,,,,,,,black_plus_sign,,,null,,,,,,,,,,,,,,,,,,,,,,
null,,prac_atten_color_black,493092,,,,,,,,black_plus_sign,,,null,,,,,,,,,,,,,,,,,,,,,,
null,,prac_atten_color,493595,,,,,,,,<p style='position:absolute;top: 50%;right: 50%;transform: translate(50%, -50%);font-size: 125px;color: blue;'>+</p>,,,null,,,,,,,,,,,,,,,,,,,,,,
167.89999999990687,,prac_atten_color_black,495602,,,,,,,,black_plus_sign,,,49,,,,,,,,,,,,,,,,,,,,,,
null,,prac_atten_color_black,496511,,,,,,,,black_plus_sign,,,null,,,,,,,,,,,,,,,,,,,,,,
589.1000000000931,,prac_atten_color,497239,,,,,,,,<p style='position:absolute;top: 50%;right: 50%;transform: translate(50%, -50%);font-size: 125px;color: green;'>+</p>,,,50,,,,,,,,,,,,,,,,,,,,,,
null,,prac_atten_color_black,499250,,,,,,,,black_plus_sign,,,null,,,,,,,,,,,,,,,,,,,,,,
null,,prac_atten_color_black,499947,,,,,,,,black_plus_sign,,,null,,,,,,,,,,,,,,,,,,,,,,
549.3999999999069,,prac_atten_color,500820,,,,,,,,<p style='position:absolute;top: 50%;right: 50%;transform: translate(50%, -50%);font-size: 125px;color: blue;'>+</p>,,,49,,,,,,,,,,,,,,,,,,,,,,
null,,prac_atten_color_black,502830,,,,,,,,black_plus_sign,,,null,,,,,,,,,,,,,,,,,,,,,,
null,,prac_atten_color_black,503377,,,,,,,,black_plus_sign,,,null,,,,,,,,,,,,,,,,,,,,,,
670.7000000001863,,prac_atten_color,504222,,,,,,,,<p style='position:absolute;top: 50%;right: 50%;transform: translate(50%, -50%);font-size: 125px;color: blue;'>+</p>,,,49,,,,,,,,,,,,,,,,,,,,,,
null,,prac_atten_color_black,506226,,,,,,,,black_plus_sign,,,null,,,,,,,,,,,,,,,,,,,,,,
12371.80000000028,,attentioncheck_feedback,518601,,,,,,,,cross_check_feedback,0,,,,,,,,,,,,,,,,,,,,,,,,
41082.200000000186,,last_instruct,559686,,,,,,,,instruct,,,32,,,,,,,,,,,,,,,,,,,,,,
null,,prac_learn_phase(without_color),563194,,,,,,,,black_plus_sign,,,null,object_05b.png,object_01a.png,,,,,,,,,,,,,,,,,,,,
null,,prac_black_cross(without_color),563967,,,,,,,,green,,,null,object_05b.png,object_01a.png,,,,,,,,,,,,,,,,,,,,
null,,prac_rt_plussign_withcolor,564474,,,,,,,,green,,,null,object_05b.png,object_01a.png,,,,,,,,,,,,,,,,,,,,
null,,prac_rt_thecrossant_black,565723,,,,,,,,black_plus_sign,,,null,,,NaN,,,,,,,,,,,,,,,,,,,
null,,prac_color_black,565832,,,,,,,,black_plus_sign,,,null,,,,,,,,,,,,,,,,,,,,,,
null,,prac_learn_phase(without_color),569342,,,,,,,,black_plus_sign,,,null,object_15c.png,object_10c.png,,,,,,,,,,,,,,,,,,,,
null,,black_cross(without_color)1,570207,,,,,,,,blue,,,null,object_05b.png,object_01a.png,,,,,,,,,,,,,,,,,,,,
null,,prac_rt_plussign_withcolor,570722,,,,,,,,blue,,,null,object_15c.png,object_10c.png,,,,,,,,,,,,,,,,,,,,
1309.3999999999069,,prac_rt_thecrossant_black,571981,,,,,,,,black_plus_sign,,,49,,,1,1,,,,,,,,,,,,,,,,,,
null,,prac_color_black,572092,,,,,,,,black_plus_sign,,,null,,,,,,,,,,,,,,,,,,,,,,
null,,prac_learn_phase(without_color),575604,,,,,,,,black_plus_sign,,,null,object_01c.png,object_08c.png,,,,,,,,,,,,,,,,,,,,
null,,black_cross(without_color)1,576475,,,,,,,,blue,,,null,object_05b.png,object_01a.png,,,,,,,,,,,,,,,,,,,,
null,,prac_rt_plussign_withcolor,576977,,,,,,,,green,,,null,object_01c.png,object_08c.png,,,,,,,,,,,,,,,,,,,,
1594.6999999997206,,prac_rt_thecrossant_black,578308,,,,,,,,black_plus_sign,,,50,,,1,1,,,,,,,,,,,,,,,,,,
null,,prac_color_black,578419,,,,,,,,black_plus_sign,,,null,,,,,,,,,,,,,,,,,,,,,,
null,,prac_learn_phase(without_color),581935,,,,,,,,black_plus_sign,,,null,object_13a.png,object_09a.png,,,,,,,,,,,,,,,,,,,,
null,,black_cross(without_color)1,582793,,,,,,,,blue,,,null,object_05b.png,object_01a.png,,,,,,,,,,,,,,,,,,,,
null,,prac_rt_plussign_withcolor,583298,,,,,,,,green,,,null,object_13a.png,object_09a.png,,,,,,,,,,,,,,,,,,,,
1094.6999999997206,,prac_rt_thecrossant_black,584420,,,,,,,,black_plus_sign,,,50,,,1,1,,,,,,,,,,,,,,,,,,
null,,prac_color_black,584531,,,,,,,,black_plus_sign,,,null,,,,,,,,,,,,,,,,,,,,,,
22676.600000000093,,instruct_dir_01,607212,,,,,,,,instruct,0,Next,,,,,,,,,,,,,,,,,,,,,,,
9763.600000000093,,instruct_dir_2,616979,,,,,,,,instruct,1,Next,,,,,,,,,,,,,,,,,,,,,,,
6350.600000000093,,instruct_dir_3,623333,,,,,,,,instruct,1,Next,,,,,,,,,,,,,,,,,,,,,,,
9926.700000000186,,instruct_dir_4,633263,,,,,,,,instruct,1,Start,,,,,,,,,,,,,,,,,,,,,,,
null,,thebreak,633369,,,,,,,,<p></p>,,,null,,,,,,,,,,,,,,,,,,,,,,
3027.7999999998137,,intro_0,636399,,,,,,,,instruct,,,32,,,,,,,,,,,,,,,,,,,,,,
4078,,prac_directmemory_phase,640479,,,,,,,,practice/object_03a.png,,,49,,,,1,practice/object_03b.png,practice/object_04b.png,practice/object_01a.png,practice/object_03b.png,1,1,,,,,,,,,,,,
3158.6999999997206,,prac_directmemory_phase,643642,,,,,,,,practice/object_04a.png,,,50,,,,1,practice/object_03a.png,practice/object_04b.png,practice/object_03b.png,practice/object_04b.png,1,1,,,,,,,,,,,,
4468,,prac_directmemory_phase,648114,,,,,,,,practice/object_01a.png,,,50,,,,1,practice/object_02a.png,practice/object_01b.png,practice/object_04b.png,practice/object_01b.png,1,1,,,,,,,,,,,,
3970.5999999996275,,prac_directmemory_phase,652087,,,,,,,,practice/object_02a.png,,,50,,,,1,practice/object_04a.png,practice/object_02b.png,practice/object_03b.png,practice/object_02b.png,1,1,,,,,,,,,,,,
23184.299999999814,,practice_feedback,675275,,,,,,,,practice_feedback,1,,,,,,,,,,,,,,,,,,,,,,,,
22538.899999999907,,proceed_actualTask,697817,,,,,,,,proceed_actualTask,1,Continue,,,,,,,,,,,,,,,,,,,,,,,
26996.899999999907,,last_inst,724816,,,,,,,,last_inst,,,32,,,,,,,,,,,,,,,,,,,,,,
null,,learn_phase(without_color)1,728319,,,,,,,,black_plus_sign,,,null,object_05b.png,object_01a.png,,,,,,,,,,,,,,,,,,,,
null,,black_cross(without_color)1,729185,,,,,,,,blue,,,null,object_05b.png,object_01a.png,,,,,,,,,,,,,,,,,,,,
null,,rt_plussign_withcolor1,729692,,,,,,,,blue,,,null,object_05b.png,object_01a.png,,,,,,,,,,,,,,,,,,,,
1277.3999999999069,,rt_thecrossant_black1,730846,,,,,,,,black_plus_sign,,,49,,,,1,,,,,,1,,,,,,,,,,,,
null,,color_black1,730957,,,,,,,,black_plus_sign,,,null,,,,,,,,,,,,,,,,,,,,,,
null,,learn_phase(without_color)1,734472,,,,,,,,black_plus_sign,,,null,object_15c.png,object_10c.png,,,,,,,,,,,,,,,,,,,,
null,,black_cross(without_color)1,734942,,,,,,,,blue,,,null,object_15c.png,object_10c.png,,,,,,,,,,,,,,,,,,,,
null,,rt_plussign_withcolor1,735449,,,,,,,,blue,,,null,object_15c.png,object_10c.png,,,,,,,,,,,,,,,,,,,,
1005.1000000000931,,rt_thecrossant_black1,737001,,,,,,,,black_plus_sign,,,49,,,,1,,,,,,1,,,,,,,,,,,,
null,,color_black1,737110,,,,,,,,black_plus_sign,,,null,,,,,,,,,,,,,,,,,,,,,,
null,,learn_phase(without_color)1,740623,,,,,,,,black_plus_sign,,,null,object_01c.png,object_08c.png,,,,,,,,,,,,,,,,,,,,
null,,black_cross(without_color)1,741162,,,,,,,,blue,,,null,object_01c.png,object_08c.png,,,,,,,,,,,,,,,,,,,,
null,,rt_plussign_withcolor1,741672,,,,,,,,blue,,,null,object_01c.png,object_08c.png,,,,,,,,,,,,,,,,,,,,
906.5,,rt_thecrossant_black1,743146,,,,,,,,black_plus_sign,,,49,,,,1,,,,,,1,,,,,,,,,,,,
null,,color_black1,743257,,,,,,,,black_plus_sign,,,null,,,,,,,,,,,,,,,,,,,,,,
null,,learn_phase(without_color)1,746772,,,,,,,,black_plus_sign,,,null,object_13a.png,object_09a.png,,,,,,,,,,,,,,,,,,,,
null,,black_cross(without_color)1,747272,,,,,,,,green,,,null,object_13a.png,object_09a.png,,,,,,,,,,,,,,,,,,,,
null,,rt_plussign_withcolor1,747779,,,,,,,,green,,,null,object_13a.png,object_09a.png,,,,,,,,,,,,,,,,,,,,
853.7000000001863,,rt_thecrossant_black1,749302,,,,,,,,black_plus_sign,,,50,,,,1,,,,,,1,,,,,,,,,,,,
null,,color_black1,749411,,,,,,,,black_plus_sign,,,null,,,,,,,,,,,,,,,,,,,,,,
null,,learn_phase(without_color)1,752917,,,,,,,,black_plus_sign,,,null,object_14b.png,object_12b.png,,,,,,,,,,,,,,,,,,,,
null,,black_cross(without_color)1,753537,,,,,,,,green,,,null,object_14b.png,object_12b.png,,,,,,,,,,,,,,,,,,,,
null,,rt_plussign_withcolor1,754040,,,,,,,,green,,,null,object_14b.png,object_12b.png,,,,,,,,,,,,,,,,,,,,
1219.1000000000931,,rt_thecrossant_black1,755440,,,,,,,,black_plus_sign,,,50,,,,1,,,,,,1,,,,,,,,,,,,
null,,color_black1,755543,,,,,,,,black_plus_sign,,,null,,,,,,,,,,,,,,,,,,,,,,
null,,learn_phase(without_color)1,759052,,,,,,,,black_plus_sign,,,null,object_08c.png,object_02b.png,,,,,,,,,,,,,,,,,,,,
null,,black_cross(without_color)1,759917,,,,,,,,green,,,null,object_08c.png,object_02b.png,,,,,,,,,,,,,,,,,,,,
null,,rt_plussign_withcolor1,760435,,,,,,,,green,,,null,object_08c.png,object_02b.png,,,,,,,,,,,,,,,,,,,,
1180.1999999997206,,rt_thecrossant_black1,761591,,,,,,,,black_plus_sign,,,50,,,,1,,,,,,1,,,,,,,,,,,,
null,,color_black1,761701,,,,,,,,black_plus_sign,,,null,,,,,,,,,,,,,,,,,,,,,,
null,,learn_phase(without_color)1,765213,,,,,,,,black_plus_sign,,,null,object_04a.png,object_04c.png,,,,,,,,,,,,,,,,,,,,
null,,black_cross(without_color)1,766292,,,,,,,,blue,,,null,object_04a.png,object_04c.png,,,,,,,,,,,,,,,,,,,,
null,,rt_plussign_withcolor1,766809,,,,,,,,blue,,,null,object_04a.png,object_04c.png,,,,,,,,,,,,,,,,,,,,
1292,,rt_thecrossant_black1,767747,,,,,,,,black_plus_sign,,,49,,,,1,,,,,,1,,,,,,,,,,,,
null,,color_black1,767858,,,,,,,,black_plus_sign,,,null,,,,,,,,,,,,,,,,,,,,,,
null,,learn_phase(without_color)1,771370,,,,,,,,black_plus_sign,,,null,object_02a.png,object_06b.png,,,,,,,,,,,,,,,,,,,,
null,,black_cross(without_color)1,772103,,,,,,,,green,,,null,object_02a.png,object_06b.png,,,,,,,,,,,,,,,,,,,,
null,,rt_plussign_withcolor1,772612,,,,,,,,green,,,null,object_02a.png,object_06b.png,,,,,,,,,,,,,,,,,,,,
1440.7000000001863,,rt_thecrossant_black1,773900,,,,,,,,black_plus_sign,,,50,,,,1,,,,,,1,,,,,,,,,,,,
null,,color_black1,774011,,,,,,,,black_plus_sign,,,null,,,,,,,,,,,,,,,,,,,,,,
null,,learn_phase(without_color)1,777515,,,,,,,,black_plus_sign,,,null,object_14c.png,object_10c.png,,,,,,,,,,,,,,,,,,,,
null,,black_cross(without_color)1,778548,,,,,,,,blue,,,null,object_14c.png,object_10c.png,,,,,,,,,,,,,,,,,,,,
null,,rt_plussign_withcolor1,779051,,,,,,,,blue,,,null,object_14c.png,object_10c.png,,,,,,,,,,,,,,,,,,,,
1118.3999999999069,,rt_thecrossant_black1,780027,,,,,,,,black_plus_sign,,,49,,,,1,,,,,,1,,,,,,,,,,,,
null,,color_black1,780137,,,,,,,,black_plus_sign,,,null,,,,,,,,,,,,,,,,,,,,,,
null,,learn_phase(without_color)1,783649,,,,,,,,black_plus_sign,,,null,object_07c.png,object_03a.png,,,,,,,,,,,,,,,,,,,,
null,,black_cross(without_color)1,784460,,,,,,,,blue,,,null,object_07c.png,object_03a.png,,,,,,,,,,,,,,,,,,,,
null,,rt_plussign_withcolor1,784965,,,,,,,,blue,,,null,object_07c.png,object_03a.png,,,,,,,,,,,,,,,,,,,,
2012.9000000003725,,rt_thecrossant_black1,786169,,,,,,,,black_plus_sign,,,49,,,,1,,,,,,1,,,,,,,,,,,,
null,,color_black1,786274,,,,,,,,black_plus_sign,,,null,,,,,,,,,,,,,,,,,,,,,,
null,,learn_phase(without_color)1,789789,,,,,,,,black_plus_sign,,,null,object_10b.png,object_15a.png,,,,,,,,,,,,,,,,,,,,
null,,black_cross(without_color)1,790539,,,,,,,,green,,,null,object_10b.png,object_15a.png,,,,,,,,,,,,,,,,,,,,
null,,rt_plussign_withcolor1,791042,,,,,,,,green,,,null,object_10b.png,object_15a.png,,,,,,,,,,,,,,,,,,,,
1407,,rt_thecrossant_black1,792312,,,,,,,,black_plus_sign,,,50,,,,1,,,,,,1,,,,,,,,,,,,
null,,color_black1,792424,,,,,,,,black_plus_sign,,,null,,,,,,,,,,,,,,,,,,,,,,
null,,learn_phase(without_color)1,795931,,,,,,,,black_plus_sign,,,null,object_11c.png,object_10a.png,,,,,,,,,,,,,,,,,,,,
null,,black_cross(without_color)1,796919,,,,,,,,green,,,null,object_11c.png,object_10a.png,,,,,,,,,,,,,,,,,,,,
null,,rt_plussign_withcolor1,797426,,,,,,,,green,,,null,object_11c.png,object_10a.png,,,,,,,,,,,,,,,,,,,,
1161.8999999999069,,rt_thecrossant_black1,798462,,,,,,,,black_plus_sign,,,50,,,,1,,,,,,1,,,,,,,,,,,,
null,,color_black1,798570,,,,,,,,black_plus_sign,,,null,,,,,,,,,,,,,,,,,,,,,,
null,,learn_phase(without_color)1,802077,,,,,,,,black_plus_sign,,,null,object_03c.png,object_10a.png,,,,,,,,,,,,,,,,,,,,
null,,black_cross(without_color)1,803025,,,,,,,,blue,,,null,object_03c.png,object_10a.png,,,,,,,,,,,,,,,,,,,,
null,,rt_plussign_withcolor1,803542,,,,,,,,blue,,,null,object_03c.png,object_10a.png,,,,,,,,,,,,,,,,,,,,
1376,,rt_thecrossant_black1,804602,,,,,,,,black_plus_sign,,,49,,,,1,,,,,,1,,,,,,,,,,,,
null,,color_black1,804711,,,,,,,,black_plus_sign,,,null,,,,,,,,,,,,,,,,,,,,,,
null,,learn_phase(without_color)1,808222,,,,,,,,black_plus_sign,,,null,object_15b.png,object_07a.png,,,,,,,,,,,,,,,,,,,,
null,,black_cross(without_color)1,808831,,,,,,,,blue,,,null,object_15b.png,object_07a.png,,,,,,,,,,,,,,,,,,,,
null,,rt_plussign_withcolor1,809336,,,,,,,,blue,,,null,object_15b.png,object_07a.png,,,,,,,,,,,,,,,,,,,,
1266.0999999996275,,rt_thecrossant_black1,810753,,,,,,,,black_plus_sign,,,49,,,,1,,,,,,1,,,,,,,,,,,,
null,,color_black1,810864,,,,,,,,black_plus_sign,,,null,,,,,,,,,,,,,,,,,,,,,,
null,,learn_phase(without_color)1,814370,,,,,,,,black_plus_sign,,,null,object_13a.png,object_09b.png,,,,,,,,,,,,,,,,,,,,
null,,black_cross(without_color)1,815438,,,,,,,,blue,,,null,object_13a.png,object_09b.png,,,,,,,,,,,,,,,,,,,,
null,,rt_plussign_withcolor1,815951,,,,,,,,blue,,,null,object_13a.png,object_09b.png,,,,,,,,,,,,,,,,,,,,
906.5,,rt_thecrossant_black1,816908,,,,,,,,black_plus_sign,,,49,,,,1,,,,,,1,,,,,,,,,,,,
null,,color_black1,817019,,,,,,,,black_plus_sign,,,null,,,,,,,,,,,,,,,,,,,,,,
null,,learn_phase(without_color)1,820524,,,,,,,,black_plus_sign,,,null,object_05c.png,object_02c.png,,,,,,,,,,,,,,,,,,,,
null,,black_cross(without_color)1,821440,,,,,,,,blue,,,null,object_05c.png,object_02c.png,,,,,,,,,,,,,,,,,,,,
null,,rt_plussign_withcolor1,821955,,,,,,,,blue,,,null,object_05c.png,object_02c.png,,,,,,,,,,,,,,,,,,,,
1320.7999999998137,,rt_thecrossant_black1,823062,,,,,,,,black_plus_sign,,,49,,,,1,,,,,,1,,,,,,,,,,,,
null,,color_black1,823176,,,,,,,,black_plus_sign,,,null,,,,,,,,,,,,,,,,,,,,,,
null,,learn_phase(without_color)1,826683,,,,,,,,black_plus_sign,,,null,object_06a.png,object_05a.png,,,,,,,,,,,,,,,,,,,,
null,,black_cross(without_color)1,827532,,,,,,,,green,,,null,object_06a.png,object_05a.png,,,,,,,,,,,,,,,,,,,,
null,,rt_plussign_withcolor1,828034,,,,,,,,green,,,null,object_06a.png,object_05a.png,,,,,,,,,,,,,,,,,,,,
1506.8999999999069,,rt_thecrossant_black1,829211,,,,,,,,black_plus_sign,,,50,,,,1,,,,,,1,,,,,,,,,,,,
null,,color_black1,829322,,,,,,,,black_plus_sign,,,null,,,,,,,,,,,,,,,,,,,,,,
null,,learn_phase(without_color)1,832833,,,,,,,,black_plus_sign,,,null,object_07c.png,object_06c.png,,,,,,,,,,,,,,,,,,,,
null,,black_cross(without_color)1,833940,,,,,,,,green,,,null,object_07c.png,object_06c.png,,,,,,,,,,,,,,,,,,,,
null,,rt_plussign_withcolor1,834444,,,,,,,,green,,,null,object_07c.png,object_06c.png,,,,,,,,,,,,,,,,,,,,
1157,,rt_thecrossant_black1,835356,,,,,,,,black_plus_sign,,,50,,,,1,,,,,,1,,,,,,,,,,,,
null,,color_black1,835468,,,,,,,,black_plus_sign,,,null,,,,,,,,,,,,,,,,,,,,,,
null,,learn_phase(without_color)1,838977,,,,,,,,black_plus_sign,,,null,object_03b.png,object_05c.png,,,,,,,,,,,,,,,,,,,,
null,,black_cross(without_color)1,839815,,,,,,,,green,,,null,object_03b.png,object_05c.png,,,,,,,,,,,,,,,,,,,,
null,,rt_plussign_withcolor1,840332,,,,,,,,green,,,null,object_03b.png,object_05c.png,,,,,,,,,,,,,,,,,,,,
1488.8999999999069,,rt_thecrossant_black1,841507,,,,,,,,black_plus_sign,,,50,,,,1,,,,,,1,,,,,,,,,,,,
null,,color_black1,841619,,,,,,,,black_plus_sign,,,null,,,,,,,,,,,,,,,,,,,,,,
null,,learn_phase(without_color)1,845126,,,,,,,,black_plus_sign,,,null,object_01a.png,object_07b.png,,,,,,,,,,,,,,,,,,,,
null,,black_cross(without_color)1,845715,,,,,,,,green,,,null,object_01a.png,object_07b.png,,,,,,,,,,,,,,,,,,,,
null,,rt_plussign_withcolor1,846218,,,,,,,,green,,,null,object_01a.png,object_07b.png,,,,,,,,,,,,,,,,,,,,
1209.2000000001863,,rt_thecrossant_black1,847648,,,,,,,,black_plus_sign,,,50,,,,1,,,,,,1,,,,,,,,,,,,
null,,color_black1,847759,,,,,,,,black_plus_sign,,,null,,,,,,,,,,,,,,,,,,,,,,
null,,learn_phase(without_color)1,851269,,,,,,,,black_plus_sign,,,null,object_04c.png,object_09c.png,,,,,,,,,,,,,,,,,,,,
null,,black_cross(without_color)1,852371,,,,,,,,blue,,,null,object_04c.png,object_09c.png,,,,,,,,,,,,,,,,,,,,
null,,rt_plussign_withcolor1,852881,,,,,,,,blue,,,null,object_04c.png,object_09c.png,,,,,,,,,,,,,,,,,,,,
874.8000000002794,,rt_thecrossant_black1,853801,,,,,,,,black_plus_sign,,,49,,,,1,,,,,,1,,,,,,,,,,,,
null,,color_black1,853911,,,,,,,,black_plus_sign,,,null,,,,,,,,,,,,,,,,,,,,,,
null,,learn_phase(without_color)1,857426,,,,,,,,black_plus_sign,,,null,object_07a.png,object_14a.png,,,,,,,,,,,,,,,,,,,,
null,,black_cross(without_color)1,858138,,,,,,,,blue,,,null,object_07a.png,object_14a.png,,,,,,,,,,,,,,,,,,,,
null,,rt_plussign_withcolor1,858641,,,,,,,,blue,,,null,object_07a.png,object_14a.png,,,,,,,,,,,,,,,,,,,,
1438.5,,rt_thecrossant_black1,859946,,,,,,,,black_plus_sign,,,49,,,,1,,,,,,1,,,,,,,,,,,,
null,,color_black1,860063,,,,,,,,black_plus_sign,,,null,,,,,,,,,,,,,,,,,,,,,,
null,,learn_phase(without_color)1,863570,,,,,,,,black_plus_sign,,,null,object_08a.png,object_12c.png,,,,,,,,,,,,,,,,,,,,
null,,black_cross(without_color)1,864166,,,,,,,,blue,,,null,object_08a.png,object_12c.png,,,,,,,,,,,,,,,,,,,,
null,,rt_plussign_withcolor1,864668,,,,,,,,blue,,,null,object_08a.png,object_12c.png,,,,,,,,,,,,,,,,,,,,
1028.6000000000931,,rt_thecrossant_black1,866102,,,,,,,,black_plus_sign,,,49,,,,1,,,,,,1,,,,,,,,,,,,
null,,color_black1,866205,,,,,,,,black_plus_sign,,,null,,,,,,,,,,,,,,,,,,,,,,
null,,learn_phase(without_color)1,869712,,,,,,,,black_plus_sign,,,null,object_04b.png,object_12a.png,,,,,,,,,,,,,,,,,,,,
null,,black_cross(without_color)1,870392,,,,,,,,green,,,null,object_04b.png,object_12a.png,,,,,,,,,,,,,,,,,,,,
null,,rt_plussign_withcolor1,870901,,,,,,,,green,,,null,object_04b.png,object_12a.png,,,,,,,,,,,,,,,,,,,,
null,,rt_thecrossant_black1,872246,,,,,,,,black_plus_sign,,,null,,,,,,,,,,1,,,,,,,,,,,,
null,,color_black1,872359,,,,,,,,black_plus_sign,,,null,,,,,,,,,,,,,,,,,,,,,,
null,,learn_phase(without_color)1,875871,,,,,,,,black_plus_sign,,,null,object_08b.png,object_04b.png,,,,,,,,,,,,,,,,,,,,
null,,black_cross(without_color)1,876631,,,,,,,,green,,,null,object_08b.png,object_04b.png,,,,,,,,,,,,,,,,,,,,
null,,rt_plussign_withcolor1,877134,,,,,,,,green,,,null,object_08b.png,object_04b.png,,,,,,,,,,,,,,,,,,,,
1811.3999999999069,,rt_thecrossant_black1,878399,,,,,,,,black_plus_sign,,,50,,,,1,,,,,,1,,,,,,,,,,,,
null,,color_black1,878509,,,,,,,,black_plus_sign,,,null,,,,,,,,,,,,,,,,,,,,,,
null,,learn_phase(without_color)1,882014,,,,,,,,black_plus_sign,,,null,object_01b.png,object_02a.png,,,,,,,,,,,,,,,,,,,,
null,,black_cross(without_color)1,882908,,,,,,,,blue,,,null,object_01b.png,object_02a.png,,,,,,,,,,,,,,,,,,,,
null,,rt_plussign_withcolor1,883411,,,,,,,,blue,,,null,object_01b.png,object_02a.png,,,,,,,,,,,,,,,,,,,,
1122.8000000002794,,rt_thecrossant_black1,884545,,,,,,,,black_plus_sign,,,49,,,,1,,,,,,1,,,,,,,,,,,,
null,,color_black1,884656,,,,,,,,black_plus_sign,,,null,,,,,,,,,,,,,,,,,,,,,,
null,,learn_phase(without_color)1,888160,,,,,,,,black_plus_sign,,,null,object_10b.png,object_13b.png,,,,,,,,,,,,,,,,,,,,
null,,black_cross(without_color)1,889016,,,,,,,,blue,,,null,object_10b.png,object_13b.png,,,,,,,,,,,,,,,,,,,,
null,,rt_plussign_withcolor1,889531,,,,,,,,blue,,,null,object_10b.png,object_13b.png,,,,,,,,,,,,,,,,,,,,
1163.3999999999069,,rt_thecrossant_black1,890685,,,,,,,,black_plus_sign,,,49,,,,1,,,,,,1,,,,,,,,,,,,
null,,color_black1,890801,,,,,,,,black_plus_sign,,,null,,,,,,,,,,,,,,,,,,,,,,
null,,learn_phase(without_color)1,894312,,,,,,,,black_plus_sign,,,null,object_13c.png,object_06a.png,,,,,,,,,,,,,,,,,,,,
null,,black_cross(without_color)1,894998,,,,,,,,blue,,,null,object_13c.png,object_06a.png,,,,,,,,,,,,,,,,,,,,
null,,rt_plussign_withcolor1,895514,,,,,,,,blue,,,null,object_13c.png,object_06a.png,,,,,,,,,,,,,,,,,,,,
1158.2999999998137,,rt_thecrossant_black1,896852,,,,,,,,black_plus_sign,,,49,,,,1,,,,,,1,,,,,,,,,,,,
null,,color_black1,896962,,,,,,,,black_plus_sign,,,null,,,,,,,,,,,,,,,,,,,,,,
null,,learn_phase(without_color)1,900478,,,,,,,,black_plus_sign,,,null,object_14b.png,object_11a.png,,,,,,,,,,,,,,,,,,,,
null,,black_cross(without_color)1,901452,,,,,,,,blue,,,null,object_14b.png,object_11a.png,,,,,,,,,,,,,,,,,,,,
null,,rt_plussign_withcolor1,901955,,,,,,,,blue,,,null,object_14b.png,object_11a.png,,,,,,,,,,,,,,,,,,,,
919.7999999998137,,rt_thecrossant_black1,902992,,,,,,,,black_plus_sign,,,49,,,,1,,,,,,1,,,,,,,,,,,,
null,,color_black1,903105,,,,,,,,black_plus_sign,,,null,,,,,,,,,,,,,,,,,,,,,,
null,,learn_phase(without_color)1,906611,,,,,,,,black_plus_sign,,,null,object_11b.png,object_08a.png,,,,,,,,,,,,,,,,,,,,
null,,black_cross(without_color)1,907669,,,,,,,,blue,,,null,object_11b.png,object_08a.png,,,,,,,,,,,,,,,,,,,,
null,,rt_plussign_withcolor1,908172,,,,,,,,blue,,,null,object_11b.png,object_08a.png,,,,,,,,,,,,,,,,,,,,
1276.3000000002794,,rt_thecrossant_black1,909130,,,,,,,,black_plus_sign,,,49,,,,1,,,,,,1,,,,,,,,,,,,
null,,color_black1,909243,,,,,,,,black_plus_sign,,,null,,,,,,,,,,,,,,,,,,,,,,
null,,thebreak,909351,,,,,,,,<p></p>,,,null,,,,,,,,,,,,,,,,,,,,,,
69127.70000000019,,intro_0,978480,,,,,,,,instruct,,,32,,,,,,,,,,,,,,,,,,,,,,
null,,directmemory_phase1,993490,,,,,,,,object_13b.png,,,null,,,,0,object_10b.png,object_10c.png,object_14a.png,object_10b.png,,0,0,,,,,,,,,,,
null,,warning_page,998501,,,,,,,,warning,,,null,,,,,,,,,,,,,,,,,,,,,,
3745,,directmemory_phase1,1002248,,,,,,,,object_12b.png,,,50,,,,1,object_05b.png,object_14b.png,object_08a.png,object_14b.png,,0.5,1,,,,,,,,,,,
4678.100000000093,,directmemory_phase1,1006930,,,,,,,,object_02a.png,,,50,,,,1,object_08c.png,object_06b.png,object_07b.png,object_06b.png,,0.6666666666666666,1,,,,,,,,,,,
5598.4000000003725,,directmemory_phase1,1012532,,,,,,,,object_11a.png,,,49,,,,1,object_14b.png,object_07a.png,object_03a.png,object_14b.png,,0.75,1,,,,,,,,,,,
3417.5,,directmemory_phase1,1015954,,,,,,,,object_15c.png,,,49,,,,1,object_10c.png,object_08c.png,object_05a.png,object_10c.png,,0.8,1,,,,,,,,,,,
6709.299999999814,,directmemory_phase1,1022667,,,,,,,,object_09c.png,,,49,,,,1,object_04c.png,object_10c.png,object_12b.png,object_04c.png,,0.8333333333333334,1,,,,,,,,,,,
2368,,directmemory_phase1,1025039,,,,,,,,object_02c.png,,,49,,,,1,object_05c.png,object_04b.png,object_09c.png,object_05c.png,,0.8571428571428571,1,,,,,,,,,,,
2545.5,,directmemory_phase1,1027588,,,,,,,,object_01a.png,,,50,,,,1,object_08a.png,object_07b.png,object_03a.png,object_07b.png,,0.875,1,,,,,,,,,,,
2586.6999999997206,,directmemory_phase1,1030179,,,,,,,,object_08a.png,,,50,,,,1,object_04b.png,object_12c.png,object_15b.png,object_12c.png,,0.8888888888888888,1,,,,,,,,,,,
5667.699999999721,,directmemory_phase1,1035850,,,,,,,,object_03b.png,,,49,,,,1,object_05c.png,object_04c.png,object_12c.png,object_05c.png,,0.9,1,,,,,,,,,,,
4689.399999999907,,directmemory_phase1,1040543,,,,,,,,object_11c.png,,,49,,,,1,object_10a.png,object_10c.png,object_08b.png,object_10a.png,,0.9090909090909091,1,,,,,,,,,,,
5870.299999999814,,directmemory_phase1,1046417,,,,,,,,object_05b.png,,,49,,,,1,object_01a.png,object_08c.png,object_14c.png,object_01a.png,,0.9166666666666666,1,,,,,,,,,,,
3352.399999999907,,directmemory_phase1,1049773,,,,,,,,object_02b.png,,,50,,,,1,object_05b.png,object_08c.png,object_10c.png,object_08c.png,,0.9230769230769231,1,,,,,,,,,,,
4180.700000000186,,directmemory_phase1,1053957,,,,,,,,object_01c.png,,,50,,,,1,object_08b.png,object_08c.png,object_14b.png,object_08c.png,,0.9285714285714286,1,,,,,,,,,,,
7135.600000000093,,directmemory_phase1,1061097,,,,,,,,object_01b.png,,,49,,,,0,object_12b.png,object_02a.png,object_05c.png,object_02a.png,,0.8666666666666667,0,,,,,,,,,,,
8071.5,,directmemory_phase1,1069172,,,,,,,,object_06a.png,,,51,,,,1,object_07b.png,object_08a.png,object_05a.png,object_05a.png,,0.875,1,,,,,,,,,,,
8083.399999999907,,directmemory_phase1,1077259,,,,,,,,object_07c.png,,,49,,,,1,object_03a.png,object_09a.png,object_14b.png,object_03a.png,,0.8823529411764706,1,,,,,,,,,,,
3981.6999999997206,,directmemory_phase1,1081245,,,,,,,,object_14a.png,,,50,,,,1,object_13c.png,object_07a.png,object_05c.png,object_07a.png,,0.8888888888888888,1,,,,,,,,,,,
6269.799999999814,,directmemory_phase1,1087518,,,,,,,,object_03c.png,,,51,,,,1,object_13a.png,object_02b.png,object_10a.png,object_10a.png,,0.8947368421052632,1,,,,,,,,,,,
7731.399999999907,,directmemory_phase1,1095253,,,,,,,,object_06c.png,,,49,,,,0,object_12a.png,object_07c.png,object_04c.png,object_07c.png,,0.85,0,,,,,,,,,,,
10474.19999999972,,directmemory_phase1,1105731,,,,,,,,object_09b.png,,,50,,,,0,object_05c.png,object_09c.png,object_13a.png,object_13a.png,,0.8095238095238095,0,,,,,,,,,,,
10022.299999999814,,directmemory_phase1,1115758,,,,,,,,object_12a.png,,,51,,,,0,object_04b.png,object_08c.png,object_01b.png,object_04b.png,,0.7727272727272727,0,,,,,,,,,,,
3038.399999999907,,directmemory_phase1,1118800,,,,,,,,object_14c.png,,,49,,,,1,object_10c.png,object_14b.png,object_12a.png,object_10c.png,,0.782608695652174,1,,,,,,,,,,,
3087.5,,directmemory_phase1,1121891,,,,,,,,object_15a.png,,,51,,,,1,object_07c.png,object_11a.png,object_10b.png,object_10b.png,,0.7916666666666666,1,,,,,,,,,,,
7611.100000000093,,directmemory_phase1,1129505,,,,,,,,object_11b.png,,,49,,,,0,object_14a.png,object_08a.png,object_05c.png,object_08a.png,,0.76,0,,,,,,,,,,,
2513.8000000002794,,directmemory_phase1,1132023,,,,,,,,object_07a.png,,,51,,,,1,object_11c.png,object_05c.png,object_15b.png,object_15b.png,,0.7692307692307693,1,,,,,,,,,,,
10513,,directmemory_phase1,1142540,,,,,,,,object_04b.png,,,49,,,,0,object_08c.png,object_08b.png,object_09a.png,object_08b.png,,0.7407407407407407,0,,,,,,,,,,,
3784.1999999997206,,directmemory_phase1,1146328,,,,,,,,object_13c.png,,,49,,,,0,object_02c.png,object_06a.png,object_10a.png,object_06a.png,,0.7142857142857143,0,,,,,,,,,,,
2577.600000000093,,directmemory_phase1,1148909,,,,,,,,object_09a.png,,,49,,,,1,object_13a.png,object_07c.png,object_03a.png,object_13a.png,,0.7241379310344828,1,,,,,,,,,,,
3253.7000000001863,,directmemory_phase1,1152166,,,,,,,,object_04c.png,,,50,,,,1,object_13a.png,object_04a.png,object_08b.png,object_04a.png,,0.7333333333333333,1,,,,,,,,,,,
null,,thebreak,1152272,,,,,,,,<p></p>,,,null,,,,,,,,,,,,,,,,,,,,,,
59214.5,,intro_0,1211488,,,,,,,,instruct,,,32,,,,,,,,,,,,,,,,,,,,,,
null,,learn_phase(without_color)2,1214995,,,,,,,,black_plus_sign,,,null,object_05c.png,object_03b.png,,,,,,,,,,,,,,,,,,,,
null,,black_cross(without_color)2,1215430,,,,,,,,green,,,null,object_05c.png,object_03b.png,,,,,,,,,,,,,,,,,,,,
null,,rt_plussign_withcolor2,1215932,,,,,,,,green,,,null,object_05c.png,object_03b.png,,,,,,,,,,,,,,,,,,,,
717.8000000002794,,rt_thecrossant_black2,1217512,,,,,,,,black_plus_sign,,,50,,,,1,,,,,,1,,,,,,,,,,,,
null,,color_black2,1217614,,,,,,,,black_plus_sign,,,null,,,,,,,,,,,,,,,,,,,,,,
null,,learn_phase(without_color)2,1221122,,,,,,,,black_plus_sign,,,null,object_10b.png,object_15a.png,,,,,,,,,,,,,,,,,,,,
null,,black_cross(without_color)2,1222108,,,,,,,,green,,,null,object_10b.png,object_15a.png,,,,,,,,,,,,,,,,,,,,
null,,rt_plussign_withcolor2,1222620,,,,,,,,green,,,null,object_10b.png,object_15a.png,,,,,,,,,,,,,,,,,,,,
615.2999999998137,,rt_thecrossant_black2,1223651,,,,,,,,black_plus_sign,,,50,,,,1,,,,,,1,,,,,,,,,,,,
null,,color_black2,1223761,,,,,,,,black_plus_sign,,,null,,,,,,,,,,,,,,,,,,,,,,
null,,learn_phase(without_color)2,1227271,,,,,,,,black_plus_sign,,,null,object_13a.png,object_09a.png,,,,,,,,,,,,,,,,,,,,
null,,black_cross(without_color)2,1228119,,,,,,,,green,,,null,object_13a.png,object_09a.png,,,,,,,,,,,,,,,,,,,,
null,,rt_plussign_withcolor2,1228621,,,,,,,,green,,,null,object_13a.png,object_09a.png,,,,,,,,,,,,,,,,,,,,
1412.7999999998137,,rt_thecrossant_black2,1229795,,,,,,,,black_plus_sign,,,50,,,,1,,,,,,1,,,,,,,,,,,,
null,,color_black2,1229906,,,,,,,,black_plus_sign,,,null,,,,,,,,,,,,,,,,,,,,,,
null,,learn_phase(without_color)2,1233420,,,,,,,,black_plus_sign,,,null,object_05b.png,object_01a.png,,,,,,,,,,,,,,,,,,,,
null,,black_cross(without_color)2,1234368,,,,,,,,blue,,,null,object_05b.png,object_01a.png,,,,,,,,,,,,,,,,,,,,
null,,rt_plussign_withcolor2,1234881,,,,,,,,blue,,,null,object_05b.png,object_01a.png,,,,,,,,,,,,,,,,,,,,
1073.7000000001863,,rt_thecrossant_black2,1235958,,,,,,,,black_plus_sign,,,49,,,,1,,,,,,1,,,,,,,,,,,,
null,,color_black2,1236067,,,,,,,,black_plus_sign,,,null,,,,,,,,,,,,,,,,,,,,,,
null,,learn_phase(without_color)2,1239580,,,,,,,,black_plus_sign,,,null,object_02a.png,object_06b.png,,,,,,,,,,,,,,,,,,,,
null,,black_cross(without_color)2,1240098,,,,,,,,green,,,null,object_02a.png,object_06b.png,,,,,,,,,,,,,,,,,,,,
null,,rt_plussign_withcolor2,1240611,,,,,,,,green,,,null,object_02a.png,object_06b.png,,,,,,,,,,,,,,,,,,,,
1830.7000000001863,,rt_thecrossant_black2,1242109,,,,,,,,black_plus_sign,,,50,,,,1,,,,,,1,,,,,,,,,,,,
null,,color_black2,1242228,,,,,,,,black_plus_sign,,,null,,,,,,,,,,,,,,,,,,,,,,
null,,learn_phase(without_color)2,1245737,,,,,,,,black_plus_sign,,,null,object_04a.png,object_04c.png,,,,,,,,,,,,,,,,,,,,
null,,black_cross(without_color)2,1246630,,,,,,,,blue,,,null,object_04a.png,object_04c.png,,,,,,,,,,,,,,,,,,,,
null,,rt_plussign_withcolor2,1247141,,,,,,,,blue,,,null,object_04a.png,object_04c.png,,,,,,,,,,,,,,,,,,,,
896.7999999998137,,rt_thecrossant_black2,1248262,,,,,,,,black_plus_sign,,,49,,,,1,,,,,,1,,,,,,,,,,,,
null,,color_black2,1248381,,,,,,,,black_plus_sign,,,null,,,,,,,,,,,,,,,,,,,,,,
null,,learn_phase(without_color)2,1251892,,,,,,,,black_plus_sign,,,null,object_05a.png,object_06a.png,,,,,,,,,,,,,,,,,,,,
null,,black_cross(without_color)2,1252493,,,,,,,,blue,,,null,object_05a.png,object_06a.png,,,,,,,,,,,,,,,,,,,,
null,,rt_plussign_withcolor2,1253001,,,,,,,,blue,,,null,object_05a.png,object_06a.png,,,,,,,,,,,,,,,,,,,,
1162.1000000000931,,rt_thecrossant_black2,1254424,,,,,,,,black_plus_sign,,,49,,,,1,,,,,,1,,,,,,,,,,,,
null,,color_black2,1254535,,,,,,,,black_plus_sign,,,null,,,,,,,,,,,,,,,,,,,,,,
null,,learn_phase(without_color)2,1258040,,,,,,,,black_plus_sign,,,null,object_04b.png,object_12a.png,,,,,,,,,,,,,,,,,,,,
null,,black_cross(without_color)2,1258591,,,,,,,,green,,,null,object_04b.png,object_12a.png,,,,,,,,,,,,,,,,,,,,
null,,rt_plussign_withcolor2,1259108,,,,,,,,green,,,null,object_04b.png,object_12a.png,,,,,,,,,,,,,,,,,,,,
689.3999999999069,,rt_thecrossant_black2,1260586,,,,,,,,black_plus_sign,,,50,,,,1,,,,,,1,,,,,,,,,,,,
null,,color_black2,1260697,,,,,,,,black_plus_sign,,,null,,,,,,,,,,,,,,,,,,,,,,
null,,learn_phase(without_color)2,1264206,,,,,,,,black_plus_sign,,,null,object_07a.png,object_15b.png,,,,,,,,,,,,,,,,,,,,
null,,black_cross(without_color)2,1265117,,,,,,,,green,,,null,object_07a.png,object_15b.png,,,,,,,,,,,,,,,,,,,,
null,,rt_plussign_withcolor2,1265632,,,,,,,,green,,,null,object_07a.png,object_15b.png,,,,,,,,,,,,,,,,,,,,
992.2000000001863,,rt_thecrossant_black2,1266742,,,,,,,,black_plus_sign,,,50,,,,1,,,,,,1,,,,,,,,,,,,
null,,color_black2,1266852,,,,,,,,black_plus_sign,,,null,,,,,,,,,,,,,,,,,,,,,,
null,,learn_phase(without_color)2,1270359,,,,,,,,black_plus_sign,,,null,object_15c.png,object_10c.png,,,,,,,,,,,,,,,,,,,,
null,,black_cross(without_color)2,1271364,,,,,,,,blue,,,null,object_15c.png,object_10c.png,,,,,,,,,,,,,,,,,,,,
null,,rt_plussign_withcolor2,1271869,,,,,,,,blue,,,null,object_15c.png,object_10c.png,,,,,,,,,,,,,,,,,,,,
1183.1000000000931,,rt_thecrossant_black2,1272896,,,,,,,,black_plus_sign,,,49,,,,1,,,,,,1,,,,,,,,,,,,
null,,color_black2,1273007,,,,,,,,black_plus_sign,,,null,,,,,,,,,,,,,,,,,,,,,,
null,,learn_phase(without_color)2,1276524,,,,,,,,black_plus_sign,,,null,object_08b.png,object_04b.png,,,,,,,,,,,,,,,,,,,,
null,,black_cross(without_color)2,1277079,,,,,,,,blue,,,null,object_08b.png,object_04b.png,,,,,,,,,,,,,,,,,,,,
null,,rt_plussign_withcolor2,1277595,,,,,,,,blue,,,null,object_08b.png,object_04b.png,,,,,,,,,,,,,,,,,,,,
1431.6000000000931,,rt_thecrossant_black2,1279054,,,,,,,,black_plus_sign,,,49,,,,1,,,,,,1,,,,,,,,,,,,
null,,color_black2,1279172,,,,,,,,black_plus_sign,,,null,,,,,,,,,,,,,,,,,,,,,,
null,,learn_phase(without_color)2,1282679,,,,,,,,black_plus_sign,,,null,object_13b.png,object_10b.png,,,,,,,,,,,,,,,,,,,,
null,,black_cross(without_color)2,1283629,,,,,,,,green,,,null,object_13b.png,object_10b.png,,,,,,,,,,,,,,,,,,,,
null,,rt_plussign_withcolor2,1284135,,,,,,,,green,,,null,object_13b.png,object_10b.png,,,,,,,,,,,,,,,,,,,,
1111.2000000001863,,rt_thecrossant_black2,1285205,,,,,,,,black_plus_sign,,,50,,,,1,,,,,,1,,,,,,,,,,,,
null,,color_black2,1285316,,,,,,,,black_plus_sign,,,null,,,,,,,,,,,,,,,,,,,,,,
null,,learn_phase(without_color)2,1288825,,,,,,,,black_plus_sign,,,null,object_01b.png,object_02a.png,,,,,,,,,,,,,,,,,,,,
null,,black_cross(without_color)2,1289402,,,,,,,,green,,,null,object_01b.png,object_02a.png,,,,,,,,,,,,,,,,,,,,
null,,rt_plussign_withcolor2,1289908,,,,,,,,green,,,null,object_01b.png,object_02a.png,,,,,,,,,,,,,,,,,,,,
1597.3999999999069,,rt_thecrossant_black2,1291357,,,,,,,,black_plus_sign,,,50,,,,1,,,,,,1,,,,,,,,,,,,
null,,color_black2,1291468,,,,,,,,black_plus_sign,,,null,,,,,,,,,,,,,,,,,,,,,,
null,,learn_phase(without_color)2,1294972,,,,,,,,black_plus_sign,,,null,object_11a.png,object_14b.png,,,,,,,,,,,,,,,,,,,,
null,,black_cross(without_color)2,1295441,,,,,,,,green,,,null,object_11a.png,object_14b.png,,,,,,,,,,,,,,,,,,,,
null,,rt_plussign_withcolor2,1295944,,,,,,,,green,,,null,object_11a.png,object_14b.png,,,,,,,,,,,,,,,,,,,,
997.2000000001863,,rt_thecrossant_black2,1297491,,,,,,,,black_plus_sign,,,50,,,,1,,,,,,1,,,,,,,,,,,,
null,,color_black2,1297601,,,,,,,,black_plus_sign,,,null,,,,,,,,,,,,,,,,,,,,,,
null,,learn_phase(without_color)2,1301107,,,,,,,,black_plus_sign,,,null,object_08c.png,object_01c.png,,,,,,,,,,,,,,,,,,,,
null,,black_cross(without_color)2,1302155,,,,,,,,green,,,null,object_08c.png,object_01c.png,,,,,,,,,,,,,,,,,,,,
null,,rt_plussign_withcolor2,1302671,,,,,,,,green,,,null,object_08c.png,object_01c.png,,,,,,,,,,,,,,,,,,,,
888.8999999999069,,rt_thecrossant_black2,1303637,,,,,,,,black_plus_sign,,,50,,,,1,,,,,,1,,,,,,,,,,,,
null,,color_black2,1303748,,,,,,,,black_plus_sign,,,null,,,,,,,,,,,,,,,,,,,,,,
null,,learn_phase(without_color)2,1307253,,,,,,,,black_plus_sign,,,null,object_12c.png,object_08a.png,,,,,,,,,,,,,,,,,,,,
null,,black_cross(without_color)2,1308285,,,,,,,,blue,,,null,object_12c.png,object_08a.png,,,,,,,,,,,,,,,,,,,,
null,,rt_plussign_withcolor2,1308791,,,,,,,,blue,,,null,object_12c.png,object_08a.png,,,,,,,,,,,,,,,,,,,,
1470.2000000001863,,rt_thecrossant_black2,1309781,,,,,,,,black_plus_sign,,,49,,,,1,,,,,,1,,,,,,,,,,,,
null,,color_black2,1309891,,,,,,,,black_plus_sign,,,null,,,,,,,,,,,,,,,,,,,,,,
null,,learn_phase(without_color)2,1313395,,,,,,,,black_plus_sign,,,null,object_09c.png,object_04c.png,,,,,,,,,,,,,,,,,,,,
null,,black_cross(without_color)2,1313966,,,,,,,,blue,,,null,object_09c.png,object_04c.png,,,,,,,,,,,,,,,,,,,,
null,,rt_plussign_withcolor2,1314476,,,,,,,,blue,,,null,object_09c.png,object_04c.png,,,,,,,,,,,,,,,,,,,,
1638.5,,rt_thecrossant_black2,1315915,,,,,,,,black_plus_sign,,,49,,,,1,,,,,,1,,,,,,,,,,,,
null,,color_black2,1316025,,,,,,,,black_plus_sign,,,null,,,,,,,,,,,,,,,,,,,,,,
null,,learn_phase(without_color)2,1319531,,,,,,,,black_plus_sign,,,null,object_14b.png,object_12b.png,,,,,,,,,,,,,,,,,,,,
null,,black_cross(without_color)2,1320042,,,,,,,,green,,,null,object_14b.png,object_12b.png,,,,,,,,,,,,,,,,,,,,
null,,rt_plussign_withcolor2,1320552,,,,,,,,green,,,null,object_14b.png,object_12b.png,,,,,,,,,,,,,,,,,,,,
915.7000000001863,,rt_thecrossant_black2,1322064,,,,,,,,black_plus_sign,,,50,,,,1,,,,,,1,,,,,,,,,,,,
null,,color_black2,1322174,,,,,,,,black_plus_sign,,,null,,,,,,,,,,,,,,,,,,,,,,
null,,learn_phase(without_color)2,1325689,,,,,,,,black_plus_sign,,,null,object_13c.png,object_06a.png,,,,,,,,,,,,,,,,,,,,
null,,black_cross(without_color)2,1326432,,,,,,,,green,,,null,object_13c.png,object_06a.png,,,,,,,,,,,,,,,,,,,,
null,,rt_plussign_withcolor2,1326942,,,,,,,,green,,,null,object_13c.png,object_06a.png,,,,,,,,,,,,,,,,,,,,
1705.3999999999069,,rt_thecrossant_black2,1328213,,,,,,,,black_plus_sign,,,50,,,,1,,,,,,1,,,,,,,,,,,,
null,,color_black2,1328315,,,,,,,,black_plus_sign,,,null,,,,,,,,,,,,,,,,,,,,,,
null,,learn_phase(without_color)2,1331822,,,,,,,,black_plus_sign,,,null,object_11b.png,object_08a.png,,,,,,,,,,,,,,,,,,,,
null,,black_cross(without_color)2,1332475,,,,,,,,green,,,null,object_11b.png,object_08a.png,,,,,,,,,,,,,,,,,,,,
null,,rt_plussign_withcolor2,1332981,,,,,,,,green,,,null,object_11b.png,object_08a.png,,,,,,,,,,,,,,,,,,,,
1005.8999999999069,,rt_thecrossant_black2,1334341,,,,,,,,black_plus_sign,,,50,,,,1,,,,,,1,,,,,,,,,,,,
null,,color_black2,1334452,,,,,,,,black_plus_sign,,,null,,,,,,,,,,,,,,,,,,,,,,
null,,learn_phase(without_color)2,1337956,,,,,,,,black_plus_sign,,,null,object_14a.png,object_07a.png,,,,,,,,,,,,,,,,,,,,
null,,black_cross(without_color)2,1338520,,,,,,,,green,,,null,object_14a.png,object_07a.png,,,,,,,,,,,,,,,,,,,,
null,,rt_plussign_withcolor2,1339022,,,,,,,,green,,,null,object_14a.png,object_07a.png,,,,,,,,,,,,,,,,,,,,
885.2999999998137,,rt_thecrossant_black2,1340468,,,,,,,,black_plus_sign,,,50,,,,1,,,,,,1,,,,,,,,,,,,
null,,color_black2,1340581,,,,,,,,black_plus_sign,,,null,,,,,,,,,,,,,,,,,,,,,,
null,,learn_phase(without_color)2,1344096,,,,,,,,black_plus_sign,,,null,object_09b.png,object_13a.png,,,,,,,,,,,,,,,,,,,,
null,,black_cross(without_color)2,1345081,,,,,,,,blue,,,null,object_09b.png,object_13a.png,,,,,,,,,,,,,,,,,,,,
null,,rt_plussign_withcolor2,1345592,,,,,,,,blue,,,null,object_09b.png,object_13a.png,,,,,,,,,,,,,,,,,,,,
733.2000000001863,,rt_thecrossant_black2,1346636,,,,,,,,black_plus_sign,,,49,,,,1,,,,,,1,,,,,,,,,,,,
null,,color_black2,1346742,,,,,,,,black_plus_sign,,,null,,,,,,,,,,,,,,,,,,,,,,
null,,learn_phase(without_color)2,1350255,,,,,,,,black_plus_sign,,,null,object_02c.png,object_05c.png,,,,,,,,,,,,,,,,,,,,
null,,black_cross(without_color)2,1350936,,,,,,,,blue,,,null,object_02c.png,object_05c.png,,,,,,,,,,,,,,,,,,,,
null,,rt_plussign_withcolor2,1351444,,,,,,,,blue,,,null,object_02c.png,object_05c.png,,,,,,,,,,,,,,,,,,,,
1342.8000000002794,,rt_thecrossant_black2,1352784,,,,,,,,black_plus_sign,,,49,,,,1,,,,,,1,,,,,,,,,,,,
null,,color_black2,1352897,,,,,,,,black_plus_sign,,,null,,,,,,,,,,,,,,,,,,,,,,
null,,learn_phase(without_color)2,1356401,,,,,,,,black_plus_sign,,,null,object_10a.png,object_03c.png,,,,,,,,,,,,,,,,,,,,
null,,black_cross(without_color)2,1357269,,,,,,,,green,,,null,object_10a.png,object_03c.png,,,,,,,,,,,,,,,,,,,,
null,,rt_plussign_withcolor2,1357782,,,,,,,,green,,,null,object_10a.png,object_03c.png,,,,,,,,,,,,,,,,,,,,
1031.1999999997206,,rt_thecrossant_black2,1358929,,,,,,,,black_plus_sign,,,50,,,,1,,,,,,1,,,,,,,,,,,,
null,,color_black2,1359041,,,,,,,,black_plus_sign,,,null,,,,,,,,,,,,,,,,,,,,,,
null,,learn_phase(without_color)2,1362552,,,,,,,,black_plus_sign,,,null,object_03a.png,object_07c.png,,,,,,,,,,,,,,,,,,,,
null,,black_cross(without_color)2,1363388,,,,,,,,blue,,,null,object_03a.png,object_07c.png,,,,,,,,,,,,,,,,,,,,
null,,rt_plussign_withcolor2,1363893,,,,,,,,blue,,,null,object_03a.png,object_07c.png,,,,,,,,,,,,,,,,,,,,
1066.7000000001863,,rt_thecrossant_black2,1365073,,,,,,,,black_plus_sign,,,49,,,,1,,,,,,1,,,,,,,,,,,,
null,,color_black2,1365184,,,,,,,,black_plus_sign,,,null,,,,,,,,,,,,,,,,,,,,,,
null,,learn_phase(without_color)2,1368698,,,,,,,,black_plus_sign,,,null,object_10c.png,object_14c.png,,,,,,,,,,,,,,,,,,,,
null,,black_cross(without_color)2,1369749,,,,,,,,green,,,null,object_10c.png,object_14c.png,,,,,,,,,,,,,,,,,,,,
null,,rt_plussign_withcolor2,1370261,,,,,,,,green,,,null,object_10c.png,object_14c.png,,,,,,,,,,,,,,,,,,,,
1266.1999999997206,,rt_thecrossant_black2,1371238,,,,,,,,black_plus_sign,,,50,,,,1,,,,,,1,,,,,,,,,,,,
null,,color_black2,1371348,,,,,,,,black_plus_sign,,,null,,,,,,,,,,,,,,,,,,,,,,
null,,learn_phase(without_color)2,1374852,,,,,,,,black_plus_sign,,,null,object_07b.png,object_01a.png,,,,,,,,,,,,,,,,,,,,
null,,black_cross(without_color)2,1375485,,,,,,,,blue,,,null,object_07b.png,object_01a.png,,,,,,,,,,,,,,,,,,,,
null,,rt_plussign_withcolor2,1376002,,,,,,,,blue,,,null,object_07b.png,object_01a.png,,,,,,,,,,,,,,,,,,,,
1143.5,,rt_thecrossant_black2,1377392,,,,,,,,black_plus_sign,,,49,,,,1,,,,,,1,,,,,,,,,,,,
null,,color_black2,1377503,,,,,,,,black_plus_sign,,,null,,,,,,,,,,,,,,,,,,,,,,
null,,learn_phase(without_color)2,1381015,,,,,,,,black_plus_sign,,,null,object_07c.png,object_06c.png,,,,,,,,,,,,,,,,,,,,
null,,black_cross(without_color)2,1381591,,,,,,,,green,,,null,object_07c.png,object_06c.png,,,,,,,,,,,,,,,,,,,,
null,,rt_plussign_withcolor2,1382108,,,,,,,,green,,,null,object_07c.png,object_06c.png,,,,,,,,,,,,,,,,,,,,
818.2000000001863,,rt_thecrossant_black2,1383547,,,,,,,,black_plus_sign,,,50,,,,1,,,,,,1,,,,,,,,,,,,
null,,color_black2,1383651,,,,,,,,black_plus_sign,,,null,,,,,,,,,,,,,,,,,,,,,,
null,,learn_phase(without_color)2,1387162,,,,,,,,black_plus_sign,,,null,object_02b.png,object_08c.png,,,,,,,,,,,,,,,,,,,,
null,,black_cross(without_color)2,1388057,,,,,,,,blue,,,null,object_02b.png,object_08c.png,,,,,,,,,,,,,,,,,,,,
null,,rt_plussign_withcolor2,1388560,,,,,,,,blue,,,null,object_02b.png,object_08c.png,,,,,,,,,,,,,,,,,,,,
1059.8999999999069,,rt_thecrossant_black2,1389685,,,,,,,,black_plus_sign,,,49,,,,1,,,,,,1,,,,,,,,,,,,
null,,color_black2,1389801,,,,,,,,black_plus_sign,,,null,,,,,,,,,,,,,,,,,,,,,,
null,,learn_phase(without_color)2,1393313,,,,,,,,black_plus_sign,,,null,object_11c.png,object_10a.png,,,,,,,,,,,,,,,,,,,,
null,,black_cross(without_color)2,1393916,,,,,,,,blue,,,null,object_11c.png,object_10a.png,,,,,,,,,,,,,,,,,,,,
null,,rt_plussign_withcolor2,1394425,,,,,,,,blue,,,null,object_11c.png,object_10a.png,,,,,,,,,,,,,,,,,,,,
1090.3000000002794,,rt_thecrossant_black2,1395831,,,,,,,,black_plus_sign,,,49,,,,1,,,,,,1,,,,,,,,,,,,
null,,color_black2,1395942,,,,,,,,black_plus_sign,,,null,,,,,,,,,,,,,,,,,,,,,,
null,,thebreak,1396052,,,,,,,,<p></p>,,,null,,,,,,,,,,,,,,,,,,,,,,
35970.30000000028,,intro_0,1432025,,,,,,,,instruct,,,32,,,,,,,,,,,,,,,,,,,,,,
7451.5,,directmemory_phase2,1439479,,,,,,,,object_05c.png,,,51,,,,0,object_03b.png,object_12c.png,object_13a.png,object_03b.png,,0.7096774193548387,0,,,,,,,,,,,
3071.100000000093,,directmemory_phase2,1442554,,,,,,,,object_14a.png,,,51,,,,1,object_07c.png,object_14c.png,object_07a.png,object_07a.png,,0.71875,1,,,,,,,,,,,
3449.2999999998137,,directmemory_phase2,1446007,,,,,,,,object_05a.png,,,49,,,,1,object_06a.png,object_04b.png,object_06b.png,object_06a.png,,0.7272727272727273,1,,,,,,,,,,,
2790.2000000001863,,directmemory_phase2,1448801,,,,,,,,object_04c.png,,,49,,,,1,object_04a.png,object_11c.png,object_04b.png,object_04a.png,,0.7352941176470589,1,,,,,,,,,,,
4031.5,,directmemory_phase2,1452837,,,,,,,,object_03c.png,,,50,,,,1,object_02c.png,object_10a.png,object_01a.png,object_10a.png,,0.7428571428571429,1,,,,,,,,,,,
8383.100000000093,,directmemory_phase2,1461224,,,,,,,,object_15b.png,,,50,,,,1,object_07b.png,object_07a.png,object_10c.png,object_07a.png,,0.75,1,,,,,,,,,,,
5344.300000000279,,directmemory_phase2,1466573,,,,,,,,object_09b.png,,,49,,,,1,object_13a.png,object_10c.png,object_14a.png,object_13a.png,,0.7567567567567568,1,,,,,,,,,,,
12351.700000000186,,directmemory_phase2,1478929,,,,,,,,object_04b.png,,,49,,,,0,object_06b.png,object_10c.png,object_08b.png,object_08b.png,,0.7368421052631579,0,,,,,,,,,,,
4473.600000000093,,directmemory_phase2,1483407,,,,,,,,object_12b.png,,,50,,,,1,object_02c.png,object_14b.png,object_08c.png,object_14b.png,,0.7435897435897436,1,,,,,,,,,,,
6499.200000000186,,directmemory_phase2,1489910,,,,,,,,object_13b.png,,,49,,,,1,object_10b.png,object_10a.png,object_11b.png,object_10b.png,,0.75,1,,,,,,,,,,,
10784.900000000373,,directmemory_phase2,1500700,,,,,,,,object_14c.png,,,49,,,,0,object_02c.png,object_10c.png,object_10a.png,object_10c.png,,0.7317073170731707,0,,,,,,,,,,,
3309.1999999997206,,directmemory_phase2,1504013,,,,,,,,object_12a.png,,,49,,,,1,object_04b.png,object_13a.png,object_14c.png,object_04b.png,,0.7380952380952381,1,,,,,,,,,,,
8803.900000000373,,directmemory_phase2,1512821,,,,,,,,object_01a.png,,,51,,,,1,object_11a.png,object_06a.png,object_07b.png,object_07b.png,,0.7441860465116279,1,,,,,,,,,,,
4664.600000000093,,directmemory_phase2,1517489,,,,,,,,object_09c.png,,,51,,,,1,object_13a.png,object_11b.png,object_04c.png,object_04c.png,,0.75,1,,,,,,,,,,,
9737,,directmemory_phase2,1527230,,,,,,,,object_05b.png,,,51,,,,1,object_07c.png,object_01b.png,object_01a.png,object_01a.png,,0.7555555555555555,1,,,,,,,,,,,
4405.5,,directmemory_phase2,1531640,,,,,,,,object_01c.png,,,51,,,,1,object_10c.png,object_09a.png,object_08c.png,object_08c.png,,0.7608695652173914,1,,,,,,,,,,,
2888.899999999907,,directmemory_phase2,1534533,,,,,,,,object_06b.png,,,49,,,,1,object_02a.png,object_04b.png,object_04a.png,object_02a.png,,0.7659574468085106,1,,,,,,,,,,,
10904,,directmemory_phase2,1545440,,,,,,,,object_02c.png,,,49,,,,1,object_05c.png,object_08c.png,object_06c.png,object_05c.png,,0.7708333333333334,1,,,,,,,,,,,
7493.5999999996275,,directmemory_phase2,1552939,,,,,,,,object_13a.png,,,49,,,,1,object_09a.png,object_01c.png,object_10a.png,object_09a.png,,0.7755102040816326,1,,,,,,,,,,,
3680.399999999907,,directmemory_phase2,1556623,,,,,,,,object_11c.png,,,49,,,,1,object_10a.png,object_02a.png,object_01c.png,object_10a.png,,0.78,1,,,,,,,,,,,
5374.100000000093,,directmemory_phase2,1562001,,,,,,,,object_15a.png,,,51,,,,1,object_10a.png,object_15b.png,object_10b.png,object_10b.png,,0.7843137254901961,1,,,,,,,,,,,
10370.399999999907,,directmemory_phase2,1572376,,,,,,,,object_06c.png,,,50,,,,1,object_09b.png,object_07c.png,object_13a.png,object_07c.png,,0.7884615384615384,1,,,,,,,,,,,
3599.8000000002794,,directmemory_phase2,1575980,,,,,,,,object_11b.png,,,51,,,,1,object_07c.png,object_12b.png,object_08a.png,object_08a.png,,0.7924528301886793,1,,,,,,,,,,,
4336.200000000186,,directmemory_phase2,1580321,,,,,,,,object_01b.png,,,51,,,,1,object_13a.png,object_12b.png,object_02a.png,object_02a.png,,0.7962962962962963,1,,,,,,,,,,,
3946.6999999997206,,directmemory_phase2,1584271,,,,,,,,object_02b.png,,,49,,,,1,object_08c.png,object_06a.png,object_09c.png,object_08c.png,,0.8,1,,,,,,,,,,,
7752.5,,directmemory_phase2,1592028,,,,,,,,object_12c.png,,,49,,,,1,object_08a.png,object_07a.png,object_03a.png,object_08a.png,,0.8035714285714286,1,,,,,,,,,,,
7908.5,,directmemory_phase2,1599941,,,,,,,,object_13c.png,,,49,,,,1,object_06a.png,object_07a.png,object_14c.png,object_06a.png,,0.8070175438596491,1,,,,,,,,,,,
3408.6999999997206,,directmemory_phase2,1603353,,,,,,,,object_15c.png,,,50,,,,1,object_12c.png,object_10c.png,object_04b.png,object_10c.png,,0.8103448275862069,1,,,,,,,,,,,
2658.2000000001863,,directmemory_phase2,1606016,,,,,,,,object_03a.png,,,49,,,,1,object_07c.png,object_06a.png,object_09a.png,object_07c.png,,0.8135593220338984,1,,,,,,,,,,,
4164.899999999907,,directmemory_phase2,1610184,,,,,,,,object_14b.png,,,50,,,,1,object_05c.png,object_11a.png,object_15c.png,object_11a.png,,0.8166666666666667,1,,,,,,,,,,,
null,,thebreak,1610295,,,,,,,,<p></p>,,,null,,,,,,,,,,,,,,,,,,,,,,
38838.10000000009,,intro_0,1649135,,,,,,,,instruct,,,32,,,,,,,,,,,,,,,,,,,,,,
null,,learn_phase(without_color)3,1652640,,,,,,,,black_plus_sign,,,null,object_04b.png,object_12a.png,,,,,,,,,,,,,,,,,,,,
null,,black_cross(without_color)3,1653740,,,,,,,,green,,,null,object_04b.png,object_12a.png,,,,,,,,,,,,,,,,,,,,
null,,rt_plussign_withcolor3,1654250,,,,,,,,green,,,null,object_04b.png,object_12a.png,,,,,,,,,,,,,,,,,,,,
1411.3999999999069,,rt_thecrossant_black3,1655172,,,,,,,,black_plus_sign,,,50,,,,1,,,,,,1,,,,,,,,,,,,
null,,color_black3,1655283,,,,,,,,black_plus_sign,,,null,,,,,,,,,,,,,,,,,,,,,,
null,,learn_phase(without_color)3,1658794,,,,,,,,black_plus_sign,,,null,object_10a.png,object_11c.png,,,,,,,,,,,,,,,,,,,,
null,,black_cross(without_color)3,1659620,,,,,,,,green,,,null,object_10a.png,object_11c.png,,,,,,,,,,,,,,,,,,,,
null,,rt_plussign_withcolor3,1660123,,,,,,,,green,,,null,object_10a.png,object_11c.png,,,,,,,,,,,,,,,,,,,,
1405.7999999998137,,rt_thecrossant_black3,1661314,,,,,,,,black_plus_sign,,,50,,,,1,,,,,,1,,,,,,,,,,,,
null,,color_black3,1661426,,,,,,,,black_plus_sign,,,null,,,,,,,,,,,,,,,,,,,,,,
null,,learn_phase(without_color)3,1664946,,,,,,,,black_plus_sign,,,null,object_14b.png,object_12b.png,,,,,,,,,,,,,,,,,,,,
null,,black_cross(without_color)3,1665552,,,,,,,,blue,,,null,object_14b.png,object_12b.png,,,,,,,,,,,,,,,,,,,,
null,,rt_plussign_withcolor3,1666062,,,,,,,,blue,,,null,object_14b.png,object_12b.png,,,,,,,,,,,,,,,,,,,,
1632.2999999998137,,rt_thecrossant_black3,1667475,,,,,,,,black_plus_sign,,,49,,,,1,,,,,,1,,,,,,,,,,,,
null,,color_black3,1667591,,,,,,,,black_plus_sign,,,null,,,,,,,,,,,,,,,,,,,,,,
null,,learn_phase(without_color)3,1671105,,,,,,,,black_plus_sign,,,null,object_15b.png,object_07a.png,,,,,,,,,,,,,,,,,,,,
null,,black_cross(without_color)3,1671926,,,,,,,,blue,,,null,object_15b.png,object_07a.png,,,,,,,,,,,,,,,,,,,,
null,,rt_plussign_withcolor3,1672437,,,,,,,,blue,,,null,object_15b.png,object_07a.png,,,,,,,,,,,,,,,,,,,,
839.7999999998137,,rt_thecrossant_black3,1673641,,,,,,,,black_plus_sign,,,49,,,,1,,,,,,1,,,,,,,,,,,,
null,,color_black3,1673745,,,,,,,,black_plus_sign,,,null,,,,,,,,,,,,,,,,,,,,,,
null,,learn_phase(without_color)3,1677251,,,,,,,,black_plus_sign,,,null,object_06a.png,object_13c.png,,,,,,,,,,,,,,,,,,,,
null,,black_cross(without_color)3,1678122,,,,,,,,green,,,null,object_06a.png,object_13c.png,,,,,,,,,,,,,,,,,,,,
null,,rt_plussign_withcolor3,1678641,,,,,,,,green,,,null,object_06a.png,object_13c.png,,,,,,,,,,,,,,,,,,,,
1294.5999999996275,,rt_thecrossant_black3,1679788,,,,,,,,black_plus_sign,,,50,,,,1,,,,,,1,,,,,,,,,,,,
null,,color_black3,1679899,,,,,,,,black_plus_sign,,,null,,,,,,,,,,,,,,,,,,,,,,
null,,learn_phase(without_color)3,1683410,,,,,,,,black_plus_sign,,,null,object_06b.png,object_02a.png,,,,,,,,,,,,,,,,,,,,
null,,black_cross(without_color)3,1684066,,,,,,,,blue,,,null,object_06b.png,object_02a.png,,,,,,,,,,,,,,,,,,,,
null,,rt_plussign_withcolor3,1684570,,,,,,,,blue,,,null,object_06b.png,object_02a.png,,,,,,,,,,,,,,,,,,,,
1053.1000000000931,,rt_thecrossant_black3,1685932,,,,,,,,black_plus_sign,,,49,,,,1,,,,,,1,,,,,,,,,,,,
null,,color_black3,1686036,,,,,,,,black_plus_sign,,,null,,,,,,,,,,,,,,,,,,,,,,
null,,learn_phase(without_color)3,1689546,,,,,,,,black_plus_sign,,,null,object_01a.png,object_07b.png,,,,,,,,,,,,,,,,,,,,
null,,black_cross(without_color)3,1690507,,,,,,,,green,,,null,object_01a.png,object_07b.png,,,,,,,,,,,,,,,,,,,,
510,,rt_plussign_withcolor3,1691020,,,,,,,,green,,,50,object_01a.png,object_07b.png,,,,,,,,,,,,,,,,,,,,
null,,rt_thecrossant_black3,1692076,,,,,,,,black_plus_sign,,,null,,,,1,,,,,,1,,,,,,,,,,,,
null,,color_black3,1692181,,,,,,,,black_plus_sign,,,null,,,,,,,,,,,,,,,,,,,,,,
null,,learn_phase(without_color)3,1695687,,,,,,,,black_plus_sign,,,null,object_05a.png,object_06a.png,,,,,,,,,,,,,,,,,,,,
null,,black_cross(without_color)3,1696667,,,,,,,,blue,,,null,object_05a.png,object_06a.png,,,,,,,,,,,,,,,,,,,,
null,,rt_plussign_withcolor3,1697170,,,,,,,,blue,,,null,object_05a.png,object_06a.png,,,,,,,,,,,,,,,,,,,,
1209.5,,rt_thecrossant_black3,1698208,,,,,,,,black_plus_sign,,,49,,,,1,,,,,,1,,,,,,,,,,,,
null,,color_black3,1698313,,,,,,,,black_plus_sign,,,null,,,,,,,,,,,,,,,,,,,,,,
null,,learn_phase(without_color)3,1701826,,,,,,,,black_plus_sign,,,null,object_02c.png,object_05c.png,,,,,,,,,,,,,,,,,,,,
null,,black_cross(without_color)3,1702428,,,,,,,,blue,,,null,object_02c.png,object_05c.png,,,,,,,,,,,,,,,,,,,,
null,,rt_plussign_withcolor3,1702942,,,,,,,,blue,,,null,object_02c.png,object_05c.png,,,,,,,,,,,,,,,,,,,,
1245.8999999999069,,rt_thecrossant_black3,1704364,,,,,,,,black_plus_sign,,,49,,,,1,,,,,,1,,,,,,,,,,,,
null,,color_black3,1704469,,,,,,,,black_plus_sign,,,null,,,,,,,,,,,,,,,,,,,,,,
null,,learn_phase(without_color)3,1707979,,,,,,,,black_plus_sign,,,null,object_08c.png,object_01c.png,,,,,,,,,,,,,,,,,,,,
null,,black_cross(without_color)3,1708879,,,,,,,,green,,,null,object_08c.png,object_01c.png,,,,,,,,,,,,,,,,,,,,
null,,rt_plussign_withcolor3,1709387,,,,,,,,green,,,null,object_08c.png,object_01c.png,,,,,,,,,,,,,,,,,,,,
849.4000000003725,,rt_thecrossant_black3,1710507,,,,,,,,black_plus_sign,,,50,,,,1,,,,,,1,,,,,,,,,,,,
null,,color_black3,1710618,,,,,,,,black_plus_sign,,,null,,,,,,,,,,,,,,,,,,,,,,
null,,learn_phase(without_color)3,1714127,,,,,,,,black_plus_sign,,,null,object_07c.png,object_03a.png,,,,,,,,,,,,,,,,,,,,
null,,black_cross(without_color)3,1714611,,,,,,,,green,,,null,object_07c.png,object_03a.png,,,,,,,,,,,,,,,,,,,,
null,,rt_plussign_withcolor3,1715118,,,,,,,,green,,,null,object_07c.png,object_03a.png,,,,,,,,,,,,,,,,,,,,
1221.4000000003725,,rt_thecrossant_black3,1716657,,,,,,,,black_plus_sign,,,50,,,,1,,,,,,1,,,,,,,,,,,,
null,,color_black3,1716772,,,,,,,,black_plus_sign,,,null,,,,,,,,,,,,,,,,,,,,,,
null,,learn_phase(without_color)3,1720283,,,,,,,,black_plus_sign,,,null,object_14c.png,object_10c.png,,,,,,,,,,,,,,,,,,,,
null,,black_cross(without_color)3,1720860,,,,,,,,green,,,null,object_14c.png,object_10c.png,,,,,,,,,,,,,,,,,,,,
null,,rt_plussign_withcolor3,1721373,,,,,,,,green,,,null,object_14c.png,object_10c.png,,,,,,,,,,,,,,,,,,,,
816.3999999999069,,rt_thecrossant_black3,1722829,,,,,,,,black_plus_sign,,,50,,,,1,,,,,,1,,,,,,,,,,,,
null,,color_black3,1722940,,,,,,,,black_plus_sign,,,null,,,,,,,,,,,,,,,,,,,,,,
null,,learn_phase(without_color)3,1726448,,,,,,,,black_plus_sign,,,null,object_15c.png,object_10c.png,,,,,,,,,,,,,,,,,,,,
null,,black_cross(without_color)3,1727232,,,,,,,,blue,,,null,object_15c.png,object_10c.png,,,,,,,,,,,,,,,,,,,,
null,,rt_plussign_withcolor3,1727743,,,,,,,,blue,,,null,object_15c.png,object_10c.png,,,,,,,,,,,,,,,,,,,,
716.1000000000931,,rt_thecrossant_black3,1728991,,,,,,,,black_plus_sign,,,49,,,,1,,,,,,1,,,,,,,,,,,,
null,,color_black3,1729102,,,,,,,,black_plus_sign,,,null,,,,,,,,,,,,,,,,,,,,,,
null,,learn_phase(without_color)3,1732617,,,,,,,,black_plus_sign,,,null,object_13a.png,object_09a.png,,,,,,,,,,,,,,,,,,,,
null,,black_cross(without_color)3,1733349,,,,,,,,blue,,,null,object_13a.png,object_09a.png,,,,,,,,,,,,,,,,,,,,
null,,rt_plussign_withcolor3,1733852,,,,,,,,blue,,,null,object_13a.png,object_09a.png,,,,,,,,,,,,,,,,,,,,
1038.8999999999069,,rt_thecrossant_black3,1735146,,,,,,,,black_plus_sign,,,49,,,,1,,,,,,1,,,,,,,,,,,,
null,,color_black3,1735264,,,,,,,,black_plus_sign,,,null,,,,,,,,,,,,,,,,,,,,,,
null,,learn_phase(without_color)3,1738777,,,,,,,,black_plus_sign,,,null,object_04c.png,object_04a.png,,,,,,,,,,,,,,,,,,,,
null,,black_cross(without_color)3,1739760,,,,,,,,blue,,,null,object_04c.png,object_04a.png,,,,,,,,,,,,,,,,,,,,
null,,rt_plussign_withcolor3,1740272,,,,,,,,blue,,,null,object_04c.png,object_04a.png,,,,,,,,,,,,,,,,,,,,
1076.6000000000931,,rt_thecrossant_black3,1741306,,,,,,,,black_plus_sign,,,49,,,,1,,,,,,1,,,,,,,,,,,,
null,,color_black3,1741414,,,,,,,,black_plus_sign,,,null,,,,,,,,,,,,,,,,,,,,,,
null,,learn_phase(without_color)3,1744932,,,,,,,,black_plus_sign,,,null,object_09c.png,object_04c.png,,,,,,,,,,,,,,,,,,,,
null,,black_cross(without_color)3,1745482,,,,,,,,blue,,,null,object_09c.png,object_04c.png,,,,,,,,,,,,,,,,,,,,
null,,rt_plussign_withcolor3,1745986,,,,,,,,blue,,,null,object_09c.png,object_04c.png,,,,,,,,,,,,,,,,,,,,
1193.3999999999069,,rt_thecrossant_black3,1747452,,,,,,,,black_plus_sign,,,49,,,,1,,,,,,1,,,,,,,,,,,,
null,,color_black3,1747567,,,,,,,,black_plus_sign,,,null,,,,,,,,,,,,,,,,,,,,,,
null,,learn_phase(without_color)3,1751079,,,,,,,,black_plus_sign,,,null,object_08a.png,object_12c.png,,,,,,,,,,,,,,,,,,,,
null,,black_cross(without_color)3,1751589,,,,,,,,blue,,,null,object_08a.png,object_12c.png,,,,,,,,,,,,,,,,,,,,
null,,rt_plussign_withcolor3,1752107,,,,,,,,blue,,,null,object_08a.png,object_12c.png,,,,,,,,,,,,,,,,,,,,
823.5,,rt_thecrossant_black3,1753612,,,,,,,,black_plus_sign,,,49,,,,1,,,,,,1,,,,,,,,,,,,
null,,color_black3,1753719,,,,,,,,black_plus_sign,,,null,,,,,,,,,,,,,,,,,,,,,,
null,,learn_phase(without_color)3,1757227,,,,,,,,black_plus_sign,,,null,object_11a.png,object_14b.png,,,,,,,,,,,,,,,,,,,,
null,,black_cross(without_color)3,1757971,,,,,,,,blue,,,null,object_11a.png,object_14b.png,,,,,,,,,,,,,,,,,,,,
null,,rt_plussign_withcolor3,1758476,,,,,,,,blue,,,null,object_11a.png,object_14b.png,,,,,,,,,,,,,,,,,,,,
638.9000000003725,,rt_thecrossant_black3,1759749,,,,,,,,black_plus_sign,,,49,,,,1,,,,,,1,,,,,,,,,,,,
null,,color_black3,1759853,,,,,,,,black_plus_sign,,,null,,,,,,,,,,,,,,,,,,,,,,
null,,learn_phase(without_color)3,1763363,,,,,,,,black_plus_sign,,,null,object_15a.png,object_10b.png,,,,,,,,,,,,,,,,,,,,
null,,black_cross(without_color)3,1764018,,,,,,,,green,,,null,object_15a.png,object_10b.png,,,,,,,,,,,,,,,,,,,,
null,,rt_plussign_withcolor3,1764526,,,,,,,,green,,,null,object_15a.png,object_10b.png,,,,,,,,,,,,,,,,,,,,
1280.5,,rt_thecrossant_black3,1765905,,,,,,,,black_plus_sign,,,50,,,,1,,,,,,1,,,,,,,,,,,,
null,,color_black3,1766021,,,,,,,,black_plus_sign,,,null,,,,,,,,,,,,,,,,,,,,,,
null,,learn_phase(without_color)3,1769530,,,,,,,,black_plus_sign,,,null,object_05c.png,object_03b.png,,,,,,,,,,,,,,,,,,,,
null,,black_cross(without_color)3,1770448,,,,,,,,green,,,null,object_05c.png,object_03b.png,,,,,,,,,,,,,,,,,,,,
null,,rt_plussign_withcolor3,1770962,,,,,,,,green,,,null,object_05c.png,object_03b.png,,,,,,,,,,,,,,,,,,,,
828.7000000001863,,rt_thecrossant_black3,1772058,,,,,,,,black_plus_sign,,,50,,,,1,,,,,,1,,,,,,,,,,,,
null,,color_black3,1772167,,,,,,,,black_plus_sign,,,null,,,,,,,,,,,,,,,,,,,,,,
null,,learn_phase(without_color)3,1775678,,,,,,,,black_plus_sign,,,null,object_06c.png,object_07c.png,,,,,,,,,,,,,,,,,,,,
null,,black_cross(without_color)3,1776513,,,,,,,,green,,,null,object_06c.png,object_07c.png,,,,,,,,,,,,,,,,,,,,
null,,rt_plussign_withcolor3,1777022,,,,,,,,green,,,null,object_06c.png,object_07c.png,,,,,,,,,,,,,,,,,,,,
1226,,rt_thecrossant_black3,1778207,,,,,,,,black_plus_sign,,,50,,,,1,,,,,,1,,,,,,,,,,,,
null,,color_black3,1778313,,,,,,,,black_plus_sign,,,null,,,,,,,,,,,,,,,,,,,,,,
null,,learn_phase(without_color)3,1781832,,,,,,,,black_plus_sign,,,null,object_08a.png,object_11b.png,,,,,,,,,,,,,,,,,,,,
null,,black_cross(without_color)3,1782540,,,,,,,,blue,,,null,object_08a.png,object_11b.png,,,,,,,,,,,,,,,,,,,,
null,,rt_plussign_withcolor3,1783056,,,,,,,,blue,,,null,object_08a.png,object_11b.png,,,,,,,,,,,,,,,,,,,,
996.1000000000931,,rt_thecrossant_black3,1784368,,,,,,,,black_plus_sign,,,49,,,,1,,,,,,1,,,,,,,,,,,,
null,,color_black3,1784476,,,,,,,,black_plus_sign,,,null,,,,,,,,,,,,,,,,,,,,,,
null,,learn_phase(without_color)3,1787988,,,,,,,,black_plus_sign,,,null,object_07a.png,object_14a.png,,,,,,,,,,,,,,,,,,,,
null,,black_cross(without_color)3,1788893,,,,,,,,green,,,null,object_07a.png,object_14a.png,,,,,,,,,,,,,,,,,,,,
null,,rt_plussign_withcolor3,1789407,,,,,,,,green,,,null,object_07a.png,object_14a.png,,,,,,,,,,,,,,,,,,,,
1186,,rt_thecrossant_black3,1790523,,,,,,,,black_plus_sign,,,50,,,,1,,,,,,1,,,,,,,,,,,,
null,,color_black3,1790630,,,,,,,,black_plus_sign,,,null,,,,,,,,,,,,,,,,,,,,,,
null,,learn_phase(without_color)3,1794142,,,,,,,,black_plus_sign,,,null,object_02a.png,object_01b.png,,,,,,,,,,,,,,,,,,,,
null,,black_cross(without_color)3,1794973,,,,,,,,blue,,,null,object_02a.png,object_01b.png,,,,,,,,,,,,,,,,,,,,
null,,rt_plussign_withcolor3,1795476,,,,,,,,blue,,,null,object_02a.png,object_01b.png,,,,,,,,,,,,,,,,,,,,
999.3999999999069,,rt_thecrossant_black3,1796658,,,,,,,,black_plus_sign,,,49,,,,1,,,,,,1,,,,,,,,,,,,
null,,color_black3,1796767,,,,,,,,black_plus_sign,,,null,,,,,,,,,,,,,,,,,,,,,,
null,,learn_phase(without_color)3,1800282,,,,,,,,black_plus_sign,,,null,object_10b.png,object_13b.png,,,,,,,,,,,,,,,,,,,,
null,,black_cross(without_color)3,1800961,,,,,,,,blue,,,null,object_10b.png,object_13b.png,,,,,,,,,,,,,,,,,,,,
null,,rt_plussign_withcolor3,1801474,,,,,,,,blue,,,null,object_10b.png,object_13b.png,,,,,,,,,,,,,,,,,,,,
1148.6000000000931,,rt_thecrossant_black3,1802811,,,,,,,,black_plus_sign,,,49,,,,1,,,,,,1,,,,,,,,,,,,
null,,color_black3,1802915,,,,,,,,black_plus_sign,,,null,,,,,,,,,,,,,,,,,,,,,,
null,,learn_phase(without_color)3,1806431,,,,,,,,black_plus_sign,,,null,object_08b.png,object_04b.png,,,,,,,,,,,,,,,,,,,,
null,,black_cross(without_color)3,1806911,,,,,,,,green,,,null,object_08b.png,object_04b.png,,,,,,,,,,,,,,,,,,,,
null,,rt_plussign_withcolor3,1807418,,,,,,,,green,,,null,object_08b.png,object_04b.png,,,,,,,,,,,,,,,,,,,,
1231.1999999997206,,rt_thecrossant_black3,1808964,,,,,,,,black_plus_sign,,,50,,,,1,,,,,,1,,,,,,,,,,,,
null,,color_black3,1809070,,,,,,,,black_plus_sign,,,null,,,,,,,,,,,,,,,,,,,,,,
null,,learn_phase(without_color)3,1812587,,,,,,,,black_plus_sign,,,null,object_03c.png,object_10a.png,,,,,,,,,,,,,,,,,,,,
null,,black_cross(without_color)3,1813532,,,,,,,,green,,,null,object_03c.png,object_10a.png,,,,,,,,,,,,,,,,,,,,
null,,rt_plussign_withcolor3,1814043,,,,,,,,green,,,null,object_03c.png,object_10a.png,,,,,,,,,,,,,,,,,,,,
982.1000000000931,,rt_thecrossant_black3,1815116,,,,,,,,black_plus_sign,,,50,,,,1,,,,,,1,,,,,,,,,,,,
null,,color_black3,1815227,,,,,,,,black_plus_sign,,,null,,,,,,,,,,,,,,,,,,,,,,
null,,learn_phase(without_color)3,1818736,,,,,,,,black_plus_sign,,,null,object_02b.png,object_08c.png,,,,,,,,,,,,,,,,,,,,
null,,black_cross(without_color)3,1819687,,,,,,,,blue,,,null,object_02b.png,object_08c.png,,,,,,,,,,,,,,,,,,,,
null,,rt_plussign_withcolor3,1820202,,,,,,,,blue,,,null,object_02b.png,object_08c.png,,,,,,,,,,,,,,,,,,,,
1224.7000000001863,,rt_thecrossant_black3,1821261,,,,,,,,black_plus_sign,,,49,,,,1,,,,,,1,,,,,,,,,,,,
null,,color_black3,1821372,,,,,,,,black_plus_sign,,,null,,,,,,,,,,,,,,,,,,,,,,
null,,learn_phase(without_color)3,1824879,,,,,,,,black_plus_sign,,,null,object_13a.png,object_09b.png,,,,,,,,,,,,,,,,,,,,
null,,black_cross(without_color)3,1825442,,,,,,,,blue,,,null,object_13a.png,object_09b.png,,,,,,,,,,,,,,,,,,,,
null,,rt_plussign_withcolor3,1825959,,,,,,,,blue,,,null,object_13a.png,object_09b.png,,,,,,,,,,,,,,,,,,,,
1231.7000000001863,,rt_thecrossant_black3,1827411,,,,,,,,black_plus_sign,,,49,,,,1,,,,,,1,,,,,,,,,,,,
null,,color_black3,1827514,,,,,,,,black_plus_sign,,,null,,,,,,,,,,,,,,,,,,,,,,
null,,learn_phase(without_color)3,1831019,,,,,,,,black_plus_sign,,,null,object_01a.png,object_05b.png,,,,,,,,,,,,,,,,,,,,
null,,black_cross(without_color)3,1832061,,,,,,,,green,,,null,object_01a.png,object_05b.png,,,,,,,,,,,,,,,,,,,,
null,,rt_plussign_withcolor3,1832565,,,,,,,,green,,,null,object_01a.png,object_05b.png,,,,,,,,,,,,,,,,,,,,
null,,rt_thecrossant_black3,1833541,,,,,,,,black_plus_sign,,,null,,,,,,,,,,1,,,,,,,,,,,,
null,,color_black3,1833648,,,,,,,,black_plus_sign,,,null,,,,,,,,,,,,,,,,,,,,,,
null,,thebreak,1833758,,,,,,,,<p></p>,,,null,,,,,,,,,,,,,,,,,,,,,,
28025.19999999972,,intro_0,1861785,,,,,,,,instruct,,,32,,,,,,,,,,,,,,,,,,,,,,
4281,,directmemory_phase3,1866069,,,,,,,,object_15b.png,,,51,,,,1,object_04c.png,object_09a.png,object_07a.png,object_07a.png,,0.819672131147541,1,,,,,,,,,,,
4232.5999999996275,,directmemory_phase3,1870305,,,,,,,,object_09c.png,,,49,,,,1,object_04c.png,object_10c.png,object_02b.png,object_04c.png,,0.8225806451612904,1,,,,,,,,,,,
3548.8000000002794,,directmemory_phase3,1873858,,,,,,,,object_10a.png,,,50,,,,1,object_06a.png,object_11c.png,object_03a.png,object_11c.png,,0.8253968253968254,1,,,,,,,,,,,
4910.399999999907,,directmemory_phase3,1878773,,,,,,,,object_09b.png,,,50,,,,0,object_13a.png,object_04c.png,object_02b.png,object_13a.png,,0.8125,0,,,,,,,,,,,
5488.4000000003725,,directmemory_phase3,1884266,,,,,,,,object_13b.png,,,51,,,,1,object_06a.png,object_09c.png,object_10b.png,object_10b.png,,0.8153846153846154,1,,,,,,,,,,,
2361.8000000002794,,directmemory_phase3,1886632,,,,,,,,object_02c.png,,,51,,,,1,object_07c.png,object_14a.png,object_05c.png,object_05c.png,,0.8181818181818182,1,,,,,,,,,,,
6709.399999999907,,directmemory_phase3,1893346,,,,,,,,object_03c.png,,,50,,,,1,object_12b.png,object_10a.png,object_08a.png,object_10a.png,,0.8208955223880597,1,,,,,,,,,,,
5486.899999999907,,directmemory_phase3,1898836,,,,,,,,object_06b.png,,,51,,,,1,object_07a.png,object_15c.png,object_02a.png,object_02a.png,,0.8235294117647058,1,,,,,,,,,,,
2690.5,,directmemory_phase3,1901531,,,,,,,,object_12b.png,,,50,,,,1,object_14c.png,object_14b.png,object_08a.png,object_14b.png,,0.8260869565217391,1,,,,,,,,,,,
2872.5,,directmemory_phase3,1904408,,,,,,,,object_12c.png,,,51,,,,1,object_05c.png,object_15c.png,object_08a.png,object_08a.png,,0.8285714285714286,1,,,,,,,,,,,
3662.1999999997206,,directmemory_phase3,1908074,,,,,,,,object_03b.png,,,51,,,,1,object_07c.png,object_12c.png,object_05c.png,object_05c.png,,0.8309859154929577,1,,,,,,,,,,,
1974.8999999999069,,directmemory_phase3,1910053,,,,,,,,object_02b.png,,,49,,,,1,object_08c.png,object_07c.png,object_14a.png,object_08c.png,,0.8333333333333334,1,,,,,,,,,,,
9201.69999999972,,directmemory_phase3,1919259,,,,,,,,object_13c.png,,,51,,,,1,object_04b.png,object_09b.png,object_06a.png,object_06a.png,,0.8356164383561644,1,,,,,,,,,,,
4897.199999999721,,directmemory_phase3,1924159,,,,,,,,object_04c.png,,,50,,,,1,object_07c.png,object_04a.png,object_05a.png,object_04a.png,,0.8378378378378378,1,,,,,,,,,,,
2059.2000000001863,,directmemory_phase3,1926222,,,,,,,,object_07b.png,,,50,,,,1,object_15b.png,object_01a.png,object_06a.png,object_01a.png,,0.84,1,,,,,,,,,,,
3175.399999999907,,directmemory_phase3,1929400,,,,,,,,object_14b.png,,,49,,,,1,object_11a.png,object_04a.png,object_04c.png,object_11a.png,,0.8421052631578947,1,,,,,,,,,,,
13707.19999999972,,directmemory_phase3,1943111,,,,,,,,object_04b.png,,,50,,,,1,object_10c.png,object_08b.png,object_11c.png,object_08b.png,,0.8441558441558441,1,,,,,,,,,,,
2165.399999999907,,directmemory_phase3,1945279,,,,,,,,object_06c.png,,,51,,,,1,object_10a.png,object_12a.png,object_07c.png,object_07c.png,,0.8461538461538461,1,,,,,,,,,,,
1566.8999999999069,,directmemory_phase3,1946849,,,,,,,,object_12a.png,,,49,,,,1,object_04b.png,object_07a.png,object_05b.png,object_04b.png,,0.8481012658227848,1,,,,,,,,,,,
8235.799999999814,,directmemory_phase3,1955089,,,,,,,,object_11b.png,,,49,,,,1,object_08a.png,object_07a.png,object_09c.png,object_08a.png,,0.85,1,,,,,,,,,,,
5938.5,,directmemory_phase3,1961032,,,,,,,,object_07c.png,,,51,,,,1,object_01c.png,object_05c.png,object_03a.png,object_03a.png,,0.8518518518518519,1,,,,,,,,,,,
3207.7999999998137,,directmemory_phase3,1964245,,,,,,,,object_15a.png,,,50,,,,1,object_06b.png,object_10b.png,object_07a.png,object_10b.png,,0.8536585365853658,1,,,,,,,,,,,
8437.900000000373,,directmemory_phase3,1972687,,,,,,,,object_08c.png,,,51,,,,1,object_08b.png,object_14b.png,object_01c.png,object_01c.png,,0.8554216867469879,1,,,,,,,,,,,
8424.799999999814,,directmemory_phase3,1981116,,,,,,,,object_14c.png,,,49,,,,0,object_09c.png,object_10c.png,object_13a.png,object_10c.png,,0.8452380952380952,0,,,,,,,,,,,
2404.100000000093,,directmemory_phase3,1983523,,,,,,,,object_14a.png,,,49,,,,1,object_07a.png,object_07c.png,object_11b.png,object_07a.png,,0.8470588235294118,1,,,,,,,,,,,
4449,,directmemory_phase3,1987976,,,,,,,,object_05a.png,,,51,,,,1,object_04c.png,object_06b.png,object_06a.png,object_06a.png,,0.8488372093023255,1,,,,,,,,,,,
4685,,directmemory_phase3,1992665,,,,,,,,object_01b.png,,,51,,,,1,object_07a.png,object_14c.png,object_02a.png,object_02a.png,,0.8505747126436781,1,,,,,,,,,,,
5971.899999999907,,directmemory_phase3,1998642,,,,,,,,object_09a.png,,,50,,,,1,object_08b.png,object_13a.png,object_05c.png,object_13a.png,,0.8522727272727273,1,,,,,,,,,,,
4486.299999999814,,directmemory_phase3,2003132,,,,,,,,object_10c.png,,,51,,,,1,object_01c.png,object_04b.png,object_15c.png,object_15c.png,,0.8539325842696629,1,,,,,,,,,,,
7767.800000000279,,directmemory_phase3,2010905,,,,,,,,object_05b.png,,,51,,,,1,object_04c.png,object_14c.png,object_01a.png,object_01a.png,,0.8555555555555555,1,,,,,,,,,,,
null,,thebreak,2011022,,,,,,,,<p></p>,,,null,,,,,,,,,,,,,,,,,,,,,,
42192,,intro_0,2053217,,,,,,,,instruct,,,32,,,,,,,,,,,,,,,,,,,,,,
null,,learn_phase(without_color)4,2056727,,,,,,,,black_plus_sign,,,null,object_07a.png,object_14a.png,,,,,,,,,,,,,,,,,,,,
null,,black_cross(without_color)4,2057362,,,,,,,,blue,,,null,object_07a.png,object_14a.png,,,,,,,,,,,,,,,,,,,,
null,,rt_plussign_withcolor4,2057867,,,,,,,,blue,,,null,object_07a.png,object_14a.png,,,,,,,,,,,,,,,,,,,,
800.3000000002794,,rt_thecrossant_black4,2059251,,,,,,,,black_plus_sign,,,49,,,,1,,,,,,1,,,,,,,,,,,,
null,,color_black4,2059363,,,,,,,,black_plus_sign,,,null,,,,,,,,,,,,,,,,,,,,,,
null,,learn_phase(without_color)4,2062868,,,,,,,,black_plus_sign,,,null,object_09b.png,object_13a.png,,,,,,,,,,,,,,,,,,,,
null,,black_cross(without_color)4,2063649,,,,,,,,green,,,null,object_09b.png,object_13a.png,,,,,,,,,,,,,,,,,,,,
null,,rt_plussign_withcolor4,2064154,,,,,,,,green,,,null,object_09b.png,object_13a.png,,,,,,,,,,,,,,,,,,,,
911.3000000002794,,rt_thecrossant_black4,2065392,,,,,,,,black_plus_sign,,,50,,,,1,,,,,,1,,,,,,,,,,,,
null,,color_black4,2065501,,,,,,,,black_plus_sign,,,null,,,,,,,,,,,,,,,,,,,,,,
null,,learn_phase(without_color)4,2069011,,,,,,,,black_plus_sign,,,null,object_08a.png,object_11b.png,,,,,,,,,,,,,,,,,,,,
null,,black_cross(without_color)4,2069982,,,,,,,,blue,,,null,object_08a.png,object_11b.png,,,,,,,,,,,,,,,,,,,,
null,,rt_plussign_withcolor4,2070491,,,,,,,,blue,,,null,object_08a.png,object_11b.png,,,,,,,,,,,,,,,,,,,,
1160.8000000002794,,rt_thecrossant_black4,2071537,,,,,,,,black_plus_sign,,,49,,,,1,,,,,,1,,,,,,,,,,,,
null,,color_black4,2071647,,,,,,,,black_plus_sign,,,null,,,,,,,,,,,,,,,,,,,,,,
null,,learn_phase(without_color)4,2075160,,,,,,,,black_plus_sign,,,null,object_08c.png,object_01c.png,,,,,,,,,,,,,,,,,,,,
null,,black_cross(without_color)4,2076102,,,,,,,,green,,,null,object_08c.png,object_01c.png,,,,,,,,,,,,,,,,,,,,
null,,rt_plussign_withcolor4,2076617,,,,,,,,green,,,null,object_08c.png,object_01c.png,,,,,,,,,,,,,,,,,,,,
1420.3999999999069,,rt_thecrossant_black4,2077691,,,,,,,,black_plus_sign,,,50,,,,1,,,,,,1,,,,,,,,,,,,
null,,color_black4,2077794,,,,,,,,black_plus_sign,,,null,,,,,,,,,,,,,,,,,,,,,,
null,,learn_phase(without_color)4,2081313,,,,,,,,black_plus_sign,,,null,object_06c.png,object_07c.png,,,,,,,,,,,,,,,,,,,,
null,,black_cross(without_color)4,2082251,,,,,,,,green,,,null,object_06c.png,object_07c.png,,,,,,,,,,,,,,,,,,,,
null,,rt_plussign_withcolor4,2082762,,,,,,,,green,,,null,object_06c.png,object_07c.png,,,,,,,,,,,,,,,,,,,,
2004.2999999998137,,rt_thecrossant_black4,2083838,,,,,,,,black_plus_sign,,,50,,,,1,,,,,,1,,,,,,,,,,,,
null,,color_black4,2083952,,,,,,,,black_plus_sign,,,null,,,,,,,,,,,,,,,,,,,,,,
null,,learn_phase(without_color)4,2087462,,,,,,,,black_plus_sign,,,null,object_04a.png,object_04c.png,,,,,,,,,,,,,,,,,,,,
null,,black_cross(without_color)4,2088157,,,,,,,,blue,,,null,object_04a.png,object_04c.png,,,,,,,,,,,,,,,,,,,,
null,,rt_plussign_withcolor4,2088672,,,,,,,,blue,,,null,object_04a.png,object_04c.png,,,,,,,,,,,,,,,,,,,,
1040.3000000002794,,rt_thecrossant_black4,2090007,,,,,,,,black_plus_sign,,,49,,,,1,,,,,,1,,,,,,,,,,,,
null,,color_black4,2090120,,,,,,,,black_plus_sign,,,null,,,,,,,,,,,,,,,,,,,,,,
null,,learn_phase(without_color)4,2093629,,,,,,,,black_plus_sign,,,null,object_11a.png,object_14b.png,,,,,,,,,,,,,,,,,,,,
null,,black_cross(without_color)4,2094718,,,,,,,,blue,,,null,object_11a.png,object_14b.png,,,,,,,,,,,,,,,,,,,,
null,,rt_plussign_withcolor4,2095228,,,,,,,,blue,,,null,object_11a.png,object_14b.png,,,,,,,,,,,,,,,,,,,,
803.3999999999069,,rt_thecrossant_black4,2096154,,,,,,,,black_plus_sign,,,49,,,,1,,,,,,1,,,,,,,,,,,,
null,,color_black4,2096262,,,,,,,,black_plus_sign,,,null,,,,,,,,,,,,,,,,,,,,,,
null,,learn_phase(without_color)4,2099780,,,,,,,,black_plus_sign,,,null,object_08a.png,object_12c.png,,,,,,,,,,,,,,,,,,,,
null,,black_cross(without_color)4,2100284,,,,,,,,blue,,,null,object_08a.png,object_12c.png,,,,,,,,,,,,,,,,,,,,
null,,rt_plussign_withcolor4,2100788,,,,,,,,blue,,,null,object_08a.png,object_12c.png,,,,,,,,,,,,,,,,,,,,
1496.3999999999069,,rt_thecrossant_black4,2102309,,,,,,,,black_plus_sign,,,49,,,,1,,,,,,1,,,,,,,,,,,,
null,,color_black4,2102412,,,,,,,,black_plus_sign,,,null,,,,,,,,,,,,,,,,,,,,,,
null,,learn_phase(without_color)4,2105917,,,,,,,,black_plus_sign,,,null,object_10a.png,object_03c.png,,,,,,,,,,,,,,,,,,,,
null,,black_cross(without_color)4,2106552,,,,,,,,green,,,null,object_10a.png,object_03c.png,,,,,,,,,,,,,,,,,,,,
null,,rt_plussign_withcolor4,2107060,,,,,,,,green,,,null,object_10a.png,object_03c.png,,,,,,,,,,,,,,,,,,,,
960.5,,rt_thecrossant_black4,2108444,,,,,,,,black_plus_sign,,,50,,,,1,,,,,,1,,,,,,,,,,,,
null,,color_black4,2108552,,,,,,,,black_plus_sign,,,null,,,,,,,,,,,,,,,,,,,,,,
null,,learn_phase(without_color)4,2112059,,,,,,,,black_plus_sign,,,null,object_04c.png,object_09c.png,,,,,,,,,,,,,,,,,,,,
null,,black_cross(without_color)4,2112529,,,,,,,,blue,,,null,object_04c.png,object_09c.png,,,,,,,,,,,,,,,,,,,,
null,,rt_plussign_withcolor4,2113037,,,,,,,,blue,,,null,object_04c.png,object_09c.png,,,,,,,,,,,,,,,,,,,,
941.5,,rt_thecrossant_black4,2114589,,,,,,,,black_plus_sign,,,49,,,,1,,,,,,1,,,,,,,,,,,,
null,,color_black4,2114701,,,,,,,,black_plus_sign,,,null,,,,,,,,,,,,,,,,,,,,,,
null,,learn_phase(without_color)4,2118216,,,,,,,,black_plus_sign,,,null,object_01a.png,object_05b.png,,,,,,,,,,,,,,,,,,,,
null,,black_cross(without_color)4,2118924,,,,,,,,green,,,null,object_01a.png,object_05b.png,,,,,,,,,,,,,,,,,,,,
null,,rt_plussign_withcolor4,2119431,,,,,,,,green,,,null,object_01a.png,object_05b.png,,,,,,,,,,,,,,,,,,,,
1168.5,,rt_thecrossant_black4,2120731,,,,,,,,black_plus_sign,,,50,,,,1,,,,,,1,,,,,,,,,,,,
null,,color_black4,2120843,,,,,,,,black_plus_sign,,,null,,,,,,,,,,,,,,,,,,,,,,
null,,learn_phase(without_color)4,2124353,,,,,,,,black_plus_sign,,,null,object_10b.png,object_15a.png,,,,,,,,,,,,,,,,,,,,
null,,black_cross(without_color)4,2125225,,,,,,,,green,,,null,object_10b.png,object_15a.png,,,,,,,,,,,,,,,,,,,,
null,,rt_plussign_withcolor4,2125729,,,,,,,,green,,,null,object_10b.png,object_15a.png,,,,,,,,,,,,,,,,,,,,
1005.5,,rt_thecrossant_black4,2126892,,,,,,,,black_plus_sign,,,50,,,,1,,,,,,1,,,,,,,,,,,,
null,,color_black4,2127002,,,,,,,,black_plus_sign,,,null,,,,,,,,,,,,,,,,,,,,,,
null,,learn_phase(without_color)4,2130518,,,,,,,,black_plus_sign,,,null,object_05c.png,object_03b.png,,,,,,,,,,,,,,,,,,,,
null,,black_cross(without_color)4,2131212,,,,,,,,green,,,null,object_05c.png,object_03b.png,,,,,,,,,,,,,,,,,,,,
null,,rt_plussign_withcolor4,2131730,,,,,,,,green,,,null,object_05c.png,object_03b.png,,,,,,,,,,,,,,,,,,,,
1239.5,,rt_thecrossant_black4,2133051,,,,,,,,black_plus_sign,,,50,,,,1,,,,,,1,,,,,,,,,,,,
null,,color_black4,2133163,,,,,,,,black_plus_sign,,,null,,,,,,,,,,,,,,,,,,,,,,
null,,learn_phase(without_color)4,2136673,,,,,,,,black_plus_sign,,,null,object_01a.png,object_07b.png,,,,,,,,,,,,,,,,,,,,
null,,black_cross(without_color)4,2137156,,,,,,,,green,,,null,object_01a.png,object_07b.png,,,,,,,,,,,,,,,,,,,,
null,,rt_plussign_withcolor4,2137673,,,,,,,,green,,,null,object_01a.png,object_07b.png,,,,,,,,,,,,,,,,,,,,
1185,,rt_thecrossant_black4,2139212,,,,,,,,black_plus_sign,,,50,,,,1,,,,,,1,,,,,,,,,,,,
null,,color_black4,2139318,,,,,,,,black_plus_sign,,,null,,,,,,,,,,,,,,,,,,,,,,
null,,learn_phase(without_color)4,2142835,,,,,,,,black_plus_sign,,,null,object_13c.png,object_06a.png,,,,,,,,,,,,,,,,,,,,
null,,black_cross(without_color)4,2143652,,,,,,,,green,,,null,object_13c.png,object_06a.png,,,,,,,,,,,,,,,,,,,,
null,,rt_plussign_withcolor4,2144163,,,,,,,,green,,,null,object_13c.png,object_06a.png,,,,,,,,,,,,,,,,,,,,
657.5,,rt_thecrossant_black4,2145361,,,,,,,,black_plus_sign,,,50,,,,1,,,,,,1,,,,,,,,,,,,
null,,color_black4,2145469,,,,,,,,black_plus_sign,,,null,,,,,,,,,,,,,,,,,,,,,,
null,,learn_phase(without_color)4,2148991,,,,,,,,black_plus_sign,,,null,object_14b.png,object_12b.png,,,,,,,,,,,,,,,,,,,,
null,,black_cross(without_color)4,2149759,,,,,,,,green,,,null,object_14b.png,object_12b.png,,,,,,,,,,,,,,,,,,,,
null,,rt_plussign_withcolor4,2150264,,,,,,,,green,,,null,object_14b.png,object_12b.png,,,,,,,,,,,,,,,,,,,,
912.3999999999069,,rt_thecrossant_black4,2151521,,,,,,,,black_plus_sign,,,50,,,,1,,,,,,1,,,,,,,,,,,,
null,,color_black4,2151632,,,,,,,,black_plus_sign,,,null,,,,,,,,,,,,,,,,,,,,,,
null,,learn_phase(without_color)4,2155149,,,,,,,,black_plus_sign,,,null,object_10b.png,object_13b.png,,,,,,,,,,,,,,,,,,,,
null,,black_cross(without_color)4,2155833,,,,,,,,green,,,null,object_10b.png,object_13b.png,,,,,,,,,,,,,,,,,,,,
null,,rt_plussign_withcolor4,2156347,,,,,,,,green,,,null,object_10b.png,object_13b.png,,,,,,,,,,,,,,,,,,,,
1017.7000000001863,,rt_thecrossant_black4,2157686,,,,,,,,black_plus_sign,,,50,,,,1,,,,,,1,,,,,,,,,,,,
null,,color_black4,2157797,,,,,,,,black_plus_sign,,,null,,,,,,,,,,,,,,,,,,,,,,
null,,learn_phase(without_color)4,2161307,,,,,,,,black_plus_sign,,,null,object_10a.png,object_11c.png,,,,,,,,,,,,,,,,,,,,
null,,black_cross(without_color)4,2162302,,,,,,,,green,,,null,object_10a.png,object_11c.png,,,,,,,,,,,,,,,,,,,,
null,,rt_plussign_withcolor4,2162821,,,,,,,,green,,,null,object_10a.png,object_11c.png,,,,,,,,,,,,,,,,,,,,
870.7000000001863,,rt_thecrossant_black4,2163842,,,,,,,,black_plus_sign,,,50,,,,1,,,,,,1,,,,,,,,,,,,
null,,color_black4,2163954,,,,,,,,black_plus_sign,,,null,,,,,,,,,,,,,,,,,,,,,,
null,,learn_phase(without_color)4,2167458,,,,,,,,black_plus_sign,,,null,object_15c.png,object_10c.png,,,,,,,,,,,,,,,,,,,,
null,,black_cross(without_color)4,2168012,,,,,,,,green,,,null,object_15c.png,object_10c.png,,,,,,,,,,,,,,,,,,,,
null,,rt_plussign_withcolor4,2168517,,,,,,,,green,,,null,object_15c.png,object_10c.png,,,,,,,,,,,,,,,,,,,,
1234.1999999997206,,rt_thecrossant_black4,2169987,,,,,,,,black_plus_sign,,,50,,,,1,,,,,,1,,,,,,,,,,,,
null,,color_black4,2170098,,,,,,,,black_plus_sign,,,null,,,,,,,,,,,,,,,,,,,,,,
null,,learn_phase(without_color)4,2173611,,,,,,,,black_plus_sign,,,null,object_01b.png,object_02a.png,,,,,,,,,,,,,,,,,,,,
null,,black_cross(without_color)4,2174450,,,,,,,,green,,,null,object_01b.png,object_02a.png,,,,,,,,,,,,,,,,,,,,
null,,rt_plussign_withcolor4,2174958,,,,,,,,green,,,null,object_01b.png,object_02a.png,,,,,,,,,,,,,,,,,,,,
null,,rt_thecrossant_black4,2176145,,,,,,,,black_plus_sign,,,null,,,,,,,,,,1,,,,,,,,,,,,
null,,color_black4,2176252,,,,,,,,black_plus_sign,,,null,,,,,,,,,,,,,,,,,,,,,,
null,,learn_phase(without_color)4,2179759,,,,,,,,black_plus_sign,,,null,object_07a.png,object_15b.png,,,,,,,,,,,,,,,,,,,,
null,,black_cross(without_color)4,2180665,,,,,,,,blue,,,null,object_07a.png,object_15b.png,,,,,,,,,,,,,,,,,,,,
null,,rt_plussign_withcolor4,2181170,,,,,,,,blue,,,null,object_07a.png,object_15b.png,,,,,,,,,,,,,,,,,,,,
1069.9000000003725,,rt_thecrossant_black4,2182271,,,,,,,,black_plus_sign,,,49,,,,1,,,,,,1,,,,,,,,,,,,
null,,color_black4,2182381,,,,,,,,black_plus_sign,,,null,,,,,,,,,,,,,,,,,,,,,,
null,,learn_phase(without_color)4,2185893,,,,,,,,black_plus_sign,,,null,object_02c.png,object_05c.png,,,,,,,,,,,,,,,,,,,,
null,,black_cross(without_color)4,2186477,,,,,,,,blue,,,null,object_02c.png,object_05c.png,,,,,,,,,,,,,,,,,,,,
null,,rt_plussign_withcolor4,2186989,,,,,,,,blue,,,null,object_02c.png,object_05c.png,,,,,,,,,,,,,,,,,,,,
1133,,rt_thecrossant_black4,2188420,,,,,,,,black_plus_sign,,,49,,,,1,,,,,,1,,,,,,,,,,,,
null,,color_black4,2188532,,,,,,,,black_plus_sign,,,null,,,,,,,,,,,,,,,,,,,,,,
null,,learn_phase(without_color)4,2192040,,,,,,,,black_plus_sign,,,null,object_05a.png,object_06a.png,,,,,,,,,,,,,,,,,,,,
null,,black_cross(without_color)4,2192515,,,,,,,,blue,,,null,object_05a.png,object_06a.png,,,,,,,,,,,,,,,,,,,,
null,,rt_plussign_withcolor4,2193023,,,,,,,,blue,,,null,object_05a.png,object_06a.png,,,,,,,,,,,,,,,,,,,,
732.5,,rt_thecrossant_black4,2194558,,,,,,,,black_plus_sign,,,49,,,,1,,,,,,1,,,,,,,,,,,,
null,,color_black4,2194676,,,,,,,,black_plus_sign,,,null,,,,,,,,,,,,,,,,,,,,,,
null,,learn_phase(without_color)4,2198188,,,,,,,,black_plus_sign,,,null,object_02b.png,object_08c.png,,,,,,,,,,,,,,,,,,,,
null,,black_cross(without_color)4,2199025,,,,,,,,green,,,null,object_02b.png,object_08c.png,,,,,,,,,,,,,,,,,,,,
498.5,,rt_plussign_withcolor4,2199527,,,,,,,,green,,,50,object_02b.png,object_08c.png,,,,,,,,,,,,,,,,,,,,
null,,rt_thecrossant_black4,2200705,,,,,,,,black_plus_sign,,,null,,,,1,,,,,,1,,,,,,,,,,,,
null,,color_black4,2200815,,,,,,,,black_plus_sign,,,null,,,,,,,,,,,,,,,,,,,,,,
null,,learn_phase(without_color)4,2204325,,,,,,,,black_plus_sign,,,null,object_04b.png,object_12a.png,,,,,,,,,,,,,,,,,,,,
null,,black_cross(without_color)4,2205318,,,,,,,,blue,,,null,object_04b.png,object_12a.png,,,,,,,,,,,,,,,,,,,,
null,,rt_plussign_withcolor4,2205832,,,,,,,,blue,,,null,object_04b.png,object_12a.png,,,,,,,,,,,,,,,,,,,,
1163.1000000000931,,rt_thecrossant_black4,2206868,,,,,,,,black_plus_sign,,,49,,,,1,,,,,,1,,,,,,,,,,,,
null,,color_black4,2206986,,,,,,,,black_plus_sign,,,null,,,,,,,,,,,,,,,,,,,,,,
null,,learn_phase(without_color)4,2210501,,,,,,,,black_plus_sign,,,null,object_10c.png,object_14c.png,,,,,,,,,,,,,,,,,,,,
null,,black_cross(without_color)4,2211160,,,,,,,,blue,,,null,object_10c.png,object_14c.png,,,,,,,,,,,,,,,,,,,,
null,,rt_plussign_withcolor4,2211671,,,,,,,,blue,,,null,object_10c.png,object_14c.png,,,,,,,,,,,,,,,,,,,,
1266.7000000001863,,rt_thecrossant_black4,2213039,,,,,,,,black_plus_sign,,,49,,,,1,,,,,,1,,,,,,,,,,,,
null,,color_black4,2213150,,,,,,,,black_plus_sign,,,null,,,,,,,,,,,,,,,,,,,,,,
null,,learn_phase(without_color)4,2216658,,,,,,,,black_plus_sign,,,null,object_02a.png,object_06b.png,,,,,,,,,,,,,,,,,,,,
null,,black_cross(without_color)4,2217575,,,,,,,,green,,,null,object_02a.png,object_06b.png,,,,,,,,,,,,,,,,,,,,
null,,rt_plussign_withcolor4,2218081,,,,,,,,green,,,null,object_02a.png,object_06b.png,,,,,,,,,,,,,,,,,,,,
773.3999999999069,,rt_thecrossant_black4,2219185,,,,,,,,black_plus_sign,,,50,,,,1,,,,,,1,,,,,,,,,,,,
null,,color_black4,2219303,,,,,,,,black_plus_sign,,,null,,,,,,,,,,,,,,,,,,,,,,
null,,learn_phase(without_color)4,2222816,,,,,,,,black_plus_sign,,,null,object_09a.png,object_13a.png,,,,,,,,,,,,,,,,,,,,
null,,black_cross(without_color)4,2223724,,,,,,,,green,,,null,object_09a.png,object_13a.png,,,,,,,,,,,,,,,,,,,,
null,,rt_plussign_withcolor4,2224242,,,,,,,,green,,,null,object_09a.png,object_13a.png,,,,,,,,,,,,,,,,,,,,
1141,,rt_thecrossant_black4,2225361,,,,,,,,black_plus_sign,,,50,,,,1,,,,,,1,,,,,,,,,,,,
null,,color_black4,2225471,,,,,,,,black_plus_sign,,,null,,,,,,,,,,,,,,,,,,,,,,
null,,learn_phase(without_color)4,2228979,,,,,,,,black_plus_sign,,,null,object_03a.png,object_07c.png,,,,,,,,,,,,,,,,,,,,
null,,black_cross(without_color)4,2229549,,,,,,,,green,,,null,object_03a.png,object_07c.png,,,,,,,,,,,,,,,,,,,,
null,,rt_plussign_withcolor4,2230063,,,,,,,,green,,,null,object_03a.png,object_07c.png,,,,,,,,,,,,,,,,,,,,
1190.8999999999069,,rt_thecrossant_black4,2231525,,,,,,,,black_plus_sign,,,50,,,,1,,,,,,1,,,,,,,,,,,,
null,,color_black4,2231637,,,,,,,,black_plus_sign,,,null,,,,,,,,,,,,,,,,,,,,,,
null,,learn_phase(without_color)4,2235149,,,,,,,,black_plus_sign,,,null,object_04b.png,object_08b.png,,,,,,,,,,,,,,,,,,,,
null,,black_cross(without_color)4,2236008,,,,,,,,blue,,,null,object_04b.png,object_08b.png,,,,,,,,,,,,,,,,,,,,
401.79999999981374,,rt_plussign_withcolor4,2236523,,,,,,,,blue,,,49,object_04b.png,object_08b.png,,,,,,,,,,,,,,,,,,,,
null,,rt_thecrossant_black4,2237676,,,,,,,,black_plus_sign,,,null,,,,1,,,,,,1,,,,,,,,,,,,
null,,color_black4,2237795,,,,,,,,black_plus_sign,,,null,,,,,,,,,,,,,,,,,,,,,,
null,,thebreak,2237906,,,,,,,,<p></p>,,,null,,,,,,,,,,,,,,,,,,,,,,
24319.600000000093,,intro_0,2262229,,,,,,,,instruct,,,32,,,,,,,,,,,,,,,,,,,,,,
4192.399999999907,,directmemory_phase4,2266424,,,,,,,,object_05a.png,,,51,,,,1,object_07a.png,object_06b.png,object_06a.png,object_06a.png,,0.8571428571428571,1,,,,,,,,,,,
7046.600000000093,,directmemory_phase4,2273476,,,,,,,,object_05b.png,,,51,,,,1,object_04b.png,object_14a.png,object_01a.png,object_01a.png,,0.8586956521739131,1,,,,,,,,,,,
2835.100000000093,,directmemory_phase4,2276316,,,,,,,,object_15a.png,,,49,,,,1,object_10b.png,object_06a.png,object_05a.png,object_10b.png,,0.8602150537634409,1,,,,,,,,,,,
4587.700000000186,,directmemory_phase4,2280907,,,,,,,,object_11b.png,,,51,,,,1,object_07a.png,object_14c.png,object_08a.png,object_08a.png,,0.8617021276595744,1,,,,,,,,,,,
10441.5,,directmemory_phase4,2291353,,,,,,,,object_06c.png,,,51,,,,1,object_08a.png,object_09c.png,object_07c.png,object_07c.png,,0.8631578947368421,1,,,,,,,,,,,
3085.3000000002794,,directmemory_phase4,2294443,,,,,,,,object_02c.png,,,51,,,,1,object_14b.png,object_03c.png,object_05c.png,object_05c.png,,0.8645833333333334,1,,,,,,,,,,,
3131.100000000093,,directmemory_phase4,2297579,,,,,,,,object_09b.png,,,50,,,,1,object_01b.png,object_13a.png,object_01a.png,object_13a.png,,0.865979381443299,1,,,,,,,,,,,
3471,,directmemory_phase4,2301054,,,,,,,,object_06b.png,,,51,,,,1,object_10c.png,object_05a.png,object_02a.png,object_02a.png,,0.8673469387755102,1,,,,,,,,,,,
4063.7000000001863,,directmemory_phase4,2305124,,,,,,,,object_03b.png,,,49,,,,1,object_05c.png,object_04b.png,object_01c.png,object_05c.png,,0.8686868686868687,1,,,,,,,,,,,
8015.200000000186,,directmemory_phase4,2313144,,,,,,,,object_01b.png,,,51,,,,1,object_01a.png,object_02b.png,object_02a.png,object_02a.png,,0.87,1,,,,,,,,,,,
9383.100000000093,,directmemory_phase4,2322532,,,,,,,,object_13c.png,,,49,,,,1,object_06a.png,object_14b.png,object_09b.png,object_06a.png,,0.8712871287128713,1,,,,,,,,,,,
3888,,directmemory_phase4,2326425,,,,,,,,object_03c.png,,,49,,,,1,object_10a.png,object_08a.png,object_11b.png,object_10a.png,,0.8725490196078431,1,,,,,,,,,,,
3536.6999999997206,,directmemory_phase4,2329966,,,,,,,,object_11c.png,,,50,,,,1,object_07b.png,object_10a.png,object_01a.png,object_10a.png,,0.8737864077669902,1,,,,,,,,,,,
3397.899999999907,,directmemory_phase4,2333369,,,,,,,,object_09a.png,,,51,,,,1,object_07a.png,object_15b.png,object_13a.png,object_13a.png,,0.875,1,,,,,,,,,,,
2131.7000000001863,,directmemory_phase4,2335505,,,,,,,,object_01c.png,,,49,,,,0,object_15b.png,object_08c.png,object_06a.png,object_08c.png,,0.8666666666666667,0,,,,,,,,,,,
3467.399999999907,,directmemory_phase4,2338977,,,,,,,,object_15b.png,,,50,,,,1,object_12c.png,object_07a.png,object_05c.png,object_07a.png,,0.8679245283018868,1,,,,,,,,,,,
3486.600000000093,,directmemory_phase4,2342468,,,,,,,,object_07b.png,,,49,,,,1,object_01a.png,object_08c.png,object_12c.png,object_01a.png,,0.8691588785046729,1,,,,,,,,,,,
3039.9000000003725,,directmemory_phase4,2345513,,,,,,,,object_02b.png,,,51,,,,1,object_05c.png,object_06c.png,object_08c.png,object_08c.png,,0.8703703703703703,1,,,,,,,,,,,
13981.399999999907,,directmemory_phase4,2359499,,,,,,,,object_14c.png,,,49,,,,0,object_04c.png,object_12a.png,object_10c.png,object_10c.png,,0.8623853211009175,0,,,,,,,,,,,
3798.7000000001863,,directmemory_phase4,2363301,,,,,,,,object_12c.png,,,51,,,,1,object_14b.png,object_05a.png,object_08a.png,object_08a.png,,0.8636363636363636,1,,,,,,,,,,,
8581.19999999972,,directmemory_phase4,2371888,,,,,,,,object_03a.png,,,51,,,,0,object_07c.png,object_04b.png,object_11a.png,object_07c.png,,0.8558558558558559,0,,,,,,,,,,,
7375.5,,directmemory_phase4,2379268,,,,,,,,object_09c.png,,,51,,,,1,object_07a.png,object_14a.png,object_04c.png,object_04c.png,,0.8571428571428571,1,,,,,,,,,,,
7416.799999999814,,directmemory_phase4,2386690,,,,,,,,object_14b.png,,,51,,,,0,object_08c.png,object_11a.png,object_15b.png,object_11a.png,,0.8495575221238938,0,,,,,,,,,,,
13624.899999999441,,directmemory_phase4,2400320,,,,,,,,object_04b.png,,,51,,,,0,object_08b.png,object_11a.png,object_10a.png,object_08b.png,,0.8421052631578947,0,,,,,,,,,,,
2702.2000000001863,,directmemory_phase4,2403027,,,,,,,,object_12a.png,,,49,,,,1,object_04b.png,object_14b.png,object_09b.png,object_04b.png,,0.8434782608695652,1,,,,,,,,,,,
2450.7999999998137,,directmemory_phase4,2405482,,,,,,,,object_13b.png,,,49,,,,1,object_10b.png,object_07c.png,object_09b.png,object_10b.png,,0.8448275862068966,1,,,,,,,,,,,
1799,,directmemory_phase4,2407286,,,,,,,,object_14a.png,,,50,,,,1,object_05b.png,object_07a.png,object_07c.png,object_07a.png,,0.8461538461538461,1,,,,,,,,,,,
2691.9000000003725,,directmemory_phase4,2409982,,,,,,,,object_12b.png,,,49,,,,1,object_14b.png,object_10a.png,object_14a.png,object_14b.png,,0.847457627118644,1,,,,,,,,,,,
1686.6000000005588,,directmemory_phase4,2411673,,,,,,,,object_15c.png,,,49,,,,1,object_10c.png,object_04c.png,object_08b.png,object_10c.png,,0.8487394957983193,1,,,,,,,,,,,
2314.7999999998137,,directmemory_phase4,2413993,,,,,,,,object_04a.png,,,50,,,,1,object_05a.png,object_04c.png,object_14b.png,object_04c.png,,0.85,1,,,,,,,,,,,
null,,thebreak,2414101,,,,,,,,<p></p>,,,null,,,,,,,,,,,,,,,,,,,,,,
29798.700000000186,,intro_0,2443903,,,,,,,,instruct,,,32,,,,,,,,,,,,,,,,,,,,,,
29256.900000000373,,intro_1,2473162,,,,,,,,instruct,,,32,,,,,,,,,,,,,,,,,,,,,,
12816.899999999441,,intro_2,2485981,,,,,,,,instruct,,,32,,,,,,,,,,,,,,,,,,,,,,
,,intro_3,2562303,,,,,,,,instruct,,,,,,,,,,,,,,,,,,,,,,,,,
16273.600000000559,,intro_4,2578581,,,,,,,,instruct,,,32,,,,,,,,,,,,,,,,,,,,,,
null,,thebreak,2578691,,,,,,,,<p></p>,,,null,,,,,,,,,,,,,,,,,,,,,,
4143.4000000003725,,intro_0,2582838,,,,,,,,instruct,,,32,,,,,,,,,,,,,,,,,,,,,,
28279.400000000373,,intro_1,2611120,,,,,,,,instruct,,,32,,,,,,,,,,,,,,,,,,,,,,
2414.5999999996275,,intro_2,2613537,,,,,,,,instruct,,,32,,,,,,,,,,,,,,,,,,,,,,
,,intro_3,2635094,,,,,,,,instruct,,,,,,,,,,,,,,,,,,,,,,,,,
1667.2000000001863,,intro_4,2636764,,,,,,,,instruct,,,32,,,,,,,,,,,,,,,,,,,,,,
null,,thebreak,2636875,,,,,,,,<p></p>,,,null,,,,,,,,,,,,,,,,,,,,,,
2153.399999999441,,intro_0,2639031,,,,,,,,instruct,,,32,,,,,,,,,,,,,,,,,,,,,,
1812.7000000001863,,intro_1,2640846,,,,,,,,instruct,,,32,,,,,,,,,,,,,,,,,,,,,,
644.8999999994412,,intro_2,2641493,,,,,,,,instruct,,,32,,,,,,,,,,,,,,,,,,,,,,
,,intro_3,2650125,,,,,,,,instruct,,,,,,,,,,,,,,,,,,,,,,,,,
673.6000000005588,,intro_4,2650802,,,,,,,,instruct,,,32,,,,,,,,,,,,,,,,,,,,,,
null,,thebreak,2650912,,,,,,,,<p></p>,,,null,,,,,,,,,,,,,,,,,,,,,,
691.9000000003725,,intro_0,2651607,,,,,,,,instruct,,,32,,,,,,,,,,,,,,,,,,,,,,
544.1000000005588,,intro_1,2652153,,,,,,,,instruct,,,32,,,,,,,,,,,,,,,,,,,,,,
689.5,,intro_2,2652844,,,,,,,,instruct,,,32,,,,,,,,,,,,,,,,,,,,,,
,,intro_3,2664225,,,,,,,,instruct,,,,,,,,,,,,,,,,,,,,,,,,,
11935.699999999255,,intro_4,2676163,,,,,,,,instruct,,,32,,,,,,,,,,,,,,,,,,,,,,
5169.200000000186,,inference_phase,2681336,,,,,,,,object_02c.png,,,50,object_08a.png,object_09a.png,,1,,,,object_03b.png,,1,,object_03b.png,,,,,,,,,,
4282.5,,inference_phase,2685624,,,,,,,,object_13b.png,,,51,object_04b.png,object_03a.png,,0,,,,object_15a.png,,0.5,,object_15a.png,,,,,,,,,,
8782.899999999441,,inference_phase,2694411,,,,,,,,object_14a.png,,,51,object_04b.png,object_15b.png,,1,,,,object_15b.png,,0.6666666666666666,,object_11a.png,,,,,,,,,,
2676,,inference_phase,2697092,,,,,,,,object_11a.png,,,50,object_03c.png,object_12b.png,,0,,,,object_12b.png,,0.5,,object_10c.png,,,,,,,,,,
2001.3999999994412,,inference_phase,2699098,,,,,,,,object_03a.png,,,49,object_06c.png,object_13c.png,,1,,,,object_06c.png,,0.6,,object_13a.png,,,,,,,,,,
1775.7999999998137,,inference_phase,2700879,,,,,,,,object_05b.png,,,51,object_14b.png,object_03a.png,,0,,,,object_07b.png,,0.5,,object_07b.png,,,,,,,,,,
2647.4000000003725,,inference_phase,2703531,,,,,,,,object_11c.png,,,49,object_01b.png,object_06a.png,,0,,,,object_03c.png,,0.42857142857142855,,object_03c.png,,,,,,,,,,
3757.199999999255,,inference_phase,2707292,,,,,,,,object_09c.png,,,49,object_14b.png,object_05a.png,,0,,,,object_04a.png,,0.375,,object_04a.png,,,,,,,,,,
3245.2999999998137,,inference_phase,2710542,,,,,,,,object_08b.png,,,50,object_12a.png,object_03c.png,,0,,,,object_12a.png,,0.3333333333333333,,object_10c.png,,,,,,,,,,
4896.700000000186,,inference_phase,2715443,,,,,,,,object_02b.png,,,51,object_05c.png,object_01c.png,,1,,,,object_01c.png,,0.4,,object_09a.png,,,,,,,,,,
2285.100000000559,,inference_phase,2717732,,,,,,,,object_09b.png,,,49,object_01a.png,object_15c.png,,0,,,,object_09a.png,,0.36363636363636365,,object_09a.png,,,,,,,,,,
2723.4000000003725,,inference_phase,2720459,,,,,,,,object_15c.png,,,49,object_14c.png,object_05b.png,,1,,,,object_14c.png,,0.4166666666666667,,object_08a.png,,,,,,,,,,
1942.9000000003725,,inference_phase,2722407,,,,,,,,object_13c.png,,,49,object_04c.png,object_05a.png,,0,,,,object_05a.png,,0.38461538461538464,,object_04a.png,,,,,,,,,,
1988.6000000005588,,inference_phase,2724401,,,,,,,,object_06b.png,,,49,object_01b.png,object_09b.png,,1,,,,object_01b.png,,0.42857142857142855,,object_06a.png,,,,,,,,,,
1269.5999999996275,,inference_phase,2725675,,,,,,,,object_12c.png,,,51,object_14c.png,object_11b.png,,1,,,,object_11b.png,,0.4666666666666667,,object_10c.png,,,,,,,,,,
,,survey,2909194,,,,,,,,survey-questions,,,,,,,,,,,,,,,,,high,No I was not doing anything else,I crammed as many pair as I could,Yes. some trials had a repeat of a picture,No,The task was good and impressive ,,,
24790.400000000373,,thank_you,2934048,,,,,,,,<p> Congratulations, you are all done!</p><p> <strong>Please click space on your keyboard to end the experiment!</strong> The secret code to enter at the beginning screen is: <strong>CIMBPENS</strong></p><p> Please make sure to submit the HIT and email uciccnl@gmail.com if you had any issues! </p><br><p>Please remember to submit this data by clicking space after copying the code. Failure of submission will lead to in-complete payment</p>,,,32,,,,,,,,,,,,,,,,,,,,0,0,C78LSMTN
