rt,responses,trial_type,time_elapsed,identifier_a,identifier_b,identifier_c,tasktype,browser_type,local_time,UTC_time,stimulus,button_pressed,response,key_press,stimulus_left,stimulus_right,accuracy,practice_cumulative_accuracy,stimulus_down_left,stimulus_down_mid,stimulus_down_right,stimulus_correct,prac_weighted_accuracy,cumulative_accuracy,weighted_accuracy,stimulus_middle,problems,smooth,distraction,strategies,easier,similar,comments,detectfocus,breakfocus,completion_code
18688.899999976158,{worker_id:64360d6189dec3ac8afc9a78},id_enter,18690,object_01c.png; object_10a.png; object_05b.png; object_06a.png; object_14c.png; object_07c.png; object_02b.png; object_13b.png; object_05c.png; object_02a.png; object_09b.png; object_12c.png; object_04b.png; object_03a.png; object_10b.png,object_11b.png; object_08a.png; object_02c.png; object_01b.png; object_01a.png; object_04a.png; object_15b.png; object_06b.png; object_13c.png; object_04c.png; object_15c.png; object_12a.png; object_08c.png; object_14a.png; object_06c.png,object_09c.png; object_05a.png; object_07b.png; object_12b.png; object_11a.png; object_11c.png; object_13a.png; object_03c.png; object_07a.png; object_09a.png; object_14b.png; object_03b.png; object_08b.png; object_10c.png; object_15a.png,interleaved,Mozilla/5.0 (Windows NT 10.0; Win64; x64) AppleWebKit/537.36 (KHTML, like Gecko) Chrome/135.0.0.0 Safari/537.36,5/2/2025, 3:46:01 PM,2025-05-02 19:46:01.586,,,,,,,,,,,,,,,,,,,,,,,,,,
14254.399999976158,,make_fullscreen,32954,,,,,,,,fullscreen,0,,,,,,,,,,,,,,,,,,,,,,,,
4675.700000047684,,instruct_1,37633,,,,,,,,instruct,0,Next,,,,,,,,,,,,,,,,,,,,,,,
19875,,instruct_2,57509,,,,,,,,instruct,1,Next,,,,,,,,,,,,,,,,,,,,,,,
7069.900000035763,,instruct_3,64579,,,,,,,,instruct,1,Next,,,,,,,,,,,,,,,,,,,,,,,
18606.900000035763,,instruct_4,83187,,,,,,,,instruct,1,Next,,,,,,,,,,,,,,,,,,,,,,,
15223.199999988079,,instruct_5,98413,,,,,,,,instruct,1,Next,,,,,,,,,,,,,,,,,,,,,,,
5265.300000011921,,instruct_6,103679,,,,,,,,instruct,1,Next,,,,,,,,,,,,,,,,,,,,,,,
36202.19999998808,,instruct_7,139882,,,,,,,,instruct,1,Next,,,,,,,,,,,,,,,,,,,,,,,
null,,prac_atten_color_black,140242,,,,,,,,black_plus_sign,,,null,,,,,,,,,,,,,,,,,,,,,,
null,,prac_atten_color,141285,,,,,,,,<p style='position:absolute;top: 50%;right: 50%;transform: translate(50%, -50%);font-size: 125px;color: blue;'>+</p>,,,null,,,,,,,,,,,,,,,,,,,,,,
357.69999998807907,,prac_atten_color_black,143287,,,,,,,,black_plus_sign,,,49,,,,,,,,,,,,,,,,,,,,,,
null,,prac_atten_color_black,143648,,,,,,,,black_plus_sign,,,null,,,,,,,,,,,,,,,,,,,,,,
null,,prac_atten_color,144082,,,,,,,,<p style='position:absolute;top: 50%;right: 50%;transform: translate(50%, -50%);font-size: 125px;color: green;'>+</p>,,,null,,,,,,,,,,,,,,,,,,,,,,
176.80000001192093,,prac_atten_color_black,146083,,,,,,,,black_plus_sign,,,50,,,,,,,,,,,,,,,,,,,,,,
null,,prac_atten_color_black,147052,,,,,,,,black_plus_sign,,,null,,,,,,,,,,,,,,,,,,,,,,
557.3999999761581,,prac_atten_color,147951,,,,,,,,<p style='position:absolute;top: 50%;right: 50%;transform: translate(50%, -50%);font-size: 125px;color: green;'>+</p>,,,50,,,,,,,,,,,,,,,,,,,,,,
null,,prac_atten_color_black,149952,,,,,,,,black_plus_sign,,,null,,,,,,,,,,,,,,,,,,,,,,
null,,prac_atten_color_black,150463,,,,,,,,black_plus_sign,,,null,,,,,,,,,,,,,,,,,,,,,,
340.4000000357628,,prac_atten_color,151457,,,,,,,,<p style='position:absolute;top: 50%;right: 50%;transform: translate(50%, -50%);font-size: 125px;color: blue;'>+</p>,,,49,,,,,,,,,,,,,,,,,,,,,,
null,,prac_atten_color_black,153458,,,,,,,,black_plus_sign,,,null,,,,,,,,,,,,,,,,,,,,,,
null,,prac_atten_color_black,153868,,,,,,,,black_plus_sign,,,null,,,,,,,,,,,,,,,,,,,,,,
278.30000001192093,,prac_atten_color,154788,,,,,,,,<p style='position:absolute;top: 50%;right: 50%;transform: translate(50%, -50%);font-size: 125px;color: green;'>+</p>,,,50,,,,,,,,,,,,,,,,,,,,,,
null,,prac_atten_color_black,156790,,,,,,,,black_plus_sign,,,null,,,,,,,,,,,,,,,,,,,,,,
null,,prac_atten_color_black,157285,,,,,,,,black_plus_sign,,,null,,,,,,,,,,,,,,,,,,,,,,
366.30000001192093,,prac_atten_color,157939,,,,,,,,<p style='position:absolute;top: 50%;right: 50%;transform: translate(50%, -50%);font-size: 125px;color: green;'>+</p>,,,50,,,,,,,,,,,,,,,,,,,,,,
null,,prac_atten_color_black,159941,,,,,,,,black_plus_sign,,,null,,,,,,,,,,,,,,,,,,,,,,
null,,prac_atten_color_black,160696,,,,,,,,black_plus_sign,,,null,,,,,,,,,,,,,,,,,,,,,,
324.60000002384186,,prac_atten_color,161352,,,,,,,,<p style='position:absolute;top: 50%;right: 50%;transform: translate(50%, -50%);font-size: 125px;color: blue;'>+</p>,,,49,,,,,,,,,,,,,,,,,,,,,,
null,,prac_atten_color_black,163353,,,,,,,,black_plus_sign,,,null,,,,,,,,,,,,,,,,,,,,,,
null,,prac_atten_color_black,164101,,,,,,,,black_plus_sign,,,null,,,,,,,,,,,,,,,,,,,,,,
232.19999998807907,,prac_atten_color,164709,,,,,,,,<p style='position:absolute;top: 50%;right: 50%;transform: translate(50%, -50%);font-size: 125px;color: green;'>+</p>,,,50,,,,,,,,,,,,,,,,,,,,,,
null,,prac_atten_color_black,166725,,,,,,,,black_plus_sign,,,null,,,,,,,,,,,,,,,,,,,,,,
null,,prac_atten_color_black,167522,,,,,,,,black_plus_sign,,,null,,,,,,,,,,,,,,,,,,,,,,
324,,prac_atten_color,168199,,,,,,,,<p style='position:absolute;top: 50%;right: 50%;transform: translate(50%, -50%);font-size: 125px;color: blue;'>+</p>,,,49,,,,,,,,,,,,,,,,,,,,,,
null,,prac_atten_color_black,170200,,,,,,,,black_plus_sign,,,null,,,,,,,,,,,,,,,,,,,,,,
null,,prac_atten_color_black,170926,,,,,,,,black_plus_sign,,,null,,,,,,,,,,,,,,,,,,,,,,
326.69999998807907,,prac_atten_color,171782,,,,,,,,<p style='position:absolute;top: 50%;right: 50%;transform: translate(50%, -50%);font-size: 125px;color: blue;'>+</p>,,,50,,,,,,,,,,,,,,,,,,,,,,
null,,prac_atten_color_black,173783,,,,,,,,black_plus_sign,,,null,,,,,,,,,,,,,,,,,,,,,,
11377.800000011921,,attentioncheck_feedback,185162,,,,,,,,cross_check_feedback,0,,,,,,,,,,,,,,,,,,,,,,,,
9055,,last_instruct,194218,,,,,,,,instruct,,,32,,,,,,,,,,,,,,,,,,,,,,
null,,prac_learn_phase(without_color),197720,,,,,,,,black_plus_sign,,,null,object_03b.png,object_12a.png,,,,,,,,,,,,,,,,,,,,
null,,prac_black_cross(without_color),198489,,,,,,,,blue,,,null,object_03b.png,object_12a.png,,,,,,,,,,,,,,,,,,,,
null,,prac_rt_plussign_withcolor,198990,,,,,,,,blue,,,null,object_03b.png,object_12a.png,,,,,,,,,,,,,,,,,,,,
1260.800000011921,,prac_rt_thecrossant_black,200225,,,,,,,,black_plus_sign,,,49,,,1,1,,,,,,,,,,,,,,,,,,
null,,prac_color_black,200339,,,,,,,,black_plus_sign,,,null,,,,,,,,,,,,,,,,,,,,,,
null,,prac_learn_phase(without_color),203841,,,,,,,,black_plus_sign,,,null,object_15b.png,object_02b.png,,,,,,,,,,,,,,,,,,,,
null,,black_cross(without_color)1,204801,,,,,,,,blue,,,null,object_03b.png,object_12a.png,,,,,,,,,,,,,,,,,,,,
392.5,,prac_rt_plussign_withcolor,205313,,,,,,,,green,,,50,object_15b.png,object_02b.png,,,,,,,,,,,,,,,,,,,,
null,,prac_rt_thecrossant_black,206776,,,,,,,,black_plus_sign,,,null,,,1,1,,,,,,,,,,,,,,,,,,
null,,prac_color_black,206879,,,,,,,,black_plus_sign,,,null,,,,,,,,,,,,,,,,,,,,,,
null,,prac_learn_phase(without_color),210380,,,,,,,,black_plus_sign,,,null,object_12a.png,object_12c.png,,,,,,,,,,,,,,,,,,,,
null,,black_cross(without_color)1,211340,,,,,,,,blue,,,null,object_03b.png,object_12a.png,,,,,,,,,,,,,,,,,,,,
null,,prac_rt_plussign_withcolor,211841,,,,,,,,blue,,,null,object_12a.png,object_12c.png,,,,,,,,,,,,,,,,,,,,
721.3999999761581,,prac_rt_thecrossant_black,213123,,,,,,,,black_plus_sign,,,49,,,1,1,,,,,,,,,,,,,,,,,,
null,,prac_color_black,213225,,,,,,,,black_plus_sign,,,null,,,,,,,,,,,,,,,,,,,,,,
null,,prac_learn_phase(without_color),216727,,,,,,,,black_plus_sign,,,null,object_01b.png,object_12b.png,,,,,,,,,,,,,,,,,,,,
null,,black_cross(without_color)1,217687,,,,,,,,blue,,,null,object_03b.png,object_12a.png,,,,,,,,,,,,,,,,,,,,
null,,prac_rt_plussign_withcolor,218189,,,,,,,,blue,,,null,object_01b.png,object_12b.png,,,,,,,,,,,,,,,,,,,,
898.9000000357628,,prac_rt_thecrossant_black,219676,,,,,,,,black_plus_sign,,,49,,,1,1,,,,,,,,,,,,,,,,,,
null,,prac_color_black,219778,,,,,,,,black_plus_sign,,,null,,,,,,,,,,,,,,,,,,,,,,
3458.199999988079,,instruct_dir_01,223237,,,,,,,,instruct,0,Next,,,,,,,,,,,,,,,,,,,,,,,
12072.400000035763,,instruct_dir_2,235311,,,,,,,,instruct,1,Next,,,,,,,,,,,,,,,,,,,,,,,
6520.800000011921,,instruct_dir_3,241832,,,,,,,,instruct,1,Next,,,,,,,,,,,,,,,,,,,,,,,
13842.600000023842,,instruct_dir_4,255676,,,,,,,,instruct,1,Start,,,,,,,,,,,,,,,,,,,,,,,
null,,thebreak,255777,,,,,,,,<p></p>,,,null,,,,,,,,,,,,,,,,,,,,,,
2856.100000023842,,intro_0,258634,,,,,,,,instruct,,,32,,,,,,,,,,,,,,,,,,,,,,
10032.799999952316,,prac_directmemory_phase,268668,,,,,,,,practice/object_03a.png,,,50,,,1,,practice/object_01a.png,practice/object_03b.png,practice/object_04b.png,practice/object_03b.png,1,1,,,,,,,,,,,,
4015.399999976158,,prac_directmemory_phase,272684,,,,,,,,practice/object_04a.png,,,51,,,1,,practice/object_03b.png,practice/object_02a.png,practice/object_04b.png,practice/object_04b.png,1,1,,,,,,,,,,,,
2854.600000023842,,prac_directmemory_phase,275540,,,,,,,,practice/object_01a.png,,,50,,,0,,practice/object_01b.png,practice/object_04b.png,practice/object_02a.png,practice/object_01b.png,0,0.6666666666666666,,,,,,,,,,,,
2432.100000023842,,prac_directmemory_phase,277974,,,,,,,,practice/object_02a.png,,,49,,,1,,practice/object_02b.png,practice/object_01b.png,practice/object_04a.png,practice/object_02b.png,1,0.75,,,,,,,,,,,,
6776.300000011921,,practice_feedback,284752,,,,,,,,practice_feedback,1,,,,,,,,,,,,,,,,,,,,,,,,
11031.100000023842,,proceed_actualTask,295783,,,,,,,,proceed_actualTask,1,Continue,,,,,,,,,,,,,,,,,,,,,,,
23273.799999952316,,last_inst,319058,,,,,,,,last_inst,,,32,,,,,,,,,,,,,,,,,,,,,,
null,,learn_phase(without_color)1,322559,,,,,,,,black_plus_sign,,,null,object_03b.png,object_12a.png,,,,,,,,,,,,,,,,,,,,
null,,black_cross(without_color)1,323519,,,,,,,,blue,,,null,object_03b.png,object_12a.png,,,,,,,,,,,,,,,,,,,,
null,,rt_plussign_withcolor1,324020,,,,,,,,blue,,,null,object_03b.png,object_12a.png,,,,,,,,,,,,,,,,,,,,
778.1999999880791,,rt_thecrossant_black1,325065,,,,,,,,black_plus_sign,,,49,,,1,,,,,,,1,,,,,,,,,,,,
null,,color_black1,325166,,,,,,,,black_plus_sign,,,null,,,,,,,,,,,,,,,,,,,,,,
null,,learn_phase(without_color)1,328669,,,,,,,,black_plus_sign,,,null,object_15b.png,object_02b.png,,,,,,,,,,,,,,,,,,,,
null,,black_cross(without_color)1,329649,,,,,,,,blue,,,null,object_15b.png,object_02b.png,,,,,,,,,,,,,,,,,,,,
null,,rt_plussign_withcolor1,330150,,,,,,,,blue,,,null,object_15b.png,object_02b.png,,,,,,,,,,,,,,,,,,,,
868,,rt_thecrossant_black1,331174,,,,,,,,black_plus_sign,,,49,,,1,,,,,,,1,,,,,,,,,,,,
null,,color_black1,331275,,,,,,,,black_plus_sign,,,null,,,,,,,,,,,,,,,,,,,,,,
null,,learn_phase(without_color)1,334776,,,,,,,,black_plus_sign,,,null,object_12a.png,object_12c.png,,,,,,,,,,,,,,,,,,,,
null,,black_cross(without_color)1,335270,,,,,,,,blue,,,null,object_12a.png,object_12c.png,,,,,,,,,,,,,,,,,,,,
null,,rt_plussign_withcolor1,335772,,,,,,,,blue,,,null,object_12a.png,object_12c.png,,,,,,,,,,,,,,,,,,,,
1245.7999999523163,,rt_thecrossant_black1,337281,,,,,,,,black_plus_sign,,,49,,,1,,,,,,,1,,,,,,,,,,,,
null,,color_black1,337383,,,,,,,,black_plus_sign,,,null,,,,,,,,,,,,,,,,,,,,,,
null,,learn_phase(without_color)1,340885,,,,,,,,black_plus_sign,,,null,object_01b.png,object_12b.png,,,,,,,,,,,,,,,,,,,,
null,,black_cross(without_color)1,341970,,,,,,,,green,,,null,object_01b.png,object_12b.png,,,,,,,,,,,,,,,,,,,,
null,,rt_plussign_withcolor1,342471,,,,,,,,green,,,null,object_01b.png,object_12b.png,,,,,,,,,,,,,,,,,,,,
628.7000000476837,,rt_thecrossant_black1,343390,,,,,,,,black_plus_sign,,,50,,,1,,,,,,,1,,,,,,,,,,,,
null,,color_black1,343493,,,,,,,,black_plus_sign,,,null,,,,,,,,,,,,,,,,,,,,,,
null,,learn_phase(without_color)1,346996,,,,,,,,black_plus_sign,,,null,object_02c.png,object_05b.png,,,,,,,,,,,,,,,,,,,,
null,,black_cross(without_color)1,347851,,,,,,,,green,,,null,object_02c.png,object_05b.png,,,,,,,,,,,,,,,,,,,,
null,,rt_plussign_withcolor1,348352,,,,,,,,green,,,null,object_02c.png,object_05b.png,,,,,,,,,,,,,,,,,,,,
1372.5999999642372,,rt_thecrossant_black1,349500,,,,,,,,black_plus_sign,,,50,,,1,,,,,,,1,,,,,,,,,,,,
null,,color_black1,349602,,,,,,,,black_plus_sign,,,null,,,,,,,,,,,,,,,,,,,,,,
null,,learn_phase(without_color)1,353104,,,,,,,,black_plus_sign,,,null,object_06c.png,object_10b.png,,,,,,,,,,,,,,,,,,,,
null,,black_cross(without_color)1,353538,,,,,,,,blue,,,null,object_06c.png,object_10b.png,,,,,,,,,,,,,,,,,,,,
null,,rt_plussign_withcolor1,354040,,,,,,,,blue,,,null,object_06c.png,object_10b.png,,,,,,,,,,,,,,,,,,,,
1071.0999999642372,,rt_thecrossant_black1,355609,,,,,,,,black_plus_sign,,,50,,,0,,,,,,,0.8333333333333334,,,,,,,,,,,,
null,,color_black1,355711,,,,,,,,black_plus_sign,,,null,,,,,,,,,,,,,,,,,,,,,,
null,,learn_phase(without_color)1,359213,,,,,,,,black_plus_sign,,,null,object_08b.png,object_08c.png,,,,,,,,,,,,,,,,,,,,
null,,black_cross(without_color)1,359863,,,,,,,,green,,,null,object_08b.png,object_08c.png,,,,,,,,,,,,,,,,,,,,
null,,rt_plussign_withcolor1,360364,,,,,,,,green,,,null,object_08b.png,object_08c.png,,,,,,,,,,,,,,,,,,,,
621.3999999761581,,rt_thecrossant_black1,361719,,,,,,,,black_plus_sign,,,50,,,1,,,,,,,0.8571428571428571,,,,,,,,,,,,
null,,color_black1,361821,,,,,,,,black_plus_sign,,,null,,,,,,,,,,,,,,,,,,,,,,
null,,learn_phase(without_color)1,365322,,,,,,,,black_plus_sign,,,null,object_07b.png,object_02c.png,,,,,,,,,,,,,,,,,,,,
null,,black_cross(without_color)1,366176,,,,,,,,green,,,null,object_07b.png,object_02c.png,,,,,,,,,,,,,,,,,,,,
449,,rt_plussign_withcolor1,366677,,,,,,,,green,,,50,object_07b.png,object_02c.png,,,,,,,,,,,,,,,,,,,,
null,,rt_thecrossant_black1,367827,,,,,,,,black_plus_sign,,,null,,,1,,,,,,,0.875,,,,,,,,,,,,
null,,color_black1,367930,,,,,,,,black_plus_sign,,,null,,,,,,,,,,,,,,,,,,,,,,
null,,learn_phase(without_color)1,371432,,,,,,,,black_plus_sign,,,null,object_13b.png,object_06b.png,,,,,,,,,,,,,,,,,,,,
null,,black_cross(without_color)1,372014,,,,,,,,green,,,null,object_13b.png,object_06b.png,,,,,,,,,,,,,,,,,,,,
459.30000001192093,,rt_plussign_withcolor1,372516,,,,,,,,green,,,50,object_13b.png,object_06b.png,,,,,,,,,,,,,,,,,,,,
null,,rt_thecrossant_black1,373940,,,,,,,,black_plus_sign,,,null,,,1,,,,,,,0.8888888888888888,,,,,,,,,,,,
null,,color_black1,374043,,,,,,,,black_plus_sign,,,null,,,,,,,,,,,,,,,,,,,,,,
null,,learn_phase(without_color)1,377545,,,,,,,,black_plus_sign,,,null,object_15b.png,object_13a.png,,,,,,,,,,,,,,,,,,,,
null,,black_cross(without_color)1,378365,,,,,,,,green,,,null,object_15b.png,object_13a.png,,,,,,,,,,,,,,,,,,,,
325.9000000357628,,rt_plussign_withcolor1,378866,,,,,,,,green,,,50,object_15b.png,object_13a.png,,,,,,,,,,,,,,,,,,,,
null,,rt_thecrossant_black1,380050,,,,,,,,black_plus_sign,,,null,,,1,,,,,,,0.9,,,,,,,,,,,,
null,,color_black1,380151,,,,,,,,black_plus_sign,,,null,,,,,,,,,,,,,,,,,,,,,,
null,,learn_phase(without_color)1,383653,,,,,,,,black_plus_sign,,,null,object_08a.png,object_05a.png,,,,,,,,,,,,,,,,,,,,
null,,black_cross(without_color)1,384690,,,,,,,,green,,,null,object_08a.png,object_05a.png,,,,,,,,,,,,,,,,,,,,
null,,rt_plussign_withcolor1,385191,,,,,,,,green,,,null,object_08a.png,object_05a.png,,,,,,,,,,,,,,,,,,,,
944.5,,rt_thecrossant_black1,386159,,,,,,,,black_plus_sign,,,50,,,1,,,,,,,0.9090909090909091,,,,,,,,,,,,
null,,color_black1,386261,,,,,,,,black_plus_sign,,,null,,,,,,,,,,,,,,,,,,,,,,
null,,learn_phase(without_color)1,389763,,,,,,,,black_plus_sign,,,null,object_09b.png,object_15c.png,,,,,,,,,,,,,,,,,,,,
null,,black_cross(without_color)1,390307,,,,,,,,green,,,null,object_09b.png,object_15c.png,,,,,,,,,,,,,,,,,,,,
401.5,,rt_plussign_withcolor1,390808,,,,,,,,green,,,50,object_09b.png,object_15c.png,,,,,,,,,,,,,,,,,,,,
null,,rt_thecrossant_black1,392269,,,,,,,,black_plus_sign,,,null,,,1,,,,,,,0.9166666666666666,,,,,,,,,,,,
null,,color_black1,392371,,,,,,,,black_plus_sign,,,null,,,,,,,,,,,,,,,,,,,,,,
null,,learn_phase(without_color)1,395873,,,,,,,,black_plus_sign,,,null,object_10a.png,object_08a.png,,,,,,,,,,,,,,,,,,,,
null,,black_cross(without_color)1,396351,,,,,,,,blue,,,null,object_10a.png,object_08a.png,,,,,,,,,,,,,,,,,,,,
null,,rt_plussign_withcolor1,396852,,,,,,,,blue,,,null,object_10a.png,object_08a.png,,,,,,,,,,,,,,,,,,,,
737.8000000119209,,rt_thecrossant_black1,398379,,,,,,,,black_plus_sign,,,49,,,1,,,,,,,0.9230769230769231,,,,,,,,,,,,
null,,color_black1,398482,,,,,,,,black_plus_sign,,,null,,,,,,,,,,,,,,,,,,,,,,
null,,learn_phase(without_color)1,401984,,,,,,,,black_plus_sign,,,null,object_11b.png,object_09c.png,,,,,,,,,,,,,,,,,,,,
null,,black_cross(without_color)1,402988,,,,,,,,green,,,null,object_11b.png,object_09c.png,,,,,,,,,,,,,,,,,,,,
450.30000001192093,,rt_plussign_withcolor1,403489,,,,,,,,green,,,50,object_11b.png,object_09c.png,,,,,,,,,,,,,,,,,,,,
null,,rt_thecrossant_black1,404489,,,,,,,,black_plus_sign,,,null,,,1,,,,,,,0.9285714285714286,,,,,,,,,,,,
null,,color_black1,404591,,,,,,,,black_plus_sign,,,null,,,,,,,,,,,,,,,,,,,,,,
null,,learn_phase(without_color)1,408093,,,,,,,,black_plus_sign,,,null,object_02a.png,object_04c.png,,,,,,,,,,,,,,,,,,,,
null,,black_cross(without_color)1,409015,,,,,,,,blue,,,null,object_02a.png,object_04c.png,,,,,,,,,,,,,,,,,,,,
null,,rt_plussign_withcolor1,409516,,,,,,,,blue,,,null,object_02a.png,object_04c.png,,,,,,,,,,,,,,,,,,,,
1238.300000011921,,rt_thecrossant_black1,410598,,,,,,,,black_plus_sign,,,50,,,0,,,,,,,0.8666666666666667,,,,,,,,,,,,
null,,color_black1,410700,,,,,,,,black_plus_sign,,,null,,,,,,,,,,,,,,,,,,,,,,
null,,learn_phase(without_color)1,414201,,,,,,,,black_plus_sign,,,null,object_15a.png,object_06c.png,,,,,,,,,,,,,,,,,,,,
null,,black_cross(without_color)1,415182,,,,,,,,green,,,null,object_15a.png,object_06c.png,,,,,,,,,,,,,,,,,,,,
null,,rt_plussign_withcolor1,415684,,,,,,,,green,,,null,object_15a.png,object_06c.png,,,,,,,,,,,,,,,,,,,,
1101.699999988079,,rt_thecrossant_black1,416708,,,,,,,,black_plus_sign,,,50,,,1,,,,,,,0.875,,,,,,,,,,,,
null,,color_black1,416809,,,,,,,,black_plus_sign,,,null,,,,,,,,,,,,,,,,,,,,,,
null,,learn_phase(without_color)1,420311,,,,,,,,black_plus_sign,,,null,object_01a.png,object_11a.png,,,,,,,,,,,,,,,,,,,,
null,,black_cross(without_color)1,420963,,,,,,,,green,,,null,object_01a.png,object_11a.png,,,,,,,,,,,,,,,,,,,,
427.69999998807907,,rt_plussign_withcolor1,421464,,,,,,,,green,,,50,object_01a.png,object_11a.png,,,,,,,,,,,,,,,,,,,,
null,,rt_thecrossant_black1,422831,,,,,,,,black_plus_sign,,,null,,,1,,,,,,,0.8823529411764706,,,,,,,,,,,,
null,,color_black1,422933,,,,,,,,black_plus_sign,,,null,,,,,,,,,,,,,,,,,,,,,,
null,,learn_phase(without_color)1,426436,,,,,,,,black_plus_sign,,,null,object_11b.png,object_01c.png,,,,,,,,,,,,,,,,,,,,
null,,black_cross(without_color)1,427448,,,,,,,,blue,,,null,object_11b.png,object_01c.png,,,,,,,,,,,,,,,,,,,,
null,,rt_plussign_withcolor1,427951,,,,,,,,blue,,,null,object_11b.png,object_01c.png,,,,,,,,,,,,,,,,,,,,
758.4000000357628,,rt_thecrossant_black1,428942,,,,,,,,black_plus_sign,,,49,,,1,,,,,,,0.8888888888888888,,,,,,,,,,,,
null,,color_black1,429044,,,,,,,,black_plus_sign,,,null,,,,,,,,,,,,,,,,,,,,,,
null,,learn_phase(without_color)1,432546,,,,,,,,black_plus_sign,,,null,object_04a.png,object_07c.png,,,,,,,,,,,,,,,,,,,,
null,,black_cross(without_color)1,433196,,,,,,,,green,,,null,object_04a.png,object_07c.png,,,,,,,,,,,,,,,,,,,,
null,,rt_plussign_withcolor1,433698,,,,,,,,green,,,null,object_04a.png,object_07c.png,,,,,,,,,,,,,,,,,,,,
1117.300000011921,,rt_thecrossant_black1,435051,,,,,,,,black_plus_sign,,,50,,,1,,,,,,,0.8947368421052632,,,,,,,,,,,,
null,,color_black1,435152,,,,,,,,black_plus_sign,,,null,,,,,,,,,,,,,,,,,,,,,,
null,,learn_phase(without_color)1,438654,,,,,,,,black_plus_sign,,,null,object_04b.png,object_08c.png,,,,,,,,,,,,,,,,,,,,
null,,black_cross(without_color)1,439370,,,,,,,,blue,,,null,object_04b.png,object_08c.png,,,,,,,,,,,,,,,,,,,,
null,,rt_plussign_withcolor1,439872,,,,,,,,blue,,,null,object_04b.png,object_08c.png,,,,,,,,,,,,,,,,,,,,
750,,rt_thecrossant_black1,441160,,,,,,,,black_plus_sign,,,49,,,1,,,,,,,0.9,,,,,,,,,,,,
null,,color_black1,441262,,,,,,,,black_plus_sign,,,null,,,,,,,,,,,,,,,,,,,,,,
null,,learn_phase(without_color)1,444764,,,,,,,,black_plus_sign,,,null,object_01a.png,object_14c.png,,,,,,,,,,,,,,,,,,,,
null,,black_cross(without_color)1,445684,,,,,,,,green,,,null,object_01a.png,object_14c.png,,,,,,,,,,,,,,,,,,,,
382.60000002384186,,rt_plussign_withcolor1,446186,,,,,,,,green,,,50,object_01a.png,object_14c.png,,,,,,,,,,,,,,,,,,,,
null,,rt_thecrossant_black1,447269,,,,,,,,black_plus_sign,,,null,,,1,,,,,,,0.9047619047619048,,,,,,,,,,,,
null,,color_black1,447371,,,,,,,,black_plus_sign,,,null,,,,,,,,,,,,,,,,,,,,,,
null,,learn_phase(without_color)1,450873,,,,,,,,black_plus_sign,,,null,object_09a.png,object_04c.png,,,,,,,,,,,,,,,,,,,,
null,,black_cross(without_color)1,451795,,,,,,,,blue,,,null,object_09a.png,object_04c.png,,,,,,,,,,,,,,,,,,,,
null,,rt_plussign_withcolor1,452298,,,,,,,,blue,,,null,object_09a.png,object_04c.png,,,,,,,,,,,,,,,,,,,,
1019.5,,rt_thecrossant_black1,453379,,,,,,,,black_plus_sign,,,49,,,1,,,,,,,0.9090909090909091,,,,,,,,,,,,
null,,color_black1,453481,,,,,,,,black_plus_sign,,,null,,,,,,,,,,,,,,,,,,,,,,
null,,learn_phase(without_color)1,456983,,,,,,,,black_plus_sign,,,null,object_11c.png,object_04a.png,,,,,,,,,,,,,,,,,,,,
null,,black_cross(without_color)1,457588,,,,,,,,green,,,null,object_11c.png,object_04a.png,,,,,,,,,,,,,,,,,,,,
473.10000002384186,,rt_plussign_withcolor1,458089,,,,,,,,green,,,50,object_11c.png,object_04a.png,,,,,,,,,,,,,,,,,,,,
null,,rt_thecrossant_black1,459492,,,,,,,,black_plus_sign,,,null,,,1,,,,,,,0.9130434782608695,,,,,,,,,,,,
null,,color_black1,459594,,,,,,,,black_plus_sign,,,null,,,,,,,,,,,,,,,,,,,,,,
null,,learn_phase(without_color)1,463096,,,,,,,,black_plus_sign,,,null,object_05c.png,object_13c.png,,,,,,,,,,,,,,,,,,,,
null,,black_cross(without_color)1,463544,,,,,,,,green,,,null,object_05c.png,object_13c.png,,,,,,,,,,,,,,,,,,,,
494.0999999642372,,rt_plussign_withcolor1,464045,,,,,,,,green,,,50,object_05c.png,object_13c.png,,,,,,,,,,,,,,,,,,,,
null,,rt_thecrossant_black1,465600,,,,,,,,black_plus_sign,,,null,,,1,,,,,,,0.9166666666666666,,,,,,,,,,,,
null,,color_black1,465701,,,,,,,,black_plus_sign,,,null,,,,,,,,,,,,,,,,,,,,,,
null,,learn_phase(without_color)1,469203,,,,,,,,black_plus_sign,,,null,object_14a.png,object_10c.png,,,,,,,,,,,,,,,,,,,,
null,,black_cross(without_color)1,470044,,,,,,,,blue,,,null,object_14a.png,object_10c.png,,,,,,,,,,,,,,,,,,,,
481.69999998807907,,rt_plussign_withcolor1,470545,,,,,,,,blue,,,49,object_14a.png,object_10c.png,,,,,,,,,,,,,,,,,,,,
null,,rt_thecrossant_black1,471708,,,,,,,,black_plus_sign,,,null,,,1,,,,,,,0.92,,,,,,,,,,,,
null,,color_black1,471810,,,,,,,,black_plus_sign,,,null,,,,,,,,,,,,,,,,,,,,,,
null,,learn_phase(without_color)1,475312,,,,,,,,black_plus_sign,,,null,object_06a.png,object_01b.png,,,,,,,,,,,,,,,,,,,,
null,,black_cross(without_color)1,475729,,,,,,,,blue,,,null,object_06a.png,object_01b.png,,,,,,,,,,,,,,,,,,,,
null,,rt_plussign_withcolor1,476231,,,,,,,,blue,,,null,object_06a.png,object_01b.png,,,,,,,,,,,,,,,,,,,,
1026.699999988079,,rt_thecrossant_black1,477817,,,,,,,,black_plus_sign,,,50,,,0,,,,,,,0.8846153846153846,,,,,,,,,,,,
null,,color_black1,477919,,,,,,,,black_plus_sign,,,null,,,,,,,,,,,,,,,,,,,,,,
null,,learn_phase(without_color)1,481421,,,,,,,,black_plus_sign,,,null,object_14b.png,object_15c.png,,,,,,,,,,,,,,,,,,,,
null,,black_cross(without_color)1,482483,,,,,,,,green,,,null,object_14b.png,object_15c.png,,,,,,,,,,,,,,,,,,,,
435.60000002384186,,rt_plussign_withcolor1,482985,,,,,,,,green,,,50,object_14b.png,object_15c.png,,,,,,,,,,,,,,,,,,,,
null,,rt_thecrossant_black1,483927,,,,,,,,black_plus_sign,,,null,,,1,,,,,,,0.8888888888888888,,,,,,,,,,,,
null,,color_black1,484028,,,,,,,,black_plus_sign,,,null,,,,,,,,,,,,,,,,,,,,,,
null,,learn_phase(without_color)1,487530,,,,,,,,black_plus_sign,,,null,object_13c.png,object_07a.png,,,,,,,,,,,,,,,,,,,,
null,,black_cross(without_color)1,487972,,,,,,,,blue,,,null,object_13c.png,object_07a.png,,,,,,,,,,,,,,,,,,,,
435.7999999523163,,rt_plussign_withcolor1,488473,,,,,,,,blue,,,49,object_13c.png,object_07a.png,,,,,,,,,,,,,,,,,,,,
null,,rt_thecrossant_black1,490036,,,,,,,,black_plus_sign,,,null,,,1,,,,,,,0.8928571428571429,,,,,,,,,,,,
null,,color_black1,490139,,,,,,,,black_plus_sign,,,null,,,,,,,,,,,,,,,,,,,,,,
null,,learn_phase(without_color)1,493641,,,,,,,,black_plus_sign,,,null,object_14a.png,object_03a.png,,,,,,,,,,,,,,,,,,,,
null,,black_cross(without_color)1,494679,,,,,,,,green,,,null,object_14a.png,object_03a.png,,,,,,,,,,,,,,,,,,,,
329.19999998807907,,rt_plussign_withcolor1,495181,,,,,,,,green,,,50,object_14a.png,object_03a.png,,,,,,,,,,,,,,,,,,,,
null,,rt_thecrossant_black1,496145,,,,,,,,black_plus_sign,,,null,,,1,,,,,,,0.896551724137931,,,,,,,,,,,,
null,,color_black1,496247,,,,,,,,black_plus_sign,,,null,,,,,,,,,,,,,,,,,,,,,,
null,,learn_phase(without_color)1,499749,,,,,,,,black_plus_sign,,,null,object_06b.png,object_03c.png,,,,,,,,,,,,,,,,,,,,
null,,black_cross(without_color)1,500677,,,,,,,,blue,,,null,object_06b.png,object_03c.png,,,,,,,,,,,,,,,,,,,,
null,,rt_plussign_withcolor1,501179,,,,,,,,blue,,,null,object_06b.png,object_03c.png,,,,,,,,,,,,,,,,,,,,
null,,rt_thecrossant_black1,502256,,,,,,,,black_plus_sign,,,null,,,,,,,,,,0.896551724137931,,,,,,,,,,,,
null,,color_black1,502358,,,,,,,,black_plus_sign,,,null,,,,,,,,,,,,,,,,,,,,,,
null,,thebreak,502461,,,,,,,,<p></p>,,,null,,,,,,,,,,,,,,,,,,,,,,
2484.800000011921,,intro_0,504947,,,,,,,,instruct,,,32,,,,,,,,,,,,,,,,,,,,,,
5943.699999988079,,directmemory_phase1,510891,,,,,,,,object_11c.png,,,51,,,1,,object_08c.png,object_05a.png,object_04a.png,object_04a.png,,1,1,,,,,,,,,,,
6177.199999988079,,directmemory_phase1,517070,,,,,,,,object_03a.png,,,50,,,0,,object_14a.png,object_06b.png,object_02a.png,object_14a.png,,0.5,0,,,,,,,,,,,
5565.399999976158,,directmemory_phase1,522637,,,,,,,,object_13c.png,,,50,,,0,,object_09a.png,object_11b.png,object_07a.png,object_07a.png,,0.3333333333333333,0,,,,,,,,,,,
4319.5,,directmemory_phase1,526958,,,,,,,,object_09b.png,,,49,,,0,,object_01b.png,object_02b.png,object_15c.png,object_15c.png,,0.25,0,,,,,,,,,,,
1952,,directmemory_phase1,528910,,,,,,,,object_10a.png,,,49,,,1,,object_08a.png,object_11b.png,object_12c.png,object_08a.png,,0.4,1,,,,,,,,,,,
3295.5,,directmemory_phase1,532207,,,,,,,,object_04b.png,,,49,,,0,,object_13c.png,object_03a.png,object_08c.png,object_08c.png,,0.3333333333333333,0,,,,,,,,,,,
3261.199999988079,,directmemory_phase1,535470,,,,,,,,object_07b.png,,,50,,,1,,object_07a.png,object_02c.png,object_14a.png,object_02c.png,,0.42857142857142855,1,,,,,,,,,,,
3137.100000023842,,directmemory_phase1,538608,,,,,,,,object_10b.png,,,50,,,1,,object_03a.png,object_06c.png,object_15c.png,object_06c.png,,0.5,1,,,,,,,,,,,
4302.399999976158,,directmemory_phase1,542912,,,,,,,,object_08b.png,,,50,,,1,,object_11c.png,object_08c.png,object_01b.png,object_08c.png,,0.5555555555555556,1,,,,,,,,,,,
1646,,directmemory_phase1,544559,,,,,,,,object_07c.png,,,49,,,1,,object_04a.png,object_08c.png,object_13b.png,object_04a.png,,0.6,1,,,,,,,,,,,
3784,,directmemory_phase1,548344,,,,,,,,object_08a.png,,,51,,,0,,object_01b.png,object_05a.png,object_07a.png,object_05a.png,,0.5454545454545454,0,,,,,,,,,,,
2552.100000023842,,directmemory_phase1,550898,,,,,,,,object_14c.png,,,50,,,0,,object_02c.png,object_05b.png,object_01a.png,object_01a.png,,0.5,0,,,,,,,,,,,
1861.800000011921,,directmemory_phase1,552761,,,,,,,,object_06c.png,,,49,,,0,,object_12b.png,object_11b.png,object_15a.png,object_15a.png,,0.46153846153846156,0,,,,,,,,,,,
3312.2999999523163,,directmemory_phase1,556074,,,,,,,,object_05b.png,,,50,,,0,,object_02c.png,object_08c.png,object_09b.png,object_02c.png,,0.42857142857142855,0,,,,,,,,,,,
4215.699999988079,,directmemory_phase1,560291,,,,,,,,object_12b.png,,,50,,,1,,object_09a.png,object_01b.png,object_04a.png,object_01b.png,,0.4666666666666667,1,,,,,,,,,,,
2615,,directmemory_phase1,562908,,,,,,,,object_06b.png,,,51,,,0,,object_12a.png,object_03c.png,object_07b.png,object_03c.png,,0.4375,0,,,,,,,,,,,
2126,,directmemory_phase1,565035,,,,,,,,object_13a.png,,,51,,,0,,object_15b.png,object_04c.png,object_11a.png,object_15b.png,,0.4117647058823529,0,,,,,,,,,,,
2519.5,,directmemory_phase1,567556,,,,,,,,object_02a.png,,,49,,,0,,object_01a.png,object_05c.png,object_04c.png,object_04c.png,,0.3888888888888889,0,,,,,,,,,,,
4757.399999976158,,directmemory_phase1,572315,,,,,,,,object_02b.png,,,49,,,0,,object_03a.png,object_15b.png,object_15c.png,object_15b.png,,0.3684210526315789,0,,,,,,,,,,,
3040.100000023842,,directmemory_phase1,575356,,,,,,,,object_12a.png,,,51,,,0,,object_03b.png,object_07a.png,object_15b.png,object_03b.png,,0.35,0,,,,,,,,,,,
3168.100000023842,,directmemory_phase1,578525,,,,,,,,object_14b.png,,,50,,,1,,object_07a.png,object_15c.png,object_04c.png,object_15c.png,,0.38095238095238093,1,,,,,,,,,,,
3479.300000011921,,directmemory_phase1,582006,,,,,,,,object_06a.png,,,49,,,0,,object_15b.png,object_09b.png,object_01b.png,object_01b.png,,0.36363636363636365,0,,,,,,,,,,,
2541.800000011921,,directmemory_phase1,584549,,,,,,,,object_01c.png,,,50,,,0,,object_11b.png,object_02c.png,object_12c.png,object_11b.png,,0.34782608695652173,0,,,,,,,,,,,
2935.599999964237,,directmemory_phase1,587486,,,,,,,,object_11a.png,,,50,,,0,,object_01a.png,object_11b.png,object_03c.png,object_01a.png,,0.3333333333333333,0,,,,,,,,,,,
2199.399999976158,,directmemory_phase1,589687,,,,,,,,object_13b.png,,,50,,,1,,object_04b.png,object_06b.png,object_13c.png,object_06b.png,,0.36,1,,,,,,,,,,,
3215.7000000476837,,directmemory_phase1,592903,,,,,,,,object_04c.png,,,50,,,1,,object_04a.png,object_09a.png,object_13a.png,object_09a.png,,0.38461538461538464,1,,,,,,,,,,,
3366.5,,directmemory_phase1,596271,,,,,,,,object_14a.png,,,51,,,0,,object_01a.png,object_10c.png,object_11a.png,object_10c.png,,0.37037037037037035,0,,,,,,,,,,,
2295.5,,directmemory_phase1,598568,,,,,,,,object_09c.png,,,49,,,1,,object_11b.png,object_04a.png,object_05a.png,object_11b.png,,0.39285714285714285,1,,,,,,,,,,,
2677.7999999523163,,directmemory_phase1,601248,,,,,,,,object_05c.png,,,49,,,1,,object_13c.png,object_15b.png,object_05b.png,object_13c.png,,0.41379310344827586,1,,,,,,,,,,,
3102.400000035763,,directmemory_phase1,604352,,,,,,,,object_12c.png,,,50,,,1,,object_02a.png,object_12a.png,object_04c.png,object_12a.png,,0.43333333333333335,1,,,,,,,,,,,
null,,thebreak,604454,,,,,,,,<p></p>,,,null,,,,,,,,,,,,,,,,,,,,,,
1921.8999999761581,,intro_0,606376,,,,,,,,instruct,,,32,,,,,,,,,,,,,,,,,,,,,,
null,,learn_phase(without_color)2,609879,,,,,,,,black_plus_sign,,,null,object_06c.png,object_10b.png,,,,,,,,,,,,,,,,,,,,
null,,black_cross(without_color)2,610728,,,,,,,,green,,,null,object_06c.png,object_10b.png,,,,,,,,,,,,,,,,,,,,
null,,rt_plussign_withcolor2,611230,,,,,,,,green,,,null,object_06c.png,object_10b.png,,,,,,,,,,,,,,,,,,,,
null,,rt_thecrossant_black2,612385,,,,,,,,black_plus_sign,,,null,,,,,,,,,,NaN,,,,,,,,,,,,
null,,warning_page,617387,,,,,,,,warning,,,null,,,,,,,,,,,,,,,,,,,,,,
null,,color_black2,617489,,,,,,,,black_plus_sign,,,null,,,,,,,,,,,,,,,,,,,,,,
null,,learn_phase(without_color)2,620991,,,,,,,,black_plus_sign,,,null,object_01b.png,object_12b.png,,,,,,,,,,,,,,,,,,,,
null,,black_cross(without_color)2,621962,,,,,,,,green,,,null,object_01b.png,object_12b.png,,,,,,,,,,,,,,,,,,,,
null,,rt_plussign_withcolor2,622477,,,,,,,,green,,,null,object_01b.png,object_12b.png,,,,,,,,,,,,,,,,,,,,
1264.199999988079,,rt_thecrossant_black2,623510,,,,,,,,black_plus_sign,,,50,,,1,,,,,,,1,,,,,,,,,,,,
null,,color_black2,623613,,,,,,,,black_plus_sign,,,null,,,,,,,,,,,,,,,,,,,,,,
null,,learn_phase(without_color)2,627114,,,,,,,,black_plus_sign,,,null,object_02c.png,object_07b.png,,,,,,,,,,,,,,,,,,,,
null,,black_cross(without_color)2,627965,,,,,,,,green,,,null,object_02c.png,object_07b.png,,,,,,,,,,,,,,,,,,,,
null,,rt_plussign_withcolor2,628466,,,,,,,,green,,,null,object_02c.png,object_07b.png,,,,,,,,,,,,,,,,,,,,
1116.8999999761581,,rt_thecrossant_black2,629619,,,,,,,,black_plus_sign,,,50,,,1,,,,,,,1,,,,,,,,,,,,
null,,color_black2,629721,,,,,,,,black_plus_sign,,,null,,,,,,,,,,,,,,,,,,,,,,
null,,learn_phase(without_color)2,633222,,,,,,,,black_plus_sign,,,null,object_11a.png,object_01a.png,,,,,,,,,,,,,,,,,,,,
null,,black_cross(without_color)2,634194,,,,,,,,green,,,null,object_11a.png,object_01a.png,,,,,,,,,,,,,,,,,,,,
null,,rt_plussign_withcolor2,634696,,,,,,,,green,,,null,object_11a.png,object_01a.png,,,,,,,,,,,,,,,,,,,,
1161.300000011921,,rt_thecrossant_black2,635728,,,,,,,,black_plus_sign,,,50,,,1,,,,,,,1,,,,,,,,,,,,
null,,color_black2,635829,,,,,,,,black_plus_sign,,,null,,,,,,,,,,,,,,,,,,,,,,
null,,learn_phase(without_color)2,639331,,,,,,,,black_plus_sign,,,null,object_13b.png,object_06b.png,,,,,,,,,,,,,,,,,,,,
null,,black_cross(without_color)2,640328,,,,,,,,blue,,,null,object_13b.png,object_06b.png,,,,,,,,,,,,,,,,,,,,
null,,rt_plussign_withcolor2,640829,,,,,,,,blue,,,null,object_13b.png,object_06b.png,,,,,,,,,,,,,,,,,,,,
1148.699999988079,,rt_thecrossant_black2,641836,,,,,,,,black_plus_sign,,,50,,,0,,,,,,,0.75,,,,,,,,,,,,
null,,color_black2,641939,,,,,,,,black_plus_sign,,,null,,,,,,,,,,,,,,,,,,,,,,
null,,learn_phase(without_color)2,645442,,,,,,,,black_plus_sign,,,null,object_14b.png,object_15c.png,,,,,,,,,,,,,,,,,,,,
null,,black_cross(without_color)2,646408,,,,,,,,green,,,null,object_14b.png,object_15c.png,,,,,,,,,,,,,,,,,,,,
null,,rt_plussign_withcolor2,646910,,,,,,,,green,,,null,object_14b.png,object_15c.png,,,,,,,,,,,,,,,,,,,,
1325.6000000238419,,rt_thecrossant_black2,647949,,,,,,,,black_plus_sign,,,50,,,1,,,,,,,0.8,,,,,,,,,,,,
null,,color_black2,648051,,,,,,,,black_plus_sign,,,null,,,,,,,,,,,,,,,,,,,,,,
null,,learn_phase(without_color)2,651553,,,,,,,,black_plus_sign,,,null,object_12a.png,object_12c.png,,,,,,,,,,,,,,,,,,,,
null,,black_cross(without_color)2,652081,,,,,,,,green,,,null,object_12a.png,object_12c.png,,,,,,,,,,,,,,,,,,,,
null,,rt_plussign_withcolor2,652582,,,,,,,,green,,,null,object_12a.png,object_12c.png,,,,,,,,,,,,,,,,,,,,
1111.0999999642372,,rt_thecrossant_black2,654058,,,,,,,,black_plus_sign,,,50,,,1,,,,,,,0.8333333333333334,,,,,,,,,,,,
null,,color_black2,654161,,,,,,,,black_plus_sign,,,null,,,,,,,,,,,,,,,,,,,,,,
null,,learn_phase(without_color)2,657663,,,,,,,,black_plus_sign,,,null,object_06b.png,object_03c.png,,,,,,,,,,,,,,,,,,,,
null,,black_cross(without_color)2,658360,,,,,,,,green,,,null,object_06b.png,object_03c.png,,,,,,,,,,,,,,,,,,,,
439.39999997615814,,rt_plussign_withcolor2,658865,,,,,,,,green,,,50,object_06b.png,object_03c.png,,,,,,,,,,,,,,,,,,,,
null,,rt_thecrossant_black2,660173,,,,,,,,black_plus_sign,,,null,,,1,,,,,,,0.8571428571428571,,,,,,,,,,,,
null,,color_black2,660275,,,,,,,,black_plus_sign,,,null,,,,,,,,,,,,,,,,,,,,,,
null,,learn_phase(without_color)2,663778,,,,,,,,black_plus_sign,,,null,object_05a.png,object_08a.png,,,,,,,,,,,,,,,,,,,,
null,,black_cross(without_color)2,664323,,,,,,,,blue,,,null,object_05a.png,object_08a.png,,,,,,,,,,,,,,,,,,,,
null,,rt_plussign_withcolor2,664836,,,,,,,,blue,,,null,object_05a.png,object_08a.png,,,,,,,,,,,,,,,,,,,,
1029,,rt_thecrossant_black2,666295,,,,,,,,black_plus_sign,,,49,,,1,,,,,,,0.875,,,,,,,,,,,,
null,,color_black2,666402,,,,,,,,black_plus_sign,,,null,,,,,,,,,,,,,,,,,,,,,,
null,,learn_phase(without_color)2,669904,,,,,,,,black_plus_sign,,,null,object_08c.png,object_04b.png,,,,,,,,,,,,,,,,,,,,
null,,black_cross(without_color)2,670829,,,,,,,,green,,,null,object_08c.png,object_04b.png,,,,,,,,,,,,,,,,,,,,
411.39999997615814,,rt_plussign_withcolor2,671331,,,,,,,,green,,,50,object_08c.png,object_04b.png,,,,,,,,,,,,,,,,,,,,
null,,rt_thecrossant_black2,672413,,,,,,,,black_plus_sign,,,null,,,1,,,,,,,0.8888888888888888,,,,,,,,,,,,
null,,color_black2,672515,,,,,,,,black_plus_sign,,,null,,,,,,,,,,,,,,,,,,,,,,
null,,learn_phase(without_color)2,676017,,,,,,,,black_plus_sign,,,null,object_01b.png,object_06a.png,,,,,,,,,,,,,,,,,,,,
null,,black_cross(without_color)2,676504,,,,,,,,blue,,,null,object_01b.png,object_06a.png,,,,,,,,,,,,,,,,,,,,
null,,rt_plussign_withcolor2,677005,,,,,,,,blue,,,null,object_01b.png,object_06a.png,,,,,,,,,,,,,,,,,,,,
1140.5,,rt_thecrossant_black2,678522,,,,,,,,black_plus_sign,,,50,,,0,,,,,,,0.8,,,,,,,,,,,,
null,,color_black2,678624,,,,,,,,black_plus_sign,,,null,,,,,,,,,,,,,,,,,,,,,,
null,,learn_phase(without_color)2,682126,,,,,,,,black_plus_sign,,,null,object_04a.png,object_07c.png,,,,,,,,,,,,,,,,,,,,
null,,black_cross(without_color)2,683169,,,,,,,,green,,,null,object_04a.png,object_07c.png,,,,,,,,,,,,,,,,,,,,
null,,rt_plussign_withcolor2,683670,,,,,,,,green,,,null,object_04a.png,object_07c.png,,,,,,,,,,,,,,,,,,,,
604.1000000238419,,rt_thecrossant_black2,684632,,,,,,,,black_plus_sign,,,50,,,1,,,,,,,0.8181818181818182,,,,,,,,,,,,
null,,color_black2,684734,,,,,,,,black_plus_sign,,,null,,,,,,,,,,,,,,,,,,,,,,
null,,learn_phase(without_color)2,688236,,,,,,,,black_plus_sign,,,null,object_10a.png,object_08a.png,,,,,,,,,,,,,,,,,,,,
null,,black_cross(without_color)2,689164,,,,,,,,blue,,,null,object_10a.png,object_08a.png,,,,,,,,,,,,,,,,,,,,
null,,rt_plussign_withcolor2,689666,,,,,,,,blue,,,null,object_10a.png,object_08a.png,,,,,,,,,,,,,,,,,,,,
1478.6000000238419,,rt_thecrossant_black2,690741,,,,,,,,black_plus_sign,,,49,,,1,,,,,,,0.8333333333333334,,,,,,,,,,,,
null,,color_black2,690843,,,,,,,,black_plus_sign,,,null,,,,,,,,,,,,,,,,,,,,,,
null,,learn_phase(without_color)2,694345,,,,,,,,black_plus_sign,,,null,object_12a.png,object_03b.png,,,,,,,,,,,,,,,,,,,,
null,,black_cross(without_color)2,694799,,,,,,,,blue,,,null,object_12a.png,object_03b.png,,,,,,,,,,,,,,,,,,,,
null,,rt_plussign_withcolor2,695301,,,,,,,,blue,,,null,object_12a.png,object_03b.png,,,,,,,,,,,,,,,,,,,,
1209.699999988079,,rt_thecrossant_black2,696850,,,,,,,,black_plus_sign,,,49,,,1,,,,,,,0.8461538461538461,,,,,,,,,,,,
null,,color_black2,696953,,,,,,,,black_plus_sign,,,null,,,,,,,,,,,,,,,,,,,,,,
null,,learn_phase(without_color)2,700455,,,,,,,,black_plus_sign,,,null,object_08c.png,object_08b.png,,,,,,,,,,,,,,,,,,,,
null,,black_cross(without_color)2,701321,,,,,,,,green,,,null,object_08c.png,object_08b.png,,,,,,,,,,,,,,,,,,,,
null,,rt_plussign_withcolor2,701822,,,,,,,,green,,,null,object_08c.png,object_08b.png,,,,,,,,,,,,,,,,,,,,
613.9000000357628,,rt_thecrossant_black2,702960,,,,,,,,black_plus_sign,,,50,,,1,,,,,,,0.8571428571428571,,,,,,,,,,,,
null,,color_black2,703062,,,,,,,,black_plus_sign,,,null,,,,,,,,,,,,,,,,,,,,,,
null,,learn_phase(without_color)2,706563,,,,,,,,black_plus_sign,,,null,object_14a.png,object_10c.png,,,,,,,,,,,,,,,,,,,,
null,,black_cross(without_color)2,707189,,,,,,,,blue,,,null,object_14a.png,object_10c.png,,,,,,,,,,,,,,,,,,,,
null,,rt_plussign_withcolor2,707691,,,,,,,,blue,,,null,object_14a.png,object_10c.png,,,,,,,,,,,,,,,,,,,,
1118,,rt_thecrossant_black2,709083,,,,,,,,black_plus_sign,,,49,,,1,,,,,,,0.8666666666666667,,,,,,,,,,,,
null,,color_black2,709185,,,,,,,,black_plus_sign,,,null,,,,,,,,,,,,,,,,,,,,,,
null,,learn_phase(without_color)2,712686,,,,,,,,black_plus_sign,,,null,object_13c.png,object_07a.png,,,,,,,,,,,,,,,,,,,,
null,,black_cross(without_color)2,713363,,,,,,,,blue,,,null,object_13c.png,object_07a.png,,,,,,,,,,,,,,,,,,,,
null,,rt_plussign_withcolor2,713864,,,,,,,,blue,,,null,object_13c.png,object_07a.png,,,,,,,,,,,,,,,,,,,,
1011.5,,rt_thecrossant_black2,715191,,,,,,,,black_plus_sign,,,49,,,1,,,,,,,0.875,,,,,,,,,,,,
null,,color_black2,715294,,,,,,,,black_plus_sign,,,null,,,,,,,,,,,,,,,,,,,,,,
null,,learn_phase(without_color)2,718797,,,,,,,,black_plus_sign,,,null,object_01c.png,object_11b.png,,,,,,,,,,,,,,,,,,,,
null,,black_cross(without_color)2,719671,,,,,,,,blue,,,null,object_01c.png,object_11b.png,,,,,,,,,,,,,,,,,,,,
null,,rt_plussign_withcolor2,720173,,,,,,,,blue,,,null,object_01c.png,object_11b.png,,,,,,,,,,,,,,,,,,,,
783.6999999880791,,rt_thecrossant_black2,721303,,,,,,,,black_plus_sign,,,49,,,1,,,,,,,0.8823529411764706,,,,,,,,,,,,
null,,color_black2,721405,,,,,,,,black_plus_sign,,,null,,,,,,,,,,,,,,,,,,,,,,
null,,learn_phase(without_color)2,724908,,,,,,,,black_plus_sign,,,null,object_05c.png,object_13c.png,,,,,,,,,,,,,,,,,,,,
null,,black_cross(without_color)2,725904,,,,,,,,green,,,null,object_05c.png,object_13c.png,,,,,,,,,,,,,,,,,,,,
null,,rt_plussign_withcolor2,726405,,,,,,,,green,,,null,object_05c.png,object_13c.png,,,,,,,,,,,,,,,,,,,,
1095.2999999523163,,rt_thecrossant_black2,727413,,,,,,,,black_plus_sign,,,50,,,1,,,,,,,0.8888888888888888,,,,,,,,,,,,
null,,color_black2,727516,,,,,,,,black_plus_sign,,,null,,,,,,,,,,,,,,,,,,,,,,
null,,learn_phase(without_color)2,731017,,,,,,,,black_plus_sign,,,null,object_06c.png,object_15a.png,,,,,,,,,,,,,,,,,,,,
null,,black_cross(without_color)2,731592,,,,,,,,green,,,null,object_06c.png,object_15a.png,,,,,,,,,,,,,,,,,,,,
null,,rt_plussign_withcolor2,732093,,,,,,,,green,,,null,object_06c.png,object_15a.png,,,,,,,,,,,,,,,,,,,,
1169.2999999523163,,rt_thecrossant_black2,733523,,,,,,,,black_plus_sign,,,50,,,1,,,,,,,0.8947368421052632,,,,,,,,,,,,
null,,color_black2,733624,,,,,,,,black_plus_sign,,,null,,,,,,,,,,,,,,,,,,,,,,
null,,learn_phase(without_color)2,737126,,,,,,,,black_plus_sign,,,null,object_01a.png,object_14c.png,,,,,,,,,,,,,,,,,,,,
null,,black_cross(without_color)2,737823,,,,,,,,green,,,null,object_01a.png,object_14c.png,,,,,,,,,,,,,,,,,,,,
433.80000001192093,,rt_plussign_withcolor2,738325,,,,,,,,green,,,50,object_01a.png,object_14c.png,,,,,,,,,,,,,,,,,,,,
null,,rt_thecrossant_black2,739631,,,,,,,,black_plus_sign,,,null,,,1,,,,,,,0.9,,,,,,,,,,,,
null,,color_black2,739733,,,,,,,,black_plus_sign,,,null,,,,,,,,,,,,,,,,,,,,,,
null,,learn_phase(without_color)2,743235,,,,,,,,black_plus_sign,,,null,object_09a.png,object_04c.png,,,,,,,,,,,,,,,,,,,,
null,,black_cross(without_color)2,743665,,,,,,,,green,,,null,object_09a.png,object_04c.png,,,,,,,,,,,,,,,,,,,,
null,,rt_plussign_withcolor2,744166,,,,,,,,green,,,null,object_09a.png,object_04c.png,,,,,,,,,,,,,,,,,,,,
999.6000000238419,,rt_thecrossant_black2,745747,,,,,,,,black_plus_sign,,,50,,,1,,,,,,,0.9047619047619048,,,,,,,,,,,,
null,,color_black2,745849,,,,,,,,black_plus_sign,,,null,,,,,,,,,,,,,,,,,,,,,,
null,,learn_phase(without_color)2,749352,,,,,,,,black_plus_sign,,,null,object_09c.png,object_11b.png,,,,,,,,,,,,,,,,,,,,
null,,black_cross(without_color)2,750329,,,,,,,,green,,,null,object_09c.png,object_11b.png,,,,,,,,,,,,,,,,,,,,
null,,rt_plussign_withcolor2,750831,,,,,,,,green,,,null,object_09c.png,object_11b.png,,,,,,,,,,,,,,,,,,,,
700.9000000357628,,rt_thecrossant_black2,751860,,,,,,,,black_plus_sign,,,50,,,1,,,,,,,0.9090909090909091,,,,,,,,,,,,
null,,color_black2,751961,,,,,,,,black_plus_sign,,,null,,,,,,,,,,,,,,,,,,,,,,
null,,learn_phase(without_color)2,755463,,,,,,,,black_plus_sign,,,null,object_15c.png,object_09b.png,,,,,,,,,,,,,,,,,,,,
null,,black_cross(without_color)2,756374,,,,,,,,green,,,null,object_15c.png,object_09b.png,,,,,,,,,,,,,,,,,,,,
null,,rt_plussign_withcolor2,756875,,,,,,,,green,,,null,object_15c.png,object_09b.png,,,,,,,,,,,,,,,,,,,,
1114,,rt_thecrossant_black2,757968,,,,,,,,black_plus_sign,,,50,,,1,,,,,,,0.9130434782608695,,,,,,,,,,,,
null,,color_black2,758069,,,,,,,,black_plus_sign,,,null,,,,,,,,,,,,,,,,,,,,,,
null,,learn_phase(without_color)2,761572,,,,,,,,black_plus_sign,,,null,object_02c.png,object_05b.png,,,,,,,,,,,,,,,,,,,,
null,,black_cross(without_color)2,762350,,,,,,,,green,,,null,object_02c.png,object_05b.png,,,,,,,,,,,,,,,,,,,,
null,,rt_plussign_withcolor2,762851,,,,,,,,green,,,null,object_02c.png,object_05b.png,,,,,,,,,,,,,,,,,,,,
1042.0999999642372,,rt_thecrossant_black2,764076,,,,,,,,black_plus_sign,,,50,,,1,,,,,,,0.9166666666666666,,,,,,,,,,,,
null,,color_black2,764179,,,,,,,,black_plus_sign,,,null,,,,,,,,,,,,,,,,,,,,,,
null,,learn_phase(without_color)2,767680,,,,,,,,black_plus_sign,,,null,object_04a.png,object_11c.png,,,,,,,,,,,,,,,,,,,,
null,,black_cross(without_color)2,768452,,,,,,,,green,,,null,object_04a.png,object_11c.png,,,,,,,,,,,,,,,,,,,,
402.0999999642372,,rt_plussign_withcolor2,768954,,,,,,,,green,,,50,object_04a.png,object_11c.png,,,,,,,,,,,,,,,,,,,,
null,,rt_thecrossant_black2,770186,,,,,,,,black_plus_sign,,,null,,,1,,,,,,,0.92,,,,,,,,,,,,
null,,color_black2,770289,,,,,,,,black_plus_sign,,,null,,,,,,,,,,,,,,,,,,,,,,
null,,learn_phase(without_color)2,773791,,,,,,,,black_plus_sign,,,null,object_13a.png,object_15b.png,,,,,,,,,,,,,,,,,,,,
null,,black_cross(without_color)2,774462,,,,,,,,green,,,null,object_13a.png,object_15b.png,,,,,,,,,,,,,,,,,,,,
480.30000001192093,,rt_plussign_withcolor2,774963,,,,,,,,green,,,50,object_13a.png,object_15b.png,,,,,,,,,,,,,,,,,,,,
null,,rt_thecrossant_black2,776296,,,,,,,,black_plus_sign,,,null,,,1,,,,,,,0.9230769230769231,,,,,,,,,,,,
null,,color_black2,776399,,,,,,,,black_plus_sign,,,null,,,,,,,,,,,,,,,,,,,,,,
null,,learn_phase(without_color)2,779901,,,,,,,,black_plus_sign,,,null,object_02b.png,object_15b.png,,,,,,,,,,,,,,,,,,,,
null,,black_cross(without_color)2,780939,,,,,,,,green,,,null,object_02b.png,object_15b.png,,,,,,,,,,,,,,,,,,,,
null,,rt_plussign_withcolor2,781440,,,,,,,,green,,,null,object_02b.png,object_15b.png,,,,,,,,,,,,,,,,,,,,
840,,rt_thecrossant_black2,782405,,,,,,,,black_plus_sign,,,50,,,1,,,,,,,0.9259259259259259,,,,,,,,,,,,
null,,color_black2,782507,,,,,,,,black_plus_sign,,,null,,,,,,,,,,,,,,,,,,,,,,
null,,learn_phase(without_color)2,786009,,,,,,,,black_plus_sign,,,null,object_04c.png,object_02a.png,,,,,,,,,,,,,,,,,,,,
null,,black_cross(without_color)2,786444,,,,,,,,green,,,null,object_04c.png,object_02a.png,,,,,,,,,,,,,,,,,,,,
null,,rt_plussign_withcolor2,786946,,,,,,,,green,,,null,object_04c.png,object_02a.png,,,,,,,,,,,,,,,,,,,,
1350.3999999761581,,rt_thecrossant_black2,788515,,,,,,,,black_plus_sign,,,50,,,1,,,,,,,0.9285714285714286,,,,,,,,,,,,
null,,color_black2,788617,,,,,,,,black_plus_sign,,,null,,,,,,,,,,,,,,,,,,,,,,
null,,learn_phase(without_color)2,792118,,,,,,,,black_plus_sign,,,null,object_03a.png,object_14a.png,,,,,,,,,,,,,,,,,,,,
null,,black_cross(without_color)2,793203,,,,,,,,blue,,,null,object_03a.png,object_14a.png,,,,,,,,,,,,,,,,,,,,
422.19999998807907,,rt_plussign_withcolor2,793705,,,,,,,,blue,,,49,object_03a.png,object_14a.png,,,,,,,,,,,,,,,,,,,,
null,,rt_thecrossant_black2,794626,,,,,,,,black_plus_sign,,,null,,,1,,,,,,,0.9310344827586207,,,,,,,,,,,,
null,,color_black2,794730,,,,,,,,black_plus_sign,,,null,,,,,,,,,,,,,,,,,,,,,,
null,,thebreak,794833,,,,,,,,<p></p>,,,null,,,,,,,,,,,,,,,,,,,,,,
2248,,intro_0,797082,,,,,,,,instruct,,,32,,,,,,,,,,,,,,,,,,,,,,
5704.399999976158,,directmemory_phase2,802787,,,,,,,,object_14c.png,,,51,,,0,,object_07c.png,object_01a.png,object_01b.png,object_01a.png,,0.41935483870967744,0,,,,,,,,,,,
1973.8999999761581,,directmemory_phase2,804763,,,,,,,,object_04a.png,,,50,,,1,,object_01a.png,object_11c.png,object_07b.png,object_11c.png,,0.4375,1,,,,,,,,,,,
1446.300000011921,,directmemory_phase2,806211,,,,,,,,object_02b.png,,,50,,,1,,object_13b.png,object_15b.png,object_08c.png,object_15b.png,,0.45454545454545453,1,,,,,,,,,,,
2079.599999964237,,directmemory_phase2,808292,,,,,,,,object_13b.png,,,49,,,0,,object_03a.png,object_06b.png,object_13c.png,object_06b.png,,0.4411764705882353,0,,,,,,,,,,,
3814.900000035763,,directmemory_phase2,812108,,,,,,,,object_15c.png,,,49,,,0,,object_13a.png,object_06b.png,object_14b.png,object_14b.png,,0.42857142857142855,0,,,,,,,,,,,
2325.399999976158,,directmemory_phase2,814435,,,,,,,,object_01a.png,,,51,,,1,,object_03c.png,object_14a.png,object_11a.png,object_11a.png,,0.4444444444444444,1,,,,,,,,,,,
1600.1000000238419,,directmemory_phase2,816037,,,,,,,,object_07a.png,,,50,,,0,,object_06b.png,object_08b.png,object_13c.png,object_13c.png,,0.43243243243243246,0,,,,,,,,,,,
1735.699999988079,,directmemory_phase2,817774,,,,,,,,object_03a.png,,,50,,,0,,object_01a.png,object_07c.png,object_14a.png,object_14a.png,,0.42105263157894735,0,,,,,,,,,,,
2581.600000023842,,directmemory_phase2,820357,,,,,,,,object_05b.png,,,50,,,0,,object_02c.png,object_15b.png,object_02b.png,object_02c.png,,0.41025641025641024,0,,,,,,,,,,,
1815.5,,directmemory_phase2,822174,,,,,,,,object_08a.png,,,51,,,1,,object_11c.png,object_01b.png,object_05a.png,object_05a.png,,0.425,1,,,,,,,,,,,
1405.199999988079,,directmemory_phase2,823582,,,,,,,,object_07c.png,,,49,,,1,,object_04a.png,object_13c.png,object_04b.png,object_04a.png,,0.43902439024390244,1,,,,,,,,,,,
1375.199999988079,,directmemory_phase2,824959,,,,,,,,object_10a.png,,,50,,,0,,object_08a.png,object_01a.png,object_01c.png,object_08a.png,,0.42857142857142855,0,,,,,,,,,,,
1678.199999988079,,directmemory_phase2,826639,,,,,,,,object_12c.png,,,51,,,1,,object_02c.png,object_04b.png,object_12a.png,object_12a.png,,0.4418604651162791,1,,,,,,,,,,,
1812.8999999761581,,directmemory_phase2,828454,,,,,,,,object_10b.png,,,49,,,0,,object_11b.png,object_14c.png,object_06c.png,object_06c.png,,0.4318181818181818,0,,,,,,,,,,,
2783.600000023842,,directmemory_phase2,831239,,,,,,,,object_09b.png,,,49,,,0,,object_02c.png,object_14c.png,object_15c.png,object_15c.png,,0.4222222222222222,0,,,,,,,,,,,
1662.0999999642372,,directmemory_phase2,832903,,,,,,,,object_02c.png,,,50,,,1,,object_04a.png,object_07b.png,object_05a.png,object_07b.png,,0.43478260869565216,1,,,,,,,,,,,
1742.699999988079,,directmemory_phase2,834648,,,,,,,,object_05c.png,,,49,,,0,,object_04a.png,object_02a.png,object_13c.png,object_13c.png,,0.425531914893617,0,,,,,,,,,,,
1741.6000000238419,,directmemory_phase2,836391,,,,,,,,object_12a.png,,,51,,,1,,object_07b.png,object_15b.png,object_03b.png,object_03b.png,,0.4375,1,,,,,,,,,,,
1448,,directmemory_phase2,837840,,,,,,,,object_04c.png,,,49,,,0,,object_08b.png,object_08a.png,object_09a.png,object_09a.png,,0.42857142857142855,0,,,,,,,,,,,
1414.2000000476837,,directmemory_phase2,839256,,,,,,,,object_08b.png,,,49,,,0,,object_12b.png,object_08c.png,object_13c.png,object_08c.png,,0.42,0,,,,,,,,,,,
2069.800000011921,,directmemory_phase2,841328,,,,,,,,object_10c.png,,,51,,,0,,object_07b.png,object_14a.png,object_02c.png,object_14a.png,,0.4117647058823529,0,,,,,,,,,,,
1351.3999999761581,,directmemory_phase2,842680,,,,,,,,object_13a.png,,,49,,,1,,object_15b.png,object_02c.png,object_03b.png,object_15b.png,,0.4230769230769231,1,,,,,,,,,,,
1279,,directmemory_phase2,843961,,,,,,,,object_11b.png,,,50,,,0,,object_11c.png,object_04c.png,object_09c.png,object_09c.png,,0.41509433962264153,0,,,,,,,,,,,
1582.699999988079,,directmemory_phase2,845545,,,,,,,,object_06a.png,,,51,,,1,,object_08c.png,object_05b.png,object_01b.png,object_01b.png,,0.42592592592592593,1,,,,,,,,,,,
2054.100000023842,,directmemory_phase2,847601,,,,,,,,object_06b.png,,,49,,,1,,object_03c.png,object_11a.png,object_04a.png,object_03c.png,,0.43636363636363634,1,,,,,,,,,,,
2167.300000011921,,directmemory_phase2,849771,,,,,,,,object_12b.png,,,49,,,1,,object_01b.png,object_08a.png,object_07a.png,object_01b.png,,0.44642857142857145,1,,,,,,,,,,,
1852.2000000476837,,directmemory_phase2,851625,,,,,,,,object_01c.png,,,51,,,0,,object_11b.png,object_08a.png,object_14c.png,object_11b.png,,0.43859649122807015,0,,,,,,,,,,,
1903.8999999761581,,directmemory_phase2,853530,,,,,,,,object_04b.png,,,51,,,0,,object_12c.png,object_08c.png,object_13c.png,object_08c.png,,0.43103448275862066,0,,,,,,,,,,,
2063.100000023842,,directmemory_phase2,855595,,,,,,,,object_02a.png,,,51,,,0,,object_04c.png,object_14a.png,object_02b.png,object_04c.png,,0.423728813559322,0,,,,,,,,,,,
2845.5,,directmemory_phase2,858442,,,,,,,,object_15a.png,,,51,,,0,,object_07a.png,object_06c.png,object_04a.png,object_06c.png,,0.4166666666666667,0,,,,,,,,,,,
null,,thebreak,858545,,,,,,,,<p></p>,,,null,,,,,,,,,,,,,,,,,,,,,,
6713.399999976158,,intro_0,865260,,,,,,,,instruct,,,32,,,,,,,,,,,,,,,,,,,,,,
null,,learn_phase(without_color)3,868762,,,,,,,,black_plus_sign,,,null,object_01a.png,object_14c.png,,,,,,,,,,,,,,,,,,,,
null,,black_cross(without_color)3,869470,,,,,,,,blue,,,null,object_01a.png,object_14c.png,,,,,,,,,,,,,,,,,,,,
null,,rt_plussign_withcolor3,869972,,,,,,,,blue,,,null,object_01a.png,object_14c.png,,,,,,,,,,,,,,,,,,,,
1068.3999999761581,,rt_thecrossant_black3,871269,,,,,,,,black_plus_sign,,,49,,,1,,,,,,,1,,,,,,,,,,,,
null,,color_black3,871371,,,,,,,,black_plus_sign,,,null,,,,,,,,,,,,,,,,,,,,,,
null,,learn_phase(without_color)3,874873,,,,,,,,black_plus_sign,,,null,object_02c.png,object_07b.png,,,,,,,,,,,,,,,,,,,,
null,,black_cross(without_color)3,875512,,,,,,,,blue,,,null,object_02c.png,object_07b.png,,,,,,,,,,,,,,,,,,,,
null,,rt_plussign_withcolor3,876014,,,,,,,,blue,,,null,object_02c.png,object_07b.png,,,,,,,,,,,,,,,,,,,,
923.4000000357628,,rt_thecrossant_black3,877379,,,,,,,,black_plus_sign,,,50,,,0,,,,,,,0.5,,,,,,,,,,,,
null,,color_black3,877481,,,,,,,,black_plus_sign,,,null,,,,,,,,,,,,,,,,,,,,,,
null,,learn_phase(without_color)3,880984,,,,,,,,black_plus_sign,,,null,object_11b.png,object_01c.png,,,,,,,,,,,,,,,,,,,,
null,,black_cross(without_color)3,881464,,,,,,,,green,,,null,object_11b.png,object_01c.png,,,,,,,,,,,,,,,,,,,,
null,,rt_plussign_withcolor3,881966,,,,,,,,green,,,null,object_11b.png,object_01c.png,,,,,,,,,,,,,,,,,,,,
790.8000000119209,,rt_thecrossant_black3,883495,,,,,,,,black_plus_sign,,,50,,,1,,,,,,,0.6666666666666666,,,,,,,,,,,,
null,,color_black3,883597,,,,,,,,black_plus_sign,,,null,,,,,,,,,,,,,,,,,,,,,,
null,,learn_phase(without_color)3,887099,,,,,,,,black_plus_sign,,,null,object_13a.png,object_15b.png,,,,,,,,,,,,,,,,,,,,
null,,black_cross(without_color)3,888128,,,,,,,,green,,,null,object_13a.png,object_15b.png,,,,,,,,,,,,,,,,,,,,
null,,rt_plussign_withcolor3,888633,,,,,,,,green,,,null,object_13a.png,object_15b.png,,,,,,,,,,,,,,,,,,,,
610.0999999642372,,rt_thecrossant_black3,889622,,,,,,,,black_plus_sign,,,50,,,1,,,,,,,0.75,,,,,,,,,,,,
null,,color_black3,889724,,,,,,,,black_plus_sign,,,null,,,,,,,,,,,,,,,,,,,,,,
null,,learn_phase(without_color)3,893226,,,,,,,,black_plus_sign,,,null,object_05a.png,object_08a.png,,,,,,,,,,,,,,,,,,,,
null,,black_cross(without_color)3,894099,,,,,,,,green,,,null,object_05a.png,object_08a.png,,,,,,,,,,,,,,,,,,,,
null,,rt_plussign_withcolor3,894602,,,,,,,,green,,,null,object_05a.png,object_08a.png,,,,,,,,,,,,,,,,,,,,
1148.800000011921,,rt_thecrossant_black3,895732,,,,,,,,black_plus_sign,,,50,,,1,,,,,,,0.8,,,,,,,,,,,,
null,,color_black3,895834,,,,,,,,black_plus_sign,,,null,,,,,,,,,,,,,,,,,,,,,,
null,,learn_phase(without_color)3,899336,,,,,,,,black_plus_sign,,,null,object_08a.png,object_10a.png,,,,,,,,,,,,,,,,,,,,
null,,black_cross(without_color)3,900252,,,,,,,,green,,,null,object_08a.png,object_10a.png,,,,,,,,,,,,,,,,,,,,
null,,rt_plussign_withcolor3,900754,,,,,,,,green,,,null,object_08a.png,object_10a.png,,,,,,,,,,,,,,,,,,,,
1439.7000000476837,,rt_thecrossant_black3,901844,,,,,,,,black_plus_sign,,,50,,,1,,,,,,,0.8333333333333334,,,,,,,,,,,,
null,,color_black3,901946,,,,,,,,black_plus_sign,,,null,,,,,,,,,,,,,,,,,,,,,,
null,,learn_phase(without_color)3,905447,,,,,,,,black_plus_sign,,,null,object_04c.png,object_09a.png,,,,,,,,,,,,,,,,,,,,
null,,black_cross(without_color)3,906188,,,,,,,,green,,,null,object_04c.png,object_09a.png,,,,,,,,,,,,,,,,,,,,
null,,rt_plussign_withcolor3,906689,,,,,,,,green,,,null,object_04c.png,object_09a.png,,,,,,,,,,,,,,,,,,,,
1500.4000000357628,,rt_thecrossant_black3,907952,,,,,,,,black_plus_sign,,,50,,,1,,,,,,,0.8571428571428571,,,,,,,,,,,,
null,,color_black3,908055,,,,,,,,black_plus_sign,,,null,,,,,,,,,,,,,,,,,,,,,,
null,,learn_phase(without_color)3,911558,,,,,,,,black_plus_sign,,,null,object_12a.png,object_12c.png,,,,,,,,,,,,,,,,,,,,
null,,black_cross(without_color)3,912439,,,,,,,,blue,,,null,object_12a.png,object_12c.png,,,,,,,,,,,,,,,,,,,,
null,,rt_plussign_withcolor3,912941,,,,,,,,blue,,,null,object_12a.png,object_12c.png,,,,,,,,,,,,,,,,,,,,
923.3999999761581,,rt_thecrossant_black3,914063,,,,,,,,black_plus_sign,,,49,,,1,,,,,,,0.875,,,,,,,,,,,,
null,,color_black3,914172,,,,,,,,black_plus_sign,,,null,,,,,,,,,,,,,,,,,,,,,,
null,,learn_phase(without_color)3,917674,,,,,,,,black_plus_sign,,,null,object_06a.png,object_01b.png,,,,,,,,,,,,,,,,,,,,
null,,black_cross(without_color)3,918735,,,,,,,,green,,,null,object_06a.png,object_01b.png,,,,,,,,,,,,,,,,,,,,
null,,rt_plussign_withcolor3,919237,,,,,,,,green,,,null,object_06a.png,object_01b.png,,,,,,,,,,,,,,,,,,,,
1144,,rt_thecrossant_black3,920180,,,,,,,,black_plus_sign,,,50,,,1,,,,,,,0.8888888888888888,,,,,,,,,,,,
null,,color_black3,920282,,,,,,,,black_plus_sign,,,null,,,,,,,,,,,,,,,,,,,,,,
null,,learn_phase(without_color)3,923784,,,,,,,,black_plus_sign,,,null,object_05b.png,object_02c.png,,,,,,,,,,,,,,,,,,,,
null,,black_cross(without_color)3,924368,,,,,,,,green,,,null,object_05b.png,object_02c.png,,,,,,,,,,,,,,,,,,,,
null,,rt_plussign_withcolor3,924870,,,,,,,,green,,,null,object_05b.png,object_02c.png,,,,,,,,,,,,,,,,,,,,
1243.6000000238419,,rt_thecrossant_black3,926291,,,,,,,,black_plus_sign,,,50,,,1,,,,,,,0.9,,,,,,,,,,,,
null,,color_black3,926392,,,,,,,,black_plus_sign,,,null,,,,,,,,,,,,,,,,,,,,,,
null,,learn_phase(without_color)3,929894,,,,,,,,black_plus_sign,,,null,object_03c.png,object_06b.png,,,,,,,,,,,,,,,,,,,,
null,,black_cross(without_color)3,930546,,,,,,,,green,,,null,object_03c.png,object_06b.png,,,,,,,,,,,,,,,,,,,,
null,,rt_plussign_withcolor3,931047,,,,,,,,green,,,null,object_03c.png,object_06b.png,,,,,,,,,,,,,,,,,,,,
821.7999999523163,,rt_thecrossant_black3,932399,,,,,,,,black_plus_sign,,,50,,,1,,,,,,,0.9090909090909091,,,,,,,,,,,,
null,,color_black3,932501,,,,,,,,black_plus_sign,,,null,,,,,,,,,,,,,,,,,,,,,,
null,,learn_phase(without_color)3,936002,,,,,,,,black_plus_sign,,,null,object_08b.png,object_08c.png,,,,,,,,,,,,,,,,,,,,
null,,black_cross(without_color)3,937019,,,,,,,,blue,,,null,object_08b.png,object_08c.png,,,,,,,,,,,,,,,,,,,,
473.39999997615814,,rt_plussign_withcolor3,937522,,,,,,,,blue,,,49,object_08b.png,object_08c.png,,,,,,,,,,,,,,,,,,,,
null,,rt_thecrossant_black3,938519,,,,,,,,black_plus_sign,,,null,,,1,,,,,,,0.9166666666666666,,,,,,,,,,,,
null,,color_black3,938620,,,,,,,,black_plus_sign,,,null,,,,,,,,,,,,,,,,,,,,,,
null,,learn_phase(without_color)3,942122,,,,,,,,black_plus_sign,,,null,object_10c.png,object_14a.png,,,,,,,,,,,,,,,,,,,,
null,,black_cross(without_color)3,942882,,,,,,,,blue,,,null,object_10c.png,object_14a.png,,,,,,,,,,,,,,,,,,,,
null,,rt_plussign_withcolor3,943384,,,,,,,,blue,,,null,object_10c.png,object_14a.png,,,,,,,,,,,,,,,,,,,,
1357.9000000357628,,rt_thecrossant_black3,944628,,,,,,,,black_plus_sign,,,49,,,1,,,,,,,0.9230769230769231,,,,,,,,,,,,
null,,color_black3,944731,,,,,,,,black_plus_sign,,,null,,,,,,,,,,,,,,,,,,,,,,
null,,learn_phase(without_color)3,948232,,,,,,,,black_plus_sign,,,null,object_04a.png,object_07c.png,,,,,,,,,,,,,,,,,,,,
null,,black_cross(without_color)3,948749,,,,,,,,green,,,null,object_04a.png,object_07c.png,,,,,,,,,,,,,,,,,,,,
null,,rt_plussign_withcolor3,949251,,,,,,,,green,,,null,object_04a.png,object_07c.png,,,,,,,,,,,,,,,,,,,,
894.4000000357628,,rt_thecrossant_black3,950739,,,,,,,,black_plus_sign,,,50,,,1,,,,,,,0.9285714285714286,,,,,,,,,,,,
null,,color_black3,950842,,,,,,,,black_plus_sign,,,null,,,,,,,,,,,,,,,,,,,,,,
null,,learn_phase(without_color)3,954345,,,,,,,,black_plus_sign,,,null,object_11c.png,object_04a.png,,,,,,,,,,,,,,,,,,,,
null,,black_cross(without_color)3,954813,,,,,,,,blue,,,null,object_11c.png,object_04a.png,,,,,,,,,,,,,,,,,,,,
null,,rt_plussign_withcolor3,955315,,,,,,,,blue,,,null,object_11c.png,object_04a.png,,,,,,,,,,,,,,,,,,,,
665.8000000119209,,rt_thecrossant_black3,956850,,,,,,,,black_plus_sign,,,49,,,1,,,,,,,0.9333333333333333,,,,,,,,,,,,
null,,color_black3,956953,,,,,,,,black_plus_sign,,,null,,,,,,,,,,,,,,,,,,,,,,
null,,learn_phase(without_color)3,960462,,,,,,,,black_plus_sign,,,null,object_14b.png,object_15c.png,,,,,,,,,,,,,,,,,,,,
null,,black_cross(without_color)3,960986,,,,,,,,green,,,null,object_14b.png,object_15c.png,,,,,,,,,,,,,,,,,,,,
null,,rt_plussign_withcolor3,961489,,,,,,,,green,,,null,object_14b.png,object_15c.png,,,,,,,,,,,,,,,,,,,,
764.8000000119209,,rt_thecrossant_black3,962987,,,,,,,,black_plus_sign,,,50,,,1,,,,,,,0.9375,,,,,,,,,,,,
null,,color_black3,963088,,,,,,,,black_plus_sign,,,null,,,,,,,,,,,,,,,,,,,,,,
null,,learn_phase(without_color)3,966591,,,,,,,,black_plus_sign,,,null,object_12b.png,object_01b.png,,,,,,,,,,,,,,,,,,,,
null,,black_cross(without_color)3,967550,,,,,,,,blue,,,null,object_12b.png,object_01b.png,,,,,,,,,,,,,,,,,,,,
null,,rt_plussign_withcolor3,968051,,,,,,,,blue,,,null,object_12b.png,object_01b.png,,,,,,,,,,,,,,,,,,,,
642.8000000119209,,rt_thecrossant_black3,969109,,,,,,,,black_plus_sign,,,49,,,1,,,,,,,0.9411764705882353,,,,,,,,,,,,
null,,color_black3,969211,,,,,,,,black_plus_sign,,,null,,,,,,,,,,,,,,,,,,,,,,
null,,learn_phase(without_color)3,972713,,,,,,,,black_plus_sign,,,null,object_03b.png,object_12a.png,,,,,,,,,,,,,,,,,,,,
null,,black_cross(without_color)3,973127,,,,,,,,blue,,,null,object_03b.png,object_12a.png,,,,,,,,,,,,,,,,,,,,
null,,rt_plussign_withcolor3,973630,,,,,,,,blue,,,null,object_03b.png,object_12a.png,,,,,,,,,,,,,,,,,,,,
1126.5999999642372,,rt_thecrossant_black3,975229,,,,,,,,black_plus_sign,,,49,,,1,,,,,,,0.9444444444444444,,,,,,,,,,,,
null,,color_black3,975331,,,,,,,,black_plus_sign,,,null,,,,,,,,,,,,,,,,,,,,,,
null,,learn_phase(without_color)3,978833,,,,,,,,black_plus_sign,,,null,object_11b.png,object_09c.png,,,,,,,,,,,,,,,,,,,,
null,,black_cross(without_color)3,979429,,,,,,,,blue,,,null,object_11b.png,object_09c.png,,,,,,,,,,,,,,,,,,,,
null,,rt_plussign_withcolor3,979930,,,,,,,,blue,,,null,object_11b.png,object_09c.png,,,,,,,,,,,,,,,,,,,,
519.5999999642372,,rt_thecrossant_black3,981339,,,,,,,,black_plus_sign,,,50,,,0,,,,,,,0.8947368421052632,,,,,,,,,,,,
null,,color_black3,981442,,,,,,,,black_plus_sign,,,null,,,,,,,,,,,,,,,,,,,,,,
null,,learn_phase(without_color)3,984945,,,,,,,,black_plus_sign,,,null,object_09b.png,object_15c.png,,,,,,,,,,,,,,,,,,,,
null,,black_cross(without_color)3,986019,,,,,,,,green,,,null,object_09b.png,object_15c.png,,,,,,,,,,,,,,,,,,,,
null,,rt_plussign_withcolor3,986520,,,,,,,,green,,,null,object_09b.png,object_15c.png,,,,,,,,,,,,,,,,,,,,
704.2999999523163,,rt_thecrossant_black3,987463,,,,,,,,black_plus_sign,,,50,,,1,,,,,,,0.9,,,,,,,,,,,,
null,,color_black3,987565,,,,,,,,black_plus_sign,,,null,,,,,,,,,,,,,,,,,,,,,,
null,,learn_phase(without_color)3,991068,,,,,,,,black_plus_sign,,,null,object_02a.png,object_04c.png,,,,,,,,,,,,,,,,,,,,
null,,black_cross(without_color)3,992039,,,,,,,,green,,,null,object_02a.png,object_04c.png,,,,,,,,,,,,,,,,,,,,
null,,rt_plussign_withcolor3,992541,,,,,,,,green,,,null,object_02a.png,object_04c.png,,,,,,,,,,,,,,,,,,,,
1585.7999999523163,,rt_thecrossant_black3,993582,,,,,,,,black_plus_sign,,,50,,,1,,,,,,,0.9047619047619048,,,,,,,,,,,,
null,,color_black3,993684,,,,,,,,black_plus_sign,,,null,,,,,,,,,,,,,,,,,,,,,,
null,,learn_phase(without_color)3,997186,,,,,,,,black_plus_sign,,,null,object_10b.png,object_06c.png,,,,,,,,,,,,,,,,,,,,
null,,black_cross(without_color)3,997710,,,,,,,,green,,,null,object_10b.png,object_06c.png,,,,,,,,,,,,,,,,,,,,
null,,rt_plussign_withcolor3,998211,,,,,,,,green,,,null,object_10b.png,object_06c.png,,,,,,,,,,,,,,,,,,,,
1389.800000011921,,rt_thecrossant_black3,999692,,,,,,,,black_plus_sign,,,50,,,1,,,,,,,0.9090909090909091,,,,,,,,,,,,
null,,color_black3,999795,,,,,,,,black_plus_sign,,,null,,,,,,,,,,,,,,,,,,,,,,
null,,learn_phase(without_color)3,1003297,,,,,,,,black_plus_sign,,,null,object_06b.png,object_13b.png,,,,,,,,,,,,,,,,,,,,
null,,black_cross(without_color)3,1004355,,,,,,,,green,,,null,object_06b.png,object_13b.png,,,,,,,,,,,,,,,,,,,,
null,,rt_plussign_withcolor3,1004857,,,,,,,,green,,,null,object_06b.png,object_13b.png,,,,,,,,,,,,,,,,,,,,
817.7999999523163,,rt_thecrossant_black3,1005804,,,,,,,,black_plus_sign,,,50,,,1,,,,,,,0.9130434782608695,,,,,,,,,,,,
null,,color_black3,1005906,,,,,,,,black_plus_sign,,,null,,,,,,,,,,,,,,,,,,,,,,
null,,learn_phase(without_color)3,1009409,,,,,,,,black_plus_sign,,,null,object_02b.png,object_15b.png,,,,,,,,,,,,,,,,,,,,
null,,black_cross(without_color)3,1010092,,,,,,,,blue,,,null,object_02b.png,object_15b.png,,,,,,,,,,,,,,,,,,,,
null,,rt_plussign_withcolor3,1010593,,,,,,,,blue,,,null,object_02b.png,object_15b.png,,,,,,,,,,,,,,,,,,,,
1407.5,,rt_thecrossant_black3,1011913,,,,,,,,black_plus_sign,,,49,,,1,,,,,,,0.9166666666666666,,,,,,,,,,,,
null,,color_black3,1012016,,,,,,,,black_plus_sign,,,null,,,,,,,,,,,,,,,,,,,,,,
null,,learn_phase(without_color)3,1015519,,,,,,,,black_plus_sign,,,null,object_13c.png,object_05c.png,,,,,,,,,,,,,,,,,,,,
null,,black_cross(without_color)3,1016305,,,,,,,,blue,,,null,object_13c.png,object_05c.png,,,,,,,,,,,,,,,,,,,,
null,,rt_plussign_withcolor3,1016806,,,,,,,,blue,,,null,object_13c.png,object_05c.png,,,,,,,,,,,,,,,,,,,,
1205.699999988079,,rt_thecrossant_black3,1018026,,,,,,,,black_plus_sign,,,49,,,1,,,,,,,0.92,,,,,,,,,,,,
null,,color_black3,1018128,,,,,,,,black_plus_sign,,,null,,,,,,,,,,,,,,,,,,,,,,
null,,learn_phase(without_color)3,1021631,,,,,,,,black_plus_sign,,,null,object_07a.png,object_13c.png,,,,,,,,,,,,,,,,,,,,
null,,black_cross(without_color)3,1022691,,,,,,,,blue,,,null,object_07a.png,object_13c.png,,,,,,,,,,,,,,,,,,,,
null,,rt_plussign_withcolor3,1023193,,,,,,,,blue,,,null,object_07a.png,object_13c.png,,,,,,,,,,,,,,,,,,,,
1137.800000011921,,rt_thecrossant_black3,1024137,,,,,,,,black_plus_sign,,,49,,,1,,,,,,,0.9230769230769231,,,,,,,,,,,,
null,,color_black3,1024238,,,,,,,,black_plus_sign,,,null,,,,,,,,,,,,,,,,,,,,,,
null,,learn_phase(without_color)3,1027739,,,,,,,,black_plus_sign,,,null,object_08c.png,object_04b.png,,,,,,,,,,,,,,,,,,,,
null,,black_cross(without_color)3,1028622,,,,,,,,green,,,null,object_08c.png,object_04b.png,,,,,,,,,,,,,,,,,,,,
null,,rt_plussign_withcolor3,1029124,,,,,,,,green,,,null,object_08c.png,object_04b.png,,,,,,,,,,,,,,,,,,,,
1417.199999988079,,rt_thecrossant_black3,1030245,,,,,,,,black_plus_sign,,,50,,,1,,,,,,,0.9259259259259259,,,,,,,,,,,,
null,,color_black3,1030348,,,,,,,,black_plus_sign,,,null,,,,,,,,,,,,,,,,,,,,,,
null,,learn_phase(without_color)3,1033851,,,,,,,,black_plus_sign,,,null,object_14a.png,object_03a.png,,,,,,,,,,,,,,,,,,,,
null,,black_cross(without_color)3,1034820,,,,,,,,blue,,,null,object_14a.png,object_03a.png,,,,,,,,,,,,,,,,,,,,
null,,rt_plussign_withcolor3,1035322,,,,,,,,blue,,,null,object_14a.png,object_03a.png,,,,,,,,,,,,,,,,,,,,
1068.699999988079,,rt_thecrossant_black3,1036357,,,,,,,,black_plus_sign,,,49,,,1,,,,,,,0.9285714285714286,,,,,,,,,,,,
null,,color_black3,1036459,,,,,,,,black_plus_sign,,,null,,,,,,,,,,,,,,,,,,,,,,
null,,learn_phase(without_color)3,1039961,,,,,,,,black_plus_sign,,,null,object_15a.png,object_06c.png,,,,,,,,,,,,,,,,,,,,
null,,black_cross(without_color)3,1040439,,,,,,,,green,,,null,object_15a.png,object_06c.png,,,,,,,,,,,,,,,,,,,,
null,,rt_plussign_withcolor3,1040940,,,,,,,,green,,,null,object_15a.png,object_06c.png,,,,,,,,,,,,,,,,,,,,
1464.3999999761581,,rt_thecrossant_black3,1042469,,,,,,,,black_plus_sign,,,50,,,1,,,,,,,0.9310344827586207,,,,,,,,,,,,
null,,color_black3,1042571,,,,,,,,black_plus_sign,,,null,,,,,,,,,,,,,,,,,,,,,,
null,,learn_phase(without_color)3,1046073,,,,,,,,black_plus_sign,,,null,object_01a.png,object_11a.png,,,,,,,,,,,,,,,,,,,,
null,,black_cross(without_color)3,1047007,,,,,,,,blue,,,null,object_01a.png,object_11a.png,,,,,,,,,,,,,,,,,,,,
null,,rt_plussign_withcolor3,1047509,,,,,,,,blue,,,null,object_01a.png,object_11a.png,,,,,,,,,,,,,,,,,,,,
716.5,,rt_thecrossant_black3,1048583,,,,,,,,black_plus_sign,,,49,,,1,,,,,,,0.9333333333333333,,,,,,,,,,,,
null,,color_black3,1048685,,,,,,,,black_plus_sign,,,null,,,,,,,,,,,,,,,,,,,,,,
null,,thebreak,1048787,,,,,,,,<p></p>,,,null,,,,,,,,,,,,,,,,,,,,,,
2880.100000023842,,intro_0,1051668,,,,,,,,instruct,,,32,,,,,,,,,,,,,,,,,,,,,,
6031.199999988079,,directmemory_phase3,1057701,,,,,,,,object_03a.png,,,49,,,0,,object_14c.png,object_14a.png,object_08a.png,object_14a.png,,0.4098360655737705,0,,,,,,,,,,,
3271.2000000476837,,directmemory_phase3,1060973,,,,,,,,object_02a.png,,,49,,,0,,object_08c.png,object_13b.png,object_04c.png,object_04c.png,,0.4032258064516129,0,,,,,,,,,,,
2606.5,,directmemory_phase3,1063581,,,,,,,,object_12a.png,,,50,,,1,,object_15b.png,object_03b.png,object_13a.png,object_03b.png,,0.4126984126984127,1,,,,,,,,,,,
2448.5,,directmemory_phase3,1066031,,,,,,,,object_11a.png,,,51,,,1,,object_15b.png,object_07b.png,object_01a.png,object_01a.png,,0.421875,1,,,,,,,,,,,
3279.399999976158,,directmemory_phase3,1069311,,,,,,,,object_12c.png,,,49,,,0,,object_01b.png,object_13b.png,object_12a.png,object_12a.png,,0.4153846153846154,0,,,,,,,,,,,
4445,,directmemory_phase3,1073758,,,,,,,,object_05b.png,,,50,,,0,,object_12a.png,object_13b.png,object_02c.png,object_02c.png,,0.4090909090909091,0,,,,,,,,,,,
2712.100000023842,,directmemory_phase3,1076471,,,,,,,,object_10b.png,,,51,,,0,,object_05c.png,object_06c.png,object_01b.png,object_06c.png,,0.40298507462686567,0,,,,,,,,,,,
3807.800000011921,,directmemory_phase3,1080281,,,,,,,,object_09b.png,,,50,,,1,,object_10a.png,object_15c.png,object_13c.png,object_15c.png,,0.4117647058823529,1,,,,,,,,,,,
3703.600000023842,,directmemory_phase3,1083985,,,,,,,,object_13c.png,,,51,,,0,,object_11b.png,object_07a.png,object_11a.png,object_07a.png,,0.4057971014492754,0,,,,,,,,,,,
2213.600000023842,,directmemory_phase3,1086200,,,,,,,,object_11b.png,,,49,,,0,,object_11a.png,object_15c.png,object_09c.png,object_09c.png,,0.4,0,,,,,,,,,,,
1872.3999999761581,,directmemory_phase3,1088074,,,,,,,,object_13b.png,,,51,,,0,,object_06b.png,object_13c.png,object_05c.png,object_06b.png,,0.39436619718309857,0,,,,,,,,,,,
1308.7000000476837,,directmemory_phase3,1089385,,,,,,,,object_04b.png,,,49,,,1,,object_08c.png,object_14a.png,object_01c.png,object_08c.png,,0.4027777777777778,1,,,,,,,,,,,
1622.9000000357628,,directmemory_phase3,1091009,,,,,,,,object_15a.png,,,51,,,1,,object_01b.png,object_11a.png,object_06c.png,object_06c.png,,0.410958904109589,1,,,,,,,,,,,
1878.6000000238419,,directmemory_phase3,1092889,,,,,,,,object_15c.png,,,50,,,0,,object_14b.png,object_13a.png,object_01b.png,object_14b.png,,0.40540540540540543,0,,,,,,,,,,,
1736.2999999523163,,directmemory_phase3,1094626,,,,,,,,object_07c.png,,,49,,,1,,object_04a.png,object_06b.png,object_04b.png,object_04a.png,,0.41333333333333333,1,,,,,,,,,,,
3421.800000011921,,directmemory_phase3,1098050,,,,,,,,object_08a.png,,,49,,,1,,object_05a.png,object_11a.png,object_08c.png,object_05a.png,,0.42105263157894735,1,,,,,,,,,,,
2287.600000023842,,directmemory_phase3,1100339,,,,,,,,object_06b.png,,,51,,,1,,object_09c.png,object_04a.png,object_03c.png,object_03c.png,,0.42857142857142855,1,,,,,,,,,,,
3166.699999988079,,directmemory_phase3,1103508,,,,,,,,object_14c.png,,,49,,,0,,object_05b.png,object_01a.png,object_14a.png,object_01a.png,,0.4230769230769231,0,,,,,,,,,,,
1716.699999988079,,directmemory_phase3,1105227,,,,,,,,object_04a.png,,,50,,,1,,object_12a.png,object_11c.png,object_11a.png,object_11c.png,,0.43037974683544306,1,,,,,,,,,,,
1863.300000011921,,directmemory_phase3,1107091,,,,,,,,object_12b.png,,,51,,,1,,object_08a.png,object_07b.png,object_01b.png,object_01b.png,,0.4375,1,,,,,,,,,,,
2127.100000023842,,directmemory_phase3,1109221,,,,,,,,object_05c.png,,,50,,,0,,object_04a.png,object_05b.png,object_13c.png,object_13c.png,,0.43209876543209874,0,,,,,,,,,,,
3796.899999976158,,directmemory_phase3,1113020,,,,,,,,object_08c.png,,,49,,,0,,object_04a.png,object_08b.png,object_03b.png,object_08b.png,,0.4268292682926829,0,,,,,,,,,,,
1968,,directmemory_phase3,1114989,,,,,,,,object_15b.png,,,51,,,1,,object_05a.png,object_08a.png,object_13a.png,object_13a.png,,0.43373493975903615,1,,,,,,,,,,,
2445.400000035763,,directmemory_phase3,1117437,,,,,,,,object_10c.png,,,51,,,0,,object_14a.png,object_08a.png,object_09a.png,object_14a.png,,0.42857142857142855,0,,,,,,,,,,,
2079.199999988079,,directmemory_phase3,1119518,,,,,,,,object_04c.png,,,50,,,1,,object_02c.png,object_09a.png,object_10c.png,object_09a.png,,0.43529411764705883,1,,,,,,,,,,,
1773.300000011921,,directmemory_phase3,1121293,,,,,,,,object_10a.png,,,51,,,1,,object_14a.png,object_02b.png,object_08a.png,object_08a.png,,0.4418604651162791,1,,,,,,,,,,,
2015,,directmemory_phase3,1123310,,,,,,,,object_01c.png,,,51,,,0,,object_05b.png,object_11b.png,object_08c.png,object_11b.png,,0.4367816091954023,0,,,,,,,,,,,
1846,,directmemory_phase3,1125158,,,,,,,,object_02b.png,,,51,,,1,,object_06b.png,object_03a.png,object_15b.png,object_15b.png,,0.4431818181818182,1,,,,,,,,,,,
2447,,directmemory_phase3,1127606,,,,,,,,object_06a.png,,,49,,,1,,object_01b.png,object_06b.png,object_02b.png,object_01b.png,,0.449438202247191,1,,,,,,,,,,,
1231.699999988079,,directmemory_phase3,1128839,,,,,,,,object_07b.png,,,50,,,1,,object_05a.png,object_02c.png,object_08c.png,object_02c.png,,0.45555555555555555,1,,,,,,,,,,,
null,,thebreak,1128942,,,,,,,,<p></p>,,,null,,,,,,,,,,,,,,,,,,,,,,
2744.800000011921,,intro_0,1131687,,,,,,,,instruct,,,32,,,,,,,,,,,,,,,,,,,,,,
null,,learn_phase(without_color)4,1135189,,,,,,,,black_plus_sign,,,null,object_02b.png,object_15b.png,,,,,,,,,,,,,,,,,,,,
null,,black_cross(without_color)4,1135925,,,,,,,,green,,,null,object_02b.png,object_15b.png,,,,,,,,,,,,,,,,,,,,
null,,rt_plussign_withcolor4,1136428,,,,,,,,green,,,null,object_02b.png,object_15b.png,,,,,,,,,,,,,,,,,,,,
1108.7999999523163,,rt_thecrossant_black4,1137696,,,,,,,,black_plus_sign,,,50,,,1,,,,,,,1,,,,,,,,,,,,
null,,color_black4,1137799,,,,,,,,black_plus_sign,,,null,,,,,,,,,,,,,,,,,,,,,,
null,,learn_phase(without_color)4,1141301,,,,,,,,black_plus_sign,,,null,object_01a.png,object_14c.png,,,,,,,,,,,,,,,,,,,,
null,,black_cross(without_color)4,1142279,,,,,,,,blue,,,null,object_01a.png,object_14c.png,,,,,,,,,,,,,,,,,,,,
null,,rt_plussign_withcolor4,1142781,,,,,,,,blue,,,null,object_01a.png,object_14c.png,,,,,,,,,,,,,,,,,,,,
1092.199999988079,,rt_thecrossant_black4,1143809,,,,,,,,black_plus_sign,,,49,,,1,,,,,,,1,,,,,,,,,,,,
null,,color_black4,1143910,,,,,,,,black_plus_sign,,,null,,,,,,,,,,,,,,,,,,,,,,
null,,learn_phase(without_color)4,1147412,,,,,,,,black_plus_sign,,,null,object_14a.png,object_10c.png,,,,,,,,,,,,,,,,,,,,
null,,black_cross(without_color)4,1148181,,,,,,,,blue,,,null,object_14a.png,object_10c.png,,,,,,,,,,,,,,,,,,,,
442.9000000357628,,rt_plussign_withcolor4,1148683,,,,,,,,blue,,,49,object_14a.png,object_10c.png,,,,,,,,,,,,,,,,,,,,
null,,rt_thecrossant_black4,1149919,,,,,,,,black_plus_sign,,,null,,,1,,,,,,,1,,,,,,,,,,,,
null,,color_black4,1150021,,,,,,,,black_plus_sign,,,null,,,,,,,,,,,,,,,,,,,,,,
null,,learn_phase(without_color)4,1153524,,,,,,,,black_plus_sign,,,null,object_15a.png,object_06c.png,,,,,,,,,,,,,,,,,,,,
null,,black_cross(without_color)4,1154244,,,,,,,,green,,,null,object_15a.png,object_06c.png,,,,,,,,,,,,,,,,,,,,
null,,rt_plussign_withcolor4,1154746,,,,,,,,green,,,null,object_15a.png,object_06c.png,,,,,,,,,,,,,,,,,,,,
1112.699999988079,,rt_thecrossant_black4,1156031,,,,,,,,black_plus_sign,,,50,,,1,,,,,,,1,,,,,,,,,,,,
null,,color_black4,1156133,,,,,,,,black_plus_sign,,,null,,,,,,,,,,,,,,,,,,,,,,
null,,learn_phase(without_color)4,1159636,,,,,,,,black_plus_sign,,,null,object_13c.png,object_07a.png,,,,,,,,,,,,,,,,,,,,
null,,black_cross(without_color)4,1160359,,,,,,,,blue,,,null,object_13c.png,object_07a.png,,,,,,,,,,,,,,,,,,,,
null,,rt_plussign_withcolor4,1160860,,,,,,,,blue,,,null,object_13c.png,object_07a.png,,,,,,,,,,,,,,,,,,,,
1152.5999999642372,,rt_thecrossant_black4,1162141,,,,,,,,black_plus_sign,,,49,,,1,,,,,,,1,,,,,,,,,,,,
null,,color_black4,1162243,,,,,,,,black_plus_sign,,,null,,,,,,,,,,,,,,,,,,,,,,
null,,learn_phase(without_color)4,1165745,,,,,,,,black_plus_sign,,,null,object_15c.png,object_09b.png,,,,,,,,,,,,,,,,,,,,
null,,black_cross(without_color)4,1166353,,,,,,,,blue,,,null,object_15c.png,object_09b.png,,,,,,,,,,,,,,,,,,,,
null,,rt_plussign_withcolor4,1166854,,,,,,,,blue,,,null,object_15c.png,object_09b.png,,,,,,,,,,,,,,,,,,,,
1360.300000011921,,rt_thecrossant_black4,1168250,,,,,,,,black_plus_sign,,,49,,,1,,,,,,,1,,,,,,,,,,,,
null,,color_black4,1168353,,,,,,,,black_plus_sign,,,null,,,,,,,,,,,,,,,,,,,,,,
null,,learn_phase(without_color)4,1171855,,,,,,,,black_plus_sign,,,null,object_01c.png,object_11b.png,,,,,,,,,,,,,,,,,,,,
null,,black_cross(without_color)4,1172587,,,,,,,,blue,,,null,object_01c.png,object_11b.png,,,,,,,,,,,,,,,,,,,,
null,,rt_plussign_withcolor4,1173090,,,,,,,,blue,,,null,object_01c.png,object_11b.png,,,,,,,,,,,,,,,,,,,,
787.7000000476837,,rt_thecrossant_black4,1174364,,,,,,,,black_plus_sign,,,49,,,1,,,,,,,1,,,,,,,,,,,,
null,,color_black4,1174466,,,,,,,,black_plus_sign,,,null,,,,,,,,,,,,,,,,,,,,,,
null,,learn_phase(without_color)4,1177969,,,,,,,,black_plus_sign,,,null,object_08b.png,object_08c.png,,,,,,,,,,,,,,,,,,,,
null,,black_cross(without_color)4,1178562,,,,,,,,green,,,null,object_08b.png,object_08c.png,,,,,,,,,,,,,,,,,,,,
null,,rt_plussign_withcolor4,1179064,,,,,,,,green,,,null,object_08b.png,object_08c.png,,,,,,,,,,,,,,,,,,,,
1008.1000000238419,,rt_thecrossant_black4,1180475,,,,,,,,black_plus_sign,,,50,,,1,,,,,,,1,,,,,,,,,,,,
null,,color_black4,1180577,,,,,,,,black_plus_sign,,,null,,,,,,,,,,,,,,,,,,,,,,
null,,learn_phase(without_color)4,1184079,,,,,,,,black_plus_sign,,,null,object_06b.png,object_13b.png,,,,,,,,,,,,,,,,,,,,
null,,black_cross(without_color)4,1185179,,,,,,,,green,,,null,object_06b.png,object_13b.png,,,,,,,,,,,,,,,,,,,,
null,,rt_plussign_withcolor4,1185682,,,,,,,,green,,,null,object_06b.png,object_13b.png,,,,,,,,,,,,,,,,,,,,
893.8000000119209,,rt_thecrossant_black4,1186586,,,,,,,,black_plus_sign,,,50,,,1,,,,,,,1,,,,,,,,,,,,
null,,color_black4,1186689,,,,,,,,black_plus_sign,,,null,,,,,,,,,,,,,,,,,,,,,,
null,,learn_phase(without_color)4,1190192,,,,,,,,black_plus_sign,,,null,object_07c.png,object_04a.png,,,,,,,,,,,,,,,,,,,,
null,,black_cross(without_color)4,1190742,,,,,,,,green,,,null,object_07c.png,object_04a.png,,,,,,,,,,,,,,,,,,,,
null,,rt_plussign_withcolor4,1191244,,,,,,,,green,,,null,object_07c.png,object_04a.png,,,,,,,,,,,,,,,,,,,,
1231.199999988079,,rt_thecrossant_black4,1192700,,,,,,,,black_plus_sign,,,50,,,1,,,,,,,1,,,,,,,,,,,,
null,,color_black4,1192802,,,,,,,,black_plus_sign,,,null,,,,,,,,,,,,,,,,,,,,,,
null,,learn_phase(without_color)4,1196304,,,,,,,,black_plus_sign,,,null,object_08a.png,object_05a.png,,,,,,,,,,,,,,,,,,,,
null,,black_cross(without_color)4,1196948,,,,,,,,blue,,,null,object_08a.png,object_05a.png,,,,,,,,,,,,,,,,,,,,
451.5,,rt_plussign_withcolor4,1197449,,,,,,,,blue,,,49,object_08a.png,object_05a.png,,,,,,,,,,,,,,,,,,,,
null,,rt_thecrossant_black4,1198810,,,,,,,,black_plus_sign,,,null,,,1,,,,,,,1,,,,,,,,,,,,
null,,color_black4,1198912,,,,,,,,black_plus_sign,,,null,,,,,,,,,,,,,,,,,,,,,,
null,,learn_phase(without_color)4,1202414,,,,,,,,black_plus_sign,,,null,object_08c.png,object_04b.png,,,,,,,,,,,,,,,,,,,,
null,,black_cross(without_color)4,1203361,,,,,,,,blue,,,null,object_08c.png,object_04b.png,,,,,,,,,,,,,,,,,,,,
null,,rt_plussign_withcolor4,1203862,,,,,,,,blue,,,null,object_08c.png,object_04b.png,,,,,,,,,,,,,,,,,,,,
917.8000000119209,,rt_thecrossant_black4,1204919,,,,,,,,black_plus_sign,,,49,,,1,,,,,,,1,,,,,,,,,,,,
null,,color_black4,1205021,,,,,,,,black_plus_sign,,,null,,,,,,,,,,,,,,,,,,,,,,
null,,learn_phase(without_color)4,1208523,,,,,,,,black_plus_sign,,,null,object_13a.png,object_15b.png,,,,,,,,,,,,,,,,,,,,
null,,black_cross(without_color)4,1209410,,,,,,,,green,,,null,object_13a.png,object_15b.png,,,,,,,,,,,,,,,,,,,,
null,,rt_plussign_withcolor4,1209913,,,,,,,,green,,,null,object_13a.png,object_15b.png,,,,,,,,,,,,,,,,,,,,
1589.3999999761581,,rt_thecrossant_black4,1211029,,,,,,,,black_plus_sign,,,50,,,1,,,,,,,1,,,,,,,,,,,,
null,,color_black4,1211132,,,,,,,,black_plus_sign,,,null,,,,,,,,,,,,,,,,,,,,,,
null,,learn_phase(without_color)4,1214635,,,,,,,,black_plus_sign,,,null,object_10b.png,object_06c.png,,,,,,,,,,,,,,,,,,,,
null,,black_cross(without_color)4,1215486,,,,,,,,green,,,null,object_10b.png,object_06c.png,,,,,,,,,,,,,,,,,,,,
null,,rt_plussign_withcolor4,1215990,,,,,,,,green,,,null,object_10b.png,object_06c.png,,,,,,,,,,,,,,,,,,,,
1068.800000011921,,rt_thecrossant_black4,1217141,,,,,,,,black_plus_sign,,,50,,,1,,,,,,,1,,,,,,,,,,,,
null,,color_black4,1217243,,,,,,,,black_plus_sign,,,null,,,,,,,,,,,,,,,,,,,,,,
null,,learn_phase(without_color)4,1220745,,,,,,,,black_plus_sign,,,null,object_01b.png,object_12b.png,,,,,,,,,,,,,,,,,,,,
null,,black_cross(without_color)4,1221422,,,,,,,,green,,,null,object_01b.png,object_12b.png,,,,,,,,,,,,,,,,,,,,
null,,rt_plussign_withcolor4,1221925,,,,,,,,green,,,null,object_01b.png,object_12b.png,,,,,,,,,,,,,,,,,,,,
962.7999999523163,,rt_thecrossant_black4,1223263,,,,,,,,black_plus_sign,,,50,,,1,,,,,,,1,,,,,,,,,,,,
null,,color_black4,1223364,,,,,,,,black_plus_sign,,,null,,,,,,,,,,,,,,,,,,,,,,
null,,learn_phase(without_color)4,1226866,,,,,,,,black_plus_sign,,,null,object_15c.png,object_14b.png,,,,,,,,,,,,,,,,,,,,
null,,black_cross(without_color)4,1227780,,,,,,,,green,,,null,object_15c.png,object_14b.png,,,,,,,,,,,,,,,,,,,,
null,,rt_plussign_withcolor4,1228282,,,,,,,,green,,,null,object_15c.png,object_14b.png,,,,,,,,,,,,,,,,,,,,
1020,,rt_thecrossant_black4,1229372,,,,,,,,black_plus_sign,,,50,,,1,,,,,,,1,,,,,,,,,,,,
null,,color_black4,1229475,,,,,,,,black_plus_sign,,,null,,,,,,,,,,,,,,,,,,,,,,
null,,learn_phase(without_color)4,1232977,,,,,,,,black_plus_sign,,,null,object_13c.png,object_05c.png,,,,,,,,,,,,,,,,,,,,
null,,black_cross(without_color)4,1234023,,,,,,,,blue,,,null,object_13c.png,object_05c.png,,,,,,,,,,,,,,,,,,,,
null,,rt_plussign_withcolor4,1234525,,,,,,,,blue,,,null,object_13c.png,object_05c.png,,,,,,,,,,,,,,,,,,,,
1292.4000000357628,,rt_thecrossant_black4,1235483,,,,,,,,black_plus_sign,,,49,,,1,,,,,,,1,,,,,,,,,,,,
null,,color_black4,1235584,,,,,,,,black_plus_sign,,,null,,,,,,,,,,,,,,,,,,,,,,
null,,learn_phase(without_color)4,1239088,,,,,,,,black_plus_sign,,,null,object_09c.png,object_11b.png,,,,,,,,,,,,,,,,,,,,
null,,black_cross(without_color)4,1239943,,,,,,,,green,,,null,object_09c.png,object_11b.png,,,,,,,,,,,,,,,,,,,,
null,,rt_plussign_withcolor4,1240445,,,,,,,,green,,,null,object_09c.png,object_11b.png,,,,,,,,,,,,,,,,,,,,
1486.800000011921,,rt_thecrossant_black4,1241593,,,,,,,,black_plus_sign,,,50,,,1,,,,,,,1,,,,,,,,,,,,
null,,color_black4,1241695,,,,,,,,black_plus_sign,,,null,,,,,,,,,,,,,,,,,,,,,,
null,,learn_phase(without_color)4,1245197,,,,,,,,black_plus_sign,,,null,object_11a.png,object_01a.png,,,,,,,,,,,,,,,,,,,,
null,,black_cross(without_color)4,1246045,,,,,,,,blue,,,null,object_11a.png,object_01a.png,,,,,,,,,,,,,,,,,,,,
null,,rt_plussign_withcolor4,1246547,,,,,,,,blue,,,null,object_11a.png,object_01a.png,,,,,,,,,,,,,,,,,,,,
1202.5,,rt_thecrossant_black4,1247706,,,,,,,,black_plus_sign,,,49,,,1,,,,,,,1,,,,,,,,,,,,
null,,color_black4,1247809,,,,,,,,black_plus_sign,,,null,,,,,,,,,,,,,,,,,,,,,,
null,,learn_phase(without_color)4,1251311,,,,,,,,black_plus_sign,,,null,object_05b.png,object_02c.png,,,,,,,,,,,,,,,,,,,,
null,,black_cross(without_color)4,1252336,,,,,,,,blue,,,null,object_05b.png,object_02c.png,,,,,,,,,,,,,,,,,,,,
null,,rt_plussign_withcolor4,1252838,,,,,,,,blue,,,null,object_05b.png,object_02c.png,,,,,,,,,,,,,,,,,,,,
1667,,rt_thecrossant_black4,1253817,,,,,,,,black_plus_sign,,,49,,,1,,,,,,,1,,,,,,,,,,,,
null,,color_black4,1253919,,,,,,,,black_plus_sign,,,null,,,,,,,,,,,,,,,,,,,,,,
null,,learn_phase(without_color)4,1257421,,,,,,,,black_plus_sign,,,null,object_10a.png,object_08a.png,,,,,,,,,,,,,,,,,,,,
null,,black_cross(without_color)4,1258206,,,,,,,,blue,,,null,object_10a.png,object_08a.png,,,,,,,,,,,,,,,,,,,,
null,,rt_plussign_withcolor4,1258709,,,,,,,,blue,,,null,object_10a.png,object_08a.png,,,,,,,,,,,,,,,,,,,,
1315.300000011921,,rt_thecrossant_black4,1259930,,,,,,,,black_plus_sign,,,49,,,1,,,,,,,1,,,,,,,,,,,,
null,,color_black4,1260031,,,,,,,,black_plus_sign,,,null,,,,,,,,,,,,,,,,,,,,,,
null,,learn_phase(without_color)4,1263534,,,,,,,,black_plus_sign,,,null,object_04c.png,object_02a.png,,,,,,,,,,,,,,,,,,,,
null,,black_cross(without_color)4,1264335,,,,,,,,blue,,,null,object_04c.png,object_02a.png,,,,,,,,,,,,,,,,,,,,
null,,rt_plussign_withcolor4,1264837,,,,,,,,blue,,,null,object_04c.png,object_02a.png,,,,,,,,,,,,,,,,,,,,
1156.8999999761581,,rt_thecrossant_black4,1266039,,,,,,,,black_plus_sign,,,49,,,1,,,,,,,1,,,,,,,,,,,,
null,,color_black4,1266142,,,,,,,,black_plus_sign,,,null,,,,,,,,,,,,,,,,,,,,,,
null,,learn_phase(without_color)4,1269644,,,,,,,,black_plus_sign,,,null,object_09a.png,object_04c.png,,,,,,,,,,,,,,,,,,,,
null,,black_cross(without_color)4,1270143,,,,,,,,green,,,null,object_09a.png,object_04c.png,,,,,,,,,,,,,,,,,,,,
null,,rt_plussign_withcolor4,1270646,,,,,,,,green,,,null,object_09a.png,object_04c.png,,,,,,,,,,,,,,,,,,,,
1142.6000000238419,,rt_thecrossant_black4,1272151,,,,,,,,black_plus_sign,,,50,,,1,,,,,,,1,,,,,,,,,,,,
null,,color_black4,1272253,,,,,,,,black_plus_sign,,,null,,,,,,,,,,,,,,,,,,,,,,
null,,learn_phase(without_color)4,1275756,,,,,,,,black_plus_sign,,,null,object_02c.png,object_07b.png,,,,,,,,,,,,,,,,,,,,
null,,black_cross(without_color)4,1276472,,,,,,,,blue,,,null,object_02c.png,object_07b.png,,,,,,,,,,,,,,,,,,,,
null,,rt_plussign_withcolor4,1276977,,,,,,,,blue,,,null,object_02c.png,object_07b.png,,,,,,,,,,,,,,,,,,,,
781,,rt_thecrossant_black4,1278265,,,,,,,,black_plus_sign,,,49,,,1,,,,,,,1,,,,,,,,,,,,
null,,color_black4,1278370,,,,,,,,black_plus_sign,,,null,,,,,,,,,,,,,,,,,,,,,,
null,,learn_phase(without_color)4,1281872,,,,,,,,black_plus_sign,,,null,object_03a.png,object_14a.png,,,,,,,,,,,,,,,,,,,,
null,,black_cross(without_color)4,1282722,,,,,,,,green,,,null,object_03a.png,object_14a.png,,,,,,,,,,,,,,,,,,,,
null,,rt_plussign_withcolor4,1283224,,,,,,,,green,,,null,object_03a.png,object_14a.png,,,,,,,,,,,,,,,,,,,,
1072,,rt_thecrossant_black4,1284379,,,,,,,,black_plus_sign,,,50,,,1,,,,,,,1,,,,,,,,,,,,
null,,color_black4,1284481,,,,,,,,black_plus_sign,,,null,,,,,,,,,,,,,,,,,,,,,,
null,,learn_phase(without_color)4,1287983,,,,,,,,black_plus_sign,,,null,object_01b.png,object_06a.png,,,,,,,,,,,,,,,,,,,,
null,,black_cross(without_color)4,1289033,,,,,,,,blue,,,null,object_01b.png,object_06a.png,,,,,,,,,,,,,,,,,,,,
null,,rt_plussign_withcolor4,1289535,,,,,,,,blue,,,null,object_01b.png,object_06a.png,,,,,,,,,,,,,,,,,,,,
1231.199999988079,,rt_thecrossant_black4,1290490,,,,,,,,black_plus_sign,,,49,,,1,,,,,,,1,,,,,,,,,,,,
null,,color_black4,1290592,,,,,,,,black_plus_sign,,,null,,,,,,,,,,,,,,,,,,,,,,
null,,learn_phase(without_color)4,1294094,,,,,,,,black_plus_sign,,,null,object_04a.png,object_11c.png,,,,,,,,,,,,,,,,,,,,
null,,black_cross(without_color)4,1294699,,,,,,,,green,,,null,object_04a.png,object_11c.png,,,,,,,,,,,,,,,,,,,,
null,,rt_plussign_withcolor4,1295201,,,,,,,,green,,,null,object_04a.png,object_11c.png,,,,,,,,,,,,,,,,,,,,
1204.800000011921,,rt_thecrossant_black4,1296602,,,,,,,,black_plus_sign,,,50,,,1,,,,,,,1,,,,,,,,,,,,
null,,color_black4,1296705,,,,,,,,black_plus_sign,,,null,,,,,,,,,,,,,,,,,,,,,,
null,,learn_phase(without_color)4,1300209,,,,,,,,black_plus_sign,,,null,object_12a.png,object_03b.png,,,,,,,,,,,,,,,,,,,,
null,,black_cross(without_color)4,1301265,,,,,,,,blue,,,null,object_12a.png,object_03b.png,,,,,,,,,,,,,,,,,,,,
499.9000000357628,,rt_plussign_withcolor4,1301766,,,,,,,,blue,,,49,object_12a.png,object_03b.png,,,,,,,,,,,,,,,,,,,,
null,,rt_thecrossant_black4,1302714,,,,,,,,black_plus_sign,,,null,,,1,,,,,,,1,,,,,,,,,,,,
null,,color_black4,1302831,,,,,,,,black_plus_sign,,,null,,,,,,,,,,,,,,,,,,,,,,
null,,learn_phase(without_color)4,1306334,,,,,,,,black_plus_sign,,,null,object_06b.png,object_03c.png,,,,,,,,,,,,,,,,,,,,
null,,black_cross(without_color)4,1307054,,,,,,,,green,,,null,object_06b.png,object_03c.png,,,,,,,,,,,,,,,,,,,,
null,,rt_plussign_withcolor4,1307556,,,,,,,,green,,,null,object_06b.png,object_03c.png,,,,,,,,,,,,,,,,,,,,
1323.5,,rt_thecrossant_black4,1308841,,,,,,,,black_plus_sign,,,50,,,1,,,,,,,1,,,,,,,,,,,,
null,,color_black4,1308943,,,,,,,,black_plus_sign,,,null,,,,,,,,,,,,,,,,,,,,,,
null,,learn_phase(without_color)4,1312446,,,,,,,,black_plus_sign,,,null,object_12c.png,object_12a.png,,,,,,,,,,,,,,,,,,,,
null,,black_cross(without_color)4,1313545,,,,,,,,blue,,,null,object_12c.png,object_12a.png,,,,,,,,,,,,,,,,,,,,
445,,rt_plussign_withcolor4,1314048,,,,,,,,blue,,,49,object_12c.png,object_12a.png,,,,,,,,,,,,,,,,,,,,
null,,rt_thecrossant_black4,1314954,,,,,,,,black_plus_sign,,,null,,,1,,,,,,,1,,,,,,,,,,,,
null,,color_black4,1315056,,,,,,,,black_plus_sign,,,null,,,,,,,,,,,,,,,,,,,,,,
null,,thebreak,1315158,,,,,,,,<p></p>,,,null,,,,,,,,,,,,,,,,,,,,,,
3880.699999988079,,intro_0,1319041,,,,,,,,instruct,,,32,,,,,,,,,,,,,,,,,,,,,,
3486.899999976158,,directmemory_phase4,1322529,,,,,,,,object_09c.png,,,49,,,1,,object_11b.png,object_01b.png,object_03b.png,object_11b.png,,0.46153846153846156,1,,,,,,,,,,,
2998.399999976158,,directmemory_phase4,1325530,,,,,,,,object_06c.png,,,51,,,1,,object_11a.png,object_02c.png,object_15a.png,object_15a.png,,0.4673913043478261,1,,,,,,,,,,,
1413.7999999523163,,directmemory_phase4,1326945,,,,,,,,object_02b.png,,,49,,,1,,object_15b.png,object_12a.png,object_10a.png,object_15b.png,,0.4731182795698925,1,,,,,,,,,,,
1687.0999999642372,,directmemory_phase4,1328633,,,,,,,,object_06a.png,,,50,,,1,,object_04b.png,object_01b.png,object_15c.png,object_01b.png,,0.4787234042553192,1,,,,,,,,,,,
2414.599999964237,,directmemory_phase4,1331050,,,,,,,,object_01c.png,,,51,,,0,,object_11b.png,object_01a.png,object_13b.png,object_11b.png,,0.47368421052631576,0,,,,,,,,,,,
1158.7000000476837,,directmemory_phase4,1332210,,,,,,,,object_03b.png,,,50,,,1,,object_09c.png,object_12a.png,object_06b.png,object_12a.png,,0.4791666666666667,1,,,,,,,,,,,
1357.5,,directmemory_phase4,1333570,,,,,,,,object_07c.png,,,50,,,1,,object_10a.png,object_04a.png,object_08a.png,object_04a.png,,0.4845360824742268,1,,,,,,,,,,,
1407.1000000238419,,directmemory_phase4,1334979,,,,,,,,object_04c.png,,,49,,,1,,object_09a.png,object_11c.png,object_15c.png,object_09a.png,,0.4897959183673469,1,,,,,,,,,,,
2013.3999999761581,,directmemory_phase4,1336995,,,,,,,,object_06b.png,,,51,,,1,,object_11c.png,object_11b.png,object_03c.png,object_03c.png,,0.494949494949495,1,,,,,,,,,,,
2494.099999964237,,directmemory_phase4,1339491,,,,,,,,object_15c.png,,,49,,,1,,object_14b.png,object_11c.png,object_14a.png,object_14b.png,,0.5,1,,,,,,,,,,,
1814.699999988079,,directmemory_phase4,1341308,,,,,,,,object_04b.png,,,51,,,1,,object_11b.png,object_07c.png,object_08c.png,object_08c.png,,0.504950495049505,1,,,,,,,,,,,
1902.1000000238419,,directmemory_phase4,1343212,,,,,,,,object_11c.png,,,50,,,1,,object_14b.png,object_04a.png,object_01a.png,object_04a.png,,0.5098039215686274,1,,,,,,,,,,,
1685.199999988079,,directmemory_phase4,1344899,,,,,,,,object_10c.png,,,49,,,1,,object_14a.png,object_11b.png,object_09c.png,object_14a.png,,0.5145631067961165,1,,,,,,,,,,,
2535.399999976158,,directmemory_phase4,1347435,,,,,,,,object_14c.png,,,51,,,1,,object_06b.png,object_01c.png,object_01a.png,object_01a.png,,0.5192307692307693,1,,,,,,,,,,,
1534.699999988079,,directmemory_phase4,1348971,,,,,,,,object_07b.png,,,50,,,0,,object_02c.png,object_08a.png,object_10c.png,object_02c.png,,0.5142857142857142,0,,,,,,,,,,,
2728,,directmemory_phase4,1351701,,,,,,,,object_08b.png,,,51,,,0,,object_08c.png,object_02c.png,object_05a.png,object_08c.png,,0.5094339622641509,0,,,,,,,,,,,
2022.2999999523163,,directmemory_phase4,1353724,,,,,,,,object_10a.png,,,49,,,1,,object_08a.png,object_08c.png,object_03a.png,object_08a.png,,0.514018691588785,1,,,,,,,,,,,
3150.800000011921,,directmemory_phase4,1356877,,,,,,,,object_08a.png,,,51,,,0,,object_05a.png,object_08b.png,object_15c.png,object_05a.png,,0.5092592592592593,0,,,,,,,,,,,
1639.1000000238419,,directmemory_phase4,1358517,,,,,,,,object_12c.png,,,50,,,1,,object_01c.png,object_12a.png,object_04a.png,object_12a.png,,0.5137614678899083,1,,,,,,,,,,,
1894.4000000357628,,directmemory_phase4,1360413,,,,,,,,object_15b.png,,,49,,,1,,object_13a.png,object_11c.png,object_12a.png,object_13a.png,,0.5181818181818182,1,,,,,,,,,,,
2520.2000000476837,,directmemory_phase4,1362935,,,,,,,,object_12b.png,,,50,,,1,,object_09a.png,object_01b.png,object_15b.png,object_01b.png,,0.5225225225225225,1,,,,,,,,,,,
1886.1000000238419,,directmemory_phase4,1364823,,,,,,,,object_13b.png,,,49,,,1,,object_06b.png,object_14a.png,object_14c.png,object_06b.png,,0.5267857142857143,1,,,,,,,,,,,
2133.100000023842,,directmemory_phase4,1366959,,,,,,,,object_11a.png,,,49,,,0,,object_02c.png,object_07b.png,object_01a.png,object_01a.png,,0.5221238938053098,0,,,,,,,,,,,
2469.800000011921,,directmemory_phase4,1369431,,,,,,,,object_03a.png,,,51,,,0,,object_14a.png,object_01b.png,object_02a.png,object_14a.png,,0.5175438596491229,0,,,,,,,,,,,
2446.199999988079,,directmemory_phase4,1371879,,,,,,,,object_07a.png,,,50,,,0,,object_01a.png,object_11a.png,object_13c.png,object_13c.png,,0.5130434782608696,0,,,,,,,,,,,
2072.099999964237,,directmemory_phase4,1373952,,,,,,,,object_05c.png,,,51,,,0,,object_13c.png,object_04a.png,object_12c.png,object_13c.png,,0.5086206896551724,0,,,,,,,,,,,
1661.800000011921,,directmemory_phase4,1375615,,,,,,,,object_02a.png,,,49,,,0,,object_05c.png,object_04c.png,object_14a.png,object_04c.png,,0.5042735042735043,0,,,,,,,,,,,
1910.8999999761581,,directmemory_phase4,1377527,,,,,,,,object_05b.png,,,49,,,1,,object_02c.png,object_04a.png,object_12c.png,object_02c.png,,0.5084745762711864,1,,,,,,,,,,,
2679.899999976158,,directmemory_phase4,1380209,,,,,,,,object_09b.png,,,49,,,0,,object_12c.png,object_15c.png,object_01a.png,object_15c.png,,0.5042016806722689,0,,,,,,,,,,,
1542.1000000238419,,directmemory_phase4,1381753,,,,,,,,object_10b.png,,,51,,,1,,object_13c.png,object_05c.png,object_06c.png,object_06c.png,,0.5083333333333333,1,,,,,,,,,,,
null,,thebreak,1381856,,,,,,,,<p></p>,,,null,,,,,,,,,,,,,,,,,,,,,,
7952.199999988079,,intro_0,1389810,,,,,,,,instruct,,,32,,,,,,,,,,,,,,,,,,,,,,
20466.19999998808,,intro_1,1410277,,,,,,,,instruct,,,32,,,,,,,,,,,,,,,,,,,,,,
10167.800000011921,,intro_2,1420445,,,,,,,,instruct,,,32,,,,,,,,,,,,,,,,,,,,,,
,,intro_3,1442415,,,,,,,,instruct,,,,,,,,,,,,,,,,,,,,,,,,,
4938.400000035763,,intro_4,1447354,,,,,,,,instruct,,,32,,,,,,,,,,,,,,,,,,,,,,
null,,thebreak,1447456,,,,,,,,<p></p>,,,null,,,,,,,,,,,,,,,,,,,,,,
2743.699999988079,,intro_0,1450202,,,,,,,,instruct,,,32,,,,,,,,,,,,,,,,,,,,,,
16513.100000023842,,intro_1,1466716,,,,,,,,instruct,,,32,,,,,,,,,,,,,,,,,,,,,,
3310.300000011921,,intro_2,1470028,,,,,,,,instruct,,,32,,,,,,,,,,,,,,,,,,,,,,
,,intro_3,1493501,,,,,,,,instruct,,,,,,,,,,,,,,,,,,,,,,,,,
2081.2999999523163,,intro_4,1495583,,,,,,,,instruct,,,32,,,,,,,,,,,,,,,,,,,,,,
null,,thebreak,1495685,,,,,,,,<p></p>,,,null,,,,,,,,,,,,,,,,,,,,,,
888.3999999761581,,intro_0,1496575,,,,,,,,instruct,,,32,,,,,,,,,,,,,,,,,,,,,,
871.5,,intro_1,1497447,,,,,,,,instruct,,,32,,,,,,,,,,,,,,,,,,,,,,
1808.8999999761581,,intro_2,1499256,,,,,,,,instruct,,,32,,,,,,,,,,,,,,,,,,,,,,
,,intro_3,1507547,,,,,,,,instruct,,,,,,,,,,,,,,,,,,,,,,,,,
1709.300000011921,,intro_4,1509257,,,,,,,,instruct,,,32,,,,,,,,,,,,,,,,,,,,,,
null,,thebreak,1509358,,,,,,,,<p></p>,,,null,,,,,,,,,,,,,,,,,,,,,,
418.19999998807907,,intro_0,1509777,,,,,,,,instruct,,,32,,,,,,,,,,,,,,,,,,,,,,
518.4000000357628,,intro_1,1510297,,,,,,,,instruct,,,32,,,,,,,,,,,,,,,,,,,,,,
751.3999999761581,,intro_2,1511049,,,,,,,,instruct,,,32,,,,,,,,,,,,,,,,,,,,,,
,,intro_3,1515346,,,,,,,,instruct,,,,,,,,,,,,,,,,,,,,,,,,,
8304,,intro_4,1523651,,,,,,,,instruct,,,32,,,,,,,,,,,,,,,,,,,,,,
2095.800000011921,,inference_phase,1525748,,,,,,,,object_05c.png,,,50,object_08c.png,object_08b.png,1,,,,,object_07a.png,,1,,object_07a.png,,,,,,,,,,
2573.300000011921,,inference_phase,1528324,,,,,,,,object_09a.png,,,51,object_05c.png,object_06b.png,0,,,,,object_02a.png,,0.5,,object_02a.png,,,,,,,,,,
1662.8999999761581,,inference_phase,1529989,,,,,,,,object_07b.png,,,50,object_02b.png,object_05b.png,0,,,,,object_05b.png,,0.3333333333333333,,object_13c.png,,,,,,,,,,
1470,,inference_phase,1531461,,,,,,,,object_09c.png,,,51,object_02a.png,object_01c.png,1,,,,,object_01c.png,,0.5,,object_06b.png,,,,,,,,,,
1902.1000000238419,,inference_phase,1533365,,,,,,,,object_14c.png,,,49,object_04c.png,object_11a.png,0,,,,,object_11a.png,,0.4,,object_05a.png,,,,,,,,,,
2350.199999988079,,inference_phase,1535717,,,,,,,,object_03b.png,,,51,object_03a.png,object_12c.png,1,,,,,object_12c.png,,0.5,,object_01a.png,,,,,,,,,,
1646.3999999761581,,inference_phase,1537365,,,,,,,,object_13a.png,,,49,object_02b.png,object_07c.png,1,,,,,object_02b.png,,0.5714285714285714,,object_14a.png,,,,,,,,,,
1510.800000011921,,inference_phase,1538877,,,,,,,,object_07c.png,,,49,object_11c.png,object_07b.png,1,,,,,object_11c.png,,0.625,,object_04c.png,,,,,,,,,,
1495.4000000357628,,inference_phase,1540374,,,,,,,,object_03a.png,,,51,object_02c.png,object_11a.png,0,,,,,object_10c.png,,0.5555555555555556,,object_10c.png,,,,,,,,,,
1589.8999999761581,,inference_phase,1541965,,,,,,,,object_06a.png,,,51,object_15c.png,object_12b.png,1,,,,,object_12b.png,,0.6,,object_11a.png,,,,,,,,,,
2264,,inference_phase,1544230,,,,,,,,object_10b.png,,,51,object_15c.png,object_15a.png,1,,,,,object_15a.png,,0.6363636363636364,,object_08b.png,,,,,,,,,,
2207.099999964237,,inference_phase,1546438,,,,,,,,object_10a.png,,,51,object_15c.png,object_05a.png,1,,,,,object_05a.png,,0.6666666666666666,,object_09a.png,,,,,,,,,,
1294.3999999761581,,inference_phase,1547734,,,,,,,,object_09b.png,,,50,object_14b.png,object_11c.png,0,,,,,object_14b.png,,0.6153846153846154,,object_04a.png,,,,,,,,,,
2487.199999988079,,inference_phase,1550222,,,,,,,,object_13b.png,,,50,object_04c.png,object_07b.png,1,,,,,object_03c.png,,0.6428571428571429,,object_03c.png,,,,,,,,,,
2015.699999988079,,inference_phase,1552239,,,,,,,,object_04b.png,,,49,object_11b.png,object_11c.png,0,,,,,object_08b.png,,0.6,,object_08b.png,,,,,,,,,,
,,survey,1726391,,,,,,,,survey-questions,,,,,,,,,,,,,,,,none,high,No. There was no time to do anything else. This went so fast there was no time to do anything else.,I did like y'all suggested and made up little stories about the objects to help remember.,Some were. I just had easier times remembering them. Either by color or shape. I made sure to pay extra attention to remember that particular one.  Each round I tried to remember more and more.,No. Never but I enjoyed this one.,It was hard to remember but I gave it my best shot. Some I could but I know I didn't get them all. Enjoyed it though.,,,
11743.400000035763,,thank_you,1738152,,,,,,,,<p> Congratulations, you are all done!</p><p> <strong>Please click space on your keyboard to end the experiment!</strong> The secret code to enter at the beginning screen is: <strong>CIMBPENS</strong></p><p> Please make sure to submit the HIT and email uciccnl@gmail.com if you had any issues! </p><br><p>Please remember to submit this data by clicking space after copying the code. Failure of submission will lead to in-complete payment</p>,,,32,,,,,,,,,,,,,,,,,,,,1,0,C78LSMTN
