rt,responses,trial_type,time_elapsed,identifier_a,identifier_b,identifier_c,tasktype,browser_type,local_time,UTC_time,stimulus,button_pressed,response,key_press,stimulus_left,stimulus_right,practice_cumulative_accuracy,accuracy,stimulus_down_left,stimulus_down_mid,stimulus_down_right,stimulus_correct,prac_weighted_accuracy,cumulative_accuracy,failed_practice,weighted_accuracy,stimulus_middle,problems,smooth,distraction,strategies,easier,similar,comments,detectfocus,breakfocus,completion_code
15778.599999964237,{worker_id:67c42099df7ccfecb74a7171},id_enter,15782,object_05c.png; object_14c.png; object_01c.png; object_09c.png; object_08c.png; object_06c.png; object_03a.png; object_03c.png; object_07c.png; object_03b.png; object_09b.png; object_13c.png; object_07b.png; object_15a.png; object_13a.png,object_02a.png; object_09a.png; object_04a.png; object_08a.png; object_11c.png; object_11b.png; object_05b.png; object_14b.png; object_05a.png; object_12a.png; object_01b.png; object_14a.png; object_10c.png; object_06b.png; object_04c.png,object_15c.png; object_10a.png; object_12c.png; object_02c.png; object_04b.png; object_10b.png; object_12b.png; object_02b.png; object_15b.png; object_06a.png; object_13b.png; object_07a.png; object_01a.png; object_08b.png; object_11a.png,blocked,Mozilla/5.0 (Windows NT 10.0; Win64; x64) AppleWebKit/537.36 (KHTML, like Gecko) Chrome/135.0.0.0 Safari/537.36,5/2/2025, 8:24:35 PM,2025-05-02 20:24:35.047,,,,,,,,,,,,,,,,,,,,,,,,,,,
12932.699999988079,,make_fullscreen,28742,,,,,,,,fullscreen,0,,,,,,,,,,,,,,,,,,,,,,,,,
3070.7999999523163,,instruct_1,31816,,,,,,,,instruct,0,Next,,,,,,,,,,,,,,,,,,,,,,,,
14060.099999964237,,instruct_2,45913,,,,,,,,instruct,1,Next,,,,,,,,,,,,,,,,,,,,,,,,
49224.80000001192,,instruct_3,95139,,,,,,,,instruct,1,Next,,,,,,,,,,,,,,,,,,,,,,,,
9017,,instruct_4,104159,,,,,,,,instruct,1,Next,,,,,,,,,,,,,,,,,,,,,,,,
12580.300000011921,,instruct_5,116743,,,,,,,,instruct,1,Next,,,,,,,,,,,,,,,,,,,,,,,,
4375.200000047684,,instruct_6,121120,,,,,,,,instruct,1,Next,,,,,,,,,,,,,,,,,,,,,,,,
17792.80000001192,,instruct_7,138914,,,,,,,,instruct,1,Next,,,,,,,,,,,,,,,,,,,,,,,,
null,,prac_atten_color_black,139637,,,,,,,,black_plus_sign,,,null,,,,,,,,,,,,,,,,,,,,,,,
null,,prac_atten_color,140335,,,,,,,,<p style='position:absolute;top: 50%;right: 50%;transform: translate(50%, -50%);font-size: 125px;color: blue;'>+</p>,,,null,,,,,,,,,,,,,,,,,,,,,,,
null,,prac_atten_color_black,142346,,,,,,,,black_plus_sign,,,null,,,,,,,,,,,,,,,,,,,,,,,
135108.69999998808,,attentioncheck_help,277458,,,,,,,,instruct,,,32,,,,,,,,,,,,,,,,,,,,,,,
null,,prac_atten_color_black,278181,,,,,,,,black_plus_sign,,,null,,,,,,,,,,,,,,,,,,,,,,,
null,,prac_atten_color,278836,,,,,,,,<p style='position:absolute;top: 50%;right: 50%;transform: translate(50%, -50%);font-size: 125px;color: green;'>+</p>,,,null,,,,,,,,,,,,,,,,,,,,,,,
354.80000001192093,,prac_atten_color_black,280842,,,,,,,,black_plus_sign,,,50,,,,,,,,,,,,,,,,,,,,,,,
null,,prac_atten_color_black,281598,,,,,,,,black_plus_sign,,,null,,,,,,,,,,,,,,,,,,,,,,,
549.6999999880791,,prac_atten_color,282675,,,,,,,,<p style='position:absolute;top: 50%;right: 50%;transform: translate(50%, -50%);font-size: 125px;color: green;'>+</p>,,,50,,,,,,,,,,,,,,,,,,,,,,,
null,,prac_atten_color_black,284686,,,,,,,,black_plus_sign,,,null,,,,,,,,,,,,,,,,,,,,,,,
null,,prac_atten_color_black,285029,,,,,,,,black_plus_sign,,,null,,,,,,,,,,,,,,,,,,,,,,,
606.0999999642372,,prac_atten_color,285955,,,,,,,,<p style='position:absolute;top: 50%;right: 50%;transform: translate(50%, -50%);font-size: 125px;color: blue;'>+</p>,,,49,,,,,,,,,,,,,,,,,,,,,,,
null,,prac_atten_color_black,287960,,,,,,,,black_plus_sign,,,null,,,,,,,,,,,,,,,,,,,,,,,
null,,prac_atten_color_black,288444,,,,,,,,black_plus_sign,,,null,,,,,,,,,,,,,,,,,,,,,,,
546.5,,prac_atten_color,289220,,,,,,,,<p style='position:absolute;top: 50%;right: 50%;transform: translate(50%, -50%);font-size: 125px;color: green;'>+</p>,,,50,,,,,,,,,,,,,,,,,,,,,,,
null,,prac_atten_color_black,291226,,,,,,,,black_plus_sign,,,null,,,,,,,,,,,,,,,,,,,,,,,
null,,prac_atten_color_black,291873,,,,,,,,black_plus_sign,,,null,,,,,,,,,,,,,,,,,,,,,,,
null,,prac_atten_color,292370,,,,,,,,<p style='position:absolute;top: 50%;right: 50%;transform: translate(50%, -50%);font-size: 125px;color: green;'>+</p>,,,null,,,,,,,,,,,,,,,,,,,,,,,
71.40000003576279,,prac_atten_color_black,294389,,,,,,,,black_plus_sign,,,50,,,,,,,,,,,,,,,,,,,,,,,
null,,prac_atten_color_black,295305,,,,,,,,black_plus_sign,,,null,,,,,,,,,,,,,,,,,,,,,,,
672.6999999880791,,prac_atten_color,296387,,,,,,,,<p style='position:absolute;top: 50%;right: 50%;transform: translate(50%, -50%);font-size: 125px;color: blue;'>+</p>,,,49,,,,,,,,,,,,,,,,,,,,,,,
null,,prac_atten_color_black,298405,,,,,,,,black_plus_sign,,,null,,,,,,,,,,,,,,,,,,,,,,,
null,,prac_atten_color_black,298743,,,,,,,,black_plus_sign,,,null,,,,,,,,,,,,,,,,,,,,,,,
770.6000000238419,,prac_atten_color,299536,,,,,,,,<p style='position:absolute;top: 50%;right: 50%;transform: translate(50%, -50%);font-size: 125px;color: green;'>+</p>,,,50,,,,,,,,,,,,,,,,,,,,,,,
null,,prac_atten_color_black,301544,,,,,,,,black_plus_sign,,,null,,,,,,,,,,,,,,,,,,,,,,,
null,,prac_atten_color_black,302166,,,,,,,,black_plus_sign,,,null,,,,,,,,,,,,,,,,,,,,,,,
538.1000000238419,,prac_atten_color,303154,,,,,,,,<p style='position:absolute;top: 50%;right: 50%;transform: translate(50%, -50%);font-size: 125px;color: blue;'>+</p>,,,49,,,,,,,,,,,,,,,,,,,,,,,
null,,prac_atten_color_black,305163,,,,,,,,black_plus_sign,,,null,,,,,,,,,,,,,,,,,,,,,,,
null,,prac_atten_color_black,305592,,,,,,,,black_plus_sign,,,null,,,,,,,,,,,,,,,,,,,,,,,
741.9000000357628,,prac_atten_color,306412,,,,,,,,<p style='position:absolute;top: 50%;right: 50%;transform: translate(50%, -50%);font-size: 125px;color: blue;'>+</p>,,,49,,,,,,,,,,,,,,,,,,,,,,,
null,,prac_atten_color_black,308421,,,,,,,,black_plus_sign,,,null,,,,,,,,,,,,,,,,,,,,,,,
112444.39999997616,,attentioncheck_feedback,420867,,,,,,,,cross_check_feedback,0,,,,,,,,,,,,,,,,,,,,,,,,,
5177.399999976158,,last_instruct,426045,,,,,,,,instruct,,,32,,,,,,,,,,,,,,,,,,,,,,,
null,,prac_learn_phase(without_color),429549,,,,,,,,black_plus_sign,,,null,object_14a.png,object_13c.png,,,,,,,,,,,,,,,,,,,,,
null,,prac_black_cross(without_color),430351,,,,,,,,blue,,,null,object_14a.png,object_13c.png,,,,,,,,,,,,,,,,,,,,,
null,,prac_rt_plussign_withcolor,430869,,,,,,,,blue,,,null,object_14a.png,object_13c.png,,,,,,,,,,,,,,,,,,,,,
null,,prac_rt_thecrossant_black,432078,,,,,,,,black_plus_sign,,,null,,,NaN,,,,,,,,,,,,,,,,,,,,
null,,prac_color_black,432184,,,,,,,,black_plus_sign,,,null,,,,,,,,,,,,,,,,,,,,,,,
null,,prac_learn_phase(without_color),435702,,,,,,,,black_plus_sign,,,null,object_05c.png,object_02a.png,,,,,,,,,,,,,,,,,,,,,
null,,black_cross(without_color)1,436648,,,,,,,,blue,,,null,object_14a.png,object_13c.png,,,,,,,,,,,,,,,,,,,,,
null,,prac_rt_plussign_withcolor,437150,,,,,,,,green,,,null,object_05c.png,object_02a.png,,,,,,,,,,,,,,,,,,,,,
1041.300000011921,,prac_rt_thecrossant_black,438097,,,,,,,,black_plus_sign,,,50,,,1,1,,,,,,,,,,,,,,,,,,,
null,,prac_color_black,438203,,,,,,,,black_plus_sign,,,null,,,,,,,,,,,,,,,,,,,,,,,
null,,prac_learn_phase(without_color),441707,,,,,,,,black_plus_sign,,,null,object_01b.png,object_09b.png,,,,,,,,,,,,,,,,,,,,,
null,,black_cross(without_color)1,442656,,,,,,,,blue,,,null,object_14a.png,object_13c.png,,,,,,,,,,,,,,,,,,,,,
null,,prac_rt_plussign_withcolor,443172,,,,,,,,green,,,null,object_01b.png,object_09b.png,,,,,,,,,,,,,,,,,,,,,
null,,prac_rt_thecrossant_black,444264,,,,,,,,black_plus_sign,,,null,,,1,,,,,,,,,,,,,,,,,,,,
null,,prac_color_black,444373,,,,,,,,black_plus_sign,,,null,,,,,,,,,,,,,,,,,,,,,,,
null,,prac_learn_phase(without_color),447880,,,,,,,,black_plus_sign,,,null,object_05a.png,object_07c.png,,,,,,,,,,,,,,,,,,,,,
null,,black_cross(without_color)1,448824,,,,,,,,blue,,,null,object_14a.png,object_13c.png,,,,,,,,,,,,,,,,,,,,,
null,,prac_rt_plussign_withcolor,449330,,,,,,,,green,,,null,object_05a.png,object_07c.png,,,,,,,,,,,,,,,,,,,,,
null,,prac_rt_thecrossant_black,450554,,,,,,,,black_plus_sign,,,null,,,1,,,,,,,,,,,,,,,,,,,,
null,,warning_page,455563,,,,,,,,warning,,,null,,,,,,,,,,,,,,,,,,,,,,,
null,,prac_color_black,455669,,,,,,,,black_plus_sign,,,null,,,,,,,,,,,,,,,,,,,,,,,
2252.599999964237,,instruct_dir_01,457924,,,,,,,,instruct,0,Next,,,,,,,,,,,,,,,,,,,,,,,,
2631.600000023842,,instruct_dir_2,460557,,,,,,,,instruct,1,Next,,,,,,,,,,,,,,,,,,,,,,,,
3513.300000011921,,instruct_dir_3,464072,,,,,,,,instruct,1,Next,,,,,,,,,,,,,,,,,,,,,,,,
2637.400000035763,,instruct_dir_4,466711,,,,,,,,instruct,1,Start,,,,,,,,,,,,,,,,,,,,,,,,
null,,thebreak,466826,,,,,,,,<p></p>,,,null,,,,,,,,,,,,,,,,,,,,,,,
900.3000000119209,,intro_0,467728,,,,,,,,instruct,,,32,,,,,,,,,,,,,,,,,,,,,,,
3216.5,,prac_directmemory_phase,470947,,,,,,,,practice/object_03a.png,,,51,,,,0,practice/object_03b.png,practice/object_04b.png,practice/object_01a.png,practice/object_03b.png,0,0,,,,,,,,,,,,,
3310.100000023842,,prac_directmemory_phase,474260,,,,,,,,practice/object_01a.png,,,50,,,,0,practice/object_04b.png,practice/object_02a.png,practice/object_01b.png,practice/object_01b.png,0,0,,,,,,,,,,,,,
2980.699999988079,,prac_directmemory_phase,477243,,,,,,,,practice/object_02a.png,,,51,,,,1,practice/object_04b.png,practice/object_04a.png,practice/object_02b.png,practice/object_02b.png,1,0.3333333333333333,,,,,,,,,,,,,
3868,,prac_directmemory_phase,481114,,,,,,,,practice/object_04a.png,,,49,,,,0,practice/object_02a.png,practice/object_04b.png,practice/object_03b.png,practice/object_04b.png,0,0.25,,,,,,,,,,,,,
2192.300000011921,,practice_feedback_force_restart,483308,,,,,,,,practice_feedback,0,,,,,,,,,,,,,1,,,,,,,,,,,,
905,,last_instruct,484214,,,,,,,,instruct,,,32,,,,,,,,,,,,,,,,,,,,,,,
null,,prac_learn_phase(without_color),487729,,,,,,,,black_plus_sign,,,null,object_14a.png,object_13c.png,,,,,,,,,,,,,,,,,,,,,
null,,prac_black_cross(without_color),488175,,,,,,,,blue,,,null,object_14a.png,object_13c.png,,,,,,,,,,,,,,,,,,,,,
null,,prac_rt_plussign_withcolor,488679,,,,,,,,blue,,,null,object_14a.png,object_13c.png,,,,,,,,,,,,,,,,,,,,,
1009.5,,prac_rt_thecrossant_black,490250,,,,,,,,black_plus_sign,,,49,,,1,1,,,,,,,,,,,,,,,,,,,
null,,prac_color_black,490356,,,,,,,,black_plus_sign,,,null,,,,,,,,,,,,,,,,,,,,,,,
null,,prac_learn_phase(without_color),493866,,,,,,,,black_plus_sign,,,null,object_05c.png,object_02a.png,,,,,,,,,,,,,,,,,,,,,
null,,black_cross(without_color)1,494810,,,,,,,,blue,,,null,object_14a.png,object_13c.png,,,,,,,,,,,,,,,,,,,,,
null,,prac_rt_plussign_withcolor,495312,,,,,,,,green,,,null,object_05c.png,object_02a.png,,,,,,,,,,,,,,,,,,,,,
561.5,,prac_rt_thecrossant_black,496675,,,,,,,,black_plus_sign,,,50,,,1,1,,,,,,,,,,,,,,,,,,,
null,,prac_color_black,496786,,,,,,,,black_plus_sign,,,null,,,,,,,,,,,,,,,,,,,,,,,
null,,prac_learn_phase(without_color),500295,,,,,,,,black_plus_sign,,,null,object_01b.png,object_09b.png,,,,,,,,,,,,,,,,,,,,,
null,,black_cross(without_color)1,501237,,,,,,,,blue,,,null,object_14a.png,object_13c.png,,,,,,,,,,,,,,,,,,,,,
null,,prac_rt_plussign_withcolor,501741,,,,,,,,green,,,null,object_01b.png,object_09b.png,,,,,,,,,,,,,,,,,,,,,
798,,prac_rt_thecrossant_black,502938,,,,,,,,black_plus_sign,,,50,,,1,1,,,,,,,,,,,,,,,,,,,
null,,prac_color_black,503048,,,,,,,,black_plus_sign,,,null,,,,,,,,,,,,,,,,,,,,,,,
null,,prac_learn_phase(without_color),506556,,,,,,,,black_plus_sign,,,null,object_05a.png,object_07c.png,,,,,,,,,,,,,,,,,,,,,
null,,black_cross(without_color)1,507504,,,,,,,,blue,,,null,object_14a.png,object_13c.png,,,,,,,,,,,,,,,,,,,,,
null,,prac_rt_plussign_withcolor,508015,,,,,,,,green,,,null,object_05a.png,object_07c.png,,,,,,,,,,,,,,,,,,,,,
933.6999999880791,,prac_rt_thecrossant_black,509301,,,,,,,,black_plus_sign,,,50,,,1,1,,,,,,,,,,,,,,,,,,,
null,,prac_color_black,509410,,,,,,,,black_plus_sign,,,null,,,,,,,,,,,,,,,,,,,,,,,
1556.300000011921,,instruct_dir_01,510968,,,,,,,,instruct,0,Next,,,,,,,,,,,,,,,,,,,,,,,,
1266.800000011921,,instruct_dir_2,512236,,,,,,,,instruct,1,Next,,,,,,,,,,,,,,,,,,,,,,,,
1373.800000011921,,instruct_dir_3,513611,,,,,,,,instruct,1,Next,,,,,,,,,,,,,,,,,,,,,,,,
827.1000000238419,,instruct_dir_4,514439,,,,,,,,instruct,1,Start,,,,,,,,,,,,,,,,,,,,,,,,
null,,thebreak,514547,,,,,,,,<p></p>,,,null,,,,,,,,,,,,,,,,,,,,,,,
712.2000000476837,,intro_0,515260,,,,,,,,instruct,,,32,,,,,,,,,,,,,,,,,,,,,,,
2665.199999988079,,prac_directmemory_phase,517927,,,,,,,,practice/object_03a.png,,,49,,,,1,practice/object_03b.png,practice/object_04b.png,practice/object_01a.png,practice/object_03b.png,1,1,,,,,,,,,,,,,
3521.800000011921,,prac_directmemory_phase,521451,,,,,,,,practice/object_01a.png,,,51,,,,1,practice/object_04b.png,practice/object_02a.png,practice/object_01b.png,practice/object_01b.png,1,1,,,,,,,,,,,,,
3924.300000011921,,prac_directmemory_phase,525377,,,,,,,,practice/object_02a.png,,,51,,,,1,practice/object_04b.png,practice/object_04a.png,practice/object_02b.png,practice/object_02b.png,1,1,,,,,,,,,,,,,
3713.600000023842,,prac_directmemory_phase,529093,,,,,,,,practice/object_04a.png,,,50,,,,1,practice/object_02a.png,practice/object_04b.png,practice/object_03b.png,practice/object_04b.png,1,1,,,,,,,,,,,,,
305926.59999996424,,practice_feedback,835022,,,,,,,,practice_feedback,1,,,,,,,,,,,,,,,,,,,,,,,,,
5153.100000023842,,proceed_actualTask,840178,,,,,,,,proceed_actualTask,1,Continue,,,,,,,,,,,,,,,,,,,,,,,,
238772.09999996424,,last_inst,1078952,,,,,,,,last_inst,,,32,,,,,,,,,,,,,,,,,,,,,,,
null,,learn_phase(without_color)1,1082456,,,,,,,,black_plus_sign,,,null,object_14a.png,object_13c.png,,,,,,,,,,,,,,,,,,,,,
null,,black_cross(without_color)1,1083404,,,,,,,,blue,,,null,object_14a.png,object_13c.png,,,,,,,,,,,,,,,,,,,,,
null,,rt_plussign_withcolor1,1083914,,,,,,,,blue,,,null,object_14a.png,object_13c.png,,,,,,,,,,,,,,,,,,,,,
1109.2000000476837,,rt_thecrossant_black1,1084993,,,,,,,,black_plus_sign,,,49,,,,1,,,,,,1,,,,,,,,,,,,,
null,,color_black1,1085098,,,,,,,,black_plus_sign,,,null,,,,,,,,,,,,,,,,,,,,,,,
null,,learn_phase(without_color)1,1088604,,,,,,,,black_plus_sign,,,null,object_05c.png,object_02a.png,,,,,,,,,,,,,,,,,,,,,
null,,black_cross(without_color)1,1089217,,,,,,,,green,,,null,object_05c.png,object_02a.png,,,,,,,,,,,,,,,,,,,,,
null,,rt_plussign_withcolor1,1089720,,,,,,,,green,,,null,object_05c.png,object_02a.png,,,,,,,,,,,,,,,,,,,,,
1168.5,,rt_thecrossant_black1,1091132,,,,,,,,black_plus_sign,,,50,,,,1,,,,,,1,,,,,,,,,,,,,
null,,color_black1,1091237,,,,,,,,black_plus_sign,,,null,,,,,,,,,,,,,,,,,,,,,,,
null,,learn_phase(without_color)1,1094749,,,,,,,,black_plus_sign,,,null,object_01b.png,object_09b.png,,,,,,,,,,,,,,,,,,,,,
null,,black_cross(without_color)1,1095626,,,,,,,,green,,,null,object_01b.png,object_09b.png,,,,,,,,,,,,,,,,,,,,,
null,,rt_plussign_withcolor1,1096133,,,,,,,,green,,,null,object_01b.png,object_09b.png,,,,,,,,,,,,,,,,,,,,,
904,,rt_thecrossant_black1,1097277,,,,,,,,black_plus_sign,,,50,,,,1,,,,,,1,,,,,,,,,,,,,
null,,color_black1,1097385,,,,,,,,black_plus_sign,,,null,,,,,,,,,,,,,,,,,,,,,,,
null,,learn_phase(without_color)1,1100888,,,,,,,,black_plus_sign,,,null,object_05a.png,object_07c.png,,,,,,,,,,,,,,,,,,,,,
null,,black_cross(without_color)1,1101815,,,,,,,,blue,,,null,object_05a.png,object_07c.png,,,,,,,,,,,,,,,,,,,,,
null,,rt_plussign_withcolor1,1102323,,,,,,,,blue,,,null,object_05a.png,object_07c.png,,,,,,,,,,,,,,,,,,,,,
1078.3999999761581,,rt_thecrossant_black1,1103407,,,,,,,,black_plus_sign,,,49,,,,1,,,,,,1,,,,,,,,,,,,,
null,,color_black1,1103525,,,,,,,,black_plus_sign,,,null,,,,,,,,,,,,,,,,,,,,,,,
null,,learn_phase(without_color)1,1107037,,,,,,,,black_plus_sign,,,null,object_14c.png,object_09a.png,,,,,,,,,,,,,,,,,,,,,
null,,black_cross(without_color)1,1107824,,,,,,,,blue,,,null,object_14c.png,object_09a.png,,,,,,,,,,,,,,,,,,,,,
null,,rt_plussign_withcolor1,1108328,,,,,,,,blue,,,null,object_14c.png,object_09a.png,,,,,,,,,,,,,,,,,,,,,
1041.300000011921,,rt_thecrossant_black1,1109557,,,,,,,,black_plus_sign,,,49,,,,1,,,,,,1,,,,,,,,,,,,,
null,,color_black1,1109674,,,,,,,,black_plus_sign,,,null,,,,,,,,,,,,,,,,,,,,,,,
null,,learn_phase(without_color)1,1113190,,,,,,,,black_plus_sign,,,null,object_10c.png,object_07b.png,,,,,,,,,,,,,,,,,,,,,
null,,black_cross(without_color)1,1114112,,,,,,,,green,,,null,object_10c.png,object_07b.png,,,,,,,,,,,,,,,,,,,,,
374.80000001192093,,rt_plussign_withcolor1,1114619,,,,,,,,green,,,50,object_10c.png,object_07b.png,,,,,,,,,,,,,,,,,,,,,
null,,rt_thecrossant_black1,1115724,,,,,,,,black_plus_sign,,,null,,,,1,,,,,,1,,,,,,,,,,,,,
null,,color_black1,1115833,,,,,,,,black_plus_sign,,,null,,,,,,,,,,,,,,,,,,,,,,,
null,,learn_phase(without_color)1,1119348,,,,,,,,black_plus_sign,,,null,object_15a.png,object_06b.png,,,,,,,,,,,,,,,,,,,,,
null,,black_cross(without_color)1,1120215,,,,,,,,green,,,null,object_15a.png,object_06b.png,,,,,,,,,,,,,,,,,,,,,
434,,rt_plussign_withcolor1,1120724,,,,,,,,green,,,50,object_15a.png,object_06b.png,,,,,,,,,,,,,,,,,,,,,
null,,rt_thecrossant_black1,1121874,,,,,,,,black_plus_sign,,,null,,,,1,,,,,,1,,,,,,,,,,,,,
null,,color_black1,1121982,,,,,,,,black_plus_sign,,,null,,,,,,,,,,,,,,,,,,,,,,,
null,,learn_phase(without_color)1,1125490,,,,,,,,black_plus_sign,,,null,object_04c.png,object_13a.png,,,,,,,,,,,,,,,,,,,,,
null,,black_cross(without_color)1,1126506,,,,,,,,green,,,null,object_04c.png,object_13a.png,,,,,,,,,,,,,,,,,,,,,
517.8000000119209,,rt_plussign_withcolor1,1127025,,,,,,,,green,,,50,object_04c.png,object_13a.png,,,,,,,,,,,,,,,,,,,,,
null,,rt_thecrossant_black1,1128043,,,,,,,,black_plus_sign,,,null,,,,1,,,,,,1,,,,,,,,,,,,,
null,,color_black1,1128148,,,,,,,,black_plus_sign,,,null,,,,,,,,,,,,,,,,,,,,,,,
null,,learn_phase(without_color)1,1131655,,,,,,,,black_plus_sign,,,null,object_14b.png,object_03c.png,,,,,,,,,,,,,,,,,,,,,
null,,black_cross(without_color)1,1132532,,,,,,,,blue,,,null,object_14b.png,object_03c.png,,,,,,,,,,,,,,,,,,,,,
null,,rt_plussign_withcolor1,1133034,,,,,,,,blue,,,null,object_14b.png,object_03c.png,,,,,,,,,,,,,,,,,,,,,
1220.800000011921,,rt_thecrossant_black1,1134164,,,,,,,,black_plus_sign,,,49,,,,1,,,,,,1,,,,,,,,,,,,,
null,,color_black1,1134268,,,,,,,,black_plus_sign,,,null,,,,,,,,,,,,,,,,,,,,,,,
null,,learn_phase(without_color)1,1137774,,,,,,,,black_plus_sign,,,null,object_08c.png,object_11c.png,,,,,,,,,,,,,,,,,,,,,
null,,black_cross(without_color)1,1138224,,,,,,,,green,,,null,object_08c.png,object_11c.png,,,,,,,,,,,,,,,,,,,,,
null,,rt_plussign_withcolor1,1138734,,,,,,,,green,,,null,object_08c.png,object_11c.png,,,,,,,,,,,,,,,,,,,,,
1014.8999999761581,,rt_thecrossant_black1,1140305,,,,,,,,black_plus_sign,,,50,,,,1,,,,,,1,,,,,,,,,,,,,
null,,color_black1,1140417,,,,,,,,black_plus_sign,,,null,,,,,,,,,,,,,,,,,,,,,,,
null,,learn_phase(without_color)1,1143924,,,,,,,,black_plus_sign,,,null,object_08a.png,object_09c.png,,,,,,,,,,,,,,,,,,,,,
null,,black_cross(without_color)1,1144634,,,,,,,,blue,,,null,object_08a.png,object_09c.png,,,,,,,,,,,,,,,,,,,,,
null,,rt_plussign_withcolor1,1145146,,,,,,,,blue,,,null,object_08a.png,object_09c.png,,,,,,,,,,,,,,,,,,,,,
635.8000000119209,,rt_thecrossant_black1,1146455,,,,,,,,black_plus_sign,,,49,,,,1,,,,,,1,,,,,,,,,,,,,
null,,color_black1,1146562,,,,,,,,black_plus_sign,,,null,,,,,,,,,,,,,,,,,,,,,,,
null,,learn_phase(without_color)1,1150068,,,,,,,,black_plus_sign,,,null,object_03a.png,object_05b.png,,,,,,,,,,,,,,,,,,,,,
null,,black_cross(without_color)1,1150934,,,,,,,,green,,,null,object_03a.png,object_05b.png,,,,,,,,,,,,,,,,,,,,,
null,,rt_plussign_withcolor1,1151444,,,,,,,,green,,,null,object_03a.png,object_05b.png,,,,,,,,,,,,,,,,,,,,,
847.9000000357628,,rt_thecrossant_black1,1152594,,,,,,,,black_plus_sign,,,50,,,,1,,,,,,1,,,,,,,,,,,,,
null,,color_black1,1152707,,,,,,,,black_plus_sign,,,null,,,,,,,,,,,,,,,,,,,,,,,
null,,learn_phase(without_color)1,1156210,,,,,,,,black_plus_sign,,,null,object_11b.png,object_06c.png,,,,,,,,,,,,,,,,,,,,,
null,,black_cross(without_color)1,1157002,,,,,,,,green,,,null,object_11b.png,object_06c.png,,,,,,,,,,,,,,,,,,,,,
null,,rt_plussign_withcolor1,1157505,,,,,,,,green,,,null,object_11b.png,object_06c.png,,,,,,,,,,,,,,,,,,,,,
980.3999999761581,,rt_thecrossant_black1,1158738,,,,,,,,black_plus_sign,,,50,,,,1,,,,,,1,,,,,,,,,,,,,
null,,color_black1,1158846,,,,,,,,black_plus_sign,,,null,,,,,,,,,,,,,,,,,,,,,,,
null,,learn_phase(without_color)1,1162364,,,,,,,,black_plus_sign,,,null,object_04a.png,object_01c.png,,,,,,,,,,,,,,,,,,,,,
null,,black_cross(without_color)1,1163473,,,,,,,,green,,,null,object_04a.png,object_01c.png,,,,,,,,,,,,,,,,,,,,,
null,,rt_plussign_withcolor1,1163977,,,,,,,,green,,,null,object_04a.png,object_01c.png,,,,,,,,,,,,,,,,,,,,,
946.7999999523163,,rt_thecrossant_black1,1164887,,,,,,,,black_plus_sign,,,50,,,,1,,,,,,1,,,,,,,,,,,,,
null,,color_black1,1164995,,,,,,,,black_plus_sign,,,null,,,,,,,,,,,,,,,,,,,,,,,
null,,learn_phase(without_color)1,1168500,,,,,,,,black_plus_sign,,,null,object_03b.png,object_12a.png,,,,,,,,,,,,,,,,,,,,,
null,,black_cross(without_color)1,1169053,,,,,,,,green,,,null,object_03b.png,object_12a.png,,,,,,,,,,,,,,,,,,,,,
null,,rt_plussign_withcolor1,1169560,,,,,,,,green,,,null,object_03b.png,object_12a.png,,,,,,,,,,,,,,,,,,,,,
1294,,rt_thecrossant_black1,1171017,,,,,,,,black_plus_sign,,,50,,,,1,,,,,,1,,,,,,,,,,,,,
null,,color_black1,1171133,,,,,,,,black_plus_sign,,,null,,,,,,,,,,,,,,,,,,,,,,,
null,,thebreak,1171247,,,,,,,,<p></p>,,,null,,,,,,,,,,,,,,,,,,,,,,,
39839,,intro_0,1211087,,,,,,,,instruct,,,32,,,,,,,,,,,,,,,,,,,,,,,
9701.699999988079,,directmemory_phase1,1220790,,,,,,,,object_09b.png,,,51,,,,1,object_14b.png,object_06c.png,object_01b.png,object_01b.png,,1,,1,,,,,,,,,,,
null,,directmemory_phase1,1235794,,,,,,,,object_06c.png,,,null,,,,0,object_08a.png,object_03b.png,object_11b.png,object_11b.png,,0.5,,0,,,,,,,,,,,
null,,warning_page,1240802,,,,,,,,warning,,,null,,,,,,,,,,,,,,,,,,,,,,,
2733.600000023842,,directmemory_phase1,1243536,,,,,,,,object_03b.png,,,49,,,,1,object_12a.png,object_10c.png,object_03a.png,object_12a.png,,0.6666666666666666,,1,,,,,,,,,,,
3890.600000023842,,directmemory_phase1,1247430,,,,,,,,object_07c.png,,,49,,,,1,object_05a.png,object_06b.png,object_08c.png,object_05a.png,,0.75,,1,,,,,,,,,,,
3509.5,,directmemory_phase1,1250941,,,,,,,,object_07b.png,,,51,,,,1,object_14b.png,object_14c.png,object_10c.png,object_10c.png,,0.8,,1,,,,,,,,,,,
2360.199999988079,,directmemory_phase1,1253304,,,,,,,,object_03c.png,,,51,,,,1,object_14a.png,object_01c.png,object_14b.png,object_14b.png,,0.8333333333333334,,1,,,,,,,,,,,
5578.100000023842,,directmemory_phase1,1258885,,,,,,,,object_13c.png,,,50,,,,1,object_08c.png,object_14a.png,object_01b.png,object_14a.png,,0.8571428571428571,,1,,,,,,,,,,,
7162.099999964237,,directmemory_phase1,1266049,,,,,,,,object_14c.png,,,51,,,,0,object_07c.png,object_09a.png,object_08a.png,object_09a.png,,0.75,,0,,,,,,,,,,,
10915.199999988079,,directmemory_phase1,1276966,,,,,,,,object_05c.png,,,51,,,,1,object_14a.png,object_15a.png,object_02a.png,object_02a.png,,0.7777777777777778,,1,,,,,,,,,,,
2377,,directmemory_phase1,1279345,,,,,,,,object_01c.png,,,50,,,,1,object_03a.png,object_04a.png,object_11b.png,object_04a.png,,0.8,,1,,,,,,,,,,,
3173.800000011921,,directmemory_phase1,1282520,,,,,,,,object_13a.png,,,51,,,,1,object_14a.png,object_06c.png,object_04c.png,object_04c.png,,0.8181818181818182,,1,,,,,,,,,,,
8268.099999964237,,directmemory_phase1,1290791,,,,,,,,object_09c.png,,,51,,,,1,object_14a.png,object_09b.png,object_08a.png,object_08a.png,,0.8333333333333334,,1,,,,,,,,,,,
2273.399999976158,,directmemory_phase1,1293067,,,,,,,,object_08c.png,,,51,,,,1,object_08a.png,object_15a.png,object_11c.png,object_11c.png,,0.8461538461538461,,1,,,,,,,,,,,
5959.400000035763,,directmemory_phase1,1299028,,,,,,,,object_03a.png,,,51,,,,1,object_11c.png,object_09b.png,object_05b.png,object_05b.png,,0.8571428571428571,,1,,,,,,,,,,,
2490.800000011921,,directmemory_phase1,1301521,,,,,,,,object_15a.png,,,51,,,,1,object_12a.png,object_03a.png,object_06b.png,object_06b.png,,0.8666666666666667,,1,,,,,,,,,,,
null,,thebreak,1301625,,,,,,,,<p></p>,,,null,,,,,,,,,,,,,,,,,,,,,,,
49248.90000003576,,intro_0,1350875,,,,,,,,instruct,,,32,,,,,,,,,,,,,,,,,,,,,,,
null,,learn_phase(without_color)2,1354386,,,,,,,,black_plus_sign,,,null,object_06b.png,object_15a.png,,,,,,,,,,,,,,,,,,,,,
null,,black_cross(without_color)2,1355471,,,,,,,,green,,,null,object_06b.png,object_15a.png,,,,,,,,,,,,,,,,,,,,,
478.0999999642372,,rt_plussign_withcolor2,1355977,,,,,,,,green,,,50,object_06b.png,object_15a.png,,,,,,,,,,,,,,,,,,,,,
null,,rt_thecrossant_black2,1356911,,,,,,,,black_plus_sign,,,null,,,,1,,,,,,1,,,,,,,,,,,,,
null,,color_black2,1357018,,,,,,,,black_plus_sign,,,null,,,,,,,,,,,,,,,,,,,,,,,
null,,learn_phase(without_color)2,1360527,,,,,,,,black_plus_sign,,,null,object_01b.png,object_09b.png,,,,,,,,,,,,,,,,,,,,,
null,,black_cross(without_color)2,1361499,,,,,,,,green,,,null,object_01b.png,object_09b.png,,,,,,,,,,,,,,,,,,,,,
null,,rt_plussign_withcolor2,1362005,,,,,,,,green,,,null,object_01b.png,object_09b.png,,,,,,,,,,,,,,,,,,,,,
1220.6000000238419,,rt_thecrossant_black2,1363063,,,,,,,,black_plus_sign,,,50,,,,1,,,,,,1,,,,,,,,,,,,,
null,,color_black2,1363166,,,,,,,,black_plus_sign,,,null,,,,,,,,,,,,,,,,,,,,,,,
null,,learn_phase(without_color)2,1366672,,,,,,,,black_plus_sign,,,null,object_07b.png,object_10c.png,,,,,,,,,,,,,,,,,,,,,
null,,black_cross(without_color)2,1367346,,,,,,,,blue,,,null,object_07b.png,object_10c.png,,,,,,,,,,,,,,,,,,,,,
null,,rt_plussign_withcolor2,1367850,,,,,,,,blue,,,null,object_07b.png,object_10c.png,,,,,,,,,,,,,,,,,,,,,
1286.2000000476837,,rt_thecrossant_black2,1369193,,,,,,,,black_plus_sign,,,49,,,,1,,,,,,1,,,,,,,,,,,,,
null,,color_black2,1369304,,,,,,,,black_plus_sign,,,null,,,,,,,,,,,,,,,,,,,,,,,
null,,learn_phase(without_color)2,1372821,,,,,,,,black_plus_sign,,,null,object_05c.png,object_02a.png,,,,,,,,,,,,,,,,,,,,,
null,,black_cross(without_color)2,1373241,,,,,,,,blue,,,null,object_05c.png,object_02a.png,,,,,,,,,,,,,,,,,,,,,
null,,rt_plussign_withcolor2,1373751,,,,,,,,blue,,,null,object_05c.png,object_02a.png,,,,,,,,,,,,,,,,,,,,,
764.7999999523163,,rt_thecrossant_black2,1375348,,,,,,,,black_plus_sign,,,49,,,,1,,,,,,1,,,,,,,,,,,,,
null,,color_black2,1375458,,,,,,,,black_plus_sign,,,null,,,,,,,,,,,,,,,,,,,,,,,
null,,learn_phase(without_color)2,1378967,,,,,,,,black_plus_sign,,,null,object_14c.png,object_09a.png,,,,,,,,,,,,,,,,,,,,,
null,,black_cross(without_color)2,1379577,,,,,,,,green,,,null,object_14c.png,object_09a.png,,,,,,,,,,,,,,,,,,,,,
null,,rt_plussign_withcolor2,1380088,,,,,,,,green,,,null,object_14c.png,object_09a.png,,,,,,,,,,,,,,,,,,,,,
606.8000000119209,,rt_thecrossant_black2,1381510,,,,,,,,black_plus_sign,,,50,,,,1,,,,,,1,,,,,,,,,,,,,
null,,color_black2,1381627,,,,,,,,black_plus_sign,,,null,,,,,,,,,,,,,,,,,,,,,,,
null,,learn_phase(without_color)2,1385137,,,,,,,,black_plus_sign,,,null,object_04a.png,object_01c.png,,,,,,,,,,,,,,,,,,,,,
null,,black_cross(without_color)2,1385623,,,,,,,,blue,,,null,object_04a.png,object_01c.png,,,,,,,,,,,,,,,,,,,,,
null,,rt_plussign_withcolor2,1386133,,,,,,,,blue,,,null,object_04a.png,object_01c.png,,,,,,,,,,,,,,,,,,,,,
775.5,,rt_thecrossant_black2,1387664,,,,,,,,black_plus_sign,,,49,,,,1,,,,,,1,,,,,,,,,,,,,
null,,color_black2,1387769,,,,,,,,black_plus_sign,,,null,,,,,,,,,,,,,,,,,,,,,,,
null,,learn_phase(without_color)2,1391285,,,,,,,,black_plus_sign,,,null,object_13a.png,object_04c.png,,,,,,,,,,,,,,,,,,,,,
null,,black_cross(without_color)2,1391814,,,,,,,,blue,,,null,object_13a.png,object_04c.png,,,,,,,,,,,,,,,,,,,,,
505.39999997615814,,rt_plussign_withcolor2,1392322,,,,,,,,blue,,,49,object_13a.png,object_04c.png,,,,,,,,,,,,,,,,,,,,,
null,,rt_thecrossant_black2,1393806,,,,,,,,black_plus_sign,,,null,,,,1,,,,,,1,,,,,,,,,,,,,
null,,color_black2,1393915,,,,,,,,black_plus_sign,,,null,,,,,,,,,,,,,,,,,,,,,,,
null,,learn_phase(without_color)2,1397424,,,,,,,,black_plus_sign,,,null,object_05b.png,object_03a.png,,,,,,,,,,,,,,,,,,,,,
null,,black_cross(without_color)2,1398518,,,,,,,,blue,,,null,object_05b.png,object_03a.png,,,,,,,,,,,,,,,,,,,,,
null,,rt_plussign_withcolor2,1399027,,,,,,,,blue,,,null,object_05b.png,object_03a.png,,,,,,,,,,,,,,,,,,,,,
658.1999999880791,,rt_thecrossant_black2,1399948,,,,,,,,black_plus_sign,,,49,,,,1,,,,,,1,,,,,,,,,,,,,
null,,color_black2,1400053,,,,,,,,black_plus_sign,,,null,,,,,,,,,,,,,,,,,,,,,,,
null,,learn_phase(without_color)2,1403567,,,,,,,,black_plus_sign,,,null,object_03b.png,object_12a.png,,,,,,,,,,,,,,,,,,,,,
null,,black_cross(without_color)2,1404601,,,,,,,,blue,,,null,object_03b.png,object_12a.png,,,,,,,,,,,,,,,,,,,,,
null,,rt_plussign_withcolor2,1405107,,,,,,,,blue,,,null,object_03b.png,object_12a.png,,,,,,,,,,,,,,,,,,,,,
1260.800000011921,,rt_thecrossant_black2,1406087,,,,,,,,black_plus_sign,,,49,,,,1,,,,,,1,,,,,,,,,,,,,
null,,color_black2,1406202,,,,,,,,black_plus_sign,,,null,,,,,,,,,,,,,,,,,,,,,,,
null,,learn_phase(without_color)2,1409711,,,,,,,,black_plus_sign,,,null,object_14a.png,object_13c.png,,,,,,,,,,,,,,,,,,,,,
null,,black_cross(without_color)2,1410488,,,,,,,,blue,,,null,object_14a.png,object_13c.png,,,,,,,,,,,,,,,,,,,,,
null,,rt_plussign_withcolor2,1411004,,,,,,,,blue,,,null,object_14a.png,object_13c.png,,,,,,,,,,,,,,,,,,,,,
1391.7000000476837,,rt_thecrossant_black2,1412249,,,,,,,,black_plus_sign,,,49,,,,1,,,,,,1,,,,,,,,,,,,,
null,,color_black2,1412354,,,,,,,,black_plus_sign,,,null,,,,,,,,,,,,,,,,,,,,,,,
null,,learn_phase(without_color)2,1415866,,,,,,,,black_plus_sign,,,null,object_09c.png,object_08a.png,,,,,,,,,,,,,,,,,,,,,
null,,black_cross(without_color)2,1416524,,,,,,,,blue,,,null,object_09c.png,object_08a.png,,,,,,,,,,,,,,,,,,,,,
null,,rt_plussign_withcolor2,1417030,,,,,,,,blue,,,null,object_09c.png,object_08a.png,,,,,,,,,,,,,,,,,,,,,
1053.6000000238419,,rt_thecrossant_black2,1418389,,,,,,,,black_plus_sign,,,49,,,,1,,,,,,1,,,,,,,,,,,,,
null,,color_black2,1418499,,,,,,,,black_plus_sign,,,null,,,,,,,,,,,,,,,,,,,,,,,
null,,learn_phase(without_color)2,1422007,,,,,,,,black_plus_sign,,,null,object_05a.png,object_07c.png,,,,,,,,,,,,,,,,,,,,,
null,,black_cross(without_color)2,1423025,,,,,,,,blue,,,null,object_05a.png,object_07c.png,,,,,,,,,,,,,,,,,,,,,
null,,rt_plussign_withcolor2,1423533,,,,,,,,blue,,,null,object_05a.png,object_07c.png,,,,,,,,,,,,,,,,,,,,,
805.9000000357628,,rt_thecrossant_black2,1424524,,,,,,,,black_plus_sign,,,49,,,,1,,,,,,1,,,,,,,,,,,,,
null,,color_black2,1424634,,,,,,,,black_plus_sign,,,null,,,,,,,,,,,,,,,,,,,,,,,
null,,learn_phase(without_color)2,1428142,,,,,,,,black_plus_sign,,,null,object_11b.png,object_06c.png,,,,,,,,,,,,,,,,,,,,,
null,,black_cross(without_color)2,1429026,,,,,,,,green,,,null,object_11b.png,object_06c.png,,,,,,,,,,,,,,,,,,,,,
null,,rt_plussign_withcolor2,1429532,,,,,,,,green,,,null,object_11b.png,object_06c.png,,,,,,,,,,,,,,,,,,,,,
1239.3999999761581,,rt_thecrossant_black2,1430656,,,,,,,,black_plus_sign,,,50,,,,1,,,,,,1,,,,,,,,,,,,,
null,,color_black2,1430762,,,,,,,,black_plus_sign,,,null,,,,,,,,,,,,,,,,,,,,,,,
null,,learn_phase(without_color)2,1434267,,,,,,,,black_plus_sign,,,null,object_14b.png,object_03c.png,,,,,,,,,,,,,,,,,,,,,
null,,black_cross(without_color)2,1435309,,,,,,,,blue,,,null,object_14b.png,object_03c.png,,,,,,,,,,,,,,,,,,,,,
400.30000001192093,,rt_plussign_withcolor2,1435823,,,,,,,,blue,,,49,object_14b.png,object_03c.png,,,,,,,,,,,,,,,,,,,,,
null,,rt_thecrossant_black2,1436793,,,,,,,,black_plus_sign,,,null,,,,1,,,,,,1,,,,,,,,,,,,,
null,,color_black2,1436900,,,,,,,,black_plus_sign,,,null,,,,,,,,,,,,,,,,,,,,,,,
null,,learn_phase(without_color)2,1440409,,,,,,,,black_plus_sign,,,null,object_08c.png,object_11c.png,,,,,,,,,,,,,,,,,,,,,
null,,black_cross(without_color)2,1440992,,,,,,,,blue,,,null,object_08c.png,object_11c.png,,,,,,,,,,,,,,,,,,,,,
null,,rt_plussign_withcolor2,1441510,,,,,,,,blue,,,null,object_08c.png,object_11c.png,,,,,,,,,,,,,,,,,,,,,
1343.5,,rt_thecrossant_black2,1442947,,,,,,,,black_plus_sign,,,49,,,,1,,,,,,1,,,,,,,,,,,,,
null,,color_black2,1443055,,,,,,,,black_plus_sign,,,null,,,,,,,,,,,,,,,,,,,,,,,
null,,thebreak,1443162,,,,,,,,<p></p>,,,null,,,,,,,,,,,,,,,,,,,,,,,
312997.6999999881,,intro_0,1756162,,,,,,,,instruct,,,32,,,,,,,,,,,,,,,,,,,,,,,
4865.599999964237,,directmemory_phase2,1761029,,,,,,,,object_09b.png,,,50,,,,1,object_08c.png,object_01b.png,object_04a.png,object_01b.png,,0.875,,1,,,,,,,,,,,
4577.900000035763,,directmemory_phase2,1765610,,,,,,,,object_03a.png,,,51,,,,1,object_08a.png,object_03c.png,object_05b.png,object_05b.png,,0.8823529411764706,,1,,,,,,,,,,,
14605.399999976158,,directmemory_phase2,1780218,,,,,,,,object_08c.png,,,50,,,,1,object_15a.png,object_11c.png,object_08a.png,object_11c.png,,0.8888888888888888,,1,,,,,,,,,,,
6540.400000035763,,directmemory_phase2,1786761,,,,,,,,object_13a.png,,,51,,,,1,object_09a.png,object_03c.png,object_04c.png,object_04c.png,,0.8947368421052632,,1,,,,,,,,,,,
3734.400000035763,,directmemory_phase2,1790498,,,,,,,,object_05c.png,,,51,,,,1,object_12a.png,object_09c.png,object_02a.png,object_02a.png,,0.9,,1,,,,,,,,,,,
5366.400000035763,,directmemory_phase2,1795867,,,,,,,,object_06c.png,,,50,,,,1,object_15a.png,object_11b.png,object_05b.png,object_11b.png,,0.9047619047619048,,1,,,,,,,,,,,
4024.300000011921,,directmemory_phase2,1799895,,,,,,,,object_13c.png,,,51,,,,1,object_01b.png,object_14c.png,object_14a.png,object_14a.png,,0.9090909090909091,,1,,,,,,,,,,,
3786.199999988079,,directmemory_phase2,1803684,,,,,,,,object_03b.png,,,49,,,,1,object_12a.png,object_11b.png,object_01c.png,object_12a.png,,0.9130434782608695,,1,,,,,,,,,,,
2548.300000011921,,directmemory_phase2,1806234,,,,,,,,object_07b.png,,,50,,,,1,object_03b.png,object_10c.png,object_05a.png,object_10c.png,,0.9166666666666666,,1,,,,,,,,,,,
11045.099999964237,,directmemory_phase2,1817283,,,,,,,,object_14c.png,,,49,,,,1,object_09a.png,object_11b.png,object_15a.png,object_09a.png,,0.92,,1,,,,,,,,,,,
2352.800000011921,,directmemory_phase2,1819638,,,,,,,,object_15a.png,,,49,,,,1,object_06b.png,object_08a.png,object_06c.png,object_06b.png,,0.9230769230769231,,1,,,,,,,,,,,
2677,,directmemory_phase2,1822316,,,,,,,,object_01c.png,,,50,,,,1,object_05c.png,object_04a.png,object_06b.png,object_04a.png,,0.9259259259259259,,1,,,,,,,,,,,
3471.099999964237,,directmemory_phase2,1825789,,,,,,,,object_03c.png,,,51,,,,1,object_02a.png,object_05c.png,object_14b.png,object_14b.png,,0.9285714285714286,,1,,,,,,,,,,,
1973.800000011921,,directmemory_phase2,1827765,,,,,,,,object_07c.png,,,49,,,,1,object_05a.png,object_02a.png,object_13c.png,object_05a.png,,0.9310344827586207,,1,,,,,,,,,,,
3841.899999976158,,directmemory_phase2,1831610,,,,,,,,object_09c.png,,,49,,,,1,object_08a.png,object_09a.png,object_03c.png,object_08a.png,,0.9333333333333333,,1,,,,,,,,,,,
null,,thebreak,1831721,,,,,,,,<p></p>,,,null,,,,,,,,,,,,,,,,,,,,,,,
653244.8000000119,,intro_0,2484968,,,,,,,,instruct,,,32,,,,,,,,,,,,,,,,,,,,,,,
null,,learn_phase(without_color)3,2488475,,,,,,,,black_plus_sign,,,null,object_13a.png,object_04c.png,,,,,,,,,,,,,,,,,,,,,
null,,black_cross(without_color)3,2489105,,,,,,,,blue,,,null,object_13a.png,object_04c.png,,,,,,,,,,,,,,,,,,,,,
null,,rt_plussign_withcolor3,2489616,,,,,,,,blue,,,null,object_13a.png,object_04c.png,,,,,,,,,,,,,,,,,,,,,
794.1999999880791,,rt_thecrossant_black3,2491016,,,,,,,,black_plus_sign,,,49,,,,1,,,,,,1,,,,,,,,,,,,,
null,,color_black3,2491125,,,,,,,,black_plus_sign,,,null,,,,,,,,,,,,,,,,,,,,,,,
null,,learn_phase(without_color)3,2494632,,,,,,,,black_plus_sign,,,null,object_15a.png,object_06b.png,,,,,,,,,,,,,,,,,,,,,
null,,black_cross(without_color)3,2495550,,,,,,,,green,,,null,object_15a.png,object_06b.png,,,,,,,,,,,,,,,,,,,,,
null,,rt_plussign_withcolor3,2496066,,,,,,,,green,,,null,object_15a.png,object_06b.png,,,,,,,,,,,,,,,,,,,,,
829.1999999880791,,rt_thecrossant_black3,2497166,,,,,,,,black_plus_sign,,,50,,,,1,,,,,,1,,,,,,,,,,,,,
null,,color_black3,2497275,,,,,,,,black_plus_sign,,,null,,,,,,,,,,,,,,,,,,,,,,,
null,,learn_phase(without_color)3,2500787,,,,,,,,black_plus_sign,,,null,object_07c.png,object_05a.png,,,,,,,,,,,,,,,,,,,,,
null,,black_cross(without_color)3,2501870,,,,,,,,green,,,null,object_07c.png,object_05a.png,,,,,,,,,,,,,,,,,,,,,
null,,rt_plussign_withcolor3,2502372,,,,,,,,green,,,null,object_07c.png,object_05a.png,,,,,,,,,,,,,,,,,,,,,
1111.0999999642372,,rt_thecrossant_black3,2503297,,,,,,,,black_plus_sign,,,50,,,,1,,,,,,1,,,,,,,,,,,,,
null,,color_black3,2503400,,,,,,,,black_plus_sign,,,null,,,,,,,,,,,,,,,,,,,,,,,
null,,learn_phase(without_color)3,2506906,,,,,,,,black_plus_sign,,,null,object_04a.png,object_01c.png,,,,,,,,,,,,,,,,,,,,,
null,,black_cross(without_color)3,2507595,,,,,,,,green,,,null,object_04a.png,object_01c.png,,,,,,,,,,,,,,,,,,,,,
null,,rt_plussign_withcolor3,2508103,,,,,,,,green,,,null,object_04a.png,object_01c.png,,,,,,,,,,,,,,,,,,,,,
1211.800000011921,,rt_thecrossant_black3,2509435,,,,,,,,black_plus_sign,,,50,,,,1,,,,,,1,,,,,,,,,,,,,
null,,color_black3,2509542,,,,,,,,black_plus_sign,,,null,,,,,,,,,,,,,,,,,,,,,,,
null,,learn_phase(without_color)3,2513059,,,,,,,,black_plus_sign,,,null,object_06c.png,object_11b.png,,,,,,,,,,,,,,,,,,,,,
null,,black_cross(without_color)3,2513809,,,,,,,,green,,,null,object_06c.png,object_11b.png,,,,,,,,,,,,,,,,,,,,,
368.7999999523163,,rt_plussign_withcolor3,2514314,,,,,,,,green,,,50,object_06c.png,object_11b.png,,,,,,,,,,,,,,,,,,,,,
null,,rt_thecrossant_black3,2515584,,,,,,,,black_plus_sign,,,null,,,,1,,,,,,1,,,,,,,,,,,,,
null,,color_black3,2515689,,,,,,,,black_plus_sign,,,null,,,,,,,,,,,,,,,,,,,,,,,
null,,learn_phase(without_color)3,2519196,,,,,,,,black_plus_sign,,,null,object_01b.png,object_09b.png,,,,,,,,,,,,,,,,,,,,,
null,,black_cross(without_color)3,2519605,,,,,,,,blue,,,null,object_01b.png,object_09b.png,,,,,,,,,,,,,,,,,,,,,
409.60000002384186,,rt_plussign_withcolor3,2520114,,,,,,,,blue,,,49,object_01b.png,object_09b.png,,,,,,,,,,,,,,,,,,,,,
null,,rt_thecrossant_black3,2521715,,,,,,,,black_plus_sign,,,null,,,,1,,,,,,1,,,,,,,,,,,,,
null,,color_black3,2521818,,,,,,,,black_plus_sign,,,null,,,,,,,,,,,,,,,,,,,,,,,
null,,learn_phase(without_color)3,2525325,,,,,,,,black_plus_sign,,,null,object_14c.png,object_09a.png,,,,,,,,,,,,,,,,,,,,,
null,,black_cross(without_color)3,2525961,,,,,,,,blue,,,null,object_14c.png,object_09a.png,,,,,,,,,,,,,,,,,,,,,
null,,rt_plussign_withcolor3,2526464,,,,,,,,blue,,,null,object_14c.png,object_09a.png,,,,,,,,,,,,,,,,,,,,,
652.9000000357628,,rt_thecrossant_black3,2527849,,,,,,,,black_plus_sign,,,49,,,,1,,,,,,1,,,,,,,,,,,,,
null,,color_black3,2527960,,,,,,,,black_plus_sign,,,null,,,,,,,,,,,,,,,,,,,,,,,
null,,learn_phase(without_color)3,2531471,,,,,,,,black_plus_sign,,,null,object_07b.png,object_10c.png,,,,,,,,,,,,,,,,,,,,,
null,,black_cross(without_color)3,2532227,,,,,,,,green,,,null,object_07b.png,object_10c.png,,,,,,,,,,,,,,,,,,,,,
null,,rt_plussign_withcolor3,2532732,,,,,,,,green,,,null,object_07b.png,object_10c.png,,,,,,,,,,,,,,,,,,,,,
819.3000000119209,,rt_thecrossant_black3,2533994,,,,,,,,black_plus_sign,,,50,,,,1,,,,,,1,,,,,,,,,,,,,
null,,color_black3,2534104,,,,,,,,black_plus_sign,,,null,,,,,,,,,,,,,,,,,,,,,,,
null,,learn_phase(without_color)3,2537614,,,,,,,,black_plus_sign,,,null,object_09c.png,object_08a.png,,,,,,,,,,,,,,,,,,,,,
null,,black_cross(without_color)3,2538566,,,,,,,,blue,,,null,object_09c.png,object_08a.png,,,,,,,,,,,,,,,,,,,,,
null,,rt_plussign_withcolor3,2539078,,,,,,,,blue,,,null,object_09c.png,object_08a.png,,,,,,,,,,,,,,,,,,,,,
1026.3999999761581,,rt_thecrossant_black3,2540136,,,,,,,,black_plus_sign,,,49,,,,1,,,,,,1,,,,,,,,,,,,,
null,,color_black3,2540245,,,,,,,,black_plus_sign,,,null,,,,,,,,,,,,,,,,,,,,,,,
null,,learn_phase(without_color)3,2543750,,,,,,,,black_plus_sign,,,null,object_03a.png,object_05b.png,,,,,,,,,,,,,,,,,,,,,
null,,black_cross(without_color)3,2544312,,,,,,,,blue,,,null,object_03a.png,object_05b.png,,,,,,,,,,,,,,,,,,,,,
null,,rt_plussign_withcolor3,2544818,,,,,,,,blue,,,null,object_03a.png,object_05b.png,,,,,,,,,,,,,,,,,,,,,
1210,,rt_thecrossant_black3,2546269,,,,,,,,black_plus_sign,,,49,,,,1,,,,,,1,,,,,,,,,,,,,
null,,color_black3,2546378,,,,,,,,black_plus_sign,,,null,,,,,,,,,,,,,,,,,,,,,,,
null,,learn_phase(without_color)3,2549882,,,,,,,,black_plus_sign,,,null,object_14b.png,object_03c.png,,,,,,,,,,,,,,,,,,,,,
null,,black_cross(without_color)3,2550300,,,,,,,,green,,,null,object_14b.png,object_03c.png,,,,,,,,,,,,,,,,,,,,,
null,,rt_plussign_withcolor3,2550809,,,,,,,,green,,,null,object_14b.png,object_03c.png,,,,,,,,,,,,,,,,,,,,,
766.3000000119209,,rt_thecrossant_black3,2552405,,,,,,,,black_plus_sign,,,50,,,,1,,,,,,1,,,,,,,,,,,,,
null,,color_black3,2552511,,,,,,,,black_plus_sign,,,null,,,,,,,,,,,,,,,,,,,,,,,
null,,learn_phase(without_color)3,2556021,,,,,,,,black_plus_sign,,,null,object_12a.png,object_03b.png,,,,,,,,,,,,,,,,,,,,,
null,,black_cross(without_color)3,2556725,,,,,,,,green,,,null,object_12a.png,object_03b.png,,,,,,,,,,,,,,,,,,,,,
null,,rt_plussign_withcolor3,2557235,,,,,,,,green,,,null,object_12a.png,object_03b.png,,,,,,,,,,,,,,,,,,,,,
536.4000000357628,,rt_thecrossant_black3,2558552,,,,,,,,black_plus_sign,,,50,,,,1,,,,,,1,,,,,,,,,,,,,
null,,color_black3,2558656,,,,,,,,black_plus_sign,,,null,,,,,,,,,,,,,,,,,,,,,,,
null,,learn_phase(without_color)3,2562168,,,,,,,,black_plus_sign,,,null,object_13c.png,object_14a.png,,,,,,,,,,,,,,,,,,,,,
null,,black_cross(without_color)3,2563018,,,,,,,,green,,,null,object_13c.png,object_14a.png,,,,,,,,,,,,,,,,,,,,,
422.60000002384186,,rt_plussign_withcolor3,2563536,,,,,,,,green,,,50,object_13c.png,object_14a.png,,,,,,,,,,,,,,,,,,,,,
null,,rt_thecrossant_black3,2564701,,,,,,,,black_plus_sign,,,null,,,,1,,,,,,1,,,,,,,,,,,,,
null,,color_black3,2564812,,,,,,,,black_plus_sign,,,null,,,,,,,,,,,,,,,,,,,,,,,
null,,learn_phase(without_color)3,2568320,,,,,,,,black_plus_sign,,,null,object_02a.png,object_05c.png,,,,,,,,,,,,,,,,,,,,,
null,,black_cross(without_color)3,2569233,,,,,,,,blue,,,null,object_02a.png,object_05c.png,,,,,,,,,,,,,,,,,,,,,
399.5,,rt_plussign_withcolor3,2569743,,,,,,,,blue,,,49,object_02a.png,object_05c.png,,,,,,,,,,,,,,,,,,,,,
null,,rt_thecrossant_black3,2570839,,,,,,,,black_plus_sign,,,null,,,,1,,,,,,1,,,,,,,,,,,,,
null,,color_black3,2570956,,,,,,,,black_plus_sign,,,null,,,,,,,,,,,,,,,,,,,,,,,
null,,learn_phase(without_color)3,2574459,,,,,,,,black_plus_sign,,,null,object_08c.png,object_11c.png,,,,,,,,,,,,,,,,,,,,,
null,,black_cross(without_color)3,2574978,,,,,,,,blue,,,null,object_08c.png,object_11c.png,,,,,,,,,,,,,,,,,,,,,
null,,rt_plussign_withcolor3,2575484,,,,,,,,blue,,,null,object_08c.png,object_11c.png,,,,,,,,,,,,,,,,,,,,,
1088.8999999761581,,rt_thecrossant_black3,2576988,,,,,,,,black_plus_sign,,,49,,,,1,,,,,,1,,,,,,,,,,,,,
null,,color_black3,2577105,,,,,,,,black_plus_sign,,,null,,,,,,,,,,,,,,,,,,,,,,,
null,,thebreak,2577214,,,,,,,,<p></p>,,,null,,,,,,,,,,,,,,,,,,,,,,,
1265.5,,intro_0,2578481,,,,,,,,instruct,,,32,,,,,,,,,,,,,,,,,,,,,,,
4825.100000023842,,directmemory_phase3,2583307,,,,,,,,object_03b.png,,,51,,,,1,object_05a.png,object_03a.png,object_12a.png,object_12a.png,,0.9354838709677419,,1,,,,,,,,,,,
3937.7000000476837,,directmemory_phase3,2587247,,,,,,,,object_14c.png,,,51,,,,1,object_08a.png,object_03c.png,object_09a.png,object_09a.png,,0.9375,,1,,,,,,,,,,,
4780.800000011921,,directmemory_phase3,2592030,,,,,,,,object_08c.png,,,50,,,,1,object_09c.png,object_11c.png,object_10c.png,object_11c.png,,0.9393939393939394,,1,,,,,,,,,,,
3215.600000023842,,directmemory_phase3,2595248,,,,,,,,object_03a.png,,,49,,,,1,object_05b.png,object_11b.png,object_01c.png,object_05b.png,,0.9411764705882353,,1,,,,,,,,,,,
2029.7999999523163,,directmemory_phase3,2597280,,,,,,,,object_03c.png,,,50,,,,1,object_15a.png,object_14b.png,object_11c.png,object_14b.png,,0.9428571428571428,,1,,,,,,,,,,,
6745.100000023842,,directmemory_phase3,2604027,,,,,,,,object_13a.png,,,49,,,,1,object_04c.png,object_09a.png,object_14c.png,object_04c.png,,0.9444444444444444,,1,,,,,,,,,,,
2101.2000000476837,,directmemory_phase3,2606132,,,,,,,,object_01c.png,,,50,,,,1,object_05c.png,object_04a.png,object_11c.png,object_04a.png,,0.9459459459459459,,1,,,,,,,,,,,
1763.8999999761581,,directmemory_phase3,2607898,,,,,,,,object_07b.png,,,51,,,,1,object_06b.png,object_03b.png,object_10c.png,object_10c.png,,0.9473684210526315,,1,,,,,,,,,,,
3031.800000011921,,directmemory_phase3,2610932,,,,,,,,object_09b.png,,,50,,,,1,object_03b.png,object_01b.png,object_14a.png,object_01b.png,,0.9487179487179487,,1,,,,,,,,,,,
5021,,directmemory_phase3,2615955,,,,,,,,object_15a.png,,,51,,,,1,object_14b.png,object_07b.png,object_06b.png,object_06b.png,,0.95,,1,,,,,,,,,,,
3366.899999976158,,directmemory_phase3,2619324,,,,,,,,object_06c.png,,,49,,,,1,object_11b.png,object_14b.png,object_15a.png,object_11b.png,,0.9512195121951219,,1,,,,,,,,,,,
7082.199999988079,,directmemory_phase3,2626408,,,,,,,,object_09c.png,,,51,,,,1,object_11b.png,object_08c.png,object_08a.png,object_08a.png,,0.9523809523809523,,1,,,,,,,,,,,
2221,,directmemory_phase3,2628633,,,,,,,,object_05c.png,,,49,,,,1,object_02a.png,object_05a.png,object_07b.png,object_02a.png,,0.9534883720930233,,1,,,,,,,,,,,
1630.199999988079,,directmemory_phase3,2630266,,,,,,,,object_13c.png,,,51,,,,1,object_14b.png,object_09c.png,object_14a.png,object_14a.png,,0.9545454545454546,,1,,,,,,,,,,,
3790.5,,directmemory_phase3,2634058,,,,,,,,object_07c.png,,,50,,,,1,object_03c.png,object_05a.png,object_06b.png,object_05a.png,,0.9555555555555556,,1,,,,,,,,,,,
null,,thebreak,2634177,,,,,,,,<p></p>,,,null,,,,,,,,,,,,,,,,,,,,,,,
4627.200000047684,,intro_0,2638806,,,,,,,,instruct,,,32,,,,,,,,,,,,,,,,,,,,,,,
null,,learn_phase(without_color)4,2642317,,,,,,,,black_plus_sign,,,null,object_04a.png,object_01c.png,,,,,,,,,,,,,,,,,,,,,
null,,black_cross(without_color)4,2642725,,,,,,,,green,,,null,object_04a.png,object_01c.png,,,,,,,,,,,,,,,,,,,,,
null,,rt_plussign_withcolor4,2643232,,,,,,,,green,,,null,object_04a.png,object_01c.png,,,,,,,,,,,,,,,,,,,,,
605.1000000238419,,rt_thecrossant_black4,2644835,,,,,,,,black_plus_sign,,,50,,,,1,,,,,,1,,,,,,,,,,,,,
null,,color_black4,2644941,,,,,,,,black_plus_sign,,,null,,,,,,,,,,,,,,,,,,,,,,,
null,,learn_phase(without_color)4,2648450,,,,,,,,black_plus_sign,,,null,object_11b.png,object_06c.png,,,,,,,,,,,,,,,,,,,,,
null,,black_cross(without_color)4,2649157,,,,,,,,blue,,,null,object_11b.png,object_06c.png,,,,,,,,,,,,,,,,,,,,,
null,,rt_plussign_withcolor4,2649662,,,,,,,,blue,,,null,object_11b.png,object_06c.png,,,,,,,,,,,,,,,,,,,,,
528.1999999880791,,rt_thecrossant_black4,2650970,,,,,,,,black_plus_sign,,,49,,,,1,,,,,,1,,,,,,,,,,,,,
null,,color_black4,2651084,,,,,,,,black_plus_sign,,,null,,,,,,,,,,,,,,,,,,,,,,,
null,,learn_phase(without_color)4,2654587,,,,,,,,black_plus_sign,,,null,object_03b.png,object_12a.png,,,,,,,,,,,,,,,,,,,,,
null,,black_cross(without_color)4,2655500,,,,,,,,blue,,,null,object_03b.png,object_12a.png,,,,,,,,,,,,,,,,,,,,,
null,,rt_plussign_withcolor4,2656012,,,,,,,,blue,,,null,object_03b.png,object_12a.png,,,,,,,,,,,,,,,,,,,,,
890.6999999880791,,rt_thecrossant_black4,2657117,,,,,,,,black_plus_sign,,,49,,,,1,,,,,,1,,,,,,,,,,,,,
null,,color_black4,2657223,,,,,,,,black_plus_sign,,,null,,,,,,,,,,,,,,,,,,,,,,,
null,,learn_phase(without_color)4,2660734,,,,,,,,black_plus_sign,,,null,object_09a.png,object_14c.png,,,,,,,,,,,,,,,,,,,,,
null,,black_cross(without_color)4,2661647,,,,,,,,blue,,,null,object_09a.png,object_14c.png,,,,,,,,,,,,,,,,,,,,,
512.2999999523163,,rt_plussign_withcolor4,2662174,,,,,,,,blue,,,49,object_09a.png,object_14c.png,,,,,,,,,,,,,,,,,,,,,
null,,rt_thecrossant_black4,2663280,,,,,,,,black_plus_sign,,,null,,,,1,,,,,,1,,,,,,,,,,,,,
null,,color_black4,2663396,,,,,,,,black_plus_sign,,,null,,,,,,,,,,,,,,,,,,,,,,,
null,,learn_phase(without_color)4,2666918,,,,,,,,black_plus_sign,,,null,object_01b.png,object_09b.png,,,,,,,,,,,,,,,,,,,,,
null,,black_cross(without_color)4,2667500,,,,,,,,green,,,null,object_01b.png,object_09b.png,,,,,,,,,,,,,,,,,,,,,
437.4000000357628,,rt_plussign_withcolor4,2668007,,,,,,,,green,,,50,object_01b.png,object_09b.png,,,,,,,,,,,,,,,,,,,,,
null,,rt_thecrossant_black4,2669447,,,,,,,,black_plus_sign,,,null,,,,1,,,,,,1,,,,,,,,,,,,,
null,,color_black4,2669553,,,,,,,,black_plus_sign,,,null,,,,,,,,,,,,,,,,,,,,,,,
null,,learn_phase(without_color)4,2673059,,,,,,,,black_plus_sign,,,null,object_03c.png,object_14b.png,,,,,,,,,,,,,,,,,,,,,
null,,black_cross(without_color)4,2673811,,,,,,,,blue,,,null,object_03c.png,object_14b.png,,,,,,,,,,,,,,,,,,,,,
null,,rt_plussign_withcolor4,2674317,,,,,,,,blue,,,null,object_03c.png,object_14b.png,,,,,,,,,,,,,,,,,,,,,
883.3999999761581,,rt_thecrossant_black4,2675586,,,,,,,,black_plus_sign,,,49,,,,1,,,,,,1,,,,,,,,,,,,,
null,,color_black4,2675701,,,,,,,,black_plus_sign,,,null,,,,,,,,,,,,,,,,,,,,,,,
null,,learn_phase(without_color)4,2679209,,,,,,,,black_plus_sign,,,null,object_08c.png,object_11c.png,,,,,,,,,,,,,,,,,,,,,
null,,black_cross(without_color)4,2679884,,,,,,,,green,,,null,object_08c.png,object_11c.png,,,,,,,,,,,,,,,,,,,,,
null,,rt_plussign_withcolor4,2680398,,,,,,,,green,,,null,object_08c.png,object_11c.png,,,,,,,,,,,,,,,,,,,,,
1113,,rt_thecrossant_black4,2681745,,,,,,,,black_plus_sign,,,50,,,,1,,,,,,1,,,,,,,,,,,,,
null,,color_black4,2681864,,,,,,,,black_plus_sign,,,null,,,,,,,,,,,,,,,,,,,,,,,
null,,learn_phase(without_color)4,2685373,,,,,,,,black_plus_sign,,,null,object_07c.png,object_05a.png,,,,,,,,,,,,,,,,,,,,,
null,,black_cross(without_color)4,2686091,,,,,,,,green,,,null,object_07c.png,object_05a.png,,,,,,,,,,,,,,,,,,,,,
354.5,,rt_plussign_withcolor4,2686597,,,,,,,,green,,,50,object_07c.png,object_05a.png,,,,,,,,,,,,,,,,,,,,,
null,,rt_thecrossant_black4,2687885,,,,,,,,black_plus_sign,,,null,,,,1,,,,,,1,,,,,,,,,,,,,
null,,color_black4,2687993,,,,,,,,black_plus_sign,,,null,,,,,,,,,,,,,,,,,,,,,,,
null,,learn_phase(without_color)4,2691495,,,,,,,,black_plus_sign,,,null,object_14a.png,object_13c.png,,,,,,,,,,,,,,,,,,,,,
null,,black_cross(without_color)4,2692001,,,,,,,,blue,,,null,object_14a.png,object_13c.png,,,,,,,,,,,,,,,,,,,,,
null,,rt_plussign_withcolor4,2692516,,,,,,,,blue,,,null,object_14a.png,object_13c.png,,,,,,,,,,,,,,,,,,,,,
845.8000000119209,,rt_thecrossant_black4,2694027,,,,,,,,black_plus_sign,,,49,,,,1,,,,,,1,,,,,,,,,,,,,
null,,color_black4,2694134,,,,,,,,black_plus_sign,,,null,,,,,,,,,,,,,,,,,,,,,,,
null,,learn_phase(without_color)4,2697647,,,,,,,,black_plus_sign,,,null,object_10c.png,object_07b.png,,,,,,,,,,,,,,,,,,,,,
null,,black_cross(without_color)4,2698466,,,,,,,,green,,,null,object_10c.png,object_07b.png,,,,,,,,,,,,,,,,,,,,,
455.89999997615814,,rt_plussign_withcolor4,2698973,,,,,,,,green,,,50,object_10c.png,object_07b.png,,,,,,,,,,,,,,,,,,,,,
null,,rt_thecrossant_black4,2700167,,,,,,,,black_plus_sign,,,null,,,,1,,,,,,1,,,,,,,,,,,,,
null,,color_black4,2700274,,,,,,,,black_plus_sign,,,null,,,,,,,,,,,,,,,,,,,,,,,
null,,learn_phase(without_color)4,2703786,,,,,,,,black_plus_sign,,,null,object_05c.png,object_02a.png,,,,,,,,,,,,,,,,,,,,,
null,,black_cross(without_color)4,2704512,,,,,,,,green,,,null,object_05c.png,object_02a.png,,,,,,,,,,,,,,,,,,,,,
342.19999998807907,,rt_plussign_withcolor4,2705015,,,,,,,,green,,,49,object_05c.png,object_02a.png,,,,,,,,,,,,,,,,,,,,,
null,,rt_thecrossant_black4,2706316,,,,,,,,black_plus_sign,,,null,,,,0,,,,,,0.9090909090909091,,,,,,,,,,,,,
null,,color_black4,2706426,,,,,,,,black_plus_sign,,,null,,,,,,,,,,,,,,,,,,,,,,,
null,,learn_phase(without_color)4,2709937,,,,,,,,black_plus_sign,,,null,object_04c.png,object_13a.png,,,,,,,,,,,,,,,,,,,,,
null,,black_cross(without_color)4,2710957,,,,,,,,green,,,null,object_04c.png,object_13a.png,,,,,,,,,,,,,,,,,,,,,
null,,rt_plussign_withcolor4,2711461,,,,,,,,green,,,null,object_04c.png,object_13a.png,,,,,,,,,,,,,,,,,,,,,
842.2999999523163,,rt_thecrossant_black4,2712463,,,,,,,,black_plus_sign,,,50,,,,1,,,,,,0.9166666666666666,,,,,,,,,,,,,
null,,color_black4,2712580,,,,,,,,black_plus_sign,,,null,,,,,,,,,,,,,,,,,,,,,,,
null,,learn_phase(without_color)4,2716099,,,,,,,,black_plus_sign,,,null,object_03a.png,object_05b.png,,,,,,,,,,,,,,,,,,,,,
null,,black_cross(without_color)4,2716715,,,,,,,,blue,,,null,object_03a.png,object_05b.png,,,,,,,,,,,,,,,,,,,,,
456.89999997615814,,rt_plussign_withcolor4,2717226,,,,,,,,blue,,,49,object_03a.png,object_05b.png,,,,,,,,,,,,,,,,,,,,,
null,,rt_thecrossant_black4,2718626,,,,,,,,black_plus_sign,,,null,,,,1,,,,,,0.9230769230769231,,,,,,,,,,,,,
null,,color_black4,2718737,,,,,,,,black_plus_sign,,,null,,,,,,,,,,,,,,,,,,,,,,,
null,,learn_phase(without_color)4,2722246,,,,,,,,black_plus_sign,,,null,object_09c.png,object_08a.png,,,,,,,,,,,,,,,,,,,,,
null,,black_cross(without_color)4,2723293,,,,,,,,blue,,,null,object_09c.png,object_08a.png,,,,,,,,,,,,,,,,,,,,,
455.89999997615814,,rt_plussign_withcolor4,2723799,,,,,,,,blue,,,49,object_09c.png,object_08a.png,,,,,,,,,,,,,,,,,,,,,
null,,rt_thecrossant_black4,2724776,,,,,,,,black_plus_sign,,,null,,,,1,,,,,,0.9285714285714286,,,,,,,,,,,,,
null,,color_black4,2724884,,,,,,,,black_plus_sign,,,null,,,,,,,,,,,,,,,,,,,,,,,
null,,learn_phase(without_color)4,2728395,,,,,,,,black_plus_sign,,,null,object_06b.png,object_15a.png,,,,,,,,,,,,,,,,,,,,,
null,,black_cross(without_color)4,2729420,,,,,,,,green,,,null,object_06b.png,object_15a.png,,,,,,,,,,,,,,,,,,,,,
null,,rt_plussign_withcolor4,2729929,,,,,,,,green,,,null,object_06b.png,object_15a.png,,,,,,,,,,,,,,,,,,,,,
1240.8999999761581,,rt_thecrossant_black4,2730916,,,,,,,,black_plus_sign,,,50,,,,1,,,,,,0.9333333333333333,,,,,,,,,,,,,
null,,color_black4,2731024,,,,,,,,black_plus_sign,,,null,,,,,,,,,,,,,,,,,,,,,,,
null,,thebreak,2731137,,,,,,,,<p></p>,,,null,,,,,,,,,,,,,,,,,,,,,,,
4453.899999976158,,intro_0,2735592,,,,,,,,instruct,,,32,,,,,,,,,,,,,,,,,,,,,,,
3111.899999976158,,directmemory_phase4,2738705,,,,,,,,object_14c.png,,,49,,,,1,object_09a.png,object_01b.png,object_09c.png,object_09a.png,,0.9565217391304348,,1,,,,,,,,,,,
2609.300000011921,,directmemory_phase4,2741316,,,,,,,,object_01c.png,,,50,,,,1,object_03a.png,object_04a.png,object_08a.png,object_04a.png,,0.9574468085106383,,1,,,,,,,,,,,
3943.400000035763,,directmemory_phase4,2745262,,,,,,,,object_07b.png,,,51,,,,1,object_14b.png,object_05c.png,object_10c.png,object_10c.png,,0.9583333333333334,,1,,,,,,,,,,,
3065.300000011921,,directmemory_phase4,2748330,,,,,,,,object_03a.png,,,49,,,,1,object_05b.png,object_06b.png,object_06c.png,object_05b.png,,0.9591836734693877,,1,,,,,,,,,,,
3302.099999964237,,directmemory_phase4,2751635,,,,,,,,object_09c.png,,,51,,,,1,object_02a.png,object_07b.png,object_08a.png,object_08a.png,,0.96,,1,,,,,,,,,,,
1860.7999999523163,,directmemory_phase4,2753497,,,,,,,,object_13a.png,,,49,,,,1,object_04c.png,object_04a.png,object_09b.png,object_04c.png,,0.9607843137254902,,1,,,,,,,,,,,
1965.8999999761581,,directmemory_phase4,2755465,,,,,,,,object_09b.png,,,50,,,,1,object_06c.png,object_01b.png,object_14a.png,object_01b.png,,0.9615384615384616,,1,,,,,,,,,,,
1539.5,,directmemory_phase4,2757007,,,,,,,,object_03b.png,,,51,,,,1,object_09a.png,object_03c.png,object_12a.png,object_12a.png,,0.9622641509433962,,1,,,,,,,,,,,
3147.199999988079,,directmemory_phase4,2760157,,,,,,,,object_13c.png,,,50,,,,1,object_05c.png,object_14a.png,object_02a.png,object_14a.png,,0.9629629629629629,,1,,,,,,,,,,,
3736.699999988079,,directmemory_phase4,2763896,,,,,,,,object_06c.png,,,49,,,,1,object_11b.png,object_09a.png,object_08c.png,object_11b.png,,0.9636363636363636,,1,,,,,,,,,,,
1720.5999999642372,,directmemory_phase4,2765619,,,,,,,,object_03c.png,,,50,,,,1,object_07c.png,object_14b.png,object_14a.png,object_14b.png,,0.9642857142857143,,1,,,,,,,,,,,
1931.199999988079,,directmemory_phase4,2767553,,,,,,,,object_05c.png,,,49,,,,1,object_02a.png,object_10c.png,object_01c.png,object_02a.png,,0.9649122807017544,,1,,,,,,,,,,,
3292.5,,directmemory_phase4,2770849,,,,,,,,object_08c.png,,,51,,,,1,object_05a.png,object_15a.png,object_11c.png,object_11c.png,,0.9655172413793104,,1,,,,,,,,,,,
5556,,directmemory_phase4,2776407,,,,,,,,object_07c.png,,,50,,,,1,object_03a.png,object_05a.png,object_01b.png,object_05a.png,,0.9661016949152542,,1,,,,,,,,,,,
2104.699999988079,,directmemory_phase4,2778514,,,,,,,,object_15a.png,,,50,,,,1,object_08c.png,object_06b.png,object_02a.png,object_06b.png,,0.9666666666666667,,1,,,,,,,,,,,
null,,thebreak,2778619,,,,,,,,<p></p>,,,null,,,,,,,,,,,,,,,,,,,,,,,
484300.5,,intro_0,3262922,,,,,,,,instruct,,,32,,,,,,,,,,,,,,,,,,,,,,,
null,,learn_phase(without_color)5,3266431,,,,,,,,black_plus_sign,,,null,object_12b.png,object_05b.png,,,,,,,,,,,,,,,,,,,,,
null,,black_cross(without_color)5,3267450,,,,,,,,blue,,,null,object_12b.png,object_05b.png,,,,,,,,,,,,,,,,,,,,,
470.69999998807907,,rt_plussign_withcolor5,3267959,,,,,,,,blue,,,49,object_12b.png,object_05b.png,,,,,,,,,,,,,,,,,,,,,
null,,rt_thecrossant_black5,3268964,,,,,,,,black_plus_sign,,,null,,,,1,,,,,,1,,,,,,,,,,,,,
null,,color_black5,3269071,,,,,,,,black_plus_sign,,,null,,,,,,,,,,,,,,,,,,,,,,,
null,,learn_phase(without_color)5,3272576,,,,,,,,black_plus_sign,,,null,object_13b.png,object_01b.png,,,,,,,,,,,,,,,,,,,,,
null,,black_cross(without_color)5,3273413,,,,,,,,blue,,,null,object_13b.png,object_01b.png,,,,,,,,,,,,,,,,,,,,,
492.89999997615814,,rt_plussign_withcolor5,3273922,,,,,,,,blue,,,49,object_13b.png,object_01b.png,,,,,,,,,,,,,,,,,,,,,
null,,rt_thecrossant_black5,3275101,,,,,,,,black_plus_sign,,,null,,,,1,,,,,,1,,,,,,,,,,,,,
null,,color_black5,3275206,,,,,,,,black_plus_sign,,,null,,,,,,,,,,,,,,,,,,,,,,,
null,,learn_phase(without_color)5,3278718,,,,,,,,black_plus_sign,,,null,object_11b.png,object_10b.png,,,,,,,,,,,,,,,,,,,,,
null,,black_cross(without_color)5,3279642,,,,,,,,blue,,,null,object_11b.png,object_10b.png,,,,,,,,,,,,,,,,,,,,,
null,,rt_plussign_withcolor5,3280151,,,,,,,,blue,,,null,object_11b.png,object_10b.png,,,,,,,,,,,,,,,,,,,,,
1131.6000000238419,,rt_thecrossant_black5,3281245,,,,,,,,black_plus_sign,,,49,,,,1,,,,,,1,,,,,,,,,,,,,
null,,color_black5,3281352,,,,,,,,black_plus_sign,,,null,,,,,,,,,,,,,,,,,,,,,,,
null,,learn_phase(without_color)5,3284859,,,,,,,,black_plus_sign,,,null,object_14b.png,object_02b.png,,,,,,,,,,,,,,,,,,,,,
null,,black_cross(without_color)5,3285851,,,,,,,,blue,,,null,object_14b.png,object_02b.png,,,,,,,,,,,,,,,,,,,,,
null,,rt_plussign_withcolor5,3286357,,,,,,,,blue,,,null,object_14b.png,object_02b.png,,,,,,,,,,,,,,,,,,,,,
1130.199999988079,,rt_thecrossant_black5,3287384,,,,,,,,black_plus_sign,,,49,,,,1,,,,,,1,,,,,,,,,,,,,
null,,color_black5,3287502,,,,,,,,black_plus_sign,,,null,,,,,,,,,,,,,,,,,,,,,,,
null,,learn_phase(without_color)5,3291010,,,,,,,,black_plus_sign,,,null,object_12c.png,object_04a.png,,,,,,,,,,,,,,,,,,,,,
null,,black_cross(without_color)5,3291588,,,,,,,,blue,,,null,object_12c.png,object_04a.png,,,,,,,,,,,,,,,,,,,,,
null,,rt_plussign_withcolor5,3292098,,,,,,,,blue,,,null,object_12c.png,object_04a.png,,,,,,,,,,,,,,,,,,,,,
1175.1000000238419,,rt_thecrossant_black5,3293540,,,,,,,,black_plus_sign,,,49,,,,1,,,,,,1,,,,,,,,,,,,,
null,,color_black5,3293652,,,,,,,,black_plus_sign,,,null,,,,,,,,,,,,,,,,,,,,,,,
null,,learn_phase(without_color)5,3297169,,,,,,,,black_plus_sign,,,null,object_04c.png,object_11a.png,,,,,,,,,,,,,,,,,,,,,
null,,black_cross(without_color)5,3297927,,,,,,,,green,,,null,object_04c.png,object_11a.png,,,,,,,,,,,,,,,,,,,,,
491.80000001192093,,rt_plussign_withcolor5,3298432,,,,,,,,green,,,50,object_04c.png,object_11a.png,,,,,,,,,,,,,,,,,,,,,
null,,rt_thecrossant_black5,3299690,,,,,,,,black_plus_sign,,,null,,,,1,,,,,,1,,,,,,,,,,,,,
null,,color_black5,3299800,,,,,,,,black_plus_sign,,,null,,,,,,,,,,,,,,,,,,,,,,,
null,,learn_phase(without_color)5,3303311,,,,,,,,black_plus_sign,,,null,object_05a.png,object_15b.png,,,,,,,,,,,,,,,,,,,,,
null,,black_cross(without_color)5,3304278,,,,,,,,green,,,null,object_05a.png,object_15b.png,,,,,,,,,,,,,,,,,,,,,
null,,rt_plussign_withcolor5,3304787,,,,,,,,green,,,null,object_05a.png,object_15b.png,,,,,,,,,,,,,,,,,,,,,
1289.2000000476837,,rt_thecrossant_black5,3305836,,,,,,,,black_plus_sign,,,49,,,,0,,,,,,0.8571428571428571,,,,,,,,,,,,,
null,,color_black5,3305964,,,,,,,,black_plus_sign,,,null,,,,,,,,,,,,,,,,,,,,,,,
null,,learn_phase(without_color)5,3309478,,,,,,,,black_plus_sign,,,null,object_08b.png,object_06b.png,,,,,,,,,,,,,,,,,,,,,
null,,black_cross(without_color)5,3309936,,,,,,,,blue,,,null,object_08b.png,object_06b.png,,,,,,,,,,,,,,,,,,,,,
null,,rt_plussign_withcolor5,3310445,,,,,,,,blue,,,null,object_08b.png,object_06b.png,,,,,,,,,,,,,,,,,,,,,
1214.2999999523163,,rt_thecrossant_black5,3312003,,,,,,,,black_plus_sign,,,49,,,,1,,,,,,0.875,,,,,,,,,,,,,
null,,color_black5,3312110,,,,,,,,black_plus_sign,,,null,,,,,,,,,,,,,,,,,,,,,,,
null,,learn_phase(without_color)5,3315621,,,,,,,,black_plus_sign,,,null,object_01a.png,object_10c.png,,,,,,,,,,,,,,,,,,,,,
null,,black_cross(without_color)5,3316533,,,,,,,,green,,,null,object_01a.png,object_10c.png,,,,,,,,,,,,,,,,,,,,,
468.4000000357628,,rt_plussign_withcolor5,3317040,,,,,,,,green,,,50,object_01a.png,object_10c.png,,,,,,,,,,,,,,,,,,,,,
null,,rt_thecrossant_black5,3318141,,,,,,,,black_plus_sign,,,null,,,,1,,,,,,0.8888888888888888,,,,,,,,,,,,,
null,,color_black5,3318244,,,,,,,,black_plus_sign,,,null,,,,,,,,,,,,,,,,,,,,,,,
null,,learn_phase(without_color)5,3321748,,,,,,,,black_plus_sign,,,null,object_07a.png,object_14a.png,,,,,,,,,,,,,,,,,,,,,
null,,black_cross(without_color)5,3322358,,,,,,,,green,,,null,object_07a.png,object_14a.png,,,,,,,,,,,,,,,,,,,,,
478.60000002384186,,rt_plussign_withcolor5,3322859,,,,,,,,green,,,50,object_07a.png,object_14a.png,,,,,,,,,,,,,,,,,,,,,
null,,rt_thecrossant_black5,3324267,,,,,,,,black_plus_sign,,,null,,,,1,,,,,,0.9,,,,,,,,,,,,,
null,,color_black5,3324374,,,,,,,,black_plus_sign,,,null,,,,,,,,,,,,,,,,,,,,,,,
null,,learn_phase(without_color)5,3327883,,,,,,,,black_plus_sign,,,null,object_10a.png,object_09a.png,,,,,,,,,,,,,,,,,,,,,
null,,black_cross(without_color)5,3328715,,,,,,,,green,,,null,object_10a.png,object_09a.png,,,,,,,,,,,,,,,,,,,,,
504.5999999642372,,rt_plussign_withcolor5,3329222,,,,,,,,green,,,50,object_10a.png,object_09a.png,,,,,,,,,,,,,,,,,,,,,
null,,rt_thecrossant_black5,3330410,,,,,,,,black_plus_sign,,,null,,,,1,,,,,,0.9090909090909091,,,,,,,,,,,,,
null,,color_black5,3330518,,,,,,,,black_plus_sign,,,null,,,,,,,,,,,,,,,,,,,,,,,
null,,learn_phase(without_color)5,3334028,,,,,,,,black_plus_sign,,,null,object_15c.png,object_02a.png,,,,,,,,,,,,,,,,,,,,,
null,,black_cross(without_color)5,3334824,,,,,,,,green,,,null,object_15c.png,object_02a.png,,,,,,,,,,,,,,,,,,,,,
444.19999998807907,,rt_plussign_withcolor5,3335327,,,,,,,,green,,,50,object_15c.png,object_02a.png,,,,,,,,,,,,,,,,,,,,,
null,,rt_thecrossant_black5,3336543,,,,,,,,black_plus_sign,,,null,,,,1,,,,,,0.9166666666666666,,,,,,,,,,,,,
null,,color_black5,3336653,,,,,,,,black_plus_sign,,,null,,,,,,,,,,,,,,,,,,,,,,,
null,,learn_phase(without_color)5,3340164,,,,,,,,black_plus_sign,,,null,object_08a.png,object_02c.png,,,,,,,,,,,,,,,,,,,,,
null,,black_cross(without_color)5,3340875,,,,,,,,blue,,,null,object_08a.png,object_02c.png,,,,,,,,,,,,,,,,,,,,,
null,,rt_plussign_withcolor5,3341387,,,,,,,,blue,,,null,object_08a.png,object_02c.png,,,,,,,,,,,,,,,,,,,,,
1007.5999999642372,,rt_thecrossant_black5,3342695,,,,,,,,black_plus_sign,,,49,,,,1,,,,,,0.9230769230769231,,,,,,,,,,,,,
null,,color_black5,3342804,,,,,,,,black_plus_sign,,,null,,,,,,,,,,,,,,,,,,,,,,,
null,,learn_phase(without_color)5,3346321,,,,,,,,black_plus_sign,,,null,object_12a.png,object_06a.png,,,,,,,,,,,,,,,,,,,,,
null,,black_cross(without_color)5,3346838,,,,,,,,green,,,null,object_12a.png,object_06a.png,,,,,,,,,,,,,,,,,,,,,
null,,rt_plussign_withcolor5,3347344,,,,,,,,green,,,null,object_12a.png,object_06a.png,,,,,,,,,,,,,,,,,,,,,
1309.0999999642372,,rt_thecrossant_black5,3348836,,,,,,,,black_plus_sign,,,50,,,,1,,,,,,0.9285714285714286,,,,,,,,,,,,,
null,,color_black5,3348952,,,,,,,,black_plus_sign,,,null,,,,,,,,,,,,,,,,,,,,,,,
null,,learn_phase(without_color)5,3352471,,,,,,,,black_plus_sign,,,null,object_04b.png,object_11c.png,,,,,,,,,,,,,,,,,,,,,
null,,black_cross(without_color)5,3353267,,,,,,,,blue,,,null,object_04b.png,object_11c.png,,,,,,,,,,,,,,,,,,,,,
null,,rt_plussign_withcolor5,3353780,,,,,,,,blue,,,null,object_04b.png,object_11c.png,,,,,,,,,,,,,,,,,,,,,
717.6999999880791,,rt_thecrossant_black5,3354995,,,,,,,,black_plus_sign,,,49,,,,1,,,,,,0.9333333333333333,,,,,,,,,,,,,
null,,color_black5,3355101,,,,,,,,black_plus_sign,,,null,,,,,,,,,,,,,,,,,,,,,,,
null,,thebreak,3355219,,,,,,,,<p></p>,,,null,,,,,,,,,,,,,,,,,,,,,,,
13336.700000047684,,intro_0,3368558,,,,,,,,instruct,,,32,,,,,,,,,,,,,,,,,,,,,,,
3030.900000035763,,directmemory_phase5,3371590,,,,,,,,object_07a.png,,,51,,,,1,object_05a.png,object_13b.png,object_14a.png,object_14a.png,,0.9672131147540983,,1,,,,,,,,,,,
2635.199999988079,,directmemory_phase5,3374228,,,,,,,,object_02c.png,,,51,,,,1,object_01b.png,object_01a.png,object_08a.png,object_08a.png,,0.967741935483871,,1,,,,,,,,,,,
3933.699999988079,,directmemory_phase5,3378164,,,,,,,,object_14b.png,,,50,,,,1,object_08a.png,object_02b.png,object_15b.png,object_02b.png,,0.9682539682539683,,1,,,,,,,,,,,
3974.7999999523163,,directmemory_phase5,3382141,,,,,,,,object_05b.png,,,49,,,,1,object_12b.png,object_08b.png,object_12a.png,object_12b.png,,0.96875,,1,,,,,,,,,,,
7182.799999952316,,directmemory_phase5,3389326,,,,,,,,object_09a.png,,,51,,,,1,object_07a.png,object_10c.png,object_10a.png,object_10a.png,,0.9692307692307692,,1,,,,,,,,,,,
2253.400000035763,,directmemory_phase5,3391581,,,,,,,,object_15c.png,,,50,,,,1,object_13b.png,object_02a.png,object_11c.png,object_02a.png,,0.9696969696969697,,1,,,,,,,,,,,
2738.099999964237,,directmemory_phase5,3394323,,,,,,,,object_15b.png,,,49,,,,1,object_05a.png,object_05b.png,object_12c.png,object_05a.png,,0.9701492537313433,,1,,,,,,,,,,,
1798.800000011921,,directmemory_phase5,3396124,,,,,,,,object_06b.png,,,51,,,,1,object_15c.png,object_11b.png,object_08b.png,object_08b.png,,0.9705882352941176,,1,,,,,,,,,,,
1744.7000000476837,,directmemory_phase5,3397871,,,,,,,,object_04b.png,,,51,,,,1,object_12a.png,object_02c.png,object_11c.png,object_11c.png,,0.9710144927536232,,1,,,,,,,,,,,
2485.899999976158,,directmemory_phase5,3400361,,,,,,,,object_12a.png,,,50,,,,1,object_01b.png,object_06a.png,object_08b.png,object_06a.png,,0.9714285714285714,,1,,,,,,,,,,,
2354.2999999523163,,directmemory_phase5,3402717,,,,,,,,object_10c.png,,,50,,,,1,object_08a.png,object_01a.png,object_15c.png,object_01a.png,,0.971830985915493,,1,,,,,,,,,,,
2740.300000011921,,directmemory_phase5,3405459,,,,,,,,object_13b.png,,,49,,,,1,object_01b.png,object_05b.png,object_08b.png,object_01b.png,,0.9722222222222222,,1,,,,,,,,,,,
2448.300000011921,,directmemory_phase5,3407910,,,,,,,,object_11a.png,,,49,,,,1,object_04c.png,object_05a.png,object_15c.png,object_04c.png,,0.9726027397260274,,1,,,,,,,,,,,
5383.199999988079,,directmemory_phase5,3413295,,,,,,,,object_12c.png,,,51,,,,1,object_10c.png,object_15c.png,object_04a.png,object_04a.png,,0.972972972972973,,1,,,,,,,,,,,
1971.8999999761581,,directmemory_phase5,3415270,,,,,,,,object_10b.png,,,50,,,,1,object_02b.png,object_11b.png,object_14a.png,object_11b.png,,0.9733333333333334,,1,,,,,,,,,,,
null,,thebreak,3415375,,,,,,,,<p></p>,,,null,,,,,,,,,,,,,,,,,,,,,,,
10037.800000011921,,intro_0,3425414,,,,,,,,instruct,,,32,,,,,,,,,,,,,,,,,,,,,,,
null,,learn_phase(without_color)6,3428916,,,,,,,,black_plus_sign,,,null,object_06b.png,object_08b.png,,,,,,,,,,,,,,,,,,,,,
null,,black_cross(without_color)6,3429543,,,,,,,,green,,,null,object_06b.png,object_08b.png,,,,,,,,,,,,,,,,,,,,,
null,,rt_plussign_withcolor6,3430059,,,,,,,,green,,,null,object_06b.png,object_08b.png,,,,,,,,,,,,,,,,,,,,,
879.4000000357628,,rt_thecrossant_black6,3431450,,,,,,,,black_plus_sign,,,50,,,,1,,,,,,1,,,,,,,,,,,,,
null,,color_black6,3431568,,,,,,,,black_plus_sign,,,null,,,,,,,,,,,,,,,,,,,,,,,
null,,learn_phase(without_color)6,3435077,,,,,,,,black_plus_sign,,,null,object_05a.png,object_15b.png,,,,,,,,,,,,,,,,,,,,,
null,,black_cross(without_color)6,3435917,,,,,,,,green,,,null,object_05a.png,object_15b.png,,,,,,,,,,,,,,,,,,,,,
null,,rt_plussign_withcolor6,3436427,,,,,,,,green,,,null,object_05a.png,object_15b.png,,,,,,,,,,,,,,,,,,,,,
824.8000000119209,,rt_thecrossant_black6,3437596,,,,,,,,black_plus_sign,,,50,,,,1,,,,,,1,,,,,,,,,,,,,
null,,color_black6,3437705,,,,,,,,black_plus_sign,,,null,,,,,,,,,,,,,,,,,,,,,,,
null,,learn_phase(without_color)6,3441212,,,,,,,,black_plus_sign,,,null,object_06a.png,object_12a.png,,,,,,,,,,,,,,,,,,,,,
null,,black_cross(without_color)6,3442033,,,,,,,,green,,,null,object_06a.png,object_12a.png,,,,,,,,,,,,,,,,,,,,,
null,,rt_plussign_withcolor6,3442547,,,,,,,,green,,,null,object_06a.png,object_12a.png,,,,,,,,,,,,,,,,,,,,,
1027.300000011921,,rt_thecrossant_black6,3443737,,,,,,,,black_plus_sign,,,50,,,,1,,,,,,1,,,,,,,,,,,,,
null,,color_black6,3443850,,,,,,,,black_plus_sign,,,null,,,,,,,,,,,,,,,,,,,,,,,
null,,learn_phase(without_color)6,3447360,,,,,,,,black_plus_sign,,,null,object_01a.png,object_10c.png,,,,,,,,,,,,,,,,,,,,,
null,,black_cross(without_color)6,3447967,,,,,,,,green,,,null,object_01a.png,object_10c.png,,,,,,,,,,,,,,,,,,,,,
483.19999998807907,,rt_plussign_withcolor6,3448474,,,,,,,,green,,,50,object_01a.png,object_10c.png,,,,,,,,,,,,,,,,,,,,,
null,,rt_thecrossant_black6,3449890,,,,,,,,black_plus_sign,,,null,,,,1,,,,,,1,,,,,,,,,,,,,
null,,color_black6,3450000,,,,,,,,black_plus_sign,,,null,,,,,,,,,,,,,,,,,,,,,,,
null,,learn_phase(without_color)6,3453519,,,,,,,,black_plus_sign,,,null,object_05b.png,object_12b.png,,,,,,,,,,,,,,,,,,,,,
null,,black_cross(without_color)6,3454277,,,,,,,,blue,,,null,object_05b.png,object_12b.png,,,,,,,,,,,,,,,,,,,,,
346.60000002384186,,rt_plussign_withcolor6,3454782,,,,,,,,blue,,,49,object_05b.png,object_12b.png,,,,,,,,,,,,,,,,,,,,,
null,,rt_thecrossant_black6,3456036,,,,,,,,black_plus_sign,,,null,,,,1,,,,,,1,,,,,,,,,,,,,
null,,color_black6,3456151,,,,,,,,black_plus_sign,,,null,,,,,,,,,,,,,,,,,,,,,,,
null,,learn_phase(without_color)6,3459660,,,,,,,,black_plus_sign,,,null,object_02b.png,object_14b.png,,,,,,,,,,,,,,,,,,,,,
null,,black_cross(without_color)6,3460112,,,,,,,,green,,,null,object_02b.png,object_14b.png,,,,,,,,,,,,,,,,,,,,,
357.89999997615814,,rt_plussign_withcolor6,3460616,,,,,,,,green,,,50,object_02b.png,object_14b.png,,,,,,,,,,,,,,,,,,,,,
null,,rt_thecrossant_black6,3462184,,,,,,,,black_plus_sign,,,null,,,,1,,,,,,1,,,,,,,,,,,,,
null,,color_black6,3462302,,,,,,,,black_plus_sign,,,null,,,,,,,,,,,,,,,,,,,,,,,
null,,learn_phase(without_color)6,3465806,,,,,,,,black_plus_sign,,,null,object_08a.png,object_02c.png,,,,,,,,,,,,,,,,,,,,,
null,,black_cross(without_color)6,3466803,,,,,,,,green,,,null,object_08a.png,object_02c.png,,,,,,,,,,,,,,,,,,,,,
378.19999998807907,,rt_plussign_withcolor6,3467312,,,,,,,,green,,,50,object_08a.png,object_02c.png,,,,,,,,,,,,,,,,,,,,,
null,,rt_thecrossant_black6,3468329,,,,,,,,black_plus_sign,,,null,,,,1,,,,,,1,,,,,,,,,,,,,
null,,color_black6,3468433,,,,,,,,black_plus_sign,,,null,,,,,,,,,,,,,,,,,,,,,,,
null,,learn_phase(without_color)6,3471940,,,,,,,,black_plus_sign,,,null,object_11b.png,object_10b.png,,,,,,,,,,,,,,,,,,,,,
null,,black_cross(without_color)6,3473028,,,,,,,,green,,,null,object_11b.png,object_10b.png,,,,,,,,,,,,,,,,,,,,,
507.69999998807907,,rt_plussign_withcolor6,3473538,,,,,,,,green,,,50,object_11b.png,object_10b.png,,,,,,,,,,,,,,,,,,,,,
null,,rt_thecrossant_black6,3474465,,,,,,,,black_plus_sign,,,null,,,,1,,,,,,1,,,,,,,,,,,,,
null,,color_black6,3474582,,,,,,,,black_plus_sign,,,null,,,,,,,,,,,,,,,,,,,,,,,
null,,learn_phase(without_color)6,3478091,,,,,,,,black_plus_sign,,,null,object_07a.png,object_14a.png,,,,,,,,,,,,,,,,,,,,,
null,,black_cross(without_color)6,3478658,,,,,,,,blue,,,null,object_07a.png,object_14a.png,,,,,,,,,,,,,,,,,,,,,
null,,rt_plussign_withcolor6,3479164,,,,,,,,blue,,,null,object_07a.png,object_14a.png,,,,,,,,,,,,,,,,,,,,,
1235.9000000357628,,rt_thecrossant_black6,3480608,,,,,,,,black_plus_sign,,,49,,,,1,,,,,,1,,,,,,,,,,,,,
null,,color_black6,3480712,,,,,,,,black_plus_sign,,,null,,,,,,,,,,,,,,,,,,,,,,,
null,,learn_phase(without_color)6,3484230,,,,,,,,black_plus_sign,,,null,object_04a.png,object_12c.png,,,,,,,,,,,,,,,,,,,,,
null,,black_cross(without_color)6,3485145,,,,,,,,green,,,null,object_04a.png,object_12c.png,,,,,,,,,,,,,,,,,,,,,
470.9000000357628,,rt_plussign_withcolor6,3485650,,,,,,,,green,,,50,object_04a.png,object_12c.png,,,,,,,,,,,,,,,,,,,,,
null,,rt_thecrossant_black6,3486757,,,,,,,,black_plus_sign,,,null,,,,1,,,,,,1,,,,,,,,,,,,,
null,,color_black6,3486861,,,,,,,,black_plus_sign,,,null,,,,,,,,,,,,,,,,,,,,,,,
null,,learn_phase(without_color)6,3490369,,,,,,,,black_plus_sign,,,null,object_04b.png,object_11c.png,,,,,,,,,,,,,,,,,,,,,
null,,black_cross(without_color)6,3491288,,,,,,,,blue,,,null,object_04b.png,object_11c.png,,,,,,,,,,,,,,,,,,,,,
null,,rt_plussign_withcolor6,3491791,,,,,,,,blue,,,null,object_04b.png,object_11c.png,,,,,,,,,,,,,,,,,,,,,
1109.8999999761581,,rt_thecrossant_black6,3492886,,,,,,,,black_plus_sign,,,49,,,,1,,,,,,1,,,,,,,,,,,,,
null,,color_black6,3492996,,,,,,,,black_plus_sign,,,null,,,,,,,,,,,,,,,,,,,,,,,
null,,learn_phase(without_color)6,3496510,,,,,,,,black_plus_sign,,,null,object_13b.png,object_01b.png,,,,,,,,,,,,,,,,,,,,,
null,,black_cross(without_color)6,3497238,,,,,,,,green,,,null,object_13b.png,object_01b.png,,,,,,,,,,,,,,,,,,,,,
456.69999998807907,,rt_plussign_withcolor6,3497747,,,,,,,,green,,,50,object_13b.png,object_01b.png,,,,,,,,,,,,,,,,,,,,,
null,,rt_thecrossant_black6,3499034,,,,,,,,black_plus_sign,,,null,,,,1,,,,,,1,,,,,,,,,,,,,
null,,color_black6,3499142,,,,,,,,black_plus_sign,,,null,,,,,,,,,,,,,,,,,,,,,,,
null,,learn_phase(without_color)6,3502654,,,,,,,,black_plus_sign,,,null,object_10a.png,object_09a.png,,,,,,,,,,,,,,,,,,,,,
null,,black_cross(without_color)6,3503426,,,,,,,,blue,,,null,object_10a.png,object_09a.png,,,,,,,,,,,,,,,,,,,,,
null,,rt_plussign_withcolor6,3503939,,,,,,,,blue,,,null,object_10a.png,object_09a.png,,,,,,,,,,,,,,,,,,,,,
950.2999999523163,,rt_thecrossant_black6,3505184,,,,,,,,black_plus_sign,,,49,,,,1,,,,,,1,,,,,,,,,,,,,
null,,color_black6,3505301,,,,,,,,black_plus_sign,,,null,,,,,,,,,,,,,,,,,,,,,,,
null,,learn_phase(without_color)6,3508806,,,,,,,,black_plus_sign,,,null,object_04c.png,object_11a.png,,,,,,,,,,,,,,,,,,,,,
null,,black_cross(without_color)6,3509684,,,,,,,,blue,,,null,object_04c.png,object_11a.png,,,,,,,,,,,,,,,,,,,,,
null,,rt_plussign_withcolor6,3510191,,,,,,,,blue,,,null,object_04c.png,object_11a.png,,,,,,,,,,,,,,,,,,,,,
937.5,,rt_thecrossant_black6,3511332,,,,,,,,black_plus_sign,,,49,,,,1,,,,,,1,,,,,,,,,,,,,
null,,color_black6,3511442,,,,,,,,black_plus_sign,,,null,,,,,,,,,,,,,,,,,,,,,,,
null,,learn_phase(without_color)6,3514953,,,,,,,,black_plus_sign,,,null,object_02a.png,object_15c.png,,,,,,,,,,,,,,,,,,,,,
null,,black_cross(without_color)6,3515911,,,,,,,,green,,,null,object_02a.png,object_15c.png,,,,,,,,,,,,,,,,,,,,,
null,,rt_plussign_withcolor6,3516420,,,,,,,,green,,,null,object_02a.png,object_15c.png,,,,,,,,,,,,,,,,,,,,,
1081.3999999761581,,rt_thecrossant_black6,3517481,,,,,,,,black_plus_sign,,,50,,,,1,,,,,,1,,,,,,,,,,,,,
null,,color_black6,3517595,,,,,,,,black_plus_sign,,,null,,,,,,,,,,,,,,,,,,,,,,,
null,,thebreak,3517701,,,,,,,,<p></p>,,,null,,,,,,,,,,,,,,,,,,,,,,,
4216.5,,intro_0,3521919,,,,,,,,instruct,,,32,,,,,,,,,,,,,,,,,,,,,,,
4660.300000011921,,directmemory_phase6,3526581,,,,,,,,object_01b.png,,,49,,,,1,object_13b.png,object_15b.png,object_10c.png,object_13b.png,,0.9736842105263158,,1,,,,,,,,,,,
2033.199999988079,,directmemory_phase6,3528616,,,,,,,,object_01a.png,,,51,,,,1,object_11b.png,object_02b.png,object_10c.png,object_10c.png,,0.974025974025974,,1,,,,,,,,,,,
3480.800000011921,,directmemory_phase6,3532099,,,,,,,,object_12c.png,,,50,,,,1,object_15b.png,object_04a.png,object_05b.png,object_04a.png,,0.9743589743589743,,1,,,,,,,,,,,
1413.699999988079,,directmemory_phase6,3533515,,,,,,,,object_12a.png,,,51,,,,1,object_04b.png,object_09a.png,object_06a.png,object_06a.png,,0.9746835443037974,,1,,,,,,,,,,,
3553.300000011921,,directmemory_phase6,3537072,,,,,,,,object_11b.png,,,49,,,,1,object_10b.png,object_12c.png,object_10c.png,object_10b.png,,0.975,,1,,,,,,,,,,,
2386.599999964237,,directmemory_phase6,3539461,,,,,,,,object_14b.png,,,50,,,,1,object_06b.png,object_02b.png,object_15c.png,object_02b.png,,0.9753086419753086,,1,,,,,,,,,,,
2465.199999988079,,directmemory_phase6,3541929,,,,,,,,object_05a.png,,,51,,,,1,object_15c.png,object_06b.png,object_15b.png,object_15b.png,,0.975609756097561,,1,,,,,,,,,,,
2402,,directmemory_phase6,3544334,,,,,,,,object_02a.png,,,50,,,,1,object_11c.png,object_15c.png,object_06a.png,object_15c.png,,0.9759036144578314,,1,,,,,,,,,,,
1370.199999988079,,directmemory_phase6,3545706,,,,,,,,object_08a.png,,,49,,,,1,object_02c.png,object_13b.png,object_02a.png,object_02c.png,,0.9761904761904762,,1,,,,,,,,,,,
4619.099999964237,,directmemory_phase6,3550328,,,,,,,,object_14a.png,,,49,,,,1,object_07a.png,object_08b.png,object_08a.png,object_07a.png,,0.9764705882352941,,1,,,,,,,,,,,
2361.800000011921,,directmemory_phase6,3552693,,,,,,,,object_05b.png,,,51,,,,1,object_01a.png,object_02a.png,object_12b.png,object_12b.png,,0.9767441860465116,,1,,,,,,,,,,,
2955.800000011921,,directmemory_phase6,3555651,,,,,,,,object_06b.png,,,50,,,,1,object_09a.png,object_08b.png,object_13b.png,object_08b.png,,0.9770114942528736,,1,,,,,,,,,,,
8907.699999988079,,directmemory_phase6,3564560,,,,,,,,object_11a.png,,,51,,,,1,object_11c.png,object_02b.png,object_04c.png,object_04c.png,,0.9772727272727273,,1,,,,,,,,,,,
3491.099999964237,,directmemory_phase6,3568053,,,,,,,,object_09a.png,,,51,,,,1,object_12c.png,object_05b.png,object_10a.png,object_10a.png,,0.9775280898876404,,1,,,,,,,,,,,
1971,,directmemory_phase6,3570027,,,,,,,,object_11c.png,,,49,,,,1,object_04b.png,object_12b.png,object_01b.png,object_04b.png,,0.9777777777777777,,1,,,,,,,,,,,
null,,thebreak,3570139,,,,,,,,<p></p>,,,null,,,,,,,,,,,,,,,,,,,,,,,
4303.199999988079,,intro_0,3574444,,,,,,,,instruct,,,32,,,,,,,,,,,,,,,,,,,,,,,
null,,learn_phase(without_color)7,3577951,,,,,,,,black_plus_sign,,,null,object_02b.png,object_14b.png,,,,,,,,,,,,,,,,,,,,,
null,,black_cross(without_color)7,3578367,,,,,,,,blue,,,null,object_02b.png,object_14b.png,,,,,,,,,,,,,,,,,,,,,
null,,rt_plussign_withcolor7,3578938,,,,,,,,blue,,,null,object_02b.png,object_14b.png,,,,,,,,,,,,,,,,,,,,,
658.8000000119209,,rt_thecrossant_black7,3580603,,,,,,,,black_plus_sign,,,49,,,,1,,,,,,1,,,,,,,,,,,,,
null,,color_black7,3580719,,,,,,,,black_plus_sign,,,null,,,,,,,,,,,,,,,,,,,,,,,
null,,learn_phase(without_color)7,3584235,,,,,,,,black_plus_sign,,,null,object_10a.png,object_09a.png,,,,,,,,,,,,,,,,,,,,,
null,,black_cross(without_color)7,3584767,,,,,,,,green,,,null,object_10a.png,object_09a.png,,,,,,,,,,,,,,,,,,,,,
null,,rt_plussign_withcolor7,3585276,,,,,,,,green,,,null,object_10a.png,object_09a.png,,,,,,,,,,,,,,,,,,,,,
868.6999999880791,,rt_thecrossant_black7,3586757,,,,,,,,black_plus_sign,,,50,,,,1,,,,,,1,,,,,,,,,,,,,
null,,color_black7,3586868,,,,,,,,black_plus_sign,,,null,,,,,,,,,,,,,,,,,,,,,,,
null,,learn_phase(without_color)7,3590372,,,,,,,,black_plus_sign,,,null,object_05b.png,object_12b.png,,,,,,,,,,,,,,,,,,,,,
null,,black_cross(without_color)7,3591032,,,,,,,,blue,,,null,object_05b.png,object_12b.png,,,,,,,,,,,,,,,,,,,,,
null,,rt_plussign_withcolor7,3591542,,,,,,,,blue,,,null,object_05b.png,object_12b.png,,,,,,,,,,,,,,,,,,,,,
750.0999999642372,,rt_thecrossant_black7,3592896,,,,,,,,black_plus_sign,,,49,,,,1,,,,,,1,,,,,,,,,,,,,
null,,color_black7,3593007,,,,,,,,black_plus_sign,,,null,,,,,,,,,,,,,,,,,,,,,,,
null,,learn_phase(without_color)7,3596519,,,,,,,,black_plus_sign,,,null,object_06b.png,object_08b.png,,,,,,,,,,,,,,,,,,,,,
null,,black_cross(without_color)7,3597591,,,,,,,,green,,,null,object_06b.png,object_08b.png,,,,,,,,,,,,,,,,,,,,,
null,,rt_plussign_withcolor7,3598099,,,,,,,,green,,,null,object_06b.png,object_08b.png,,,,,,,,,,,,,,,,,,,,,
844.5999999642372,,rt_thecrossant_black7,3599048,,,,,,,,black_plus_sign,,,50,,,,1,,,,,,1,,,,,,,,,,,,,
null,,color_black7,3599157,,,,,,,,black_plus_sign,,,null,,,,,,,,,,,,,,,,,,,,,,,
null,,learn_phase(without_color)7,3602669,,,,,,,,black_plus_sign,,,null,object_01a.png,object_10c.png,,,,,,,,,,,,,,,,,,,,,
null,,black_cross(without_color)7,3603318,,,,,,,,blue,,,null,object_01a.png,object_10c.png,,,,,,,,,,,,,,,,,,,,,
null,,rt_plussign_withcolor7,3603824,,,,,,,,blue,,,null,object_01a.png,object_10c.png,,,,,,,,,,,,,,,,,,,,,
1202.800000011921,,rt_thecrossant_black7,3605193,,,,,,,,black_plus_sign,,,49,,,,1,,,,,,1,,,,,,,,,,,,,
null,,color_black7,3605303,,,,,,,,black_plus_sign,,,null,,,,,,,,,,,,,,,,,,,,,,,
null,,learn_phase(without_color)7,3608816,,,,,,,,black_plus_sign,,,null,object_06a.png,object_12a.png,,,,,,,,,,,,,,,,,,,,,
null,,black_cross(without_color)7,3609253,,,,,,,,blue,,,null,object_06a.png,object_12a.png,,,,,,,,,,,,,,,,,,,,,
null,,rt_plussign_withcolor7,3609757,,,,,,,,blue,,,null,object_06a.png,object_12a.png,,,,,,,,,,,,,,,,,,,,,
868.1000000238419,,rt_thecrossant_black7,3611328,,,,,,,,black_plus_sign,,,49,,,,1,,,,,,1,,,,,,,,,,,,,
null,,color_black7,3611436,,,,,,,,black_plus_sign,,,null,,,,,,,,,,,,,,,,,,,,,,,
null,,learn_phase(without_color)7,3614949,,,,,,,,black_plus_sign,,,null,object_15b.png,object_05a.png,,,,,,,,,,,,,,,,,,,,,
null,,black_cross(without_color)7,3615695,,,,,,,,green,,,null,object_15b.png,object_05a.png,,,,,,,,,,,,,,,,,,,,,
null,,rt_plussign_withcolor7,3616205,,,,,,,,green,,,null,object_15b.png,object_05a.png,,,,,,,,,,,,,,,,,,,,,
665,,rt_thecrossant_black7,3617470,,,,,,,,black_plus_sign,,,50,,,,1,,,,,,1,,,,,,,,,,,,,
null,,color_black7,3617575,,,,,,,,black_plus_sign,,,null,,,,,,,,,,,,,,,,,,,,,,,
null,,learn_phase(without_color)7,3621086,,,,,,,,black_plus_sign,,,null,object_11c.png,object_04b.png,,,,,,,,,,,,,,,,,,,,,
null,,black_cross(without_color)7,3621494,,,,,,,,green,,,null,object_11c.png,object_04b.png,,,,,,,,,,,,,,,,,,,,,
null,,rt_plussign_withcolor7,3622002,,,,,,,,green,,,null,object_11c.png,object_04b.png,,,,,,,,,,,,,,,,,,,,,
993.0999999642372,,rt_thecrossant_black7,3623613,,,,,,,,black_plus_sign,,,50,,,,1,,,,,,1,,,,,,,,,,,,,
null,,color_black7,3623730,,,,,,,,black_plus_sign,,,null,,,,,,,,,,,,,,,,,,,,,,,
null,,learn_phase(without_color)7,3627236,,,,,,,,black_plus_sign,,,null,object_13b.png,object_01b.png,,,,,,,,,,,,,,,,,,,,,
null,,black_cross(without_color)7,3627827,,,,,,,,green,,,null,object_13b.png,object_01b.png,,,,,,,,,,,,,,,,,,,,,
null,,rt_plussign_withcolor7,3628336,,,,,,,,green,,,null,object_13b.png,object_01b.png,,,,,,,,,,,,,,,,,,,,,
637.0999999642372,,rt_thecrossant_black7,3629760,,,,,,,,black_plus_sign,,,50,,,,1,,,,,,1,,,,,,,,,,,,,
null,,color_black7,3629870,,,,,,,,black_plus_sign,,,null,,,,,,,,,,,,,,,,,,,,,,,
null,,learn_phase(without_color)7,3633374,,,,,,,,black_plus_sign,,,null,object_04a.png,object_12c.png,,,,,,,,,,,,,,,,,,,,,
null,,black_cross(without_color)7,3634068,,,,,,,,green,,,null,object_04a.png,object_12c.png,,,,,,,,,,,,,,,,,,,,,
null,,rt_plussign_withcolor7,3634577,,,,,,,,green,,,null,object_04a.png,object_12c.png,,,,,,,,,,,,,,,,,,,,,
929.3000000119209,,rt_thecrossant_black7,3635891,,,,,,,,black_plus_sign,,,50,,,,1,,,,,,1,,,,,,,,,,,,,
null,,color_black7,3635995,,,,,,,,black_plus_sign,,,null,,,,,,,,,,,,,,,,,,,,,,,
null,,learn_phase(without_color)7,3639504,,,,,,,,black_plus_sign,,,null,object_04c.png,object_11a.png,,,,,,,,,,,,,,,,,,,,,
null,,black_cross(without_color)7,3640017,,,,,,,,green,,,null,object_04c.png,object_11a.png,,,,,,,,,,,,,,,,,,,,,
458.30000001192093,,rt_plussign_withcolor7,3640521,,,,,,,,green,,,50,object_04c.png,object_11a.png,,,,,,,,,,,,,,,,,,,,,
null,,rt_thecrossant_black7,3642017,,,,,,,,black_plus_sign,,,null,,,,1,,,,,,1,,,,,,,,,,,,,
null,,color_black7,3642123,,,,,,,,black_plus_sign,,,null,,,,,,,,,,,,,,,,,,,,,,,
null,,learn_phase(without_color)7,3645640,,,,,,,,black_plus_sign,,,null,object_11b.png,object_10b.png,,,,,,,,,,,,,,,,,,,,,
null,,black_cross(without_color)7,3646677,,,,,,,,green,,,null,object_11b.png,object_10b.png,,,,,,,,,,,,,,,,,,,,,
478.60000002384186,,rt_plussign_withcolor7,3647181,,,,,,,,green,,,50,object_11b.png,object_10b.png,,,,,,,,,,,,,,,,,,,,,
null,,rt_thecrossant_black7,3648166,,,,,,,,black_plus_sign,,,null,,,,1,,,,,,1,,,,,,,,,,,,,
null,,color_black7,3648276,,,,,,,,black_plus_sign,,,null,,,,,,,,,,,,,,,,,,,,,,,
null,,learn_phase(without_color)7,3651790,,,,,,,,black_plus_sign,,,null,object_14a.png,object_07a.png,,,,,,,,,,,,,,,,,,,,,
null,,black_cross(without_color)7,3652483,,,,,,,,green,,,null,object_14a.png,object_07a.png,,,,,,,,,,,,,,,,,,,,,
null,,rt_plussign_withcolor7,3652988,,,,,,,,green,,,null,object_14a.png,object_07a.png,,,,,,,,,,,,,,,,,,,,,
1138.2999999523163,,rt_thecrossant_black7,3654317,,,,,,,,black_plus_sign,,,50,,,,1,,,,,,1,,,,,,,,,,,,,
null,,color_black7,3654437,,,,,,,,black_plus_sign,,,null,,,,,,,,,,,,,,,,,,,,,,,
null,,learn_phase(without_color)7,3657948,,,,,,,,black_plus_sign,,,null,object_02c.png,object_08a.png,,,,,,,,,,,,,,,,,,,,,
null,,black_cross(without_color)7,3658805,,,,,,,,green,,,null,object_02c.png,object_08a.png,,,,,,,,,,,,,,,,,,,,,
null,,rt_plussign_withcolor7,3659316,,,,,,,,green,,,null,object_02c.png,object_08a.png,,,,,,,,,,,,,,,,,,,,,
800.6999999880791,,rt_thecrossant_black7,3660482,,,,,,,,black_plus_sign,,,50,,,,1,,,,,,1,,,,,,,,,,,,,
null,,color_black7,3660591,,,,,,,,black_plus_sign,,,null,,,,,,,,,,,,,,,,,,,,,,,
null,,learn_phase(without_color)7,3664104,,,,,,,,black_plus_sign,,,null,object_15c.png,object_02a.png,,,,,,,,,,,,,,,,,,,,,
null,,black_cross(without_color)7,3664851,,,,,,,,green,,,null,object_15c.png,object_02a.png,,,,,,,,,,,,,,,,,,,,,
null,,rt_plussign_withcolor7,3665367,,,,,,,,green,,,null,object_15c.png,object_02a.png,,,,,,,,,,,,,,,,,,,,,
1008,,rt_thecrossant_black7,3666641,,,,,,,,black_plus_sign,,,50,,,,1,,,,,,1,,,,,,,,,,,,,
null,,color_black7,3666753,,,,,,,,black_plus_sign,,,null,,,,,,,,,,,,,,,,,,,,,,,
null,,thebreak,3666870,,,,,,,,<p></p>,,,null,,,,,,,,,,,,,,,,,,,,,,,
4247.099999964237,,intro_0,3671119,,,,,,,,instruct,,,32,,,,,,,,,,,,,,,,,,,,,,,
2446.600000023842,,directmemory_phase7,3673568,,,,,,,,object_10c.png,,,49,,,,1,object_01a.png,object_12c.png,object_12a.png,object_01a.png,,0.978021978021978,,1,,,,,,,,,,,
2929.800000011921,,directmemory_phase7,3676500,,,,,,,,object_05b.png,,,50,,,,1,object_08a.png,object_12b.png,object_02c.png,object_12b.png,,0.9782608695652174,,1,,,,,,,,,,,
2974.600000023842,,directmemory_phase7,3679477,,,,,,,,object_14a.png,,,49,,,,1,object_07a.png,object_12b.png,object_06b.png,object_07a.png,,0.978494623655914,,1,,,,,,,,,,,
3253.099999964237,,directmemory_phase7,3682733,,,,,,,,object_02b.png,,,50,,,,1,object_10b.png,object_14b.png,object_06b.png,object_14b.png,,0.9787234042553191,,1,,,,,,,,,,,
1803.199999988079,,directmemory_phase7,3684539,,,,,,,,object_06b.png,,,51,,,,1,object_10a.png,object_08a.png,object_08b.png,object_08b.png,,0.9789473684210527,,1,,,,,,,,,,,
2954.400000035763,,directmemory_phase7,3687496,,,,,,,,object_04a.png,,,50,,,,1,object_10c.png,object_12c.png,object_15b.png,object_12c.png,,0.9791666666666666,,1,,,,,,,,,,,
2911.199999988079,,directmemory_phase7,3690410,,,,,,,,object_11b.png,,,50,,,,1,object_06b.png,object_10b.png,object_15c.png,object_10b.png,,0.979381443298969,,1,,,,,,,,,,,
1210.3999999761581,,directmemory_phase7,3691624,,,,,,,,object_08a.png,,,50,,,,1,object_14b.png,object_02c.png,object_04b.png,object_02c.png,,0.9795918367346939,,1,,,,,,,,,,,
1338.300000011921,,directmemory_phase7,3692964,,,,,,,,object_13b.png,,,50,,,,1,object_12c.png,object_01b.png,object_05a.png,object_01b.png,,0.9797979797979798,,1,,,,,,,,,,,
6031.099999964237,,directmemory_phase7,3698997,,,,,,,,object_04c.png,,,51,,,,1,object_01a.png,object_11b.png,object_11a.png,object_11a.png,,0.98,,1,,,,,,,,,,,
1140.300000011921,,directmemory_phase7,3700140,,,,,,,,object_04b.png,,,51,,,,1,object_04a.png,object_02b.png,object_11c.png,object_11c.png,,0.9801980198019802,,1,,,,,,,,,,,
4362.700000047684,,directmemory_phase7,3704505,,,,,,,,object_09a.png,,,51,,,,1,object_02c.png,object_14a.png,object_10a.png,object_10a.png,,0.9803921568627451,,1,,,,,,,,,,,
2259.699999988079,,directmemory_phase7,3706768,,,,,,,,object_12a.png,,,51,,,,1,object_15b.png,object_10c.png,object_06a.png,object_06a.png,,0.9805825242718447,,1,,,,,,,,,,,
2221.900000035763,,directmemory_phase7,3708993,,,,,,,,object_15c.png,,,51,,,,1,object_14b.png,object_02c.png,object_02a.png,object_02a.png,,0.9807692307692307,,1,,,,,,,,,,,
3792,,directmemory_phase7,3712788,,,,,,,,object_15b.png,,,51,,,,1,object_11b.png,object_07a.png,object_05a.png,object_05a.png,,0.9809523809523809,,1,,,,,,,,,,,
null,,thebreak,3712899,,,,,,,,<p></p>,,,null,,,,,,,,,,,,,,,,,,,,,,,
684457.6999999881,,intro_0,4397359,,,,,,,,instruct,,,32,,,,,,,,,,,,,,,,,,,,,,,
null,,learn_phase(without_color)8,4400871,,,,,,,,black_plus_sign,,,null,object_11c.png,object_04b.png,,,,,,,,,,,,,,,,,,,,,
null,,black_cross(without_color)8,4401953,,,,,,,,green,,,null,object_11c.png,object_04b.png,,,,,,,,,,,,,,,,,,,,,
502.7000000476837,,rt_plussign_withcolor8,4402458,,,,,,,,green,,,50,object_11c.png,object_04b.png,,,,,,,,,,,,,,,,,,,,,
null,,rt_thecrossant_black8,4403396,,,,,,,,black_plus_sign,,,null,,,,1,,,,,,1,,,,,,,,,,,,,
null,,color_black8,4403500,,,,,,,,black_plus_sign,,,null,,,,,,,,,,,,,,,,,,,,,,,
null,,learn_phase(without_color)8,4407004,,,,,,,,black_plus_sign,,,null,object_04c.png,object_11a.png,,,,,,,,,,,,,,,,,,,,,
null,,black_cross(without_color)8,4407873,,,,,,,,blue,,,null,object_04c.png,object_11a.png,,,,,,,,,,,,,,,,,,,,,
null,,rt_plussign_withcolor8,4408390,,,,,,,,blue,,,null,object_04c.png,object_11a.png,,,,,,,,,,,,,,,,,,,,,
1223,,rt_thecrossant_black8,4409534,,,,,,,,black_plus_sign,,,49,,,,1,,,,,,1,,,,,,,,,,,,,
null,,color_black8,4409641,,,,,,,,black_plus_sign,,,null,,,,,,,,,,,,,,,,,,,,,,,
null,,learn_phase(without_color)8,4413155,,,,,,,,black_plus_sign,,,null,object_05b.png,object_12b.png,,,,,,,,,,,,,,,,,,,,,
null,,black_cross(without_color)8,4413879,,,,,,,,blue,,,null,object_05b.png,object_12b.png,,,,,,,,,,,,,,,,,,,,,
null,,rt_plussign_withcolor8,4414386,,,,,,,,blue,,,null,object_05b.png,object_12b.png,,,,,,,,,,,,,,,,,,,,,
1191.3999999761581,,rt_thecrossant_black8,4415687,,,,,,,,black_plus_sign,,,49,,,,1,,,,,,1,,,,,,,,,,,,,
null,,color_black8,4415795,,,,,,,,black_plus_sign,,,null,,,,,,,,,,,,,,,,,,,,,,,
null,,learn_phase(without_color)8,4419312,,,,,,,,black_plus_sign,,,null,object_05a.png,object_15b.png,,,,,,,,,,,,,,,,,,,,,
null,,black_cross(without_color)8,4419830,,,,,,,,blue,,,null,object_05a.png,object_15b.png,,,,,,,,,,,,,,,,,,,,,
null,,rt_plussign_withcolor8,4420338,,,,,,,,blue,,,null,object_05a.png,object_15b.png,,,,,,,,,,,,,,,,,,,,,
851.0999999642372,,rt_thecrossant_black8,4421838,,,,,,,,black_plus_sign,,,49,,,,1,,,,,,1,,,,,,,,,,,,,
null,,color_black8,4421948,,,,,,,,black_plus_sign,,,null,,,,,,,,,,,,,,,,,,,,,,,
null,,learn_phase(without_color)8,4425452,,,,,,,,black_plus_sign,,,null,object_02c.png,object_08a.png,,,,,,,,,,,,,,,,,,,,,
null,,black_cross(without_color)8,4425876,,,,,,,,blue,,,null,object_02c.png,object_08a.png,,,,,,,,,,,,,,,,,,,,,
null,,rt_plussign_withcolor8,4426384,,,,,,,,blue,,,null,object_02c.png,object_08a.png,,,,,,,,,,,,,,,,,,,,,
844.1999999880791,,rt_thecrossant_black8,4427970,,,,,,,,black_plus_sign,,,49,,,,1,,,,,,1,,,,,,,,,,,,,
null,,color_black8,4428086,,,,,,,,black_plus_sign,,,null,,,,,,,,,,,,,,,,,,,,,,,
null,,learn_phase(without_color)8,4431592,,,,,,,,black_plus_sign,,,null,object_02a.png,object_15c.png,,,,,,,,,,,,,,,,,,,,,
null,,black_cross(without_color)8,4432203,,,,,,,,blue,,,null,object_02a.png,object_15c.png,,,,,,,,,,,,,,,,,,,,,
458,,rt_plussign_withcolor8,4432710,,,,,,,,blue,,,49,object_02a.png,object_15c.png,,,,,,,,,,,,,,,,,,,,,
null,,rt_thecrossant_black8,4434119,,,,,,,,black_plus_sign,,,null,,,,1,,,,,,1,,,,,,,,,,,,,
null,,color_black8,4434226,,,,,,,,black_plus_sign,,,null,,,,,,,,,,,,,,,,,,,,,,,
null,,learn_phase(without_color)8,4437730,,,,,,,,black_plus_sign,,,null,object_06a.png,object_12a.png,,,,,,,,,,,,,,,,,,,,,
null,,black_cross(without_color)8,4438731,,,,,,,,blue,,,null,object_06a.png,object_12a.png,,,,,,,,,,,,,,,,,,,,,
492.89999997615814,,rt_plussign_withcolor8,4439237,,,,,,,,blue,,,49,object_06a.png,object_12a.png,,,,,,,,,,,,,,,,,,,,,
null,,rt_thecrossant_black8,4440249,,,,,,,,black_plus_sign,,,null,,,,1,,,,,,1,,,,,,,,,,,,,
null,,color_black8,4440358,,,,,,,,black_plus_sign,,,null,,,,,,,,,,,,,,,,,,,,,,,
null,,learn_phase(without_color)8,4443869,,,,,,,,black_plus_sign,,,null,object_08b.png,object_06b.png,,,,,,,,,,,,,,,,,,,,,
null,,black_cross(without_color)8,4444703,,,,,,,,green,,,null,object_08b.png,object_06b.png,,,,,,,,,,,,,,,,,,,,,
null,,rt_plussign_withcolor8,4445207,,,,,,,,green,,,null,object_08b.png,object_06b.png,,,,,,,,,,,,,,,,,,,,,
1566.8999999761581,,rt_thecrossant_black8,4446388,,,,,,,,black_plus_sign,,,50,,,,1,,,,,,1,,,,,,,,,,,,,
null,,color_black8,4446500,,,,,,,,black_plus_sign,,,null,,,,,,,,,,,,,,,,,,,,,,,
null,,learn_phase(without_color)8,4450009,,,,,,,,black_plus_sign,,,null,object_04a.png,object_12c.png,,,,,,,,,,,,,,,,,,,,,
null,,black_cross(without_color)8,4450543,,,,,,,,blue,,,null,object_04a.png,object_12c.png,,,,,,,,,,,,,,,,,,,,,
null,,rt_plussign_withcolor8,4451048,,,,,,,,blue,,,null,object_04a.png,object_12c.png,,,,,,,,,,,,,,,,,,,,,
1077.1000000238419,,rt_thecrossant_black8,4452524,,,,,,,,black_plus_sign,,,49,,,,1,,,,,,1,,,,,,,,,,,,,
null,,color_black8,4452634,,,,,,,,black_plus_sign,,,null,,,,,,,,,,,,,,,,,,,,,,,
null,,learn_phase(without_color)8,4456137,,,,,,,,black_plus_sign,,,null,object_10a.png,object_09a.png,,,,,,,,,,,,,,,,,,,,,
null,,black_cross(without_color)8,4456569,,,,,,,,green,,,null,object_10a.png,object_09a.png,,,,,,,,,,,,,,,,,,,,,
488.39999997615814,,rt_plussign_withcolor8,4457074,,,,,,,,green,,,50,object_10a.png,object_09a.png,,,,,,,,,,,,,,,,,,,,,
null,,rt_thecrossant_black8,4458658,,,,,,,,black_plus_sign,,,null,,,,1,,,,,,1,,,,,,,,,,,,,
null,,color_black8,4458765,,,,,,,,black_plus_sign,,,null,,,,,,,,,,,,,,,,,,,,,,,
null,,learn_phase(without_color)8,4462283,,,,,,,,black_plus_sign,,,null,object_10c.png,object_01a.png,,,,,,,,,,,,,,,,,,,,,
null,,black_cross(without_color)8,4463198,,,,,,,,blue,,,null,object_10c.png,object_01a.png,,,,,,,,,,,,,,,,,,,,,
null,,rt_plussign_withcolor8,4463705,,,,,,,,blue,,,null,object_10c.png,object_01a.png,,,,,,,,,,,,,,,,,,,,,
528.6000000238419,,rt_thecrossant_black8,4464806,,,,,,,,black_plus_sign,,,49,,,,1,,,,,,1,,,,,,,,,,,,,
null,,color_black8,4464916,,,,,,,,black_plus_sign,,,null,,,,,,,,,,,,,,,,,,,,,,,
null,,learn_phase(without_color)8,4468421,,,,,,,,black_plus_sign,,,null,object_02b.png,object_14b.png,,,,,,,,,,,,,,,,,,,,,
null,,black_cross(without_color)8,4469057,,,,,,,,green,,,null,object_02b.png,object_14b.png,,,,,,,,,,,,,,,,,,,,,
428,,rt_plussign_withcolor8,4469562,,,,,,,,green,,,50,object_02b.png,object_14b.png,,,,,,,,,,,,,,,,,,,,,
null,,rt_thecrossant_black8,4470936,,,,,,,,black_plus_sign,,,null,,,,1,,,,,,1,,,,,,,,,,,,,
null,,color_black8,4471046,,,,,,,,black_plus_sign,,,null,,,,,,,,,,,,,,,,,,,,,,,
null,,learn_phase(without_color)8,4474555,,,,,,,,black_plus_sign,,,null,object_14a.png,object_07a.png,,,,,,,,,,,,,,,,,,,,,
null,,black_cross(without_color)8,4475474,,,,,,,,blue,,,null,object_14a.png,object_07a.png,,,,,,,,,,,,,,,,,,,,,
440.69999998807907,,rt_plussign_withcolor8,4475979,,,,,,,,blue,,,49,object_14a.png,object_07a.png,,,,,,,,,,,,,,,,,,,,,
null,,rt_thecrossant_black8,4477087,,,,,,,,black_plus_sign,,,null,,,,1,,,,,,1,,,,,,,,,,,,,
null,,color_black8,4477196,,,,,,,,black_plus_sign,,,null,,,,,,,,,,,,,,,,,,,,,,,
null,,learn_phase(without_color)8,4480713,,,,,,,,black_plus_sign,,,null,object_13b.png,object_01b.png,,,,,,,,,,,,,,,,,,,,,
null,,black_cross(without_color)8,4481406,,,,,,,,green,,,null,object_13b.png,object_01b.png,,,,,,,,,,,,,,,,,,,,,
465,,rt_plussign_withcolor8,4481914,,,,,,,,green,,,50,object_13b.png,object_01b.png,,,,,,,,,,,,,,,,,,,,,
null,,rt_thecrossant_black8,4483246,,,,,,,,black_plus_sign,,,null,,,,1,,,,,,1,,,,,,,,,,,,,
null,,color_black8,4483354,,,,,,,,black_plus_sign,,,null,,,,,,,,,,,,,,,,,,,,,,,
null,,learn_phase(without_color)8,4486871,,,,,,,,black_plus_sign,,,null,object_11b.png,object_10b.png,,,,,,,,,,,,,,,,,,,,,
null,,black_cross(without_color)8,4487354,,,,,,,,blue,,,null,object_11b.png,object_10b.png,,,,,,,,,,,,,,,,,,,,,
420.60000002384186,,rt_plussign_withcolor8,4487857,,,,,,,,blue,,,49,object_11b.png,object_10b.png,,,,,,,,,,,,,,,,,,,,,
null,,rt_thecrossant_black8,4489386,,,,,,,,black_plus_sign,,,null,,,,1,,,,,,1,,,,,,,,,,,,,
null,,color_black8,4489500,,,,,,,,black_plus_sign,,,null,,,,,,,,,,,,,,,,,,,,,,,
null,,thebreak,4489603,,,,,,,,<p></p>,,,null,,,,,,,,,,,,,,,,,,,,,,,
24643.80000001192,,intro_0,4514249,,,,,,,,instruct,,,32,,,,,,,,,,,,,,,,,,,,,,,
4623.399999976158,,directmemory_phase8,4518875,,,,,,,,object_12b.png,,,51,,,,1,object_06b.png,object_10b.png,object_05b.png,object_05b.png,,0.9811320754716981,,1,,,,,,,,,,,
3203.599999964237,,directmemory_phase8,4522082,,,,,,,,object_04a.png,,,49,,,,1,object_12c.png,object_12b.png,object_10c.png,object_12c.png,,0.9813084112149533,,1,,,,,,,,,,,
6450.100000023842,,directmemory_phase8,4528536,,,,,,,,object_11b.png,,,49,,,,1,object_10b.png,object_12b.png,object_14b.png,object_10b.png,,0.9814814814814815,,1,,,,,,,,,,,
2049.300000011921,,directmemory_phase8,4530588,,,,,,,,object_01b.png,,,51,,,,1,object_02b.png,object_12a.png,object_13b.png,object_13b.png,,0.981651376146789,,1,,,,,,,,,,,
3861.5,,directmemory_phase8,4534452,,,,,,,,object_14b.png,,,49,,,,1,object_02b.png,object_06a.png,object_09a.png,object_02b.png,,0.9818181818181818,,1,,,,,,,,,,,
2185.899999976158,,directmemory_phase8,4536640,,,,,,,,object_04c.png,,,51,,,,0,object_11a.png,object_15b.png,object_14a.png,object_11a.png,,0.972972972972973,,0,,,,,,,,,,,
1009.3000000119209,,directmemory_phase8,4537652,,,,,,,,object_04b.png,,,51,,,,1,object_10c.png,object_13b.png,object_11c.png,object_11c.png,,0.9732142857142857,,1,,,,,,,,,,,
5653.300000011921,,directmemory_phase8,4543308,,,,,,,,object_05a.png,,,49,,,,1,object_15b.png,object_13b.png,object_01b.png,object_15b.png,,0.9734513274336283,,1,,,,,,,,,,,
4740.699999988079,,directmemory_phase8,4548053,,,,,,,,object_10a.png,,,49,,,,1,object_09a.png,object_08a.png,object_01a.png,object_09a.png,,0.9736842105263158,,1,,,,,,,,,,,
2787.800000011921,,directmemory_phase8,4550843,,,,,,,,object_08b.png,,,51,,,,1,object_11c.png,object_15c.png,object_06b.png,object_06b.png,,0.9739130434782609,,1,,,,,,,,,,,
2609.100000023842,,directmemory_phase8,4553455,,,,,,,,object_10c.png,,,51,,,,1,object_04b.png,object_09a.png,object_01a.png,object_01a.png,,0.9741379310344828,,1,,,,,,,,,,,
1836.3999999761581,,directmemory_phase8,4555295,,,,,,,,object_12a.png,,,50,,,,1,object_04a.png,object_06a.png,object_15b.png,object_06a.png,,0.9743589743589743,,1,,,,,,,,,,,
1288.300000011921,,directmemory_phase8,4556586,,,,,,,,object_08a.png,,,51,,,,1,object_06a.png,object_05a.png,object_02c.png,object_02c.png,,0.9745762711864406,,1,,,,,,,,,,,
4794.199999988079,,directmemory_phase8,4561383,,,,,,,,object_02a.png,,,49,,,,1,object_15c.png,object_10b.png,object_05a.png,object_15c.png,,0.9747899159663865,,1,,,,,,,,,,,
4186.899999976158,,directmemory_phase8,4565573,,,,,,,,object_07a.png,,,50,,,,1,object_02b.png,object_14a.png,object_09a.png,object_14a.png,,0.975,,1,,,,,,,,,,,
null,,thebreak,4565679,,,,,,,,<p></p>,,,null,,,,,,,,,,,,,,,,,,,,,,,
3348.300000011921,,intro_0,4569029,,,,,,,,instruct,,,32,,,,,,,,,,,,,,,,,,,,,,,
154418.20000004768,,intro_1,4723448,,,,,,,,instruct,,,32,,,,,,,,,,,,,,,,,,,,,,,
3149.800000011921,,intro_2,4726599,,,,,,,,instruct,,,32,,,,,,,,,,,,,,,,,,,,,,,
,,intro_3,4748178,,,,,,,,instruct,,,,,,,,,,,,,,,,,,,,,,,,,,
3099.199999988079,,intro_4,4751279,,,,,,,,instruct,,,32,,,,,,,,,,,,,,,,,,,,,,,
null,,inference_phase,4766288,,,,,,,,object_15a.png,,,null,object_14b.png,object_12c.png,,0,,,,object_08b.png,,0,,,object_08b.png,,,,,,,,,,
null,,warning_page,4771296,,,,,,,,warning,,,null,,,,,,,,,,,,,,,,,,,,,,,
9934.699999988079,,inference_phase,4781234,,,,,,,,object_01a.png,,,49,object_07b.png,object_14c.png,,1,,,,object_07b.png,,0.5,,,object_05a.png,,,,,,,,,,
