rt,responses,trial_type,time_elapsed,identifier_a,identifier_b,identifier_c,stimulus,button_pressed,response,key_press,stimulus_left,stimulus_right,accuracy,practice_cumulative_accuracy,stimulus_down_left,stimulus_down_mid,stimulus_down_right,stimulus_correct,prac_weighted_accuracy,cumulative_accuracy,weighted_accuracy,stimulus_middle,problems,smooth,distraction,strategies,easier,similar,comments,detectfocus,breakfocus,completion_code
3871.4000000059605,{worker_id:66cf93cc43a7f82860389369},id_enter,3873,object_03a.png; object_01b.png; object_04b.png; object_14a.png; object_15a.png; object_02a.png; object_11b.png; object_05a.png; object_14b.png; object_07a.png; object_10c.png; object_01c.png; object_14c.png; object_13b.png; object_08b.png,object_04c.png; object_01a.png; object_06c.png; object_04a.png; object_12a.png; object_03c.png; object_11a.png; object_05c.png; object_09c.png; object_12c.png; object_10b.png; object_07c.png; object_07b.png; object_13a.png; object_09b.png,object_02b.png; object_03b.png; object_08c.png; object_09a.png; object_11c.png; object_02c.png; object_06a.png; object_06b.png; object_13c.png; object_12b.png; object_15c.png; object_05b.png; object_15b.png; object_08a.png; object_10a.png,,,,,,,,,,,,,,,,,,,,,,,,,,
17845.90000000596,,make_fullscreen,21720,,,,fullscreen,0,,,,,,,,,,,,,,,,,,,,,,,,
5160.20000000298,,instruct_1,26882,,,,instruct,0,Next,,,,,,,,,,,,,,,,,,,,,,,
21288.29999999702,,instruct_2,48171,,,,instruct,1,Next,,,,,,,,,,,,,,,,,,,,,,,
6331.0999999940395,,instruct_3,54503,,,,instruct,1,Next,,,,,,,,,,,,,,,,,,,,,,,
19039.19999998808,,instruct_4,73543,,,,instruct,1,Next,,,,,,,,,,,,,,,,,,,,,,,
10940.60000000894,,instruct_5,84485,,,,instruct,1,Next,,,,,,,,,,,,,,,,,,,,,,,
3065.2999999970198,,instruct_6,87551,,,,instruct,1,Next,,,,,,,,,,,,,,,,,,,,,,,
27723.19999998808,,instruct_7,115275,,,,instruct,1,Next,,,,,,,,,,,,,,,,,,,,,,,
null,,prac_atten_color_black,116063,,,,black_plus_sign,,,null,,,,,,,,,,,,,,,,,,,,,,
508.80000001192093,,prac_atten_color,116681,,,,<p style='position:absolute;top: 50%;right: 50%;transform: translate(50%, -50%);font-size: 125px;color: blue;'>+</p>,,,49,,,,,,,,,,,,,,,,,,,,,,
null,,prac_atten_color_black,118684,,,,black_plus_sign,,,null,,,,,,,,,,,,,,,,,,,,,,
null,,prac_atten_color_black,119473,,,,black_plus_sign,,,null,,,,,,,,,,,,,,,,,,,,,,
null,,prac_atten_color,119889,,,,<p style='position:absolute;top: 50%;right: 50%;transform: translate(50%, -50%);font-size: 125px;color: green;'>+</p>,,,null,,,,,,,,,,,,,,,,,,,,,,
235.5,,prac_atten_color_black,121890,,,,black_plus_sign,,,50,,,,,,,,,,,,,,,,,,,,,,
null,,prac_atten_color_black,122885,,,,black_plus_sign,,,null,,,,,,,,,,,,,,,,,,,,,,
622.7999999970198,,prac_atten_color,123877,,,,<p style='position:absolute;top: 50%;right: 50%;transform: translate(50%, -50%);font-size: 125px;color: green;'>+</p>,,,50,,,,,,,,,,,,,,,,,,,,,,
null,,prac_atten_color_black,125879,,,,black_plus_sign,,,null,,,,,,,,,,,,,,,,,,,,,,
null,,prac_atten_color_black,126291,,,,black_plus_sign,,,null,,,,,,,,,,,,,,,,,,,,,,
369.5,,prac_atten_color,127389,,,,<p style='position:absolute;top: 50%;right: 50%;transform: translate(50%, -50%);font-size: 125px;color: blue;'>+</p>,,,49,,,,,,,,,,,,,,,,,,,,,,
null,,prac_atten_color_black,129391,,,,black_plus_sign,,,null,,,,,,,,,,,,,,,,,,,,,,
null,,prac_atten_color_black,129698,,,,black_plus_sign,,,null,,,,,,,,,,,,,,,,,,,,,,
378.59999999403954,,prac_atten_color,130300,,,,<p style='position:absolute;top: 50%;right: 50%;transform: translate(50%, -50%);font-size: 125px;color: green;'>+</p>,,,50,,,,,,,,,,,,,,,,,,,,,,
null,,prac_atten_color_black,132302,,,,black_plus_sign,,,null,,,,,,,,,,,,,,,,,,,,,,
null,,prac_atten_color_black,133110,,,,black_plus_sign,,,null,,,,,,,,,,,,,,,,,,,,,,
429.40000000596046,,prac_atten_color,133736,,,,<p style='position:absolute;top: 50%;right: 50%;transform: translate(50%, -50%);font-size: 125px;color: green;'>+</p>,,,50,,,,,,,,,,,,,,,,,,,,,,
null,,prac_atten_color_black,135738,,,,black_plus_sign,,,null,,,,,,,,,,,,,,,,,,,,,,
null,,prac_atten_color_black,136515,,,,black_plus_sign,,,null,,,,,,,,,,,,,,,,,,,,,,
408.79999999701977,,prac_atten_color,137552,,,,<p style='position:absolute;top: 50%;right: 50%;transform: translate(50%, -50%);font-size: 125px;color: blue;'>+</p>,,,49,,,,,,,,,,,,,,,,,,,,,,
null,,prac_atten_color_black,139554,,,,black_plus_sign,,,null,,,,,,,,,,,,,,,,,,,,,,
null,,prac_atten_color_black,139922,,,,black_plus_sign,,,null,,,,,,,,,,,,,,,,,,,,,,
578,,prac_atten_color,140689,,,,<p style='position:absolute;top: 50%;right: 50%;transform: translate(50%, -50%);font-size: 125px;color: green;'>+</p>,,,50,,,,,,,,,,,,,,,,,,,,,,
null,,prac_atten_color_black,142691,,,,black_plus_sign,,,null,,,,,,,,,,,,,,,,,,,,,,
null,,prac_atten_color_black,143341,,,,black_plus_sign,,,null,,,,,,,,,,,,,,,,,,,,,,
654.7000000029802,,prac_atten_color,144219,,,,<p style='position:absolute;top: 50%;right: 50%;transform: translate(50%, -50%);font-size: 125px;color: blue;'>+</p>,,,49,,,,,,,,,,,,,,,,,,,,,,
null,,prac_atten_color_black,146222,,,,black_plus_sign,,,null,,,,,,,,,,,,,,,,,,,,,,
null,,prac_atten_color_black,146757,,,,black_plus_sign,,,null,,,,,,,,,,,,,,,,,,,,,,
536.1000000089407,,prac_atten_color,147797,,,,<p style='position:absolute;top: 50%;right: 50%;transform: translate(50%, -50%);font-size: 125px;color: blue;'>+</p>,,,49,,,,,,,,,,,,,,,,,,,,,,
null,,prac_atten_color_black,149800,,,,black_plus_sign,,,null,,,,,,,,,,,,,,,,,,,,,,
6189,,attentioncheck_feedback,155991,,,,cross_check_feedback,0,,,,,,,,,,,,,,,,,,,,,,,,
14470.10000000894,,last_instruct,170462,,,,instruct,,,32,,,,,,,,,,,,,,,,,,,,,,
null,,prac_learn_phase(without_color),173963,,,,black_plus_sign,,,null,object_14c.png,object_07b.png,,,,,,,,,,,,,,,,,,,,
null,,prac_black_cross(without_color),174689,,,,blue,,,null,object_14c.png,object_07b.png,,,,,,,,,,,,,,,,,,,,
null,,prac_rt_plussign_withcolor,175191,,,,blue,,,null,object_14c.png,object_07b.png,,,,,,,,,,,,,,,,,,,,
1328.2999999970198,,prac_rt_thecrossant_black,176472,,,,black_plus_sign,,,49,,,1,1,,,,,,,,,,,,,,,,,,
null,,prac_color_black,176574,,,,black_plus_sign,,,null,,,,,,,,,,,,,,,,,,,,,,
null,,prac_learn_phase(without_color),180076,,,,black_plus_sign,,,null,object_01a.png,object_01b.png,,,,,,,,,,,,,,,,,,,,
null,,black_cross(without_color)1,181118,,,,green,,,null,object_14c.png,object_07b.png,,,,,,,,,,,,,,,,,,,,
414.79999999701977,,prac_rt_plussign_withcolor,181620,,,,green,,,50,object_01a.png,object_01b.png,,,,,,,,,,,,,,,,,,,,
null,,prac_rt_thecrossant_black,182628,,,,black_plus_sign,,,null,,,1,1,,,,,,,,,,,,,,,,,,
null,,prac_color_black,182731,,,,black_plus_sign,,,null,,,,,,,,,,,,,,,,,,,,,,
null,,prac_learn_phase(without_color),186235,,,,black_plus_sign,,,null,object_11b.png,object_11a.png,,,,,,,,,,,,,,,,,,,,
null,,black_cross(without_color)1,187276,,,,green,,,null,object_14c.png,object_07b.png,,,,,,,,,,,,,,,,,,,,
null,,prac_rt_plussign_withcolor,187779,,,,green,,,null,object_11b.png,object_11a.png,,,,,,,,,,,,,,,,,,,,
1143.0999999940395,,prac_rt_thecrossant_black,188758,,,,black_plus_sign,,,50,,,1,1,,,,,,,,,,,,,,,,,,
null,,prac_color_black,188860,,,,black_plus_sign,,,null,,,,,,,,,,,,,,,,,,,,,,
null,,prac_learn_phase(without_color),192364,,,,black_plus_sign,,,null,object_10b.png,object_10c.png,,,,,,,,,,,,,,,,,,,,
null,,black_cross(without_color)1,193415,,,,green,,,null,object_14c.png,object_07b.png,,,,,,,,,,,,,,,,,,,,
null,,prac_rt_plussign_withcolor,193917,,,,blue,,,null,object_10b.png,object_10c.png,,,,,,,,,,,,,,,,,,,,
1237.7000000029802,,prac_rt_thecrossant_black,194865,,,,black_plus_sign,,,49,,,1,1,,,,,,,,,,,,,,,,,,
null,,prac_color_black,194967,,,,black_plus_sign,,,null,,,,,,,,,,,,,,,,,,,,,,
5655.79999999702,,instruct_dir_01,200624,,,,instruct,0,Next,,,,,,,,,,,,,,,,,,,,,,,
7611,,instruct_dir_2,208236,,,,instruct,1,Next,,,,,,,,,,,,,,,,,,,,,,,
4085.2999999970198,,instruct_dir_3,212322,,,,instruct,1,Next,,,,,,,,,,,,,,,,,,,,,,,
18381.29999999702,,instruct_dir_4,230704,,,,instruct,1,Start,,,,,,,,,,,,,,,,,,,,,,,
null,,thebreak,230805,,,,<p></p>,,,null,,,,,,,,,,,,,,,,,,,,,,
2013.2000000029802,,intro_0,232820,,,,instruct,,,32,,,,,,,,,,,,,,,,,,,,,,
4328,,prac_directmemory_phase,237149,,,,practice/object_04a.png,,,50,,,1,,practice/object_02a.png,practice/object_04b.png,practice/object_02b.png,practice/object_04b.png,1,1,,,,,,,,,,,,
7222.29999999702,,prac_directmemory_phase,244373,,,,practice/object_02a.png,,,49,,,1,,practice/object_02b.png,practice/object_03b.png,practice/object_04a.png,practice/object_02b.png,1,1,,,,,,,,,,,,
4357,,prac_directmemory_phase,248733,,,,practice/object_03a.png,,,51,,,1,,practice/object_04b.png,practice/object_02a.png,practice/object_03b.png,practice/object_03b.png,1,1,,,,,,,,,,,,
7148.79999999702,,prac_directmemory_phase,255885,,,,practice/object_01a.png,,,50,,,1,,practice/object_02a.png,practice/object_01b.png,practice/object_04b.png,practice/object_01b.png,1,1,,,,,,,,,,,,
6876.5,,practice_feedback,262762,,,,practice_feedback,1,,,,,,,,,,,,,,,,,,,,,,,,
11355,,proceed_actualTask,274118,,,,proceed_actualTask,1,Continue,,,,,,,,,,,,,,,,,,,,,,,
11014.79999999702,,last_inst,285134,,,,last_inst,,,32,,,,,,,,,,,,,,,,,,,,,,
null,,learn_phase(without_color)1,288638,,,,black_plus_sign,,,null,object_14c.png,object_07b.png,,,,,,,,,,,,,,,,,,,,
null,,black_cross(without_color)1,289679,,,,green,,,null,object_14c.png,object_07b.png,,,,,,,,,,,,,,,,,,,,
null,,rt_plussign_withcolor1,290181,,,,green,,,null,object_14c.png,object_07b.png,,,,,,,,,,,,,,,,,,,,
1849.2000000029802,,rt_thecrossant_black1,291157,,,,black_plus_sign,,,50,,,1,,,,,,,1,,,,,,,,,,,,
null,,color_black1,291260,,,,black_plus_sign,,,null,,,,,,,,,,,,,,,,,,,,,,
null,,learn_phase(without_color)1,294763,,,,black_plus_sign,,,null,object_01a.png,object_01b.png,,,,,,,,,,,,,,,,,,,,
null,,black_cross(without_color)1,295782,,,,green,,,null,object_01a.png,object_01b.png,,,,,,,,,,,,,,,,,,,,
null,,rt_plussign_withcolor1,296284,,,,green,,,null,object_01a.png,object_01b.png,,,,,,,,,,,,,,,,,,,,
882.1000000089407,,rt_thecrossant_black1,297270,,,,black_plus_sign,,,50,,,1,,,,,,,1,,,,,,,,,,,,
null,,color_black1,297373,,,,black_plus_sign,,,null,,,,,,,,,,,,,,,,,,,,,,
null,,learn_phase(without_color)1,300876,,,,black_plus_sign,,,null,object_11b.png,object_11a.png,,,,,,,,,,,,,,,,,,,,
null,,black_cross(without_color)1,301912,,,,blue,,,null,object_11b.png,object_11a.png,,,,,,,,,,,,,,,,,,,,
450.6000000089407,,rt_plussign_withcolor1,302414,,,,blue,,,49,object_11b.png,object_11a.png,,,,,,,,,,,,,,,,,,,,
null,,rt_thecrossant_black1,303382,,,,black_plus_sign,,,null,,,1,,,,,,,1,,,,,,,,,,,,
null,,color_black1,303485,,,,black_plus_sign,,,null,,,,,,,,,,,,,,,,,,,,,,
null,,learn_phase(without_color)1,306986,,,,black_plus_sign,,,null,object_10b.png,object_10c.png,,,,,,,,,,,,,,,,,,,,
null,,black_cross(without_color)1,307614,,,,green,,,null,object_10b.png,object_10c.png,,,,,,,,,,,,,,,,,,,,
null,,rt_plussign_withcolor1,308116,,,,green,,,null,object_10b.png,object_10c.png,,,,,,,,,,,,,,,,,,,,
1188.5,,rt_thecrossant_black1,309493,,,,black_plus_sign,,,50,,,1,,,,,,,1,,,,,,,,,,,,
null,,color_black1,309596,,,,black_plus_sign,,,null,,,,,,,,,,,,,,,,,,,,,,
null,,learn_phase(without_color)1,313100,,,,black_plus_sign,,,null,object_14b.png,object_09c.png,,,,,,,,,,,,,,,,,,,,
null,,black_cross(without_color)1,313963,,,,green,,,null,object_14b.png,object_09c.png,,,,,,,,,,,,,,,,,,,,
null,,rt_plussign_withcolor1,314465,,,,green,,,null,object_14b.png,object_09c.png,,,,,,,,,,,,,,,,,,,,
728.2000000029802,,rt_thecrossant_black1,315609,,,,black_plus_sign,,,50,,,1,,,,,,,1,,,,,,,,,,,,
null,,color_black1,315711,,,,black_plus_sign,,,null,,,,,,,,,,,,,,,,,,,,,,
null,,learn_phase(without_color)1,319215,,,,black_plus_sign,,,null,object_04c.png,object_03a.png,,,,,,,,,,,,,,,,,,,,
null,,black_cross(without_color)1,319804,,,,blue,,,null,object_04c.png,object_03a.png,,,,,,,,,,,,,,,,,,,,
null,,rt_plussign_withcolor1,320306,,,,blue,,,null,object_04c.png,object_03a.png,,,,,,,,,,,,,,,,,,,,
992,,rt_thecrossant_black1,321723,,,,black_plus_sign,,,49,,,1,,,,,,,1,,,,,,,,,,,,
null,,color_black1,321826,,,,black_plus_sign,,,null,,,,,,,,,,,,,,,,,,,,,,
null,,learn_phase(without_color)1,325329,,,,black_plus_sign,,,null,object_09b.png,object_08b.png,,,,,,,,,,,,,,,,,,,,
null,,black_cross(without_color)1,326049,,,,green,,,null,object_09b.png,object_08b.png,,,,,,,,,,,,,,,,,,,,
387,,rt_plussign_withcolor1,326551,,,,green,,,50,object_09b.png,object_08b.png,,,,,,,,,,,,,,,,,,,,
null,,rt_thecrossant_black1,327842,,,,black_plus_sign,,,null,,,1,,,,,,,1,,,,,,,,,,,,
null,,color_black1,327945,,,,black_plus_sign,,,null,,,,,,,,,,,,,,,,,,,,,,
null,,learn_phase(without_color)1,331447,,,,black_plus_sign,,,null,object_03c.png,object_02a.png,,,,,,,,,,,,,,,,,,,,
null,,black_cross(without_color)1,332126,,,,green,,,null,object_03c.png,object_02a.png,,,,,,,,,,,,,,,,,,,,
null,,rt_plussign_withcolor1,332627,,,,green,,,null,object_03c.png,object_02a.png,,,,,,,,,,,,,,,,,,,,
1051.800000011921,,rt_thecrossant_black1,333955,,,,black_plus_sign,,,50,,,1,,,,,,,1,,,,,,,,,,,,
null,,color_black1,334057,,,,black_plus_sign,,,null,,,,,,,,,,,,,,,,,,,,,,
null,,learn_phase(without_color)1,337560,,,,black_plus_sign,,,null,object_14a.png,object_04a.png,,,,,,,,,,,,,,,,,,,,
null,,black_cross(without_color)1,338280,,,,green,,,null,object_14a.png,object_04a.png,,,,,,,,,,,,,,,,,,,,
null,,rt_plussign_withcolor1,338782,,,,green,,,null,object_14a.png,object_04a.png,,,,,,,,,,,,,,,,,,,,
877.5999999940395,,rt_thecrossant_black1,340066,,,,black_plus_sign,,,50,,,1,,,,,,,1,,,,,,,,,,,,
null,,color_black1,340169,,,,black_plus_sign,,,null,,,,,,,,,,,,,,,,,,,,,,
null,,learn_phase(without_color)1,343673,,,,black_plus_sign,,,null,object_05a.png,object_05c.png,,,,,,,,,,,,,,,,,,,,
null,,black_cross(without_color)1,344512,,,,blue,,,null,object_05a.png,object_05c.png,,,,,,,,,,,,,,,,,,,,
null,,rt_plussign_withcolor1,345013,,,,blue,,,null,object_05a.png,object_05c.png,,,,,,,,,,,,,,,,,,,,
919.7000000029802,,rt_thecrossant_black1,346180,,,,black_plus_sign,,,49,,,1,,,,,,,1,,,,,,,,,,,,
null,,color_black1,346282,,,,black_plus_sign,,,null,,,,,,,,,,,,,,,,,,,,,,
null,,learn_phase(without_color)1,349794,,,,black_plus_sign,,,null,object_07a.png,object_12c.png,,,,,,,,,,,,,,,,,,,,
null,,black_cross(without_color)1,350850,,,,blue,,,null,object_07a.png,object_12c.png,,,,,,,,,,,,,,,,,,,,
null,,rt_plussign_withcolor1,351351,,,,blue,,,null,object_07a.png,object_12c.png,,,,,,,,,,,,,,,,,,,,
955.1000000089407,,rt_thecrossant_black1,352300,,,,black_plus_sign,,,49,,,1,,,,,,,1,,,,,,,,,,,,
null,,color_black1,352403,,,,black_plus_sign,,,null,,,,,,,,,,,,,,,,,,,,,,
null,,learn_phase(without_color)1,355921,,,,black_plus_sign,,,null,object_12a.png,object_15a.png,,,,,,,,,,,,,,,,,,,,
null,,black_cross(without_color)1,356386,,,,green,,,null,object_12a.png,object_15a.png,,,,,,,,,,,,,,,,,,,,
null,,rt_plussign_withcolor1,356888,,,,green,,,null,object_12a.png,object_15a.png,,,,,,,,,,,,,,,,,,,,
1214.2000000029802,,rt_thecrossant_black1,358427,,,,black_plus_sign,,,50,,,1,,,,,,,1,,,,,,,,,,,,
null,,color_black1,358530,,,,black_plus_sign,,,null,,,,,,,,,,,,,,,,,,,,,,
null,,learn_phase(without_color)1,362033,,,,black_plus_sign,,,null,object_04b.png,object_06c.png,,,,,,,,,,,,,,,,,,,,
null,,black_cross(without_color)1,363129,,,,blue,,,null,object_04b.png,object_06c.png,,,,,,,,,,,,,,,,,,,,
null,,rt_plussign_withcolor1,363631,,,,blue,,,null,object_04b.png,object_06c.png,,,,,,,,,,,,,,,,,,,,
734.6000000089407,,rt_thecrossant_black1,364539,,,,black_plus_sign,,,49,,,1,,,,,,,1,,,,,,,,,,,,
null,,color_black1,364642,,,,black_plus_sign,,,null,,,,,,,,,,,,,,,,,,,,,,
null,,learn_phase(without_color)1,368145,,,,black_plus_sign,,,null,object_07c.png,object_01c.png,,,,,,,,,,,,,,,,,,,,
null,,black_cross(without_color)1,368645,,,,green,,,null,object_07c.png,object_01c.png,,,,,,,,,,,,,,,,,,,,
null,,rt_plussign_withcolor1,369146,,,,green,,,null,object_07c.png,object_01c.png,,,,,,,,,,,,,,,,,,,,
1426.6000000089407,,rt_thecrossant_black1,370652,,,,black_plus_sign,,,50,,,1,,,,,,,1,,,,,,,,,,,,
null,,color_black1,370755,,,,black_plus_sign,,,null,,,,,,,,,,,,,,,,,,,,,,
null,,learn_phase(without_color)1,374256,,,,black_plus_sign,,,null,object_13a.png,object_13b.png,,,,,,,,,,,,,,,,,,,,
null,,black_cross(without_color)1,374999,,,,blue,,,null,object_13a.png,object_13b.png,,,,,,,,,,,,,,,,,,,,
null,,rt_plussign_withcolor1,375502,,,,blue,,,null,object_13a.png,object_13b.png,,,,,,,,,,,,,,,,,,,,
777.7000000029802,,rt_thecrossant_black1,376763,,,,black_plus_sign,,,49,,,1,,,,,,,1,,,,,,,,,,,,
null,,color_black1,376865,,,,black_plus_sign,,,null,,,,,,,,,,,,,,,,,,,,,,
null,,thebreak,376971,,,,<p></p>,,,null,,,,,,,,,,,,,,,,,,,,,,
1320.2000000029802,,intro_0,378292,,,,instruct,,,32,,,,,,,,,,,,,,,,,,,,,,
7662.699999988079,,directmemory_phase1,385957,,,,object_03a.png,,,50,,,0,,object_04c.png,object_12a.png,object_14a.png,object_04c.png,,0,0,,,,,,,,,,,
3683.5999999940395,,directmemory_phase1,389644,,,,object_15a.png,,,49,,,0,,object_07b.png,object_10c.png,object_12a.png,object_12a.png,,0,0,,,,,,,,,,,
2365.1000000089407,,directmemory_phase1,392012,,,,object_14c.png,,,49,,,0,,object_11a.png,object_15a.png,object_07b.png,object_07b.png,,0,0,,,,,,,,,,,
6013.4000000059605,,directmemory_phase1,398029,,,,object_01b.png,,,50,,,1,,object_10c.png,object_01a.png,object_09c.png,object_01a.png,,0.25,1,,,,,,,,,,,
3316.2999999970198,,directmemory_phase1,401348,,,,object_05a.png,,,49,,,0,,object_09c.png,object_14a.png,object_05c.png,object_05c.png,,0.2,0,,,,,,,,,,,
1582.7000000029802,,directmemory_phase1,402932,,,,object_08b.png,,,51,,,1,,object_09c.png,object_14c.png,object_09b.png,object_09b.png,,0.3333333333333333,1,,,,,,,,,,,
5076.5,,directmemory_phase1,408012,,,,object_04b.png,,,50,,,1,,object_11b.png,object_06c.png,object_07c.png,object_06c.png,,0.42857142857142855,1,,,,,,,,,,,
2438.6000000089407,,directmemory_phase1,410453,,,,object_07a.png,,,49,,,0,,object_05c.png,object_13b.png,object_12c.png,object_12c.png,,0.375,0,,,,,,,,,,,
4268.70000000298,,directmemory_phase1,414724,,,,object_14b.png,,,50,,,0,,object_09c.png,object_07b.png,object_04b.png,object_09c.png,,0.3333333333333333,0,,,,,,,,,,,
5013.20000000298,,directmemory_phase1,419740,,,,object_11b.png,,,51,,,1,,object_07c.png,object_14b.png,object_11a.png,object_11a.png,,0.4,1,,,,,,,,,,,
7317.5,,directmemory_phase1,427061,,,,object_13b.png,,,50,,,0,,object_07c.png,object_01c.png,object_13a.png,object_13a.png,,0.36363636363636365,0,,,,,,,,,,,
1724.7000000029802,,directmemory_phase1,428788,,,,object_14a.png,,,49,,,1,,object_04a.png,object_06c.png,object_04b.png,object_04a.png,,0.4166666666666667,1,,,,,,,,,,,
4573.0999999940395,,directmemory_phase1,433364,,,,object_10c.png,,,51,,,1,,object_13a.png,object_01c.png,object_10b.png,object_10b.png,,0.46153846153846156,1,,,,,,,,,,,
7413.5,,directmemory_phase1,440781,,,,object_02a.png,,,49,,,1,,object_03c.png,object_10b.png,object_01b.png,object_03c.png,,0.5,1,,,,,,,,,,,
5172.800000011921,,directmemory_phase1,445956,,,,object_01c.png,,,50,,,1,,object_13b.png,object_07c.png,object_04a.png,object_07c.png,,0.5333333333333333,1,,,,,,,,,,,
null,,thebreak,446059,,,,<p></p>,,,null,,,,,,,,,,,,,,,,,,,,,,
1783.7000000029802,,intro_0,447844,,,,instruct,,,32,,,,,,,,,,,,,,,,,,,,,,
null,,learn_phase(without_color)2,451346,,,,black_plus_sign,,,null,object_01a.png,object_01b.png,,,,,,,,,,,,,,,,,,,,
null,,black_cross(without_color)2,452397,,,,blue,,,null,object_01a.png,object_01b.png,,,,,,,,,,,,,,,,,,,,
null,,rt_plussign_withcolor2,452899,,,,blue,,,null,object_01a.png,object_01b.png,,,,,,,,,,,,,,,,,,,,
1874.2000000029802,,rt_thecrossant_black2,453854,,,,black_plus_sign,,,49,,,1,,,,,,,1,,,,,,,,,,,,
null,,color_black2,453957,,,,black_plus_sign,,,null,,,,,,,,,,,,,,,,,,,,,,
null,,learn_phase(without_color)2,457461,,,,black_plus_sign,,,null,object_09c.png,object_14b.png,,,,,,,,,,,,,,,,,,,,
null,,black_cross(without_color)2,458165,,,,blue,,,null,object_09c.png,object_14b.png,,,,,,,,,,,,,,,,,,,,
429.3999999910593,,rt_plussign_withcolor2,458667,,,,blue,,,50,object_09c.png,object_14b.png,,,,,,,,,,,,,,,,,,,,
null,,rt_thecrossant_black2,459971,,,,black_plus_sign,,,49,,,0,,,,,,,0.5,,,,,,,,,,,,
null,,color_black2,460074,,,,black_plus_sign,,,null,,,,,,,,,,,,,,,,,,,,,,
null,,learn_phase(without_color)2,463577,,,,black_plus_sign,,,null,object_11a.png,object_11b.png,,,,,,,,,,,,,,,,,,,,
null,,black_cross(without_color)2,464592,,,,blue,,,null,object_11a.png,object_11b.png,,,,,,,,,,,,,,,,,,,,
null,,rt_plussign_withcolor2,465094,,,,blue,,,null,object_11a.png,object_11b.png,,,,,,,,,,,,,,,,,,,,
806.2999999970198,,rt_thecrossant_black2,466082,,,,black_plus_sign,,,49,,,1,,,,,,,0.6666666666666666,,,,,,,,,,,,
null,,color_black2,466185,,,,black_plus_sign,,,null,,,,,,,,,,,,,,,,,,,,,,
null,,learn_phase(without_color)2,469689,,,,black_plus_sign,,,null,object_12a.png,object_15a.png,,,,,,,,,,,,,,,,,,,,
null,,black_cross(without_color)2,470564,,,,green,,,null,object_12a.png,object_15a.png,,,,,,,,,,,,,,,,,,,,
null,,rt_plussign_withcolor2,471066,,,,green,,,null,object_12a.png,object_15a.png,,,,,,,,,,,,,,,,,,,,
1346,,rt_thecrossant_black2,472197,,,,black_plus_sign,,,50,,,1,,,,,,,0.75,,,,,,,,,,,,
null,,color_black2,472306,,,,black_plus_sign,,,null,,,,,,,,,,,,,,,,,,,,,,
null,,learn_phase(without_color)2,475814,,,,black_plus_sign,,,null,object_14c.png,object_07b.png,,,,,,,,,,,,,,,,,,,,
null,,black_cross(without_color)2,476669,,,,green,,,null,object_14c.png,object_07b.png,,,,,,,,,,,,,,,,,,,,
null,,rt_plussign_withcolor2,477171,,,,green,,,null,object_14c.png,object_07b.png,,,,,,,,,,,,,,,,,,,,
1012.0999999940395,,rt_thecrossant_black2,478322,,,,black_plus_sign,,,50,,,1,,,,,,,0.8,,,,,,,,,,,,
null,,color_black2,478425,,,,black_plus_sign,,,null,,,,,,,,,,,,,,,,,,,,,,
null,,learn_phase(without_color)2,481929,,,,black_plus_sign,,,null,object_05a.png,object_05c.png,,,,,,,,,,,,,,,,,,,,
null,,black_cross(without_color)2,482357,,,,green,,,null,object_05a.png,object_05c.png,,,,,,,,,,,,,,,,,,,,
null,,rt_plussign_withcolor2,482860,,,,green,,,null,object_05a.png,object_05c.png,,,,,,,,,,,,,,,,,,,,
1142.2000000029802,,rt_thecrossant_black2,484436,,,,black_plus_sign,,,50,,,1,,,,,,,0.8333333333333334,,,,,,,,,,,,
null,,color_black2,484538,,,,black_plus_sign,,,null,,,,,,,,,,,,,,,,,,,,,,
null,,learn_phase(without_color)2,488041,,,,black_plus_sign,,,null,object_03c.png,object_02a.png,,,,,,,,,,,,,,,,,,,,
null,,black_cross(without_color)2,488760,,,,green,,,null,object_03c.png,object_02a.png,,,,,,,,,,,,,,,,,,,,
null,,rt_plussign_withcolor2,489266,,,,green,,,null,object_03c.png,object_02a.png,,,,,,,,,,,,,,,,,,,,
647.1999999880791,,rt_thecrossant_black2,490553,,,,black_plus_sign,,,50,,,1,,,,,,,0.8571428571428571,,,,,,,,,,,,
null,,color_black2,490656,,,,black_plus_sign,,,null,,,,,,,,,,,,,,,,,,,,,,
null,,learn_phase(without_color)2,494159,,,,black_plus_sign,,,null,object_10c.png,object_10b.png,,,,,,,,,,,,,,,,,,,,
null,,black_cross(without_color)2,494615,,,,blue,,,null,object_10c.png,object_10b.png,,,,,,,,,,,,,,,,,,,,
null,,rt_plussign_withcolor2,495116,,,,blue,,,null,object_10c.png,object_10b.png,,,,,,,,,,,,,,,,,,,,
1061.2999999970198,,rt_thecrossant_black2,496666,,,,black_plus_sign,,,49,,,1,,,,,,,0.875,,,,,,,,,,,,
null,,color_black2,496768,,,,black_plus_sign,,,null,,,,,,,,,,,,,,,,,,,,,,
null,,learn_phase(without_color)2,500272,,,,black_plus_sign,,,null,object_12c.png,object_07a.png,,,,,,,,,,,,,,,,,,,,
null,,black_cross(without_color)2,501184,,,,blue,,,null,object_12c.png,object_07a.png,,,,,,,,,,,,,,,,,,,,
490.59999999403954,,rt_plussign_withcolor2,501687,,,,blue,,,49,object_12c.png,object_07a.png,,,,,,,,,,,,,,,,,,,,
null,,rt_thecrossant_black2,502780,,,,black_plus_sign,,,null,,,1,,,,,,,0.8888888888888888,,,,,,,,,,,,
null,,color_black2,502882,,,,black_plus_sign,,,null,,,,,,,,,,,,,,,,,,,,,,
null,,learn_phase(without_color)2,506385,,,,black_plus_sign,,,null,object_13b.png,object_13a.png,,,,,,,,,,,,,,,,,,,,
null,,black_cross(without_color)2,507237,,,,green,,,null,object_13b.png,object_13a.png,,,,,,,,,,,,,,,,,,,,
null,,rt_plussign_withcolor2,507739,,,,green,,,null,object_13b.png,object_13a.png,,,,,,,,,,,,,,,,,,,,
1416.4000000059605,,rt_thecrossant_black2,508897,,,,black_plus_sign,,,50,,,1,,,,,,,0.9,,,,,,,,,,,,
null,,color_black2,508999,,,,black_plus_sign,,,null,,,,,,,,,,,,,,,,,,,,,,
null,,learn_phase(without_color)2,512503,,,,black_plus_sign,,,null,object_04a.png,object_14a.png,,,,,,,,,,,,,,,,,,,,
null,,black_cross(without_color)2,513540,,,,green,,,null,object_04a.png,object_14a.png,,,,,,,,,,,,,,,,,,,,
null,,rt_plussign_withcolor2,514042,,,,green,,,null,object_04a.png,object_14a.png,,,,,,,,,,,,,,,,,,,,
1029.4000000059605,,rt_thecrossant_black2,515010,,,,black_plus_sign,,,50,,,1,,,,,,,0.9090909090909091,,,,,,,,,,,,
null,,color_black2,515113,,,,black_plus_sign,,,null,,,,,,,,,,,,,,,,,,,,,,
null,,learn_phase(without_color)2,518616,,,,black_plus_sign,,,null,object_01c.png,object_07c.png,,,,,,,,,,,,,,,,,,,,
null,,black_cross(without_color)2,519383,,,,green,,,null,object_01c.png,object_07c.png,,,,,,,,,,,,,,,,,,,,
null,,rt_plussign_withcolor2,519885,,,,green,,,null,object_01c.png,object_07c.png,,,,,,,,,,,,,,,,,,,,
1163.5999999940395,,rt_thecrossant_black2,521125,,,,black_plus_sign,,,49,,,0,,,,,,,0.8333333333333334,,,,,,,,,,,,
null,,color_black2,521228,,,,black_plus_sign,,,null,,,,,,,,,,,,,,,,,,,,,,
null,,learn_phase(without_color)2,524732,,,,black_plus_sign,,,null,object_04c.png,object_03a.png,,,,,,,,,,,,,,,,,,,,
null,,black_cross(without_color)2,525308,,,,green,,,null,object_04c.png,object_03a.png,,,,,,,,,,,,,,,,,,,,
null,,rt_plussign_withcolor2,525809,,,,green,,,null,object_04c.png,object_03a.png,,,,,,,,,,,,,,,,,,,,
1383.9000000059605,,rt_thecrossant_black2,527239,,,,black_plus_sign,,,50,,,1,,,,,,,0.8461538461538461,,,,,,,,,,,,
null,,color_black2,527342,,,,black_plus_sign,,,null,,,,,,,,,,,,,,,,,,,,,,
null,,learn_phase(without_color)2,530845,,,,black_plus_sign,,,null,object_06c.png,object_04b.png,,,,,,,,,,,,,,,,,,,,
null,,black_cross(without_color)2,531857,,,,blue,,,null,object_06c.png,object_04b.png,,,,,,,,,,,,,,,,,,,,
null,,rt_plussign_withcolor2,532358,,,,blue,,,null,object_06c.png,object_04b.png,,,,,,,,,,,,,,,,,,,,
851.1999999880791,,rt_thecrossant_black2,533366,,,,black_plus_sign,,,49,,,1,,,,,,,0.8571428571428571,,,,,,,,,,,,
null,,color_black2,533470,,,,black_plus_sign,,,null,,,,,,,,,,,,,,,,,,,,,,
null,,learn_phase(without_color)2,536973,,,,black_plus_sign,,,null,object_08b.png,object_09b.png,,,,,,,,,,,,,,,,,,,,
null,,black_cross(without_color)2,537437,,,,green,,,null,object_08b.png,object_09b.png,,,,,,,,,,,,,,,,,,,,
null,,rt_plussign_withcolor2,537939,,,,green,,,null,object_08b.png,object_09b.png,,,,,,,,,,,,,,,,,,,,
1285.0999999940395,,rt_thecrossant_black2,539482,,,,black_plus_sign,,,50,,,1,,,,,,,0.8666666666666667,,,,,,,,,,,,
null,,color_black2,539585,,,,black_plus_sign,,,null,,,,,,,,,,,,,,,,,,,,,,
null,,thebreak,539687,,,,<p></p>,,,null,,,,,,,,,,,,,,,,,,,,,,
962.0999999940395,,intro_0,540650,,,,instruct,,,32,,,,,,,,,,,,,,,,,,,,,,
5415.79999999702,,directmemory_phase2,546067,,,,object_08c.png,,,50,,,0,,object_07c.png,object_08a.png,object_06c.png,object_06c.png,,0.5,0,,,,,,,,,,,
7005.4000000059605,,directmemory_phase2,553076,,,,object_04a.png,,,49,,,0,,object_06b.png,object_07c.png,object_09a.png,object_09a.png,,0.47058823529411764,0,,,,,,,,,,,
1500.6000000089407,,directmemory_phase2,554579,,,,object_10b.png,,,50,,,0,,object_15c.png,object_08a.png,object_07b.png,object_15c.png,,0.4444444444444444,0,,,,,,,,,,,
10845.20000000298,,directmemory_phase2,565428,,,,object_11c.png,,,51,,,0,,object_06a.png,object_12a.png,object_06c.png,object_12a.png,,0.42105263157894735,0,,,,,,,,,,,
5043.4000000059605,,directmemory_phase2,570474,,,,object_08a.png,,,51,,,0,,object_13a.png,object_06c.png,object_12b.png,object_13a.png,,0.4,0,,,,,,,,,,,
5632.699999988079,,directmemory_phase2,576108,,,,object_12b.png,,,50,,,0,,object_03c.png,object_03b.png,object_12c.png,object_12c.png,,0.38095238095238093,0,,,,,,,,,,,
7244.70000000298,,directmemory_phase2,583355,,,,object_03c.png,,,51,,,0,,object_02c.png,object_06b.png,object_06c.png,object_02c.png,,0.36363636363636365,0,,,,,,,,,,,
3691.8999999910593,,directmemory_phase2,587050,,,,object_03b.png,,,50,,,1,,object_06b.png,object_01a.png,object_07c.png,object_01a.png,,0.391304347826087,1,,,,,,,,,,,
4447.4000000059605,,directmemory_phase2,591498,,,,object_05c.png,,,49,,,0,,object_12a.png,object_06b.png,object_08c.png,object_06b.png,,0.375,0,,,,,,,,,,,
4768.0999999940395,,directmemory_phase2,596267,,,,object_09b.png,,,50,,,0,,object_10a.png,object_12b.png,object_07c.png,object_10a.png,,0.36,0,,,,,,,,,,,
4213.4000000059605,,directmemory_phase2,600483,,,,object_05b.png,,,50,,,0,,object_10b.png,object_13c.png,object_07c.png,object_07c.png,,0.34615384615384615,0,,,,,,,,,,,
5364.79999999702,,directmemory_phase2,605851,,,,object_09c.png,,,51,,,1,,object_06a.png,object_13a.png,object_13c.png,object_13c.png,,0.37037037037037035,1,,,,,,,,,,,
3940.5,,directmemory_phase2,609795,,,,object_06a.png,,,51,,,1,,object_10b.png,object_15b.png,object_11a.png,object_11a.png,,0.39285714285714285,1,,,,,,,,,,,
3293.199999988079,,directmemory_phase2,613091,,,,object_15b.png,,,49,,,1,,object_07b.png,object_07c.png,object_08a.png,object_07b.png,,0.41379310344827586,1,,,,,,,,,,,
3507.5,,directmemory_phase2,616602,,,,object_02b.png,,,49,,,0,,object_15c.png,object_04c.png,object_04a.png,object_04c.png,,0.4,0,,,,,,,,,,,
null,,thebreak,616704,,,,<p></p>,,,null,,,,,,,,,,,,,,,,,,,,,,
1849.7000000029802,,intro_0,618555,,,,instruct,,,32,,,,,,,,,,,,,,,,,,,,,,
null,,learn_phase(without_color)3,622057,,,,black_plus_sign,,,null,object_14a.png,object_04a.png,,,,,,,,,,,,,,,,,,,,
null,,black_cross(without_color)3,622762,,,,blue,,,null,object_14a.png,object_04a.png,,,,,,,,,,,,,,,,,,,,
null,,rt_plussign_withcolor3,623264,,,,blue,,,null,object_14a.png,object_04a.png,,,,,,,,,,,,,,,,,,,,
1585.9000000059605,,rt_thecrossant_black3,624565,,,,black_plus_sign,,,49,,,1,,,,,,,1,,,,,,,,,,,,
null,,color_black3,624667,,,,black_plus_sign,,,null,,,,,,,,,,,,,,,,,,,,,,
null,,learn_phase(without_color)3,628170,,,,black_plus_sign,,,null,object_14c.png,object_07b.png,,,,,,,,,,,,,,,,,,,,
null,,black_cross(without_color)3,628839,,,,blue,,,null,object_14c.png,object_07b.png,,,,,,,,,,,,,,,,,,,,
null,,rt_plussign_withcolor3,629342,,,,blue,,,null,object_14c.png,object_07b.png,,,,,,,,,,,,,,,,,,,,
917.1000000089407,,rt_thecrossant_black3,630677,,,,black_plus_sign,,,49,,,1,,,,,,,1,,,,,,,,,,,,
null,,color_black3,630779,,,,black_plus_sign,,,null,,,,,,,,,,,,,,,,,,,,,,
null,,learn_phase(without_color)3,634283,,,,black_plus_sign,,,null,object_10b.png,object_10c.png,,,,,,,,,,,,,,,,,,,,
null,,black_cross(without_color)3,634717,,,,blue,,,null,object_10b.png,object_10c.png,,,,,,,,,,,,,,,,,,,,
null,,rt_plussign_withcolor3,635220,,,,blue,,,null,object_10b.png,object_10c.png,,,,,,,,,,,,,,,,,,,,
836.4000000059605,,rt_thecrossant_black3,636791,,,,black_plus_sign,,,49,,,1,,,,,,,1,,,,,,,,,,,,
null,,color_black3,636892,,,,black_plus_sign,,,null,,,,,,,,,,,,,,,,,,,,,,
null,,learn_phase(without_color)3,640396,,,,black_plus_sign,,,null,object_12c.png,object_07a.png,,,,,,,,,,,,,,,,,,,,
null,,black_cross(without_color)3,641445,,,,green,,,null,object_12c.png,object_07a.png,,,,,,,,,,,,,,,,,,,,
428.40000000596046,,rt_plussign_withcolor3,641947,,,,green,,,50,object_12c.png,object_07a.png,,,,,,,,,,,,,,,,,,,,
null,,rt_thecrossant_black3,642904,,,,black_plus_sign,,,null,,,1,,,,,,,1,,,,,,,,,,,,
null,,color_black3,643021,,,,black_plus_sign,,,null,,,,,,,,,,,,,,,,,,,,,,
null,,learn_phase(without_color)3,646524,,,,black_plus_sign,,,null,object_15a.png,object_12a.png,,,,,,,,,,,,,,,,,,,,
null,,black_cross(without_color)3,647075,,,,green,,,null,object_15a.png,object_12a.png,,,,,,,,,,,,,,,,,,,,
null,,rt_plussign_withcolor3,647577,,,,green,,,null,object_15a.png,object_12a.png,,,,,,,,,,,,,,,,,,,,
1577.800000011921,,rt_thecrossant_black3,649033,,,,black_plus_sign,,,50,,,1,,,,,,,1,,,,,,,,,,,,
null,,color_black3,649136,,,,black_plus_sign,,,null,,,,,,,,,,,,,,,,,,,,,,
null,,learn_phase(without_color)3,652640,,,,black_plus_sign,,,null,object_04c.png,object_03a.png,,,,,,,,,,,,,,,,,,,,
null,,black_cross(without_color)3,653070,,,,blue,,,null,object_04c.png,object_03a.png,,,,,,,,,,,,,,,,,,,,
null,,rt_plussign_withcolor3,653572,,,,blue,,,null,object_04c.png,object_03a.png,,,,,,,,,,,,,,,,,,,,
892.5,,rt_thecrossant_black3,655153,,,,black_plus_sign,,,49,,,1,,,,,,,1,,,,,,,,,,,,
null,,color_black3,655256,,,,black_plus_sign,,,null,,,,,,,,,,,,,,,,,,,,,,
null,,learn_phase(without_color)3,658759,,,,black_plus_sign,,,null,object_05c.png,object_05a.png,,,,,,,,,,,,,,,,,,,,
null,,black_cross(without_color)3,659184,,,,green,,,null,object_05c.png,object_05a.png,,,,,,,,,,,,,,,,,,,,
null,,rt_plussign_withcolor3,659687,,,,green,,,null,object_05c.png,object_05a.png,,,,,,,,,,,,,,,,,,,,
613.0999999940395,,rt_thecrossant_black3,661265,,,,black_plus_sign,,,50,,,1,,,,,,,1,,,,,,,,,,,,
null,,color_black3,661367,,,,black_plus_sign,,,null,,,,,,,,,,,,,,,,,,,,,,
null,,learn_phase(without_color)3,664870,,,,black_plus_sign,,,null,object_01b.png,object_01a.png,,,,,,,,,,,,,,,,,,,,
null,,black_cross(without_color)3,665914,,,,blue,,,null,object_01b.png,object_01a.png,,,,,,,,,,,,,,,,,,,,
null,,rt_plussign_withcolor3,666417,,,,blue,,,null,object_01b.png,object_01a.png,,,,,,,,,,,,,,,,,,,,
884.5999999940395,,rt_thecrossant_black3,667377,,,,black_plus_sign,,,49,,,1,,,,,,,1,,,,,,,,,,,,
null,,color_black3,667480,,,,black_plus_sign,,,null,,,,,,,,,,,,,,,,,,,,,,
null,,learn_phase(without_color)3,670984,,,,black_plus_sign,,,null,object_03c.png,object_02a.png,,,,,,,,,,,,,,,,,,,,
null,,black_cross(without_color)3,671425,,,,blue,,,null,object_03c.png,object_02a.png,,,,,,,,,,,,,,,,,,,,
null,,rt_plussign_withcolor3,671928,,,,blue,,,null,object_03c.png,object_02a.png,,,,,,,,,,,,,,,,,,,,
1463.6000000089407,,rt_thecrossant_black3,673492,,,,black_plus_sign,,,49,,,1,,,,,,,1,,,,,,,,,,,,
null,,color_black3,673594,,,,black_plus_sign,,,null,,,,,,,,,,,,,,,,,,,,,,
null,,learn_phase(without_color)3,677097,,,,black_plus_sign,,,null,object_07c.png,object_01c.png,,,,,,,,,,,,,,,,,,,,
null,,black_cross(without_color)3,677713,,,,green,,,null,object_07c.png,object_01c.png,,,,,,,,,,,,,,,,,,,,
null,,rt_plussign_withcolor3,678215,,,,green,,,null,object_07c.png,object_01c.png,,,,,,,,,,,,,,,,,,,,
1029.1000000089407,,rt_thecrossant_black3,679617,,,,black_plus_sign,,,50,,,1,,,,,,,1,,,,,,,,,,,,
null,,color_black3,679720,,,,black_plus_sign,,,null,,,,,,,,,,,,,,,,,,,,,,
null,,learn_phase(without_color)3,683221,,,,black_plus_sign,,,null,object_11b.png,object_11a.png,,,,,,,,,,,,,,,,,,,,
null,,black_cross(without_color)3,684042,,,,green,,,null,object_11b.png,object_11a.png,,,,,,,,,,,,,,,,,,,,
null,,rt_plussign_withcolor3,684544,,,,green,,,null,object_11b.png,object_11a.png,,,,,,,,,,,,,,,,,,,,
1042.2999999970198,,rt_thecrossant_black3,685728,,,,black_plus_sign,,,50,,,1,,,,,,,1,,,,,,,,,,,,
null,,color_black3,685831,,,,black_plus_sign,,,null,,,,,,,,,,,,,,,,,,,,,,
null,,learn_phase(without_color)3,689334,,,,black_plus_sign,,,null,object_06c.png,object_04b.png,,,,,,,,,,,,,,,,,,,,
null,,black_cross(without_color)3,690197,,,,blue,,,null,object_06c.png,object_04b.png,,,,,,,,,,,,,,,,,,,,
null,,rt_plussign_withcolor3,690700,,,,blue,,,null,object_06c.png,object_04b.png,,,,,,,,,,,,,,,,,,,,
1002.2999999970198,,rt_thecrossant_black3,691843,,,,black_plus_sign,,,49,,,1,,,,,,,1,,,,,,,,,,,,
null,,color_black3,691945,,,,black_plus_sign,,,null,,,,,,,,,,,,,,,,,,,,,,
null,,learn_phase(without_color)3,695449,,,,black_plus_sign,,,null,object_14b.png,object_09c.png,,,,,,,,,,,,,,,,,,,,
null,,black_cross(without_color)3,696411,,,,blue,,,null,object_14b.png,object_09c.png,,,,,,,,,,,,,,,,,,,,
null,,rt_plussign_withcolor3,696924,,,,blue,,,null,object_14b.png,object_09c.png,,,,,,,,,,,,,,,,,,,,
1092,,rt_thecrossant_black3,697969,,,,black_plus_sign,,,49,,,1,,,,,,,1,,,,,,,,,,,,
null,,color_black3,698072,,,,black_plus_sign,,,null,,,,,,,,,,,,,,,,,,,,,,
null,,learn_phase(without_color)3,701576,,,,black_plus_sign,,,null,object_13b.png,object_13a.png,,,,,,,,,,,,,,,,,,,,
null,,black_cross(without_color)3,702428,,,,green,,,null,object_13b.png,object_13a.png,,,,,,,,,,,,,,,,,,,,
null,,rt_plussign_withcolor3,702938,,,,green,,,null,object_13b.png,object_13a.png,,,,,,,,,,,,,,,,,,,,
1153.0999999940395,,rt_thecrossant_black3,704092,,,,black_plus_sign,,,50,,,1,,,,,,,1,,,,,,,,,,,,
null,,color_black3,704195,,,,black_plus_sign,,,null,,,,,,,,,,,,,,,,,,,,,,
null,,learn_phase(without_color)3,707698,,,,black_plus_sign,,,null,object_09b.png,object_08b.png,,,,,,,,,,,,,,,,,,,,
null,,black_cross(without_color)3,708421,,,,green,,,null,object_09b.png,object_08b.png,,,,,,,,,,,,,,,,,,,,
null,,rt_plussign_withcolor3,708922,,,,green,,,null,object_09b.png,object_08b.png,,,,,,,,,,,,,,,,,,,,
1034.8999999910593,,rt_thecrossant_black3,710204,,,,black_plus_sign,,,50,,,1,,,,,,,1,,,,,,,,,,,,
null,,color_black3,710314,,,,black_plus_sign,,,null,,,,,,,,,,,,,,,,,,,,,,
null,,thebreak,710420,,,,<p></p>,,,null,,,,,,,,,,,,,,,,,,,,,,
1148.2999999970198,,intro_0,711570,,,,instruct,,,32,,,,,,,,,,,,,,,,,,,,,,
2159.199999988079,,directmemory_phase3,713731,,,,object_14a.png,,,50,,,1,,object_04b.png,object_04a.png,object_01a.png,object_04a.png,,0.41935483870967744,1,,,,,,,,,,,
5612.100000008941,,directmemory_phase3,719346,,,,object_01b.png,,,51,,,1,,object_05c.png,object_02a.png,object_01a.png,object_01a.png,,0.4375,1,,,,,,,,,,,
4367,,directmemory_phase3,723713,,,,object_13b.png,,,49,,,1,,object_13a.png,object_07c.png,object_01c.png,object_13a.png,,0.45454545454545453,1,,,,,,,,,,,
2151.2999999970198,,directmemory_phase3,725866,,,,object_02a.png,,,49,,,1,,object_03c.png,object_07b.png,object_05a.png,object_03c.png,,0.47058823529411764,1,,,,,,,,,,,
5269.29999999702,,directmemory_phase3,731139,,,,object_14c.png,,,49,,,0,,object_13b.png,object_07b.png,object_12a.png,object_07b.png,,0.45714285714285713,0,,,,,,,,,,,
2788.2000000029802,,directmemory_phase3,733930,,,,object_15a.png,,,51,,,1,,object_06c.png,object_13b.png,object_12a.png,object_12a.png,,0.4722222222222222,1,,,,,,,,,,,
3556.5,,directmemory_phase3,737490,,,,object_10c.png,,,51,,,1,,object_07b.png,object_01b.png,object_10b.png,object_10b.png,,0.4864864864864865,1,,,,,,,,,,,
6029.20000000298,,directmemory_phase3,743523,,,,object_08b.png,,,49,,,0,,object_04b.png,object_09b.png,object_04c.png,object_09b.png,,0.47368421052631576,0,,,,,,,,,,,
9564.60000000894,,directmemory_phase3,753090,,,,object_03a.png,,,50,,,0,,object_12c.png,object_01b.png,object_04c.png,object_04c.png,,0.46153846153846156,0,,,,,,,,,,,
5501.100000008941,,directmemory_phase3,758595,,,,object_11b.png,,,49,,,1,,object_11a.png,object_13a.png,object_14a.png,object_11a.png,,0.475,1,,,,,,,,,,,
1508.5,,directmemory_phase3,760106,,,,object_05a.png,,,50,,,0,,object_07c.png,object_15a.png,object_05c.png,object_05c.png,,0.4634146341463415,0,,,,,,,,,,,
4572,,directmemory_phase3,764681,,,,object_01c.png,,,49,,,0,,object_04b.png,object_07c.png,object_10b.png,object_07c.png,,0.4523809523809524,0,,,,,,,,,,,
5872.399999991059,,directmemory_phase3,770555,,,,object_14b.png,,,50,,,1,,object_11b.png,object_09c.png,object_01a.png,object_09c.png,,0.46511627906976744,1,,,,,,,,,,,
4916.29999999702,,directmemory_phase3,775474,,,,object_07a.png,,,49,,,1,,object_12c.png,object_07c.png,object_15a.png,object_12c.png,,0.4772727272727273,1,,,,,,,,,,,
5541.20000000298,,directmemory_phase3,781019,,,,object_04b.png,,,49,,,0,,object_03c.png,object_03a.png,object_06c.png,object_06c.png,,0.4666666666666667,0,,,,,,,,,,,
null,,thebreak,781122,,,,<p></p>,,,null,,,,,,,,,,,,,,,,,,,,,,
1422.7000000029802,,intro_0,782546,,,,instruct,,,32,,,,,,,,,,,,,,,,,,,,,,
null,,learn_phase(without_color)4,786049,,,,black_plus_sign,,,null,object_03a.png,object_04c.png,,,,,,,,,,,,,,,,,,,,
null,,black_cross(without_color)4,786894,,,,blue,,,null,object_03a.png,object_04c.png,,,,,,,,,,,,,,,,,,,,
null,,rt_plussign_withcolor4,787396,,,,blue,,,null,object_03a.png,object_04c.png,,,,,,,,,,,,,,,,,,,,
989.2999999970198,,rt_thecrossant_black4,788562,,,,black_plus_sign,,,49,,,1,,,,,,,1,,,,,,,,,,,,
null,,color_black4,788664,,,,black_plus_sign,,,null,,,,,,,,,,,,,,,,,,,,,,
null,,learn_phase(without_color)4,792168,,,,black_plus_sign,,,null,object_08b.png,object_09b.png,,,,,,,,,,,,,,,,,,,,
null,,black_cross(without_color)4,792989,,,,blue,,,null,object_08b.png,object_09b.png,,,,,,,,,,,,,,,,,,,,
null,,rt_plussign_withcolor4,793493,,,,blue,,,null,object_08b.png,object_09b.png,,,,,,,,,,,,,,,,,,,,
1012.5999999940395,,rt_thecrossant_black4,794687,,,,black_plus_sign,,,49,,,1,,,,,,,1,,,,,,,,,,,,
null,,color_black4,794790,,,,black_plus_sign,,,null,,,,,,,,,,,,,,,,,,,,,,
null,,learn_phase(without_color)4,798294,,,,black_plus_sign,,,null,object_14b.png,object_09c.png,,,,,,,,,,,,,,,,,,,,
null,,black_cross(without_color)4,798848,,,,green,,,null,object_14b.png,object_09c.png,,,,,,,,,,,,,,,,,,,,
null,,rt_plussign_withcolor4,799352,,,,green,,,null,object_14b.png,object_09c.png,,,,,,,,,,,,,,,,,,,,
1099.7999999970198,,rt_thecrossant_black4,800804,,,,black_plus_sign,,,50,,,1,,,,,,,1,,,,,,,,,,,,
null,,color_black4,800906,,,,black_plus_sign,,,null,,,,,,,,,,,,,,,,,,,,,,
null,,learn_phase(without_color)4,804410,,,,black_plus_sign,,,null,object_03c.png,object_02a.png,,,,,,,,,,,,,,,,,,,,
null,,black_cross(without_color)4,805256,,,,green,,,null,object_03c.png,object_02a.png,,,,,,,,,,,,,,,,,,,,
456.90000000596046,,rt_plussign_withcolor4,805759,,,,green,,,50,object_03c.png,object_02a.png,,,,,,,,,,,,,,,,,,,,
null,,rt_thecrossant_black4,806919,,,,black_plus_sign,,,null,,,1,,,,,,,1,,,,,,,,,,,,
null,,color_black4,807022,,,,black_plus_sign,,,null,,,,,,,,,,,,,,,,,,,,,,
null,,learn_phase(without_color)4,810526,,,,black_plus_sign,,,null,object_07c.png,object_01c.png,,,,,,,,,,,,,,,,,,,,
null,,black_cross(without_color)4,811261,,,,blue,,,null,object_07c.png,object_01c.png,,,,,,,,,,,,,,,,,,,,
null,,rt_plussign_withcolor4,811763,,,,blue,,,null,object_07c.png,object_01c.png,,,,,,,,,,,,,,,,,,,,
1324.9000000059605,,rt_thecrossant_black4,813035,,,,black_plus_sign,,,49,,,1,,,,,,,1,,,,,,,,,,,,
null,,color_black4,813138,,,,black_plus_sign,,,null,,,,,,,,,,,,,,,,,,,,,,
null,,learn_phase(without_color)4,816642,,,,black_plus_sign,,,null,object_12a.png,object_15a.png,,,,,,,,,,,,,,,,,,,,
null,,black_cross(without_color)4,817129,,,,green,,,null,object_12a.png,object_15a.png,,,,,,,,,,,,,,,,,,,,
null,,rt_plussign_withcolor4,817632,,,,green,,,null,object_12a.png,object_15a.png,,,,,,,,,,,,,,,,,,,,
1193.2000000029802,,rt_thecrossant_black4,819151,,,,black_plus_sign,,,50,,,1,,,,,,,1,,,,,,,,,,,,
null,,color_black4,819254,,,,black_plus_sign,,,null,,,,,,,,,,,,,,,,,,,,,,
null,,learn_phase(without_color)4,822758,,,,black_plus_sign,,,null,object_04a.png,object_14a.png,,,,,,,,,,,,,,,,,,,,
null,,black_cross(without_color)4,823461,,,,blue,,,null,object_04a.png,object_14a.png,,,,,,,,,,,,,,,,,,,,
null,,rt_plussign_withcolor4,823964,,,,blue,,,null,object_04a.png,object_14a.png,,,,,,,,,,,,,,,,,,,,
780.9000000059605,,rt_thecrossant_black4,825267,,,,black_plus_sign,,,49,,,1,,,,,,,1,,,,,,,,,,,,
null,,color_black4,825370,,,,black_plus_sign,,,null,,,,,,,,,,,,,,,,,,,,,,
null,,learn_phase(without_color)4,828873,,,,black_plus_sign,,,null,object_12c.png,object_07a.png,,,,,,,,,,,,,,,,,,,,
null,,black_cross(without_color)4,829817,,,,green,,,null,object_12c.png,object_07a.png,,,,,,,,,,,,,,,,,,,,
null,,rt_plussign_withcolor4,830329,,,,green,,,null,object_12c.png,object_07a.png,,,,,,,,,,,,,,,,,,,,
976.5,,rt_thecrossant_black4,831392,,,,black_plus_sign,,,50,,,1,,,,,,,1,,,,,,,,,,,,
null,,color_black4,831495,,,,black_plus_sign,,,null,,,,,,,,,,,,,,,,,,,,,,
null,,learn_phase(without_color)4,834999,,,,black_plus_sign,,,null,object_10c.png,object_10b.png,,,,,,,,,,,,,,,,,,,,
null,,black_cross(without_color)4,835873,,,,blue,,,null,object_10c.png,object_10b.png,,,,,,,,,,,,,,,,,,,,
null,,rt_plussign_withcolor4,836375,,,,blue,,,null,object_10c.png,object_10b.png,,,,,,,,,,,,,,,,,,,,
1113,,rt_thecrossant_black4,837510,,,,black_plus_sign,,,49,,,1,,,,,,,1,,,,,,,,,,,,
null,,color_black4,837612,,,,black_plus_sign,,,null,,,,,,,,,,,,,,,,,,,,,,
null,,learn_phase(without_color)4,841115,,,,black_plus_sign,,,null,object_13a.png,object_13b.png,,,,,,,,,,,,,,,,,,,,
null,,black_cross(without_color)4,842100,,,,green,,,null,object_13a.png,object_13b.png,,,,,,,,,,,,,,,,,,,,
null,,rt_plussign_withcolor4,842601,,,,green,,,null,object_13a.png,object_13b.png,,,,,,,,,,,,,,,,,,,,
1279.5,,rt_thecrossant_black4,843633,,,,black_plus_sign,,,50,,,1,,,,,,,1,,,,,,,,,,,,
null,,color_black4,843741,,,,black_plus_sign,,,null,,,,,,,,,,,,,,,,,,,,,,
null,,learn_phase(without_color)4,847244,,,,black_plus_sign,,,null,object_04b.png,object_06c.png,,,,,,,,,,,,,,,,,,,,
null,,black_cross(without_color)4,847912,,,,blue,,,null,object_04b.png,object_06c.png,,,,,,,,,,,,,,,,,,,,
null,,rt_plussign_withcolor4,848415,,,,blue,,,null,object_04b.png,object_06c.png,,,,,,,,,,,,,,,,,,,,
1362.4000000059605,,rt_thecrossant_black4,849753,,,,black_plus_sign,,,49,,,1,,,,,,,1,,,,,,,,,,,,
null,,color_black4,849855,,,,black_plus_sign,,,null,,,,,,,,,,,,,,,,,,,,,,
null,,learn_phase(without_color)4,853358,,,,black_plus_sign,,,null,object_14c.png,object_07b.png,,,,,,,,,,,,,,,,,,,,
null,,black_cross(without_color)4,854431,,,,green,,,null,object_14c.png,object_07b.png,,,,,,,,,,,,,,,,,,,,
null,,rt_plussign_withcolor4,854934,,,,green,,,null,object_14c.png,object_07b.png,,,,,,,,,,,,,,,,,,,,
1295.300000011921,,rt_thecrossant_black4,855867,,,,black_plus_sign,,,50,,,1,,,,,,,1,,,,,,,,,,,,
null,,color_black4,855970,,,,black_plus_sign,,,null,,,,,,,,,,,,,,,,,,,,,,
null,,learn_phase(without_color)4,859473,,,,black_plus_sign,,,null,object_01b.png,object_01a.png,,,,,,,,,,,,,,,,,,,,
null,,black_cross(without_color)4,859967,,,,blue,,,null,object_01b.png,object_01a.png,,,,,,,,,,,,,,,,,,,,
457.79999999701977,,rt_plussign_withcolor4,860469,,,,blue,,,49,object_01b.png,object_01a.png,,,,,,,,,,,,,,,,,,,,
null,,rt_thecrossant_black4,861980,,,,black_plus_sign,,,null,,,1,,,,,,,1,,,,,,,,,,,,
null,,color_black4,862084,,,,black_plus_sign,,,null,,,,,,,,,,,,,,,,,,,,,,
null,,learn_phase(without_color)4,865587,,,,black_plus_sign,,,null,object_05c.png,object_05a.png,,,,,,,,,,,,,,,,,,,,
null,,black_cross(without_color)4,866600,,,,blue,,,null,object_05c.png,object_05a.png,,,,,,,,,,,,,,,,,,,,
null,,rt_plussign_withcolor4,867102,,,,blue,,,null,object_05c.png,object_05a.png,,,,,,,,,,,,,,,,,,,,
729.3999999910593,,rt_thecrossant_black4,868095,,,,black_plus_sign,,,49,,,1,,,,,,,1,,,,,,,,,,,,
null,,color_black4,868197,,,,black_plus_sign,,,null,,,,,,,,,,,,,,,,,,,,,,
null,,learn_phase(without_color)4,871700,,,,black_plus_sign,,,null,object_11b.png,object_11a.png,,,,,,,,,,,,,,,,,,,,
null,,black_cross(without_color)4,872597,,,,blue,,,null,object_11b.png,object_11a.png,,,,,,,,,,,,,,,,,,,,
null,,rt_plussign_withcolor4,873099,,,,blue,,,null,object_11b.png,object_11a.png,,,,,,,,,,,,,,,,,,,,
1225.3999999910593,,rt_thecrossant_black4,874208,,,,black_plus_sign,,,49,,,1,,,,,,,1,,,,,,,,,,,,
null,,color_black4,874312,,,,black_plus_sign,,,null,,,,,,,,,,,,,,,,,,,,,,
null,,thebreak,874416,,,,<p></p>,,,null,,,,,,,,,,,,,,,,,,,,,,
919.7000000029802,,intro_0,875338,,,,instruct,,,32,,,,,,,,,,,,,,,,,,,,,,
5300.79999999702,,directmemory_phase4,880640,,,,object_09c.png,,,50,,,0,,object_13c.png,object_08c.png,object_04c.png,object_13c.png,,0.45652173913043476,0,,,,,,,,,,,
4543.29999999702,,directmemory_phase4,885185,,,,object_02c.png,,,49,,,0,,object_12b.png,object_03c.png,object_04a.png,object_03c.png,,0.44680851063829785,0,,,,,,,,,,,
2445.7000000029802,,directmemory_phase4,887633,,,,object_08a.png,,,49,,,0,,object_06b.png,object_13a.png,object_01a.png,object_13a.png,,0.4375,0,,,,,,,,,,,
3334.800000011921,,directmemory_phase4,890970,,,,object_12c.png,,,50,,,0,,object_03b.png,object_13a.png,object_12b.png,object_12b.png,,0.42857142857142855,0,,,,,,,,,,,
4964.20000000298,,directmemory_phase4,895938,,,,object_06b.png,,,50,,,0,,object_04a.png,object_15c.png,object_05c.png,object_05c.png,,0.42,0,,,,,,,,,,,
5157.20000000298,,directmemory_phase4,901098,,,,object_03b.png,,,50,,,0,,object_04a.png,object_13c.png,object_01a.png,object_01a.png,,0.4117647058823529,0,,,,,,,,,,,
4475.9000000059605,,directmemory_phase4,905578,,,,object_11c.png,,,50,,,0,,object_01a.png,object_08a.png,object_12a.png,object_12a.png,,0.40384615384615385,0,,,,,,,,,,,
3924.7000000029802,,directmemory_phase4,909505,,,,object_02b.png,,,51,,,1,,object_05c.png,object_02c.png,object_04c.png,object_04c.png,,0.41509433962264153,1,,,,,,,,,,,
2981,,directmemory_phase4,912490,,,,object_09a.png,,,49,,,0,,object_06c.png,object_03b.png,object_04a.png,object_04a.png,,0.4074074074074074,0,,,,,,,,,,,
4699.20000000298,,directmemory_phase4,917192,,,,object_10b.png,,,50,,,1,,object_07c.png,object_15c.png,object_11c.png,object_15c.png,,0.41818181818181815,1,,,,,,,,,,,
4784.20000000298,,directmemory_phase4,921977,,,,object_11a.png,,,51,,,1,,object_13c.png,object_01a.png,object_06a.png,object_06a.png,,0.42857142857142855,1,,,,,,,,,,,
3429,,directmemory_phase4,925410,,,,object_06c.png,,,50,,,1,,object_11a.png,object_08c.png,object_08a.png,object_08c.png,,0.43859649122807015,1,,,,,,,,,,,
1852.1000000089407,,directmemory_phase4,927265,,,,object_15b.png,,,49,,,0,,object_11a.png,object_06a.png,object_07b.png,object_07b.png,,0.43103448275862066,0,,,,,,,,,,,
3499.7999999970198,,directmemory_phase4,930768,,,,object_05b.png,,,51,,,0,,object_07c.png,object_01a.png,object_15c.png,object_07c.png,,0.423728813559322,0,,,,,,,,,,,
3583.5,,directmemory_phase4,934353,,,,object_09b.png,,,51,,,0,,object_10a.png,object_06b.png,object_01a.png,object_10a.png,,0.4166666666666667,0,,,,,,,,,,,
null,,thebreak,934468,,,,<p></p>,,,null,,,,,,,,,,,,,,,,,,,,,,
1146,,intro_0,935616,,,,instruct,,,32,,,,,,,,,,,,,,,,,,,,,,
null,,learn_phase(without_color)5,939118,,,,black_plus_sign,,,null,object_10b.png,object_15c.png,,,,,,,,,,,,,,,,,,,,
null,,black_cross(without_color)5,939697,,,,blue,,,null,object_10b.png,object_15c.png,,,,,,,,,,,,,,,,,,,,
null,,rt_plussign_withcolor5,940200,,,,blue,,,null,object_10b.png,object_15c.png,,,,,,,,,,,,,,,,,,,,
738.7000000029802,,rt_thecrossant_black5,941628,,,,black_plus_sign,,,49,,,1,,,,,,,1,,,,,,,,,,,,
null,,color_black5,941730,,,,black_plus_sign,,,null,,,,,,,,,,,,,,,,,,,,,,
null,,learn_phase(without_color)5,945233,,,,black_plus_sign,,,null,object_06a.png,object_11a.png,,,,,,,,,,,,,,,,,,,,
null,,black_cross(without_color)5,946256,,,,blue,,,null,object_06a.png,object_11a.png,,,,,,,,,,,,,,,,,,,,
null,,rt_plussign_withcolor5,946759,,,,blue,,,null,object_06a.png,object_11a.png,,,,,,,,,,,,,,,,,,,,
821,,rt_thecrossant_black5,947749,,,,black_plus_sign,,,49,,,1,,,,,,,1,,,,,,,,,,,,
null,,color_black5,947852,,,,black_plus_sign,,,null,,,,,,,,,,,,,,,,,,,,,,
null,,learn_phase(without_color)5,951356,,,,black_plus_sign,,,null,object_06c.png,object_08c.png,,,,,,,,,,,,,,,,,,,,
null,,black_cross(without_color)5,952378,,,,green,,,null,object_06c.png,object_08c.png,,,,,,,,,,,,,,,,,,,,
null,,rt_plussign_withcolor5,952882,,,,green,,,null,object_06c.png,object_08c.png,,,,,,,,,,,,,,,,,,,,
1389.4000000059605,,rt_thecrossant_black5,953865,,,,black_plus_sign,,,50,,,1,,,,,,,1,,,,,,,,,,,,
null,,color_black5,953969,,,,black_plus_sign,,,null,,,,,,,,,,,,,,,,,,,,,,
null,,learn_phase(without_color)5,957473,,,,black_plus_sign,,,null,object_11c.png,object_12a.png,,,,,,,,,,,,,,,,,,,,
null,,black_cross(without_color)5,958000,,,,blue,,,null,object_11c.png,object_12a.png,,,,,,,,,,,,,,,,,,,,
null,,rt_plussign_withcolor5,958503,,,,blue,,,null,object_11c.png,object_12a.png,,,,,,,,,,,,,,,,,,,,
1688.9000000059605,,rt_thecrossant_black5,959981,,,,black_plus_sign,,,49,,,1,,,,,,,1,,,,,,,,,,,,
null,,color_black5,960085,,,,black_plus_sign,,,null,,,,,,,,,,,,,,,,,,,,,,
null,,learn_phase(without_color)5,963589,,,,black_plus_sign,,,null,object_15b.png,object_07b.png,,,,,,,,,,,,,,,,,,,,
null,,black_cross(without_color)5,964462,,,,green,,,null,object_15b.png,object_07b.png,,,,,,,,,,,,,,,,,,,,
474.5,,rt_plussign_withcolor5,964965,,,,green,,,50,object_15b.png,object_07b.png,,,,,,,,,,,,,,,,,,,,
null,,rt_thecrossant_black5,966097,,,,black_plus_sign,,,null,,,1,,,,,,,1,,,,,,,,,,,,
null,,color_black5,966200,,,,black_plus_sign,,,null,,,,,,,,,,,,,,,,,,,,,,
null,,learn_phase(without_color)5,969703,,,,black_plus_sign,,,null,object_03c.png,object_02c.png,,,,,,,,,,,,,,,,,,,,
null,,black_cross(without_color)5,970331,,,,green,,,null,object_03c.png,object_02c.png,,,,,,,,,,,,,,,,,,,,
null,,rt_plussign_withcolor5,970833,,,,green,,,null,object_03c.png,object_02c.png,,,,,,,,,,,,,,,,,,,,
1280.8999999910593,,rt_thecrossant_black5,972212,,,,black_plus_sign,,,50,,,1,,,,,,,1,,,,,,,,,,,,
null,,color_black5,972314,,,,black_plus_sign,,,null,,,,,,,,,,,,,,,,,,,,,,
null,,learn_phase(without_color)5,975818,,,,black_plus_sign,,,null,object_10a.png,object_09b.png,,,,,,,,,,,,,,,,,,,,
null,,black_cross(without_color)5,976434,,,,blue,,,null,object_10a.png,object_09b.png,,,,,,,,,,,,,,,,,,,,
null,,rt_plussign_withcolor5,976936,,,,blue,,,null,object_10a.png,object_09b.png,,,,,,,,,,,,,,,,,,,,
852.2000000029802,,rt_thecrossant_black5,978325,,,,black_plus_sign,,,49,,,1,,,,,,,1,,,,,,,,,,,,
null,,color_black5,978427,,,,black_plus_sign,,,null,,,,,,,,,,,,,,,,,,,,,,
null,,learn_phase(without_color)5,981931,,,,black_plus_sign,,,null,object_04c.png,object_02b.png,,,,,,,,,,,,,,,,,,,,
null,,black_cross(without_color)5,982451,,,,green,,,null,object_04c.png,object_02b.png,,,,,,,,,,,,,,,,,,,,
null,,rt_plussign_withcolor5,982954,,,,green,,,null,object_04c.png,object_02b.png,,,,,,,,,,,,,,,,,,,,
783.5,,rt_thecrossant_black5,984438,,,,black_plus_sign,,,50,,,1,,,,,,,1,,,,,,,,,,,,
null,,color_black5,984541,,,,black_plus_sign,,,null,,,,,,,,,,,,,,,,,,,,,,
null,,learn_phase(without_color)5,988044,,,,black_plus_sign,,,null,object_05c.png,object_06b.png,,,,,,,,,,,,,,,,,,,,
null,,black_cross(without_color)5,988877,,,,blue,,,null,object_05c.png,object_06b.png,,,,,,,,,,,,,,,,,,,,
482.8999999910593,,rt_plussign_withcolor5,989379,,,,blue,,,49,object_05c.png,object_06b.png,,,,,,,,,,,,,,,,,,,,
null,,rt_thecrossant_black5,990552,,,,black_plus_sign,,,null,,,1,,,,,,,1,,,,,,,,,,,,
null,,color_black5,990654,,,,black_plus_sign,,,null,,,,,,,,,,,,,,,,,,,,,,
null,,learn_phase(without_color)5,994158,,,,black_plus_sign,,,null,object_03b.png,object_01a.png,,,,,,,,,,,,,,,,,,,,
null,,black_cross(without_color)5,995159,,,,green,,,null,object_03b.png,object_01a.png,,,,,,,,,,,,,,,,,,,,
null,,rt_plussign_withcolor5,995661,,,,green,,,null,object_03b.png,object_01a.png,,,,,,,,,,,,,,,,,,,,
1003.7999999970198,,rt_thecrossant_black5,996665,,,,black_plus_sign,,,50,,,1,,,,,,,1,,,,,,,,,,,,
null,,color_black5,996768,,,,black_plus_sign,,,null,,,,,,,,,,,,,,,,,,,,,,
null,,learn_phase(without_color)5,1000272,,,,black_plus_sign,,,null,object_04a.png,object_09a.png,,,,,,,,,,,,,,,,,,,,
null,,black_cross(without_color)5,1000810,,,,green,,,null,object_04a.png,object_09a.png,,,,,,,,,,,,,,,,,,,,
null,,rt_plussign_withcolor5,1001312,,,,green,,,null,object_04a.png,object_09a.png,,,,,,,,,,,,,,,,,,,,
1353.4000000059605,,rt_thecrossant_black5,1002789,,,,black_plus_sign,,,50,,,1,,,,,,,1,,,,,,,,,,,,
null,,color_black5,1002892,,,,black_plus_sign,,,null,,,,,,,,,,,,,,,,,,,,,,
null,,learn_phase(without_color)5,1006396,,,,black_plus_sign,,,null,object_13a.png,object_08a.png,,,,,,,,,,,,,,,,,,,,
null,,black_cross(without_color)5,1007101,,,,green,,,null,object_13a.png,object_08a.png,,,,,,,,,,,,,,,,,,,,
427.40000000596046,,rt_plussign_withcolor5,1007603,,,,green,,,50,object_13a.png,object_08a.png,,,,,,,,,,,,,,,,,,,,
null,,rt_thecrossant_black5,1008903,,,,black_plus_sign,,,null,,,1,,,,,,,1,,,,,,,,,,,,
null,,color_black5,1009006,,,,black_plus_sign,,,null,,,,,,,,,,,,,,,,,,,,,,
null,,learn_phase(without_color)5,1012511,,,,black_plus_sign,,,null,object_13c.png,object_09c.png,,,,,,,,,,,,,,,,,,,,
null,,black_cross(without_color)5,1013092,,,,blue,,,null,object_13c.png,object_09c.png,,,,,,,,,,,,,,,,,,,,
443.59999999403954,,rt_plussign_withcolor5,1013595,,,,blue,,,49,object_13c.png,object_09c.png,,,,,,,,,,,,,,,,,,,,
null,,rt_thecrossant_black5,1015020,,,,black_plus_sign,,,null,,,1,,,,,,,1,,,,,,,,,,,,
null,,color_black5,1015124,,,,black_plus_sign,,,null,,,,,,,,,,,,,,,,,,,,,,
null,,learn_phase(without_color)5,1018629,,,,black_plus_sign,,,null,object_05b.png,object_07c.png,,,,,,,,,,,,,,,,,,,,
null,,black_cross(without_color)5,1019322,,,,green,,,null,object_05b.png,object_07c.png,,,,,,,,,,,,,,,,,,,,
null,,rt_plussign_withcolor5,1019823,,,,green,,,null,object_05b.png,object_07c.png,,,,,,,,,,,,,,,,,,,,
823.5,,rt_thecrossant_black5,1021134,,,,black_plus_sign,,,50,,,1,,,,,,,1,,,,,,,,,,,,
null,,color_black5,1021237,,,,black_plus_sign,,,null,,,,,,,,,,,,,,,,,,,,,,
null,,learn_phase(without_color)5,1024741,,,,black_plus_sign,,,null,object_12b.png,object_12c.png,,,,,,,,,,,,,,,,,,,,
null,,black_cross(without_color)5,1025762,,,,blue,,,null,object_12b.png,object_12c.png,,,,,,,,,,,,,,,,,,,,
null,,rt_plussign_withcolor5,1026265,,,,blue,,,null,object_12b.png,object_12c.png,,,,,,,,,,,,,,,,,,,,
1125,,rt_thecrossant_black5,1027254,,,,black_plus_sign,,,49,,,1,,,,,,,1,,,,,,,,,,,,
null,,color_black5,1027358,,,,black_plus_sign,,,null,,,,,,,,,,,,,,,,,,,,,,
null,,thebreak,1027461,,,,<p></p>,,,null,,,,,,,,,,,,,,,,,,,,,,
857,,intro_0,1028320,,,,instruct,,,32,,,,,,,,,,,,,,,,,,,,,,
3248.5,,directmemory_phase5,1031569,,,,object_08b.png,,,50,,,0,,object_05c.png,object_03a.png,object_09b.png,object_09b.png,,0.4098360655737705,0,,,,,,,,,,,
2372.2000000029802,,directmemory_phase5,1033945,,,,object_01c.png,,,50,,,1,,object_10c.png,object_07c.png,object_10b.png,object_07c.png,,0.41935483870967744,1,,,,,,,,,,,
4643.100000008941,,directmemory_phase5,1038591,,,,object_03a.png,,,49,,,1,,object_04c.png,object_11a.png,object_01c.png,object_04c.png,,0.42857142857142855,1,,,,,,,,,,,
1792,,directmemory_phase5,1040385,,,,object_14a.png,,,51,,,1,,object_11a.png,object_14c.png,object_04a.png,object_04a.png,,0.4375,1,,,,,,,,,,,
6516.70000000298,,directmemory_phase5,1046905,,,,object_13b.png,,,50,,,1,,object_15a.png,object_13a.png,object_01a.png,object_13a.png,,0.4461538461538462,1,,,,,,,,,,,
2155.8999999910593,,directmemory_phase5,1049065,,,,object_07a.png,,,50,,,0,,object_03c.png,object_14b.png,object_12c.png,object_12c.png,,0.4393939393939394,0,,,,,,,,,,,
3028.5,,directmemory_phase5,1052097,,,,object_10c.png,,,49,,,0,,object_07b.png,object_14a.png,object_10b.png,object_10b.png,,0.43283582089552236,0,,,,,,,,,,,
2076.7000000029802,,directmemory_phase5,1054177,,,,object_15a.png,,,51,,,1,,object_01a.png,object_02a.png,object_12a.png,object_12a.png,,0.4411764705882353,1,,,,,,,,,,,
3532.199999988079,,directmemory_phase5,1057713,,,,object_02a.png,,,51,,,1,,object_01a.png,object_15a.png,object_03c.png,object_03c.png,,0.4492753623188406,1,,,,,,,,,,,
2164.0999999940395,,directmemory_phase5,1059881,,,,object_04b.png,,,49,,,1,,object_06c.png,object_10b.png,object_14b.png,object_06c.png,,0.45714285714285713,1,,,,,,,,,,,
2412.3999999910593,,directmemory_phase5,1062297,,,,object_14b.png,,,49,,,0,,object_04c.png,object_15a.png,object_09c.png,object_09c.png,,0.4507042253521127,0,,,,,,,,,,,
2051.4000000059605,,directmemory_phase5,1064351,,,,object_11b.png,,,49,,,1,,object_11a.png,object_03c.png,object_04b.png,object_11a.png,,0.4583333333333333,1,,,,,,,,,,,
2240.0999999940395,,directmemory_phase5,1066593,,,,object_01b.png,,,49,,,1,,object_01a.png,object_12a.png,object_14b.png,object_01a.png,,0.4657534246575342,1,,,,,,,,,,,
3012.8999999910593,,directmemory_phase5,1069609,,,,object_05a.png,,,49,,,0,,object_14c.png,object_05c.png,object_12a.png,object_05c.png,,0.4594594594594595,0,,,,,,,,,,,
2907.9000000059605,,directmemory_phase5,1072521,,,,object_14c.png,,,51,,,0,,object_07b.png,object_07c.png,object_11b.png,object_07b.png,,0.4533333333333333,0,,,,,,,,,,,
null,,thebreak,1072633,,,,<p></p>,,,null,,,,,,,,,,,,,,,,,,,,,,
1061.8999999910593,,intro_0,1073697,,,,instruct,,,32,,,,,,,,,,,,,,,,,,,,,,
null,,learn_phase(without_color)6,1077199,,,,black_plus_sign,,,null,object_12c.png,object_12b.png,,,,,,,,,,,,,,,,,,,,
null,,black_cross(without_color)6,1078102,,,,blue,,,null,object_12c.png,object_12b.png,,,,,,,,,,,,,,,,,,,,
null,,rt_plussign_withcolor6,1078605,,,,blue,,,null,object_12c.png,object_12b.png,,,,,,,,,,,,,,,,,,,,
1258.7000000029802,,rt_thecrossant_black6,1079707,,,,black_plus_sign,,,49,,,1,,,,,,,1,,,,,,,,,,,,
null,,color_black6,1079810,,,,black_plus_sign,,,null,,,,,,,,,,,,,,,,,,,,,,
null,,learn_phase(without_color)6,1083312,,,,black_plus_sign,,,null,object_06a.png,object_11a.png,,,,,,,,,,,,,,,,,,,,
null,,black_cross(without_color)6,1084146,,,,blue,,,null,object_06a.png,object_11a.png,,,,,,,,,,,,,,,,,,,,
null,,rt_plussign_withcolor6,1084649,,,,blue,,,null,object_06a.png,object_11a.png,,,,,,,,,,,,,,,,,,,,
1375.2999999970198,,rt_thecrossant_black6,1085820,,,,black_plus_sign,,,49,,,1,,,,,,,1,,,,,,,,,,,,
null,,color_black6,1085924,,,,black_plus_sign,,,null,,,,,,,,,,,,,,,,,,,,,,
null,,learn_phase(without_color)6,1089428,,,,black_plus_sign,,,null,object_03b.png,object_01a.png,,,,,,,,,,,,,,,,,,,,
null,,black_cross(without_color)6,1090371,,,,green,,,null,object_03b.png,object_01a.png,,,,,,,,,,,,,,,,,,,,
428.70000000298023,,rt_plussign_withcolor6,1090873,,,,green,,,50,object_03b.png,object_01a.png,,,,,,,,,,,,,,,,,,,,
null,,rt_thecrossant_black6,1091938,,,,black_plus_sign,,,null,,,1,,,,,,,1,,,,,,,,,,,,
null,,color_black6,1092040,,,,black_plus_sign,,,null,,,,,,,,,,,,,,,,,,,,,,
null,,learn_phase(without_color)6,1095545,,,,black_plus_sign,,,null,object_15c.png,object_10b.png,,,,,,,,,,,,,,,,,,,,
null,,black_cross(without_color)6,1096570,,,,blue,,,null,object_15c.png,object_10b.png,,,,,,,,,,,,,,,,,,,,
null,,rt_plussign_withcolor6,1097071,,,,blue,,,null,object_15c.png,object_10b.png,,,,,,,,,,,,,,,,,,,,
1094.0999999940395,,rt_thecrossant_black6,1098051,,,,black_plus_sign,,,49,,,1,,,,,,,1,,,,,,,,,,,,
null,,color_black6,1098153,,,,black_plus_sign,,,null,,,,,,,,,,,,,,,,,,,,,,
null,,learn_phase(without_color)6,1101656,,,,black_plus_sign,,,null,object_09a.png,object_04a.png,,,,,,,,,,,,,,,,,,,,
null,,black_cross(without_color)6,1102243,,,,blue,,,null,object_09a.png,object_04a.png,,,,,,,,,,,,,,,,,,,,
null,,rt_plussign_withcolor6,1102745,,,,blue,,,null,object_09a.png,object_04a.png,,,,,,,,,,,,,,,,,,,,
1136.2000000029802,,rt_thecrossant_black6,1104164,,,,black_plus_sign,,,49,,,1,,,,,,,1,,,,,,,,,,,,
null,,color_black6,1104267,,,,black_plus_sign,,,null,,,,,,,,,,,,,,,,,,,,,,
null,,learn_phase(without_color)6,1107771,,,,black_plus_sign,,,null,object_08c.png,object_06c.png,,,,,,,,,,,,,,,,,,,,
null,,black_cross(without_color)6,1108259,,,,green,,,null,object_08c.png,object_06c.png,,,,,,,,,,,,,,,,,,,,
null,,rt_plussign_withcolor6,1108761,,,,green,,,null,object_08c.png,object_06c.png,,,,,,,,,,,,,,,,,,,,
1193.4000000059605,,rt_thecrossant_black6,1110279,,,,black_plus_sign,,,50,,,1,,,,,,,1,,,,,,,,,,,,
null,,color_black6,1110382,,,,black_plus_sign,,,null,,,,,,,,,,,,,,,,,,,,,,
null,,learn_phase(without_color)6,1113887,,,,black_plus_sign,,,null,object_07c.png,object_05b.png,,,,,,,,,,,,,,,,,,,,
null,,black_cross(without_color)6,1114883,,,,blue,,,null,object_07c.png,object_05b.png,,,,,,,,,,,,,,,,,,,,
null,,rt_plussign_withcolor6,1115386,,,,blue,,,null,object_07c.png,object_05b.png,,,,,,,,,,,,,,,,,,,,
716.9000000059605,,rt_thecrossant_black6,1116396,,,,black_plus_sign,,,49,,,1,,,,,,,1,,,,,,,,,,,,
null,,color_black6,1116500,,,,black_plus_sign,,,null,,,,,,,,,,,,,,,,,,,,,,
null,,learn_phase(without_color)6,1120004,,,,black_plus_sign,,,null,object_07b.png,object_15b.png,,,,,,,,,,,,,,,,,,,,
null,,black_cross(without_color)6,1120619,,,,green,,,null,object_07b.png,object_15b.png,,,,,,,,,,,,,,,,,,,,
null,,rt_plussign_withcolor6,1121121,,,,green,,,null,object_07b.png,object_15b.png,,,,,,,,,,,,,,,,,,,,
1106.5,,rt_thecrossant_black6,1122512,,,,black_plus_sign,,,50,,,1,,,,,,,1,,,,,,,,,,,,
null,,color_black6,1122621,,,,black_plus_sign,,,null,,,,,,,,,,,,,,,,,,,,,,
null,,learn_phase(without_color)6,1126126,,,,black_plus_sign,,,null,object_09c.png,object_13c.png,,,,,,,,,,,,,,,,,,,,
null,,black_cross(without_color)6,1127049,,,,green,,,null,object_09c.png,object_13c.png,,,,,,,,,,,,,,,,,,,,
493.40000000596046,,rt_plussign_withcolor6,1127551,,,,green,,,50,object_09c.png,object_13c.png,,,,,,,,,,,,,,,,,,,,
null,,rt_thecrossant_black6,1128633,,,,black_plus_sign,,,null,,,1,,,,,,,1,,,,,,,,,,,,
null,,color_black6,1128737,,,,black_plus_sign,,,null,,,,,,,,,,,,,,,,,,,,,,
null,,learn_phase(without_color)6,1132240,,,,black_plus_sign,,,null,object_03c.png,object_02c.png,,,,,,,,,,,,,,,,,,,,
null,,black_cross(without_color)6,1132977,,,,green,,,null,object_03c.png,object_02c.png,,,,,,,,,,,,,,,,,,,,
486,,rt_plussign_withcolor6,1133479,,,,green,,,50,object_03c.png,object_02c.png,,,,,,,,,,,,,,,,,,,,
null,,rt_thecrossant_black6,1134748,,,,black_plus_sign,,,null,,,1,,,,,,,1,,,,,,,,,,,,
null,,color_black6,1134850,,,,black_plus_sign,,,null,,,,,,,,,,,,,,,,,,,,,,
null,,learn_phase(without_color)6,1138353,,,,black_plus_sign,,,null,object_12a.png,object_11c.png,,,,,,,,,,,,,,,,,,,,
null,,black_cross(without_color)6,1139111,,,,blue,,,null,object_12a.png,object_11c.png,,,,,,,,,,,,,,,,,,,,
null,,rt_plussign_withcolor6,1139619,,,,blue,,,null,object_12a.png,object_11c.png,,,,,,,,,,,,,,,,,,,,
965.7999999970198,,rt_thecrossant_black6,1140867,,,,black_plus_sign,,,49,,,1,,,,,,,1,,,,,,,,,,,,
null,,color_black6,1140969,,,,black_plus_sign,,,null,,,,,,,,,,,,,,,,,,,,,,
null,,learn_phase(without_color)6,1144474,,,,black_plus_sign,,,null,object_13a.png,object_08a.png,,,,,,,,,,,,,,,,,,,,
null,,black_cross(without_color)6,1145442,,,,blue,,,null,object_13a.png,object_08a.png,,,,,,,,,,,,,,,,,,,,
null,,rt_plussign_withcolor6,1145944,,,,blue,,,null,object_13a.png,object_08a.png,,,,,,,,,,,,,,,,,,,,
861.2999999970198,,rt_thecrossant_black6,1146982,,,,black_plus_sign,,,49,,,1,,,,,,,1,,,,,,,,,,,,
null,,color_black6,1147085,,,,black_plus_sign,,,null,,,,,,,,,,,,,,,,,,,,,,
null,,learn_phase(without_color)6,1150588,,,,black_plus_sign,,,null,object_05c.png,object_06b.png,,,,,,,,,,,,,,,,,,,,
null,,black_cross(without_color)6,1151557,,,,blue,,,null,object_05c.png,object_06b.png,,,,,,,,,,,,,,,,,,,,
null,,rt_plussign_withcolor6,1152058,,,,blue,,,null,object_05c.png,object_06b.png,,,,,,,,,,,,,,,,,,,,
1238.2000000029802,,rt_thecrossant_black6,1153094,,,,black_plus_sign,,,49,,,1,,,,,,,1,,,,,,,,,,,,
null,,color_black6,1153197,,,,black_plus_sign,,,null,,,,,,,,,,,,,,,,,,,,,,
null,,learn_phase(without_color)6,1156700,,,,black_plus_sign,,,null,object_09b.png,object_10a.png,,,,,,,,,,,,,,,,,,,,
null,,black_cross(without_color)6,1157120,,,,blue,,,null,object_09b.png,object_10a.png,,,,,,,,,,,,,,,,,,,,
486.5,,rt_plussign_withcolor6,1157622,,,,blue,,,49,object_09b.png,object_10a.png,,,,,,,,,,,,,,,,,,,,
null,,rt_thecrossant_black6,1159209,,,,black_plus_sign,,,null,,,1,,,,,,,1,,,,,,,,,,,,
null,,color_black6,1159313,,,,black_plus_sign,,,null,,,,,,,,,,,,,,,,,,,,,,
null,,learn_phase(without_color)6,1162817,,,,black_plus_sign,,,null,object_02b.png,object_04c.png,,,,,,,,,,,,,,,,,,,,
null,,black_cross(without_color)6,1163457,,,,green,,,null,object_02b.png,object_04c.png,,,,,,,,,,,,,,,,,,,,
437.20000000298023,,rt_plussign_withcolor6,1163960,,,,green,,,50,object_02b.png,object_04c.png,,,,,,,,,,,,,,,,,,,,
null,,rt_thecrossant_black6,1165322,,,,black_plus_sign,,,null,,,1,,,,,,,1,,,,,,,,,,,,
null,,color_black6,1165437,,,,black_plus_sign,,,null,,,,,,,,,,,,,,,,,,,,,,
null,,thebreak,1165541,,,,<p></p>,,,null,,,,,,,,,,,,,,,,,,,,,,
729.2000000029802,,intro_0,1166272,,,,instruct,,,32,,,,,,,,,,,,,,,,,,,,,,
6510.0999999940395,,directmemory_phase6,1172784,,,,object_09b.png,,,50,,,0,,object_10a.png,object_12b.png,object_12c.png,object_10a.png,,0.4473684210526316,0,,,,,,,,,,,
3427.0999999940395,,directmemory_phase6,1176215,,,,object_15c.png,,,51,,,0,,object_10b.png,object_07b.png,object_09a.png,object_10b.png,,0.44155844155844154,0,,,,,,,,,,,
5246.899999991059,,directmemory_phase6,1181464,,,,object_15b.png,,,51,,,1,,object_10b.png,object_08c.png,object_07b.png,object_07b.png,,0.44871794871794873,1,,,,,,,,,,,
2461,,directmemory_phase6,1183929,,,,object_13a.png,,,49,,,0,,object_01a.png,object_08a.png,object_15b.png,object_08a.png,,0.4430379746835443,0,,,,,,,,,,,
1963.1000000089407,,directmemory_phase6,1185895,,,,object_03c.png,,,49,,,1,,object_02c.png,object_06a.png,object_04a.png,object_02c.png,,0.45,1,,,,,,,,,,,
8630.70000000298,,directmemory_phase6,1194529,,,,object_09a.png,,,49,,,1,,object_04a.png,object_09c.png,object_08a.png,object_04a.png,,0.4567901234567901,1,,,,,,,,,,,
2658.9000000059605,,directmemory_phase6,1197191,,,,object_05c.png,,,51,,,1,,object_02b.png,object_04a.png,object_06b.png,object_06b.png,,0.4634146341463415,1,,,,,,,,,,,
4333.79999999702,,directmemory_phase6,1201527,,,,object_08c.png,,,51,,,1,,object_07b.png,object_02b.png,object_06c.png,object_06c.png,,0.46987951807228917,1,,,,,,,,,,,
4288.29999999702,,directmemory_phase6,1205817,,,,object_05b.png,,,51,,,1,,object_05c.png,object_02b.png,object_07c.png,object_07c.png,,0.47619047619047616,1,,,,,,,,,,,
2307.8999999910593,,directmemory_phase6,1208128,,,,object_11a.png,,,49,,,0,,object_09a.png,object_05c.png,object_06a.png,object_06a.png,,0.47058823529411764,0,,,,,,,,,,,
2860.2999999970198,,directmemory_phase6,1210992,,,,object_01a.png,,,51,,,1,,object_02b.png,object_12c.png,object_03b.png,object_03b.png,,0.47674418604651164,1,,,,,,,,,,,
4476.4000000059605,,directmemory_phase6,1215472,,,,object_12b.png,,,49,,,1,,object_12c.png,object_05c.png,object_02b.png,object_12c.png,,0.4827586206896552,1,,,,,,,,,,,
2620.2000000029802,,directmemory_phase6,1218096,,,,object_04c.png,,,51,,,1,,object_12b.png,object_07b.png,object_02b.png,object_02b.png,,0.48863636363636365,1,,,,,,,,,,,
2220.0999999940395,,directmemory_phase6,1220320,,,,object_11c.png,,,51,,,1,,object_07b.png,object_02c.png,object_12a.png,object_12a.png,,0.4943820224719101,1,,,,,,,,,,,
2948.2000000029802,,directmemory_phase6,1223272,,,,object_09c.png,,,51,,,1,,object_02c.png,object_06c.png,object_13c.png,object_13c.png,,0.5,1,,,,,,,,,,,
null,,thebreak,1223377,,,,<p></p>,,,null,,,,,,,,,,,,,,,,,,,,,,
1044.3999999910593,,intro_0,1224424,,,,instruct,,,32,,,,,,,,,,,,,,,,,,,,,,
null,,learn_phase(without_color)7,1227927,,,,black_plus_sign,,,null,object_09c.png,object_13c.png,,,,,,,,,,,,,,,,,,,,
null,,black_cross(without_color)7,1228577,,,,green,,,null,object_09c.png,object_13c.png,,,,,,,,,,,,,,,,,,,,
null,,rt_plussign_withcolor7,1229087,,,,green,,,null,object_09c.png,object_13c.png,,,,,,,,,,,,,,,,,,,,
1192.699999988079,,rt_thecrossant_black7,1230444,,,,black_plus_sign,,,50,,,1,,,,,,,1,,,,,,,,,,,,
null,,color_black7,1230548,,,,black_plus_sign,,,null,,,,,,,,,,,,,,,,,,,,,,
null,,learn_phase(without_color)7,1234052,,,,black_plus_sign,,,null,object_01a.png,object_03b.png,,,,,,,,,,,,,,,,,,,,
null,,black_cross(without_color)7,1235094,,,,green,,,null,object_01a.png,object_03b.png,,,,,,,,,,,,,,,,,,,,
464.09999999403954,,rt_plussign_withcolor7,1235596,,,,green,,,50,object_01a.png,object_03b.png,,,,,,,,,,,,,,,,,,,,
null,,rt_thecrossant_black7,1236561,,,,black_plus_sign,,,null,,,1,,,,,,,1,,,,,,,,,,,,
null,,color_black7,1236671,,,,black_plus_sign,,,null,,,,,,,,,,,,,,,,,,,,,,
null,,learn_phase(without_color)7,1240176,,,,black_plus_sign,,,null,object_07c.png,object_05b.png,,,,,,,,,,,,,,,,,,,,
null,,black_cross(without_color)7,1241070,,,,green,,,null,object_07c.png,object_05b.png,,,,,,,,,,,,,,,,,,,,
null,,rt_plussign_withcolor7,1241573,,,,green,,,null,object_07c.png,object_05b.png,,,,,,,,,,,,,,,,,,,,
1340,,rt_thecrossant_black7,1242684,,,,black_plus_sign,,,50,,,1,,,,,,,1,,,,,,,,,,,,
null,,color_black7,1242787,,,,black_plus_sign,,,null,,,,,,,,,,,,,,,,,,,,,,
null,,learn_phase(without_color)7,1246291,,,,black_plus_sign,,,null,object_09a.png,object_04a.png,,,,,,,,,,,,,,,,,,,,
null,,black_cross(without_color)7,1247087,,,,green,,,null,object_09a.png,object_04a.png,,,,,,,,,,,,,,,,,,,,
494.90000000596046,,rt_plussign_withcolor7,1247590,,,,green,,,50,object_09a.png,object_04a.png,,,,,,,,,,,,,,,,,,,,
null,,rt_thecrossant_black7,1248800,,,,black_plus_sign,,,null,,,1,,,,,,,1,,,,,,,,,,,,
null,,color_black7,1248903,,,,black_plus_sign,,,null,,,,,,,,,,,,,,,,,,,,,,
null,,learn_phase(without_color)7,1252407,,,,black_plus_sign,,,null,object_12c.png,object_12b.png,,,,,,,,,,,,,,,,,,,,
null,,black_cross(without_color)7,1253202,,,,green,,,null,object_12c.png,object_12b.png,,,,,,,,,,,,,,,,,,,,
null,,rt_plussign_withcolor7,1253705,,,,green,,,null,object_12c.png,object_12b.png,,,,,,,,,,,,,,,,,,,,
1009.5,,rt_thecrossant_black7,1254917,,,,black_plus_sign,,,50,,,1,,,,,,,1,,,,,,,,,,,,
null,,color_black7,1255020,,,,black_plus_sign,,,null,,,,,,,,,,,,,,,,,,,,,,
null,,learn_phase(without_color)7,1258524,,,,black_plus_sign,,,null,object_06a.png,object_11a.png,,,,,,,,,,,,,,,,,,,,
null,,black_cross(without_color)7,1259099,,,,blue,,,null,object_06a.png,object_11a.png,,,,,,,,,,,,,,,,,,,,
null,,rt_plussign_withcolor7,1259601,,,,blue,,,null,object_06a.png,object_11a.png,,,,,,,,,,,,,,,,,,,,
1119.7000000029802,,rt_thecrossant_black7,1261030,,,,black_plus_sign,,,49,,,1,,,,,,,1,,,,,,,,,,,,
null,,color_black7,1261132,,,,black_plus_sign,,,null,,,,,,,,,,,,,,,,,,,,,,
null,,learn_phase(without_color)7,1264635,,,,black_plus_sign,,,null,object_15b.png,object_07b.png,,,,,,,,,,,,,,,,,,,,
null,,black_cross(without_color)7,1265082,,,,green,,,null,object_15b.png,object_07b.png,,,,,,,,,,,,,,,,,,,,
459.09999999403954,,rt_plussign_withcolor7,1265584,,,,green,,,50,object_15b.png,object_07b.png,,,,,,,,,,,,,,,,,,,,
null,,rt_thecrossant_black7,1267142,,,,black_plus_sign,,,null,,,1,,,,,,,1,,,,,,,,,,,,
null,,color_black7,1267246,,,,black_plus_sign,,,null,,,,,,,,,,,,,,,,,,,,,,
null,,learn_phase(without_color)7,1270751,,,,black_plus_sign,,,null,object_13a.png,object_08a.png,,,,,,,,,,,,,,,,,,,,
null,,black_cross(without_color)7,1271556,,,,green,,,null,object_13a.png,object_08a.png,,,,,,,,,,,,,,,,,,,,
417.8999999910593,,rt_plussign_withcolor7,1272059,,,,green,,,50,object_13a.png,object_08a.png,,,,,,,,,,,,,,,,,,,,
null,,rt_thecrossant_black7,1273260,,,,black_plus_sign,,,null,,,1,,,,,,,1,,,,,,,,,,,,
null,,color_black7,1273361,,,,black_plus_sign,,,null,,,,,,,,,,,,,,,,,,,,,,
null,,learn_phase(without_color)7,1276865,,,,black_plus_sign,,,null,object_11c.png,object_12a.png,,,,,,,,,,,,,,,,,,,,
null,,black_cross(without_color)7,1277881,,,,blue,,,null,object_11c.png,object_12a.png,,,,,,,,,,,,,,,,,,,,
null,,rt_plussign_withcolor7,1278384,,,,blue,,,null,object_11c.png,object_12a.png,,,,,,,,,,,,,,,,,,,,
1116.6000000089407,,rt_thecrossant_black7,1279374,,,,black_plus_sign,,,49,,,1,,,,,,,1,,,,,,,,,,,,
null,,color_black7,1279478,,,,black_plus_sign,,,null,,,,,,,,,,,,,,,,,,,,,,
null,,learn_phase(without_color)7,1282985,,,,black_plus_sign,,,null,object_10b.png,object_15c.png,,,,,,,,,,,,,,,,,,,,
null,,black_cross(without_color)7,1284001,,,,green,,,null,object_10b.png,object_15c.png,,,,,,,,,,,,,,,,,,,,
null,,rt_plussign_withcolor7,1284518,,,,green,,,null,object_10b.png,object_15c.png,,,,,,,,,,,,,,,,,,,,
1560.2999999970198,,rt_thecrossant_black7,1285509,,,,black_plus_sign,,,50,,,1,,,,,,,1,,,,,,,,,,,,
null,,color_black7,1285612,,,,black_plus_sign,,,null,,,,,,,,,,,,,,,,,,,,,,
null,,learn_phase(without_color)7,1289117,,,,black_plus_sign,,,null,object_05c.png,object_06b.png,,,,,,,,,,,,,,,,,,,,
null,,black_cross(without_color)7,1290006,,,,blue,,,null,object_05c.png,object_06b.png,,,,,,,,,,,,,,,,,,,,
null,,rt_plussign_withcolor7,1290511,,,,blue,,,null,object_05c.png,object_06b.png,,,,,,,,,,,,,,,,,,,,
1126.8999999910593,,rt_thecrossant_black7,1291628,,,,black_plus_sign,,,49,,,1,,,,,,,1,,,,,,,,,,,,
null,,color_black7,1291732,,,,black_plus_sign,,,null,,,,,,,,,,,,,,,,,,,,,,
null,,learn_phase(without_color)7,1295237,,,,black_plus_sign,,,null,object_10a.png,object_09b.png,,,,,,,,,,,,,,,,,,,,
null,,black_cross(without_color)7,1296265,,,,green,,,null,object_10a.png,object_09b.png,,,,,,,,,,,,,,,,,,,,
null,,rt_plussign_withcolor7,1296768,,,,green,,,null,object_10a.png,object_09b.png,,,,,,,,,,,,,,,,,,,,
1118.5999999940395,,rt_thecrossant_black7,1297744,,,,black_plus_sign,,,50,,,1,,,,,,,1,,,,,,,,,,,,
null,,color_black7,1297848,,,,black_plus_sign,,,null,,,,,,,,,,,,,,,,,,,,,,
null,,learn_phase(without_color)7,1301352,,,,black_plus_sign,,,null,object_08c.png,object_06c.png,,,,,,,,,,,,,,,,,,,,
null,,black_cross(without_color)7,1302133,,,,green,,,null,object_08c.png,object_06c.png,,,,,,,,,,,,,,,,,,,,
null,,rt_plussign_withcolor7,1302635,,,,green,,,null,object_08c.png,object_06c.png,,,,,,,,,,,,,,,,,,,,
1385.5999999940395,,rt_thecrossant_black7,1303861,,,,black_plus_sign,,,50,,,1,,,,,,,1,,,,,,,,,,,,
null,,color_black7,1303964,,,,black_plus_sign,,,null,,,,,,,,,,,,,,,,,,,,,,
null,,learn_phase(without_color)7,1307469,,,,black_plus_sign,,,null,object_04c.png,object_02b.png,,,,,,,,,,,,,,,,,,,,
null,,black_cross(without_color)7,1308096,,,,blue,,,null,object_04c.png,object_02b.png,,,,,,,,,,,,,,,,,,,,
462.09999999403954,,rt_plussign_withcolor7,1308598,,,,blue,,,49,object_04c.png,object_02b.png,,,,,,,,,,,,,,,,,,,,
null,,rt_thecrossant_black7,1309977,,,,black_plus_sign,,,null,,,1,,,,,,,1,,,,,,,,,,,,
null,,color_black7,1310080,,,,black_plus_sign,,,null,,,,,,,,,,,,,,,,,,,,,,
null,,learn_phase(without_color)7,1313585,,,,black_plus_sign,,,null,object_03c.png,object_02c.png,,,,,,,,,,,,,,,,,,,,
null,,black_cross(without_color)7,1314618,,,,blue,,,null,object_03c.png,object_02c.png,,,,,,,,,,,,,,,,,,,,
null,,rt_plussign_withcolor7,1315121,,,,blue,,,null,object_03c.png,object_02c.png,,,,,,,,,,,,,,,,,,,,
912,,rt_thecrossant_black7,1316095,,,,black_plus_sign,,,49,,,1,,,,,,,1,,,,,,,,,,,,
null,,color_black7,1316196,,,,black_plus_sign,,,null,,,,,,,,,,,,,,,,,,,,,,
null,,thebreak,1316299,,,,<p></p>,,,null,,,,,,,,,,,,,,,,,,,,,,
1122.2000000029802,,intro_0,1317424,,,,instruct,,,32,,,,,,,,,,,,,,,,,,,,,,
7397.600000008941,,directmemory_phase7,1324824,,,,object_03a.png,,,50,,,0,,object_09c.png,object_01b.png,object_04c.png,object_04c.png,,0.4945054945054945,0,,,,,,,,,,,
5268.0999999940395,,directmemory_phase7,1330096,,,,object_04b.png,,,49,,,0,,object_11a.png,object_14a.png,object_06c.png,object_06c.png,,0.4891304347826087,0,,,,,,,,,,,
1715.5,,directmemory_phase7,1331815,,,,object_10c.png,,,51,,,1,,object_03c.png,object_14c.png,object_10b.png,object_10b.png,,0.4946236559139785,1,,,,,,,,,,,
3276.2000000029802,,directmemory_phase7,1335096,,,,object_02a.png,,,50,,,1,,object_01c.png,object_03c.png,object_10b.png,object_03c.png,,0.5,1,,,,,,,,,,,
4202.70000000298,,directmemory_phase7,1339301,,,,object_01c.png,,,49,,,1,,object_07c.png,object_11a.png,object_11b.png,object_07c.png,,0.5052631578947369,1,,,,,,,,,,,
2312.5999999940395,,directmemory_phase7,1341616,,,,object_14c.png,,,50,,,1,,object_07a.png,object_07b.png,object_04c.png,object_07b.png,,0.5104166666666666,1,,,,,,,,,,,
6419.5,,directmemory_phase7,1348039,,,,object_11b.png,,,51,,,1,,object_12a.png,object_15a.png,object_11a.png,object_11a.png,,0.5154639175257731,1,,,,,,,,,,,
3037.6000000089407,,directmemory_phase7,1351079,,,,object_13b.png,,,49,,,0,,object_04c.png,object_11b.png,object_13a.png,object_13a.png,,0.5102040816326531,0,,,,,,,,,,,
2404.4000000059605,,directmemory_phase7,1353488,,,,object_08b.png,,,50,,,1,,object_13b.png,object_09b.png,object_06c.png,object_09b.png,,0.5151515151515151,1,,,,,,,,,,,
1723.699999988079,,directmemory_phase7,1355215,,,,object_14b.png,,,49,,,0,,object_10b.png,object_10c.png,object_09c.png,object_09c.png,,0.51,0,,,,,,,,,,,
5732.100000008941,,directmemory_phase7,1360951,,,,object_07a.png,,,50,,,0,,object_12c.png,object_03c.png,object_01b.png,object_12c.png,,0.504950495049505,0,,,,,,,,,,,
1883.8999999910593,,directmemory_phase7,1362839,,,,object_14a.png,,,51,,,1,,object_12c.png,object_01b.png,object_04a.png,object_04a.png,,0.5098039215686274,1,,,,,,,,,,,
2882.8999999910593,,directmemory_phase7,1365726,,,,object_15a.png,,,49,,,1,,object_12a.png,object_10b.png,object_07a.png,object_12a.png,,0.5145631067961165,1,,,,,,,,,,,
3672.300000011921,,directmemory_phase7,1369400,,,,object_05a.png,,,50,,,0,,object_12a.png,object_14b.png,object_05c.png,object_05c.png,,0.5096153846153846,0,,,,,,,,,,,
2451.5,,directmemory_phase7,1371855,,,,object_01b.png,,,51,,,0,,object_15a.png,object_01a.png,object_13a.png,object_01a.png,,0.5047619047619047,0,,,,,,,,,,,
null,,thebreak,1371959,,,,<p></p>,,,null,,,,,,,,,,,,,,,,,,,,,,
901.1999999880791,,intro_0,1372863,,,,instruct,,,32,,,,,,,,,,,,,,,,,,,,,,
null,,learn_phase(without_color)8,1376367,,,,black_plus_sign,,,null,object_08c.png,object_06c.png,,,,,,,,,,,,,,,,,,,,
null,,black_cross(without_color)8,1377198,,,,blue,,,null,object_08c.png,object_06c.png,,,,,,,,,,,,,,,,,,,,
null,,rt_plussign_withcolor8,1377701,,,,blue,,,null,object_08c.png,object_06c.png,,,,,,,,,,,,,,,,,,,,
1079.8999999910593,,rt_thecrossant_black8,1378876,,,,black_plus_sign,,,49,,,1,,,,,,,1,,,,,,,,,,,,
null,,color_black8,1378978,,,,black_plus_sign,,,null,,,,,,,,,,,,,,,,,,,,,,
null,,learn_phase(without_color)8,1382482,,,,black_plus_sign,,,null,object_05c.png,object_06b.png,,,,,,,,,,,,,,,,,,,,
null,,black_cross(without_color)8,1382986,,,,green,,,null,object_05c.png,object_06b.png,,,,,,,,,,,,,,,,,,,,
null,,rt_plussign_withcolor8,1383488,,,,green,,,null,object_05c.png,object_06b.png,,,,,,,,,,,,,,,,,,,,
1046,,rt_thecrossant_black8,1384990,,,,black_plus_sign,,,50,,,1,,,,,,,1,,,,,,,,,,,,
null,,color_black8,1385093,,,,black_plus_sign,,,null,,,,,,,,,,,,,,,,,,,,,,
null,,learn_phase(without_color)8,1388598,,,,black_plus_sign,,,null,object_02b.png,object_04c.png,,,,,,,,,,,,,,,,,,,,
null,,black_cross(without_color)8,1389133,,,,blue,,,null,object_02b.png,object_04c.png,,,,,,,,,,,,,,,,,,,,
null,,rt_plussign_withcolor8,1389636,,,,blue,,,null,object_02b.png,object_04c.png,,,,,,,,,,,,,,,,,,,,
658.2000000029802,,rt_thecrossant_black8,1391107,,,,black_plus_sign,,,49,,,1,,,,,,,1,,,,,,,,,,,,
null,,color_black8,1391210,,,,black_plus_sign,,,null,,,,,,,,,,,,,,,,,,,,,,
null,,learn_phase(without_color)8,1394715,,,,black_plus_sign,,,null,object_06a.png,object_11a.png,,,,,,,,,,,,,,,,,,,,
null,,black_cross(without_color)8,1395575,,,,green,,,null,object_06a.png,object_11a.png,,,,,,,,,,,,,,,,,,,,
null,,rt_plussign_withcolor8,1396077,,,,green,,,null,object_06a.png,object_11a.png,,,,,,,,,,,,,,,,,,,,
735.1999999880791,,rt_thecrossant_black8,1397224,,,,black_plus_sign,,,50,,,1,,,,,,,1,,,,,,,,,,,,
null,,color_black8,1397327,,,,black_plus_sign,,,null,,,,,,,,,,,,,,,,,,,,,,
null,,learn_phase(without_color)8,1400833,,,,black_plus_sign,,,null,object_09c.png,object_13c.png,,,,,,,,,,,,,,,,,,,,
null,,black_cross(without_color)8,1401897,,,,green,,,null,object_09c.png,object_13c.png,,,,,,,,,,,,,,,,,,,,
null,,rt_plussign_withcolor8,1402400,,,,green,,,null,object_09c.png,object_13c.png,,,,,,,,,,,,,,,,,,,,
969.4000000059605,,rt_thecrossant_black8,1403344,,,,black_plus_sign,,,50,,,1,,,,,,,1,,,,,,,,,,,,
null,,color_black8,1403446,,,,black_plus_sign,,,null,,,,,,,,,,,,,,,,,,,,,,
null,,learn_phase(without_color)8,1406950,,,,black_plus_sign,,,null,object_10b.png,object_15c.png,,,,,,,,,,,,,,,,,,,,
null,,black_cross(without_color)8,1407436,,,,green,,,null,object_10b.png,object_15c.png,,,,,,,,,,,,,,,,,,,,
496.79999999701977,,rt_plussign_withcolor8,1407940,,,,green,,,50,object_10b.png,object_15c.png,,,,,,,,,,,,,,,,,,,,
null,,rt_thecrossant_black8,1409460,,,,black_plus_sign,,,null,,,1,,,,,,,1,,,,,,,,,,,,
null,,color_black8,1409575,,,,black_plus_sign,,,null,,,,,,,,,,,,,,,,,,,,,,
null,,learn_phase(without_color)8,1413079,,,,black_plus_sign,,,null,object_07b.png,object_15b.png,,,,,,,,,,,,,,,,,,,,
null,,black_cross(without_color)8,1413500,,,,green,,,null,object_07b.png,object_15b.png,,,,,,,,,,,,,,,,,,,,
null,,rt_plussign_withcolor8,1414006,,,,green,,,null,object_07b.png,object_15b.png,,,,,,,,,,,,,,,,,,,,
1126.0999999940395,,rt_thecrossant_black8,1415590,,,,black_plus_sign,,,50,,,1,,,,,,,1,,,,,,,,,,,,
null,,color_black8,1415697,,,,black_plus_sign,,,null,,,,,,,,,,,,,,,,,,,,,,
null,,learn_phase(without_color)8,1419201,,,,black_plus_sign,,,null,object_03b.png,object_01a.png,,,,,,,,,,,,,,,,,,,,
null,,black_cross(without_color)8,1420084,,,,blue,,,null,object_03b.png,object_01a.png,,,,,,,,,,,,,,,,,,,,
408.59999999403954,,rt_plussign_withcolor8,1420587,,,,blue,,,49,object_03b.png,object_01a.png,,,,,,,,,,,,,,,,,,,,
null,,rt_thecrossant_black8,1421711,,,,black_plus_sign,,,null,,,1,,,,,,,1,,,,,,,,,,,,
null,,color_black8,1421817,,,,black_plus_sign,,,null,,,,,,,,,,,,,,,,,,,,,,
null,,learn_phase(without_color)8,1425319,,,,black_plus_sign,,,null,object_12c.png,object_12b.png,,,,,,,,,,,,,,,,,,,,
null,,black_cross(without_color)8,1426139,,,,green,,,null,object_12c.png,object_12b.png,,,,,,,,,,,,,,,,,,,,
null,,rt_plussign_withcolor8,1426641,,,,green,,,null,object_12c.png,object_12b.png,,,,,,,,,,,,,,,,,,,,
1297,,rt_thecrossant_black8,1427827,,,,black_plus_sign,,,50,,,1,,,,,,,1,,,,,,,,,,,,
null,,color_black8,1427931,,,,black_plus_sign,,,null,,,,,,,,,,,,,,,,,,,,,,
null,,learn_phase(without_color)8,1431436,,,,black_plus_sign,,,null,object_09b.png,object_10a.png,,,,,,,,,,,,,,,,,,,,
null,,black_cross(without_color)8,1431952,,,,green,,,null,object_09b.png,object_10a.png,,,,,,,,,,,,,,,,,,,,
461,,rt_plussign_withcolor8,1432454,,,,green,,,50,object_09b.png,object_10a.png,,,,,,,,,,,,,,,,,,,,
null,,rt_thecrossant_black8,1433944,,,,black_plus_sign,,,null,,,1,,,,,,,1,,,,,,,,,,,,
null,,color_black8,1434045,,,,black_plus_sign,,,null,,,,,,,,,,,,,,,,,,,,,,
null,,learn_phase(without_color)8,1437549,,,,black_plus_sign,,,null,object_13a.png,object_08a.png,,,,,,,,,,,,,,,,,,,,
null,,black_cross(without_color)8,1438273,,,,green,,,null,object_13a.png,object_08a.png,,,,,,,,,,,,,,,,,,,,
null,,rt_plussign_withcolor8,1438775,,,,green,,,null,object_13a.png,object_08a.png,,,,,,,,,,,,,,,,,,,,
874.8000000119209,,rt_thecrossant_black8,1440058,,,,black_plus_sign,,,50,,,1,,,,,,,1,,,,,,,,,,,,
null,,color_black8,1440161,,,,black_plus_sign,,,null,,,,,,,,,,,,,,,,,,,,,,
null,,learn_phase(without_color)8,1443665,,,,black_plus_sign,,,null,object_04a.png,object_09a.png,,,,,,,,,,,,,,,,,,,,
null,,black_cross(without_color)8,1444682,,,,blue,,,null,object_04a.png,object_09a.png,,,,,,,,,,,,,,,,,,,,
null,,rt_plussign_withcolor8,1445186,,,,blue,,,null,object_04a.png,object_09a.png,,,,,,,,,,,,,,,,,,,,
926.5999999940395,,rt_thecrossant_black8,1446182,,,,black_plus_sign,,,49,,,1,,,,,,,1,,,,,,,,,,,,
null,,color_black8,1446285,,,,black_plus_sign,,,null,,,,,,,,,,,,,,,,,,,,,,
null,,learn_phase(without_color)8,1449789,,,,black_plus_sign,,,null,object_03c.png,object_02c.png,,,,,,,,,,,,,,,,,,,,
null,,black_cross(without_color)8,1450267,,,,blue,,,null,object_03c.png,object_02c.png,,,,,,,,,,,,,,,,,,,,
null,,rt_plussign_withcolor8,1450778,,,,blue,,,null,object_03c.png,object_02c.png,,,,,,,,,,,,,,,,,,,,
1332.5999999940395,,rt_thecrossant_black8,1452305,,,,black_plus_sign,,,49,,,1,,,,,,,1,,,,,,,,,,,,
null,,color_black8,1452408,,,,black_plus_sign,,,null,,,,,,,,,,,,,,,,,,,,,,
null,,learn_phase(without_color)8,1455913,,,,black_plus_sign,,,null,object_11c.png,object_12a.png,,,,,,,,,,,,,,,,,,,,
null,,black_cross(without_color)8,1456836,,,,green,,,null,object_11c.png,object_12a.png,,,,,,,,,,,,,,,,,,,,
336.70000000298023,,rt_plussign_withcolor8,1457340,,,,green,,,50,object_11c.png,object_12a.png,,,,,,,,,,,,,,,,,,,,
null,,rt_thecrossant_black8,1458423,,,,black_plus_sign,,,null,,,1,,,,,,,1,,,,,,,,,,,,
null,,color_black8,1458527,,,,black_plus_sign,,,null,,,,,,,,,,,,,,,,,,,,,,
null,,learn_phase(without_color)8,1462042,,,,black_plus_sign,,,null,object_07c.png,object_05b.png,,,,,,,,,,,,,,,,,,,,
null,,black_cross(without_color)8,1462736,,,,blue,,,null,object_07c.png,object_05b.png,,,,,,,,,,,,,,,,,,,,
null,,rt_plussign_withcolor8,1463239,,,,blue,,,null,object_07c.png,object_05b.png,,,,,,,,,,,,,,,,,,,,
1128.3999999910593,,rt_thecrossant_black8,1464552,,,,black_plus_sign,,,49,,,1,,,,,,,1,,,,,,,,,,,,
null,,color_black8,1464654,,,,black_plus_sign,,,null,,,,,,,,,,,,,,,,,,,,,,
null,,thebreak,1464757,,,,<p></p>,,,null,,,,,,,,,,,,,,,,,,,,,,
526.5,,intro_0,1465286,,,,instruct,,,32,,,,,,,,,,,,,,,,,,,,,,
4134.399999991059,,directmemory_phase8,1469423,,,,object_07b.png,,,50,,,0,,object_15b.png,object_12b.png,object_12a.png,object_15b.png,,0.5,0,,,,,,,,,,,
3355.5999999940395,,directmemory_phase8,1472783,,,,object_12b.png,,,51,,,1,,object_11a.png,object_09a.png,object_12c.png,object_12c.png,,0.5046728971962616,1,,,,,,,,,,,
3252.2000000029802,,directmemory_phase8,1476039,,,,object_09a.png,,,49,,,1,,object_04a.png,object_04c.png,object_12b.png,object_04a.png,,0.5092592592592593,1,,,,,,,,,,,
3651.5,,directmemory_phase8,1479695,,,,object_06c.png,,,51,,,1,,object_02c.png,object_03c.png,object_08c.png,object_08c.png,,0.5137614678899083,1,,,,,,,,,,,
1746.800000011921,,directmemory_phase8,1481445,,,,object_10a.png,,,50,,,1,,object_05b.png,object_09b.png,object_11a.png,object_09b.png,,0.5181818181818182,1,,,,,,,,,,,
3376.0999999940395,,directmemory_phase8,1484823,,,,object_12a.png,,,51,,,1,,object_15c.png,object_06c.png,object_11c.png,object_11c.png,,0.5225225225225225,1,,,,,,,,,,,
3524.300000011921,,directmemory_phase8,1488351,,,,object_04c.png,,,51,,,1,,object_03b.png,object_05c.png,object_02b.png,object_02b.png,,0.5267857142857143,1,,,,,,,,,,,
5259.5,,directmemory_phase8,1493615,,,,object_06a.png,,,50,,,0,,object_05c.png,object_12b.png,object_11a.png,object_11a.png,,0.5221238938053098,0,,,,,,,,,,,
1651.7000000029802,,directmemory_phase8,1495270,,,,object_05b.png,,,49,,,1,,object_07c.png,object_10b.png,object_11c.png,object_07c.png,,0.5263157894736842,1,,,,,,,,,,,
2971.8999999910593,,directmemory_phase8,1498247,,,,object_01a.png,,,49,,,1,,object_03b.png,object_08a.png,object_05c.png,object_03b.png,,0.5304347826086957,1,,,,,,,,,,,
3660.5,,directmemory_phase8,1501911,,,,object_13c.png,,,50,,,0,,object_09c.png,object_06c.png,object_05b.png,object_09c.png,,0.5258620689655172,0,,,,,,,,,,,
4410.5999999940395,,directmemory_phase8,1506325,,,,object_15c.png,,,51,,,1,,object_04c.png,object_08c.png,object_10b.png,object_10b.png,,0.5299145299145299,1,,,,,,,,,,,
1783.5999999940395,,directmemory_phase8,1508111,,,,object_05c.png,,,50,,,0,,object_06b.png,object_08a.png,object_01a.png,object_06b.png,,0.5254237288135594,0,,,,,,,,,,,
1611.7000000029802,,directmemory_phase8,1509727,,,,object_03c.png,,,49,,,1,,object_02c.png,object_08c.png,object_07b.png,object_02c.png,,0.5294117647058824,1,,,,,,,,,,,
3916.2999999970198,,directmemory_phase8,1513647,,,,object_08a.png,,,50,,,1,,object_13c.png,object_13a.png,object_04a.png,object_13a.png,,0.5333333333333333,1,,,,,,,,,,,
null,,thebreak,1513751,,,,<p></p>,,,null,,,,,,,,,,,,,,,,,,,,,,
6452.5,,intro_0,1520206,,,,instruct,,,32,,,,,,,,,,,,,,,,,,,,,,
26838.59999999404,,intro_1,1547047,,,,instruct,,,32,,,,,,,,,,,,,,,,,,,,,,
5493.29999999702,,intro_2,1552541,,,,instruct,,,32,,,,,,,,,,,,,,,,,,,,,,
,,intro_3,1587127,,,,instruct,,,,,,,,,,,,,,,,,,,,,,,,,
8462,,intro_4,1595590,,,,instruct,,,32,,,,,,,,,,,,,,,,,,,,,,
5117.70000000298,,inference_phase,1600710,,,,object_04b.png,,,49,object_08c.png,object_12b.png,1,,,,,object_08c.png,,1,,object_01a.png,,,,,,,,,,
4923.0999999940395,,inference_phase,1605638,,,,object_08b.png,,,49,object_13a.png,object_10a.png,0,,,,,object_10a.png,,0.5,,object_08a.png,,,,,,,,,,
3035.6000000089407,,inference_phase,1608678,,,,object_15c.png,,,51,object_15a.png,object_10c.png,0,,,,,object_10c.png,,0.3333333333333333,,object_04c.png,,,,,,,,,,
3748.2999999970198,,inference_phase,1612430,,,,object_13b.png,,,49,object_10b.png,object_05b.png,0,,,,,object_08a.png,,0.25,,object_08a.png,,,,,,,,,,
5419.5999999940395,,inference_phase,1617854,,,,object_03b.png,,,49,object_10c.png,object_01b.png,0,,,,,object_01b.png,,0.2,,object_07c.png,,,,,,,,,,
4988.29999999702,,inference_phase,1622846,,,,object_02a.png,,,49,object_13a.png,object_15c.png,0,,,,,object_02c.png,,0.16666666666666666,,object_02c.png,,,,,,,,,,
4291.5999999940395,,inference_phase,1627142,,,,object_14a.png,,,49,object_13a.png,object_08a.png,0,,,,,object_09a.png,,0.14285714285714285,,object_09a.png,,,,,,,,,,
3779.5,,inference_phase,1630926,,,,object_06b.png,,,51,object_04b.png,object_05a.png,0,,,,,object_05a.png,,0.125,,object_04c.png,,,,,,,,,,
3404,,inference_phase,1634334,,,,object_03a.png,,,51,object_02b.png,object_05b.png,0,,,,,object_02b.png,,0.1111111111111111,,object_12a.png,,,,,,,,,,
7435.70000000298,,inference_phase,1641774,,,,object_15a.png,,,50,object_11c.png,object_08a.png,0,,,,,object_11c.png,,0.1,,object_12c.png,,,,,,,,,,
2139.800000011921,,inference_phase,1643918,,,,object_11b.png,,,51,object_04c.png,object_06a.png,0,,,,,object_06a.png,,0.09090909090909091,,object_05b.png,,,,,,,,,,
3052.4000000059605,,inference_phase,1646974,,,,object_13c.png,,,51,object_14b.png,object_01c.png,0,,,,,object_14b.png,,0.08333333333333333,,object_01a.png,,,,,,,,,,
2395.5999999940395,,inference_phase,1649374,,,,object_14c.png,,,49,object_05c.png,object_15b.png,0,,,,,object_15b.png,,0.07692307692307693,,object_02b.png,,,,,,,,,,
3292,,inference_phase,1652670,,,,object_07a.png,,,49,object_07b.png,object_12b.png,0,,,,,object_12b.png,,0.07142857142857142,,object_02c.png,,,,,,,,,,
2931.9000000059605,,inference_phase,1655606,,,,object_01c.png,,,51,object_09c.png,object_05b.png,0,,,,,object_05b.png,,0.06666666666666667,,object_15b.png,,,,,,,,,,
,,survey,1748510,,,,survey-questions,,,,,,,,,,,,,,,,none,high,No,I tried to memorize similar colors. Or how shapes would fit into each other.,yes, shapes that could easily fit into each other or if I could picture a sharp shape popping a shape with a bubble.,no,A little too long.,,,
15973.90000000596,,thank_you,1764485,,,,<p> Congratulations, you are all done!</p><p> <strong>Please click space on your keyboard to end the experiment!</strong> The secret code to enter at the beginning screen is: C78LSMTN</p><p> Please make sure to submit the HIT and email uciccnl@gmail.com if you had any issues! </p>,,,32,,,,,,,,,,,,,,,,,,,,0,0,C78LSMTN
