rt,responses,trial_type,time_elapsed,identifier_a,identifier_b,identifier_c,stimulus,button_pressed,response,key_press,stimulus_left,stimulus_right,accuracy,practice_cumulative_accuracy,stimulus_down_left,stimulus_down_mid,stimulus_down_right,stimulus_correct,prac_weighted_accuracy,cumulative_accuracy,weighted_accuracy,stimulus_middle,problems,smooth,distraction,strategies,easier,similar,comments
3664.699999809265,{worker_id:574ce0a57fd0ec000db73aa6},id_enter,3668,object_07c.png; object_04a.png; object_05c.png; object_03b.png; object_02a.png; object_05a.png; object_10b.png; object_12c.png; object_13c.png; object_09b.png; object_13b.png; object_01b.png; object_07a.png; object_01a.png; object_08a.png,object_15a.png; object_02b.png; object_15c.png; object_06c.png; object_11a.png; object_11b.png; object_09a.png; object_01c.png; object_06a.png; object_04c.png; object_08c.png; object_12a.png; object_15b.png; object_05b.png; object_06b.png,object_04b.png; object_12b.png; object_14b.png; object_02c.png; object_03c.png; object_08b.png; object_11c.png; object_09c.png; object_13a.png; object_10c.png; object_14a.png; object_03a.png; object_14c.png; object_07b.png; object_10a.png,,,,,,,,,,,,,,,,,,,,,,,
12416.699999809265,,make_fullscreen,16089,,,,fullscreen,0,,,,,,,,,,,,,,,,,,,,,
1728,,instruct_1,17830,,,,instruct,0,Next,,,,,,,,,,,,,,,,,,,,
7686.099999904633,,instruct_2,25526,,,,instruct,1,Next,,,,,,,,,,,,,,,,,,,,
7099.599999904633,,instruct_3,32627,,,,instruct,1,Next,,,,,,,,,,,,,,,,,,,,
11373.199999809265,,instruct_4,44009,,,,instruct,1,Next,,,,,,,,,,,,,,,,,,,,
7412.199999809265,,instruct_5,51423,,,,instruct,1,Next,,,,,,,,,,,,,,,,,,,,
2307.600000143051,,instruct_6,53733,,,,instruct,1,Next,,,,,,,,,,,,,,,,,,,,
20975.10000014305,,instruct_7,74710,,,,instruct,1,Next,,,,,,,,,,,,,,,,,,,,
null,,prac_atten_color_black,75258,,,,black_plus_sign,,,null,,,,,,,,,,,,,,,,,,,
632.2999999523163,,prac_atten_color,76124,,,,<p style='position:absolute;top: 50%;right: 50%;transform: translate(50%, -50%);font-size: 125px;color: blue;'>+</p>,,,49,,,,,,,,,,,,,,,,,,,
null,,prac_atten_color_black,78128,,,,black_plus_sign,,,null,,,,,,,,,,,,,,,,,,,
null,,prac_atten_color_black,78670,,,,black_plus_sign,,,null,,,,,,,,,,,,,,,,,,,
661.9000000953674,,prac_atten_color,79668,,,,<p style='position:absolute;top: 50%;right: 50%;transform: translate(50%, -50%);font-size: 125px;color: green;'>+</p>,,,50,,,,,,,,,,,,,,,,,,,
null,,prac_atten_color_black,81678,,,,black_plus_sign,,,null,,,,,,,,,,,,,,,,,,,
null,,prac_atten_color_black,82091,,,,black_plus_sign,,,null,,,,,,,,,,,,,,,,,,,
532.9000000953674,,prac_atten_color,82626,,,,<p style='position:absolute;top: 50%;right: 50%;transform: translate(50%, -50%);font-size: 125px;color: green;'>+</p>,,,50,,,,,,,,,,,,,,,,,,,
null,,prac_atten_color_black,84642,,,,black_plus_sign,,,null,,,,,,,,,,,,,,,,,,,
null,,prac_atten_color_black,85517,,,,black_plus_sign,,,null,,,,,,,,,,,,,,,,,,,
601.6000001430511,,prac_atten_color,86389,,,,<p style='position:absolute;top: 50%;right: 50%;transform: translate(50%, -50%);font-size: 125px;color: blue;'>+</p>,,,49,,,,,,,,,,,,,,,,,,,
null,,prac_atten_color_black,88398,,,,black_plus_sign,,,null,,,,,,,,,,,,,,,,,,,
null,,prac_atten_color_black,88940,,,,black_plus_sign,,,null,,,,,,,,,,,,,,,,,,,
599.2000000476837,,prac_atten_color,89673,,,,<p style='position:absolute;top: 50%;right: 50%;transform: translate(50%, -50%);font-size: 125px;color: green;'>+</p>,,,50,,,,,,,,,,,,,,,,,,,
null,,prac_atten_color_black,91675,,,,black_plus_sign,,,null,,,,,,,,,,,,,,,,,,,
null,,prac_atten_color_black,92351,,,,black_plus_sign,,,null,,,,,,,,,,,,,,,,,,,
523.5,,prac_atten_color,93226,,,,<p style='position:absolute;top: 50%;right: 50%;transform: translate(50%, -50%);font-size: 125px;color: green;'>+</p>,,,50,,,,,,,,,,,,,,,,,,,
null,,prac_atten_color_black,95236,,,,black_plus_sign,,,null,,,,,,,,,,,,,,,,,,,
null,,prac_atten_color_black,95778,,,,black_plus_sign,,,null,,,,,,,,,,,,,,,,,,,
638.2000000476837,,prac_atten_color,96678,,,,<p style='position:absolute;top: 50%;right: 50%;transform: translate(50%, -50%);font-size: 125px;color: blue;'>+</p>,,,49,,,,,,,,,,,,,,,,,,,
null,,prac_atten_color_black,98679,,,,black_plus_sign,,,null,,,,,,,,,,,,,,,,,,,
null,,prac_atten_color_black,99195,,,,black_plus_sign,,,null,,,,,,,,,,,,,,,,,,,
631.7000000476837,,prac_atten_color,100102,,,,<p style='position:absolute;top: 50%;right: 50%;transform: translate(50%, -50%);font-size: 125px;color: green;'>+</p>,,,50,,,,,,,,,,,,,,,,,,,
null,,prac_atten_color_black,102110,,,,black_plus_sign,,,null,,,,,,,,,,,,,,,,,,,
null,,prac_atten_color_black,102610,,,,black_plus_sign,,,null,,,,,,,,,,,,,,,,,,,
null,,prac_atten_color,103075,,,,<p style='position:absolute;top: 50%;right: 50%;transform: translate(50%, -50%);font-size: 125px;color: blue;'>+</p>,,,null,,,,,,,,,,,,,,,,,,,
115.20000004768372,,prac_atten_color_black,105083,,,,black_plus_sign,,,49,,,,,,,,,,,,,,,,,,,
null,,prac_atten_color_black,106035,,,,black_plus_sign,,,null,,,,,,,,,,,,,,,,,,,
456.60000014305115,,prac_atten_color,106703,,,,<p style='position:absolute;top: 50%;right: 50%;transform: translate(50%, -50%);font-size: 125px;color: blue;'>+</p>,,,49,,,,,,,,,,,,,,,,,,,
null,,prac_atten_color_black,108708,,,,black_plus_sign,,,null,,,,,,,,,,,,,,,,,,,
3927.2999999523163,,attentioncheck_feedback,112637,,,,cross_check_feedback,0,,,,,,,,,,,,,,,,,,,,,
6109.400000095367,,last_instruct,118748,,,,instruct,,,32,,,,,,,,,,,,,,,,,,,
null,,prac_learn_phase(without_color),122258,,,,black_plus_sign,,,null,object_15a.png,object_07c.png,,,,,,,,,,,,,,,,,
null,,prac_black_cross(without_color),123362,,,,green,,,null,object_15a.png,object_07c.png,,,,,,,,,,,,,,,,,
null,,prac_rt_plussign_withcolor,123866,,,,green,,,null,object_15a.png,object_07c.png,,,,,,,,,,,,,,,,,
757.8000001907349,,prac_rt_thecrossant_black,124783,,,,black_plus_sign,,,50,,,1,1,,,,,,,,,,,,,,,
null,,prac_color_black,124890,,,,black_plus_sign,,,null,,,,,,,,,,,,,,,,,,,
null,,prac_learn_phase(without_color),128400,,,,black_plus_sign,,,null,object_02a.png,object_11a.png,,,,,,,,,,,,,,,,,
null,,black_cross(without_color)1,128945,,,,blue,,,null,object_15a.png,object_07c.png,,,,,,,,,,,,,,,,,
null,,prac_rt_plussign_withcolor,129459,,,,green,,,null,object_02a.png,object_11a.png,,,,,,,,,,,,,,,,,
1012.2000000476837,,prac_rt_thecrossant_black,130871,,,,black_plus_sign,,,50,,,1,1,,,,,,,,,,,,,,,
null,,prac_color_black,130978,,,,black_plus_sign,,,null,,,,,,,,,,,,,,,,,,,
null,,prac_learn_phase(without_color),134487,,,,black_plus_sign,,,null,object_05a.png,object_11b.png,,,,,,,,,,,,,,,,,
null,,black_cross(without_color)1,135042,,,,blue,,,null,object_15a.png,object_07c.png,,,,,,,,,,,,,,,,,
null,,prac_rt_plussign_withcolor,135546,,,,green,,,null,object_05a.png,object_11b.png,,,,,,,,,,,,,,,,,
743.0999999046326,,prac_rt_thecrossant_black,136541,,,,black_plus_sign,,,50,,,1,1,,,,,,,,,,,,,,,
null,,prac_color_black,136649,,,,black_plus_sign,,,null,,,,,,,,,,,,,,,,,,,
null,,prac_learn_phase(without_color),140157,,,,black_plus_sign,,,null,object_12c.png,object_01c.png,,,,,,,,,,,,,,,,,
null,,black_cross(without_color)1,140702,,,,blue,,,null,object_15a.png,object_07c.png,,,,,,,,,,,,,,,,,
492.7000000476837,,prac_rt_plussign_withcolor,141207,,,,green,,,50,object_12c.png,object_01c.png,,,,,,,,,,,,,,,,,
null,,prac_rt_thecrossant_black,142812,,,,black_plus_sign,,,null,,,1,1,,,,,,,,,,,,,,,
null,,prac_color_black,142919,,,,black_plus_sign,,,null,,,,,,,,,,,,,,,,,,,
7990.399999856949,,instruct_dir_01,150911,,,,instruct,0,Next,,,,,,,,,,,,,,,,,,,,
5543.5,,instruct_dir_2,156456,,,,instruct,1,Next,,,,,,,,,,,,,,,,,,,,
1810.5999999046326,,instruct_dir_3,158268,,,,instruct,1,Next,,,,,,,,,,,,,,,,,,,,
3605.699999809265,,instruct_dir_4,161876,,,,instruct,1,Start,,,,,,,,,,,,,,,,,,,,
null,,thebreak,161983,,,,<p></p>,,,null,,,,,,,,,,,,,,,,,,,
1135.2999999523163,,intro_0,163120,,,,instruct,,,32,,,,,,,,,,,,,,,,,,,
1962.6000001430511,,prac_directmemory_phase,165084,,,,practice/object_03a.png,,,50,,,1,,practice/object_04a.png,practice/object_03b.png,practice/object_01b.png,practice/object_03b.png,1,1,,,,,,,,,
4475.799999952316,,prac_directmemory_phase,169563,,,,practice/object_01a.png,,,50,,,1,,practice/object_03a.png,practice/object_01b.png,practice/object_02b.png,practice/object_01b.png,1,1,,,,,,,,,
2067.5999999046326,,prac_directmemory_phase,171633,,,,practice/object_02a.png,,,50,,,1,,practice/object_01a.png,practice/object_02b.png,practice/object_01b.png,practice/object_02b.png,1,1,,,,,,,,,
2655.0999999046326,,prac_directmemory_phase,174290,,,,practice/object_04a.png,,,50,,,1,,practice/object_02a.png,practice/object_04b.png,practice/object_03b.png,practice/object_04b.png,1,1,,,,,,,,,
4019.2000000476837,,practice_feedback,178311,,,,practice_feedback,1,,,,,,,,,,,,,,,,,,,,,
8480,,proceed_actualTask,186792,,,,proceed_actualTask,1,Continue,,,,,,,,,,,,,,,,,,,,
9747.799999952316,,last_inst,196541,,,,last_inst,,,32,,,,,,,,,,,,,,,,,,,
null,,learn_phase(without_color)1,200043,,,,black_plus_sign,,,null,object_15a.png,object_07c.png,,,,,,,,,,,,,,,,,
null,,black_cross(without_color)1,200601,,,,blue,,,null,object_15a.png,object_07c.png,,,,,,,,,,,,,,,,,
null,,rt_plussign_withcolor1,201115,,,,blue,,,null,object_15a.png,object_07c.png,,,,,,,,,,,,,,,,,
795.1000001430511,,rt_thecrossant_black1,202576,,,,black_plus_sign,,,49,,,1,,,,,,,1,,,,,,,,,
null,,color_black1,202682,,,,black_plus_sign,,,null,,,,,,,,,,,,,,,,,,,
null,,learn_phase(without_color)1,206187,,,,black_plus_sign,,,null,object_02a.png,object_11a.png,,,,,,,,,,,,,,,,,
null,,black_cross(without_color)1,206932,,,,green,,,null,object_02a.png,object_11a.png,,,,,,,,,,,,,,,,,
null,,rt_plussign_withcolor1,207436,,,,green,,,null,object_02a.png,object_11a.png,,,,,,,,,,,,,,,,,
1105.7999999523163,,rt_thecrossant_black1,208705,,,,black_plus_sign,,,50,,,1,,,,,,,1,,,,,,,,,
null,,color_black1,208813,,,,black_plus_sign,,,null,,,,,,,,,,,,,,,,,,,
null,,learn_phase(without_color)1,212323,,,,black_plus_sign,,,null,object_05a.png,object_11b.png,,,,,,,,,,,,,,,,,
null,,black_cross(without_color)1,212811,,,,blue,,,null,object_05a.png,object_11b.png,,,,,,,,,,,,,,,,,
null,,rt_plussign_withcolor1,213316,,,,blue,,,null,object_05a.png,object_11b.png,,,,,,,,,,,,,,,,,
1018.7000000476837,,rt_thecrossant_black1,214852,,,,black_plus_sign,,,49,,,1,,,,,,,1,,,,,,,,,
null,,color_black1,214961,,,,black_plus_sign,,,null,,,,,,,,,,,,,,,,,,,
null,,learn_phase(without_color)1,218467,,,,black_plus_sign,,,null,object_12c.png,object_01c.png,,,,,,,,,,,,,,,,,
null,,black_cross(without_color)1,219019,,,,blue,,,null,object_12c.png,object_01c.png,,,,,,,,,,,,,,,,,
null,,rt_plussign_withcolor1,219524,,,,blue,,,null,object_12c.png,object_01c.png,,,,,,,,,,,,,,,,,
591.7000000476837,,rt_thecrossant_black1,220987,,,,black_plus_sign,,,49,,,1,,,,,,,1,,,,,,,,,
null,,color_black1,221095,,,,black_plus_sign,,,null,,,,,,,,,,,,,,,,,,,
null,,learn_phase(without_color)1,224599,,,,black_plus_sign,,,null,object_08a.png,object_06b.png,,,,,,,,,,,,,,,,,
null,,black_cross(without_color)1,225546,,,,green,,,null,object_08a.png,object_06b.png,,,,,,,,,,,,,,,,,
null,,rt_plussign_withcolor1,226056,,,,green,,,null,object_08a.png,object_06b.png,,,,,,,,,,,,,,,,,
661.2999999523163,,rt_thecrossant_black1,227126,,,,black_plus_sign,,,50,,,1,,,,,,,1,,,,,,,,,
null,,color_black1,227235,,,,black_plus_sign,,,null,,,,,,,,,,,,,,,,,,,
null,,learn_phase(without_color)1,230740,,,,black_plus_sign,,,null,object_10b.png,object_09a.png,,,,,,,,,,,,,,,,,
null,,black_cross(without_color)1,231222,,,,green,,,null,object_10b.png,object_09a.png,,,,,,,,,,,,,,,,,
null,,rt_plussign_withcolor1,231730,,,,green,,,null,object_10b.png,object_09a.png,,,,,,,,,,,,,,,,,
1218.0999999046326,,rt_thecrossant_black1,233260,,,,black_plus_sign,,,50,,,1,,,,,,,1,,,,,,,,,
null,,color_black1,233366,,,,black_plus_sign,,,null,,,,,,,,,,,,,,,,,,,
null,,learn_phase(without_color)1,236877,,,,black_plus_sign,,,null,object_06c.png,object_03b.png,,,,,,,,,,,,,,,,,
null,,black_cross(without_color)1,237406,,,,green,,,null,object_06c.png,object_03b.png,,,,,,,,,,,,,,,,,
null,,rt_plussign_withcolor1,237916,,,,green,,,null,object_06c.png,object_03b.png,,,,,,,,,,,,,,,,,
603.6999998092651,,rt_thecrossant_black1,239405,,,,black_plus_sign,,,50,,,1,,,,,,,1,,,,,,,,,
null,,color_black1,239513,,,,black_plus_sign,,,null,,,,,,,,,,,,,,,,,,,
null,,learn_phase(without_color)1,243017,,,,black_plus_sign,,,null,object_02b.png,object_04a.png,,,,,,,,,,,,,,,,,
null,,black_cross(without_color)1,243640,,,,blue,,,null,object_02b.png,object_04a.png,,,,,,,,,,,,,,,,,
null,,rt_plussign_withcolor1,244145,,,,blue,,,null,object_02b.png,object_04a.png,,,,,,,,,,,,,,,,,
704.7999999523163,,rt_thecrossant_black1,245537,,,,black_plus_sign,,,49,,,1,,,,,,,1,,,,,,,,,
null,,color_black1,245645,,,,black_plus_sign,,,null,,,,,,,,,,,,,,,,,,,
null,,learn_phase(without_color)1,249153,,,,black_plus_sign,,,null,object_13b.png,object_08c.png,,,,,,,,,,,,,,,,,
null,,black_cross(without_color)1,249820,,,,blue,,,null,object_13b.png,object_08c.png,,,,,,,,,,,,,,,,,
482.59999990463257,,rt_plussign_withcolor1,250327,,,,blue,,,49,object_13b.png,object_08c.png,,,,,,,,,,,,,,,,,
null,,rt_thecrossant_black1,251672,,,,black_plus_sign,,,null,,,1,,,,,,,1,,,,,,,,,
null,,color_black1,251781,,,,black_plus_sign,,,null,,,,,,,,,,,,,,,,,,,
null,,learn_phase(without_color)1,255286,,,,black_plus_sign,,,null,object_07a.png,object_15b.png,,,,,,,,,,,,,,,,,
null,,black_cross(without_color)1,256086,,,,blue,,,null,object_07a.png,object_15b.png,,,,,,,,,,,,,,,,,
null,,rt_plussign_withcolor1,256600,,,,blue,,,null,object_07a.png,object_15b.png,,,,,,,,,,,,,,,,,
821.7999999523163,,rt_thecrossant_black1,257825,,,,black_plus_sign,,,49,,,1,,,,,,,1,,,,,,,,,
null,,color_black1,257933,,,,black_plus_sign,,,null,,,,,,,,,,,,,,,,,,,
null,,learn_phase(without_color)1,261448,,,,black_plus_sign,,,null,object_12a.png,object_01b.png,,,,,,,,,,,,,,,,,
null,,black_cross(without_color)1,262294,,,,blue,,,null,object_12a.png,object_01b.png,,,,,,,,,,,,,,,,,
468.90000009536743,,rt_plussign_withcolor1,262797,,,,blue,,,49,object_12a.png,object_01b.png,,,,,,,,,,,,,,,,,
null,,rt_thecrossant_black1,263959,,,,black_plus_sign,,,null,,,1,,,,,,,1,,,,,,,,,
null,,color_black1,264067,,,,black_plus_sign,,,null,,,,,,,,,,,,,,,,,,,
null,,learn_phase(without_color)1,267577,,,,black_plus_sign,,,null,object_06a.png,object_13c.png,,,,,,,,,,,,,,,,,
null,,black_cross(without_color)1,268650,,,,blue,,,null,object_06a.png,object_13c.png,,,,,,,,,,,,,,,,,
null,,rt_plussign_withcolor1,269154,,,,blue,,,null,object_06a.png,object_13c.png,,,,,,,,,,,,,,,,,
1138.3999998569489,,rt_thecrossant_black1,270095,,,,black_plus_sign,,,49,,,1,,,,,,,1,,,,,,,,,
null,,color_black1,270202,,,,black_plus_sign,,,null,,,,,,,,,,,,,,,,,,,
null,,learn_phase(without_color)1,273711,,,,black_plus_sign,,,null,object_09b.png,object_04c.png,,,,,,,,,,,,,,,,,
null,,black_cross(without_color)1,274278,,,,blue,,,null,object_09b.png,object_04c.png,,,,,,,,,,,,,,,,,
476,,rt_plussign_withcolor1,274788,,,,blue,,,49,object_09b.png,object_04c.png,,,,,,,,,,,,,,,,,
null,,rt_thecrossant_black1,276238,,,,black_plus_sign,,,null,,,1,,,,,,,1,,,,,,,,,
null,,color_black1,276353,,,,black_plus_sign,,,null,,,,,,,,,,,,,,,,,,,
null,,learn_phase(without_color)1,279865,,,,black_plus_sign,,,null,object_05b.png,object_01a.png,,,,,,,,,,,,,,,,,
null,,black_cross(without_color)1,280624,,,,green,,,null,object_05b.png,object_01a.png,,,,,,,,,,,,,,,,,
null,,rt_plussign_withcolor1,281130,,,,green,,,null,object_05b.png,object_01a.png,,,,,,,,,,,,,,,,,
891.5,,rt_thecrossant_black1,282389,,,,black_plus_sign,,,50,,,1,,,,,,,1,,,,,,,,,
null,,color_black1,282497,,,,black_plus_sign,,,null,,,,,,,,,,,,,,,,,,,
null,,learn_phase(without_color)1,286001,,,,black_plus_sign,,,null,object_15c.png,object_05c.png,,,,,,,,,,,,,,,,,
null,,black_cross(without_color)1,286543,,,,blue,,,null,object_15c.png,object_05c.png,,,,,,,,,,,,,,,,,
null,,rt_plussign_withcolor1,287051,,,,blue,,,null,object_15c.png,object_05c.png,,,,,,,,,,,,,,,,,
1000.0999999046326,,rt_thecrossant_black1,288518,,,,black_plus_sign,,,49,,,1,,,,,,,1,,,,,,,,,
null,,color_black1,288636,,,,black_plus_sign,,,null,,,,,,,,,,,,,,,,,,,
null,,thebreak,288744,,,,<p></p>,,,null,,,,,,,,,,,,,,,,,,,
1267.1999998092651,,intro_0,290013,,,,instruct,,,32,,,,,,,,,,,,,,,,,,,
1937.6000001430511,,directmemory_phase1,291952,,,,object_08a.png,,,50,,,1,,object_03b.png,object_06b.png,object_04c.png,object_06b.png,,1,1,,,,,,,,
3694,,directmemory_phase1,295648,,,,object_05c.png,,,50,,,1,,object_02a.png,object_15c.png,object_02b.png,object_15c.png,,1,1,,,,,,,,
3218,,directmemory_phase1,298868,,,,object_07c.png,,,50,,,1,,object_12c.png,object_15a.png,object_11b.png,object_15a.png,,1,1,,,,,,,,
4340.200000047684,,directmemory_phase1,303210,,,,object_10b.png,,,51,,,1,,object_15a.png,object_07c.png,object_09a.png,object_09a.png,,1,1,,,,,,,,
2647.5,,directmemory_phase1,305859,,,,object_01a.png,,,49,,,1,,object_05b.png,object_15c.png,object_13c.png,object_05b.png,,1,1,,,,,,,,
4424.100000143051,,directmemory_phase1,310285,,,,object_02a.png,,,50,,,0,,object_11a.png,object_11b.png,object_01b.png,object_11a.png,,0.8333333333333334,0,,,,,,,,
4377.699999809265,,directmemory_phase1,314664,,,,object_13b.png,,,49,,,0,,object_02b.png,object_02a.png,object_08c.png,object_08c.png,,0.7142857142857143,0,,,,,,,,
3143,,directmemory_phase1,317809,,,,object_09b.png,,,49,,,1,,object_04c.png,object_15c.png,object_05a.png,object_04c.png,,0.75,1,,,,,,,,
1780.8999998569489,,directmemory_phase1,319592,,,,object_07a.png,,,49,,,1,,object_15b.png,object_06a.png,object_04a.png,object_15b.png,,0.7777777777777778,1,,,,,,,,
2019.9000000953674,,directmemory_phase1,321613,,,,object_01b.png,,,51,,,1,,object_04c.png,object_01a.png,object_12a.png,object_12a.png,,0.8,1,,,,,,,,
2452,,directmemory_phase1,324075,,,,object_13c.png,,,49,,,1,,object_06a.png,object_11a.png,object_13b.png,object_06a.png,,0.8181818181818182,1,,,,,,,,
5014,,directmemory_phase1,329092,,,,object_03b.png,,,49,,,0,,object_02a.png,object_06c.png,object_12a.png,object_06c.png,,0.75,0,,,,,,,,
4648.600000143051,,directmemory_phase1,333742,,,,object_05a.png,,,50,,,1,,object_10b.png,object_11b.png,object_06a.png,object_11b.png,,0.7692307692307693,1,,,,,,,,
3406.899999856949,,directmemory_phase1,337151,,,,object_04a.png,,,51,,,1,,object_12a.png,object_07a.png,object_02b.png,object_02b.png,,0.7857142857142857,1,,,,,,,,
3450.4000000953674,,directmemory_phase1,340604,,,,object_12c.png,,,50,,,1,,object_03b.png,object_01c.png,object_04c.png,object_01c.png,,0.8,1,,,,,,,,
null,,thebreak,340711,,,,<p></p>,,,null,,,,,,,,,,,,,,,,,,,
1305,,intro_0,342017,,,,instruct,,,32,,,,,,,,,,,,,,,,,,,
null,,learn_phase(without_color)2,345523,,,,black_plus_sign,,,null,object_08c.png,object_13b.png,,,,,,,,,,,,,,,,,
null,,black_cross(without_color)2,345961,,,,blue,,,null,object_08c.png,object_13b.png,,,,,,,,,,,,,,,,,
null,,rt_plussign_withcolor2,346468,,,,blue,,,null,object_08c.png,object_13b.png,,,,,,,,,,,,,,,,,
557.7000000476837,,rt_thecrossant_black2,348046,,,,black_plus_sign,,,49,,,1,,,,,,,1,,,,,,,,,
null,,color_black2,348153,,,,black_plus_sign,,,null,,,,,,,,,,,,,,,,,,,
null,,learn_phase(without_color)2,351662,,,,black_plus_sign,,,null,object_09a.png,object_10b.png,,,,,,,,,,,,,,,,,
null,,black_cross(without_color)2,352314,,,,green,,,null,object_09a.png,object_10b.png,,,,,,,,,,,,,,,,,
null,,rt_plussign_withcolor2,352821,,,,green,,,null,object_09a.png,object_10b.png,,,,,,,,,,,,,,,,,
552.2000000476837,,rt_thecrossant_black2,354184,,,,black_plus_sign,,,50,,,1,,,,,,,1,,,,,,,,,
null,,color_black2,354292,,,,black_plus_sign,,,null,,,,,,,,,,,,,,,,,,,
null,,learn_phase(without_color)2,357804,,,,black_plus_sign,,,null,object_12c.png,object_01c.png,,,,,,,,,,,,,,,,,
null,,black_cross(without_color)2,358530,,,,green,,,null,object_12c.png,object_01c.png,,,,,,,,,,,,,,,,,
null,,rt_plussign_withcolor2,359039,,,,green,,,null,object_12c.png,object_01c.png,,,,,,,,,,,,,,,,,
864.7999999523163,,rt_thecrossant_black2,360335,,,,black_plus_sign,,,50,,,1,,,,,,,1,,,,,,,,,
null,,color_black2,360441,,,,black_plus_sign,,,null,,,,,,,,,,,,,,,,,,,
null,,learn_phase(without_color)2,363955,,,,black_plus_sign,,,null,object_12a.png,object_01b.png,,,,,,,,,,,,,,,,,
null,,black_cross(without_color)2,364731,,,,green,,,null,object_12a.png,object_01b.png,,,,,,,,,,,,,,,,,
null,,rt_plussign_withcolor2,365240,,,,green,,,null,object_12a.png,object_01b.png,,,,,,,,,,,,,,,,,
822.4000000953674,,rt_thecrossant_black2,366473,,,,black_plus_sign,,,50,,,1,,,,,,,1,,,,,,,,,
null,,color_black2,366590,,,,black_plus_sign,,,null,,,,,,,,,,,,,,,,,,,
null,,learn_phase(without_color)2,370094,,,,black_plus_sign,,,null,object_06c.png,object_03b.png,,,,,,,,,,,,,,,,,
null,,black_cross(without_color)2,371169,,,,blue,,,null,object_06c.png,object_03b.png,,,,,,,,,,,,,,,,,
null,,rt_plussign_withcolor2,371674,,,,blue,,,null,object_06c.png,object_03b.png,,,,,,,,,,,,,,,,,
904.2000000476837,,rt_thecrossant_black2,372615,,,,black_plus_sign,,,49,,,1,,,,,,,1,,,,,,,,,
null,,color_black2,372723,,,,black_plus_sign,,,null,,,,,,,,,,,,,,,,,,,
null,,learn_phase(without_color)2,376227,,,,black_plus_sign,,,null,object_04c.png,object_09b.png,,,,,,,,,,,,,,,,,
null,,black_cross(without_color)2,377080,,,,green,,,null,object_04c.png,object_09b.png,,,,,,,,,,,,,,,,,
null,,rt_plussign_withcolor2,377581,,,,green,,,null,object_04c.png,object_09b.png,,,,,,,,,,,,,,,,,
1445.5,,rt_thecrossant_black2,378751,,,,black_plus_sign,,,50,,,1,,,,,,,1,,,,,,,,,
null,,color_black2,378858,,,,black_plus_sign,,,null,,,,,,,,,,,,,,,,,,,
null,,learn_phase(without_color)2,382363,,,,black_plus_sign,,,null,object_07a.png,object_15b.png,,,,,,,,,,,,,,,,,
null,,black_cross(without_color)2,383415,,,,blue,,,null,object_07a.png,object_15b.png,,,,,,,,,,,,,,,,,
null,,rt_plussign_withcolor2,383921,,,,blue,,,null,object_07a.png,object_15b.png,,,,,,,,,,,,,,,,,
1134,,rt_thecrossant_black2,384893,,,,black_plus_sign,,,49,,,1,,,,,,,1,,,,,,,,,
null,,color_black2,385002,,,,black_plus_sign,,,null,,,,,,,,,,,,,,,,,,,
null,,learn_phase(without_color)2,388508,,,,black_plus_sign,,,null,object_05c.png,object_15c.png,,,,,,,,,,,,,,,,,
null,,black_cross(without_color)2,389386,,,,green,,,null,object_05c.png,object_15c.png,,,,,,,,,,,,,,,,,
null,,rt_plussign_withcolor2,389903,,,,green,,,null,object_05c.png,object_15c.png,,,,,,,,,,,,,,,,,
1313.1000001430511,,rt_thecrossant_black2,391049,,,,black_plus_sign,,,50,,,1,,,,,,,1,,,,,,,,,
null,,color_black2,391158,,,,black_plus_sign,,,null,,,,,,,,,,,,,,,,,,,
null,,learn_phase(without_color)2,394675,,,,black_plus_sign,,,null,object_05a.png,object_11b.png,,,,,,,,,,,,,,,,,
null,,black_cross(without_color)2,395290,,,,green,,,null,object_05a.png,object_11b.png,,,,,,,,,,,,,,,,,
null,,rt_plussign_withcolor2,395797,,,,green,,,null,object_05a.png,object_11b.png,,,,,,,,,,,,,,,,,
1112,,rt_thecrossant_black2,397195,,,,black_plus_sign,,,50,,,1,,,,,,,1,,,,,,,,,
null,,color_black2,397304,,,,black_plus_sign,,,null,,,,,,,,,,,,,,,,,,,
null,,learn_phase(without_color)2,400819,,,,black_plus_sign,,,null,object_08a.png,object_06b.png,,,,,,,,,,,,,,,,,
null,,black_cross(without_color)2,401774,,,,blue,,,null,object_08a.png,object_06b.png,,,,,,,,,,,,,,,,,
null,,rt_plussign_withcolor2,402276,,,,blue,,,null,object_08a.png,object_06b.png,,,,,,,,,,,,,,,,,
794.9000000953674,,rt_thecrossant_black2,403327,,,,black_plus_sign,,,49,,,1,,,,,,,1,,,,,,,,,
null,,color_black2,403434,,,,black_plus_sign,,,null,,,,,,,,,,,,,,,,,,,
null,,learn_phase(without_color)2,406945,,,,black_plus_sign,,,null,object_06a.png,object_13c.png,,,,,,,,,,,,,,,,,
null,,black_cross(without_color)2,407507,,,,green,,,null,object_06a.png,object_13c.png,,,,,,,,,,,,,,,,,
null,,rt_plussign_withcolor2,408013,,,,green,,,null,object_06a.png,object_13c.png,,,,,,,,,,,,,,,,,
1225.5,,rt_thecrossant_black2,409467,,,,black_plus_sign,,,50,,,1,,,,,,,1,,,,,,,,,
null,,color_black2,409573,,,,black_plus_sign,,,null,,,,,,,,,,,,,,,,,,,
null,,learn_phase(without_color)2,413077,,,,black_plus_sign,,,null,object_15a.png,object_07c.png,,,,,,,,,,,,,,,,,
null,,black_cross(without_color)2,413955,,,,green,,,null,object_15a.png,object_07c.png,,,,,,,,,,,,,,,,,
null,,rt_plussign_withcolor2,414461,,,,green,,,null,object_15a.png,object_07c.png,,,,,,,,,,,,,,,,,
864.2999999523163,,rt_thecrossant_black2,415599,,,,black_plus_sign,,,50,,,1,,,,,,,1,,,,,,,,,
null,,color_black2,415707,,,,black_plus_sign,,,null,,,,,,,,,,,,,,,,,,,
null,,learn_phase(without_color)2,419216,,,,black_plus_sign,,,null,object_04a.png,object_02b.png,,,,,,,,,,,,,,,,,
null,,black_cross(without_color)2,419857,,,,green,,,null,object_04a.png,object_02b.png,,,,,,,,,,,,,,,,,
null,,rt_plussign_withcolor2,420366,,,,green,,,null,object_04a.png,object_02b.png,,,,,,,,,,,,,,,,,
1175,,rt_thecrossant_black2,421745,,,,black_plus_sign,,,50,,,1,,,,,,,1,,,,,,,,,
null,,color_black2,421854,,,,black_plus_sign,,,null,,,,,,,,,,,,,,,,,,,
null,,learn_phase(without_color)2,425372,,,,black_plus_sign,,,null,object_01a.png,object_05b.png,,,,,,,,,,,,,,,,,
null,,black_cross(without_color)2,426396,,,,blue,,,null,object_01a.png,object_05b.png,,,,,,,,,,,,,,,,,
null,,rt_plussign_withcolor2,426905,,,,blue,,,null,object_01a.png,object_05b.png,,,,,,,,,,,,,,,,,
737.2000000476837,,rt_thecrossant_black2,427896,,,,black_plus_sign,,,49,,,1,,,,,,,1,,,,,,,,,
null,,color_black2,428005,,,,black_plus_sign,,,null,,,,,,,,,,,,,,,,,,,
null,,learn_phase(without_color)2,431508,,,,black_plus_sign,,,null,object_11a.png,object_02a.png,,,,,,,,,,,,,,,,,
null,,black_cross(without_color)2,432539,,,,green,,,null,object_11a.png,object_02a.png,,,,,,,,,,,,,,,,,
null,,rt_plussign_withcolor2,433041,,,,green,,,null,object_11a.png,object_02a.png,,,,,,,,,,,,,,,,,
1258.2999999523163,,rt_thecrossant_black2,434018,,,,black_plus_sign,,,50,,,1,,,,,,,1,,,,,,,,,
null,,color_black2,434125,,,,black_plus_sign,,,null,,,,,,,,,,,,,,,,,,,
null,,thebreak,434232,,,,<p></p>,,,null,,,,,,,,,,,,,,,,,,,
1078.9000000953674,,intro_0,435311,,,,instruct,,,32,,,,,,,,,,,,,,,,,,,
4482.200000047684,,directmemory_phase2,439795,,,,object_02a.png,,,49,,,1,,object_11a.png,object_06c.png,object_07c.png,object_11a.png,,0.8125,1,,,,,,,,
1725.3999998569489,,directmemory_phase2,441522,,,,object_08a.png,,,49,,,1,,object_06b.png,object_06a.png,object_05c.png,object_06b.png,,0.8235294117647058,1,,,,,,,,
1801.0999999046326,,directmemory_phase2,443325,,,,object_07c.png,,,49,,,1,,object_15a.png,object_08c.png,object_05c.png,object_15a.png,,0.8333333333333334,1,,,,,,,,
2202.5,,directmemory_phase2,445530,,,,object_13b.png,,,50,,,1,,object_09b.png,object_08c.png,object_02b.png,object_08c.png,,0.8421052631578947,1,,,,,,,,
1464.8000001907349,,directmemory_phase2,446997,,,,object_01b.png,,,50,,,1,,object_05c.png,object_12a.png,object_02b.png,object_12a.png,,0.85,1,,,,,,,,
2183.2999999523163,,directmemory_phase2,449182,,,,object_05c.png,,,49,,,1,,object_15c.png,object_08c.png,object_01b.png,object_15c.png,,0.8571428571428571,1,,,,,,,,
2490.2999999523163,,directmemory_phase2,451674,,,,object_01a.png,,,51,,,1,,object_04c.png,object_07c.png,object_05b.png,object_05b.png,,0.8636363636363636,1,,,,,,,,
2420.4000000953674,,directmemory_phase2,454096,,,,object_12c.png,,,49,,,1,,object_01c.png,object_08c.png,object_10b.png,object_01c.png,,0.8695652173913043,1,,,,,,,,
1906.0999999046326,,directmemory_phase2,456004,,,,object_09b.png,,,50,,,1,,object_10b.png,object_04c.png,object_15b.png,object_04c.png,,0.875,1,,,,,,,,
3449.2999999523163,,directmemory_phase2,459456,,,,object_03b.png,,,51,,,1,,object_02b.png,object_12c.png,object_06c.png,object_06c.png,,0.88,1,,,,,,,,
1625.5,,directmemory_phase2,461084,,,,object_07a.png,,,50,,,1,,object_07c.png,object_15b.png,object_08c.png,object_15b.png,,0.8846153846153846,1,,,,,,,,
1915.3999998569489,,directmemory_phase2,463002,,,,object_05a.png,,,49,,,1,,object_11b.png,object_01c.png,object_02a.png,object_11b.png,,0.8888888888888888,1,,,,,,,,
1682,,directmemory_phase2,464685,,,,object_10b.png,,,49,,,1,,object_09a.png,object_11b.png,object_02a.png,object_09a.png,,0.8928571428571429,1,,,,,,,,
1746.0999999046326,,directmemory_phase2,466434,,,,object_13c.png,,,51,,,1,,object_04c.png,object_09b.png,object_06a.png,object_06a.png,,0.896551724137931,1,,,,,,,,
2764.2000000476837,,directmemory_phase2,469200,,,,object_04a.png,,,50,,,1,,object_01b.png,object_02b.png,object_06c.png,object_02b.png,,0.9,1,,,,,,,,
null,,thebreak,469302,,,,<p></p>,,,null,,,,,,,,,,,,,,,,,,,
1502.2000000476837,,intro_0,470806,,,,instruct,,,32,,,,,,,,,,,,,,,,,,,
null,,learn_phase(without_color)3,474315,,,,black_plus_sign,,,null,object_15c.png,object_05c.png,,,,,,,,,,,,,,,,,
null,,black_cross(without_color)3,475209,,,,green,,,null,object_15c.png,object_05c.png,,,,,,,,,,,,,,,,,
null,,rt_plussign_withcolor3,475713,,,,green,,,null,object_15c.png,object_05c.png,,,,,,,,,,,,,,,,,
1137.9000000953674,,rt_thecrossant_black3,476835,,,,black_plus_sign,,,50,,,1,,,,,,,1,,,,,,,,,
null,,color_black3,476943,,,,black_plus_sign,,,null,,,,,,,,,,,,,,,,,,,
null,,learn_phase(without_color)3,480447,,,,black_plus_sign,,,null,object_05b.png,object_01a.png,,,,,,,,,,,,,,,,,
null,,black_cross(without_color)3,480879,,,,green,,,null,object_05b.png,object_01a.png,,,,,,,,,,,,,,,,,
null,,rt_plussign_withcolor3,481386,,,,green,,,null,object_05b.png,object_01a.png,,,,,,,,,,,,,,,,,
1070.6999998092651,,rt_thecrossant_black3,482978,,,,black_plus_sign,,,50,,,1,,,,,,,1,,,,,,,,,
null,,color_black3,483086,,,,black_plus_sign,,,null,,,,,,,,,,,,,,,,,,,
null,,learn_phase(without_color)3,486588,,,,black_plus_sign,,,null,object_08a.png,object_06b.png,,,,,,,,,,,,,,,,,
null,,black_cross(without_color)3,487520,,,,green,,,null,object_08a.png,object_06b.png,,,,,,,,,,,,,,,,,
null,,rt_plussign_withcolor3,488023,,,,green,,,null,object_08a.png,object_06b.png,,,,,,,,,,,,,,,,,
741,,rt_thecrossant_black3,489106,,,,black_plus_sign,,,50,,,1,,,,,,,1,,,,,,,,,
null,,color_black3,489214,,,,black_plus_sign,,,null,,,,,,,,,,,,,,,,,,,
null,,learn_phase(without_color)3,492721,,,,black_plus_sign,,,null,object_15a.png,object_07c.png,,,,,,,,,,,,,,,,,
null,,black_cross(without_color)3,493193,,,,green,,,null,object_15a.png,object_07c.png,,,,,,,,,,,,,,,,,
470.19999980926514,,rt_plussign_withcolor3,493697,,,,green,,,50,object_15a.png,object_07c.png,,,,,,,,,,,,,,,,,
null,,rt_thecrossant_black3,495237,,,,black_plus_sign,,,null,,,1,,,,,,,1,,,,,,,,,
null,,color_black3,495353,,,,black_plus_sign,,,null,,,,,,,,,,,,,,,,,,,
null,,learn_phase(without_color)3,498862,,,,black_plus_sign,,,null,object_04a.png,object_02b.png,,,,,,,,,,,,,,,,,
null,,black_cross(without_color)3,499402,,,,green,,,null,object_04a.png,object_02b.png,,,,,,,,,,,,,,,,,
null,,rt_plussign_withcolor3,499907,,,,green,,,null,object_04a.png,object_02b.png,,,,,,,,,,,,,,,,,
566.1999998092651,,rt_thecrossant_black3,501378,,,,black_plus_sign,,,50,,,1,,,,,,,1,,,,,,,,,
null,,color_black3,501486,,,,black_plus_sign,,,null,,,,,,,,,,,,,,,,,,,
null,,learn_phase(without_color)3,504992,,,,black_plus_sign,,,null,object_03b.png,object_06c.png,,,,,,,,,,,,,,,,,
null,,black_cross(without_color)3,505956,,,,green,,,null,object_03b.png,object_06c.png,,,,,,,,,,,,,,,,,
465.7000000476837,,rt_plussign_withcolor3,506472,,,,green,,,50,object_03b.png,object_06c.png,,,,,,,,,,,,,,,,,
null,,rt_thecrossant_black3,507520,,,,black_plus_sign,,,null,,,1,,,,,,,1,,,,,,,,,
null,,color_black3,507629,,,,black_plus_sign,,,null,,,,,,,,,,,,,,,,,,,
null,,learn_phase(without_color)3,511132,,,,black_plus_sign,,,null,object_15b.png,object_07a.png,,,,,,,,,,,,,,,,,
null,,black_cross(without_color)3,511937,,,,blue,,,null,object_15b.png,object_07a.png,,,,,,,,,,,,,,,,,
503.2000000476837,,rt_plussign_withcolor3,512443,,,,blue,,,49,object_15b.png,object_07a.png,,,,,,,,,,,,,,,,,
null,,rt_thecrossant_black3,513664,,,,black_plus_sign,,,null,,,1,,,,,,,1,,,,,,,,,
null,,color_black3,513773,,,,black_plus_sign,,,null,,,,,,,,,,,,,,,,,,,
null,,learn_phase(without_color)3,517281,,,,black_plus_sign,,,null,object_06a.png,object_13c.png,,,,,,,,,,,,,,,,,
null,,black_cross(without_color)3,517778,,,,green,,,null,object_06a.png,object_13c.png,,,,,,,,,,,,,,,,,
null,,rt_plussign_withcolor3,518292,,,,green,,,null,object_06a.png,object_13c.png,,,,,,,,,,,,,,,,,
935.6000001430511,,rt_thecrossant_black3,519805,,,,black_plus_sign,,,50,,,1,,,,,,,1,,,,,,,,,
null,,color_black3,519912,,,,black_plus_sign,,,null,,,,,,,,,,,,,,,,,,,
null,,learn_phase(without_color)3,523423,,,,black_plus_sign,,,null,object_09a.png,object_10b.png,,,,,,,,,,,,,,,,,
null,,black_cross(without_color)3,524226,,,,green,,,null,object_09a.png,object_10b.png,,,,,,,,,,,,,,,,,
null,,rt_plussign_withcolor3,524734,,,,green,,,null,object_09a.png,object_10b.png,,,,,,,,,,,,,,,,,
660.7000000476837,,rt_thecrossant_black3,525941,,,,black_plus_sign,,,50,,,1,,,,,,,1,,,,,,,,,
null,,color_black3,526048,,,,black_plus_sign,,,null,,,,,,,,,,,,,,,,,,,
null,,learn_phase(without_color)3,529554,,,,black_plus_sign,,,null,object_08c.png,object_13b.png,,,,,,,,,,,,,,,,,
null,,black_cross(without_color)3,530604,,,,green,,,null,object_08c.png,object_13b.png,,,,,,,,,,,,,,,,,
500,,rt_plussign_withcolor3,531106,,,,green,,,50,object_08c.png,object_13b.png,,,,,,,,,,,,,,,,,
null,,rt_thecrossant_black3,532073,,,,black_plus_sign,,,null,,,1,,,,,,,1,,,,,,,,,
null,,color_black3,532180,,,,black_plus_sign,,,null,,,,,,,,,,,,,,,,,,,
null,,learn_phase(without_color)3,535690,,,,black_plus_sign,,,null,object_12c.png,object_01c.png,,,,,,,,,,,,,,,,,
null,,black_cross(without_color)3,536476,,,,blue,,,null,object_12c.png,object_01c.png,,,,,,,,,,,,,,,,,
null,,rt_plussign_withcolor3,536985,,,,blue,,,null,object_12c.png,object_01c.png,,,,,,,,,,,,,,,,,
1329,,rt_thecrossant_black3,538216,,,,black_plus_sign,,,50,,,0,,,,,,,0.9090909090909091,,,,,,,,,
null,,color_black3,538322,,,,black_plus_sign,,,null,,,,,,,,,,,,,,,,,,,
null,,learn_phase(without_color)3,541826,,,,black_plus_sign,,,null,object_11b.png,object_05a.png,,,,,,,,,,,,,,,,,
null,,black_cross(without_color)3,542912,,,,green,,,null,object_11b.png,object_05a.png,,,,,,,,,,,,,,,,,
null,,rt_plussign_withcolor3,543418,,,,green,,,null,object_11b.png,object_05a.png,,,,,,,,,,,,,,,,,
914.0999999046326,,rt_thecrossant_black3,544352,,,,black_plus_sign,,,50,,,1,,,,,,,0.9166666666666666,,,,,,,,,
null,,color_black3,544469,,,,black_plus_sign,,,null,,,,,,,,,,,,,,,,,,,
null,,learn_phase(without_color)3,547979,,,,black_plus_sign,,,null,object_02a.png,object_11a.png,,,,,,,,,,,,,,,,,
null,,black_cross(without_color)3,549015,,,,blue,,,null,object_02a.png,object_11a.png,,,,,,,,,,,,,,,,,
null,,rt_plussign_withcolor3,549523,,,,blue,,,null,object_02a.png,object_11a.png,,,,,,,,,,,,,,,,,
1262.9000000953674,,rt_thecrossant_black3,550498,,,,black_plus_sign,,,49,,,1,,,,,,,0.9230769230769231,,,,,,,,,
null,,color_black3,550607,,,,black_plus_sign,,,null,,,,,,,,,,,,,,,,,,,
null,,learn_phase(without_color)3,554110,,,,black_plus_sign,,,null,object_04c.png,object_09b.png,,,,,,,,,,,,,,,,,
null,,black_cross(without_color)3,555184,,,,green,,,null,object_04c.png,object_09b.png,,,,,,,,,,,,,,,,,
null,,rt_plussign_withcolor3,555688,,,,green,,,null,object_04c.png,object_09b.png,,,,,,,,,,,,,,,,,
1156.0999999046326,,rt_thecrossant_black3,556627,,,,black_plus_sign,,,50,,,1,,,,,,,0.9285714285714286,,,,,,,,,
null,,color_black3,556734,,,,black_plus_sign,,,null,,,,,,,,,,,,,,,,,,,
null,,learn_phase(without_color)3,560240,,,,black_plus_sign,,,null,object_12a.png,object_01b.png,,,,,,,,,,,,,,,,,
null,,black_cross(without_color)3,561199,,,,green,,,null,object_12a.png,object_01b.png,,,,,,,,,,,,,,,,,
null,,rt_plussign_withcolor3,561709,,,,green,,,null,object_12a.png,object_01b.png,,,,,,,,,,,,,,,,,
1343.7000000476837,,rt_thecrossant_black3,562765,,,,black_plus_sign,,,50,,,1,,,,,,,0.9333333333333333,,,,,,,,,
null,,color_black3,562873,,,,black_plus_sign,,,null,,,,,,,,,,,,,,,,,,,
null,,thebreak,562982,,,,<p></p>,,,null,,,,,,,,,,,,,,,,,,,
93340.19999980927,,intro_0,656324,,,,instruct,,,32,,,,,,,,,,,,,,,,,,,
1657.1000001430511,,directmemory_phase3,657982,,,,object_07c.png,,,49,,,1,,object_15a.png,object_09a.png,object_03b.png,object_15a.png,,0.9032258064516129,1,,,,,,,,
1580.6000001430511,,directmemory_phase3,659564,,,,object_13c.png,,,50,,,1,,object_09b.png,object_06a.png,object_06c.png,object_06a.png,,0.90625,1,,,,,,,,
2780.5,,directmemory_phase3,662348,,,,object_05c.png,,,51,,,1,,object_05b.png,object_13b.png,object_15c.png,object_15c.png,,0.9090909090909091,1,,,,,,,,
1507.1000001430511,,directmemory_phase3,663857,,,,object_01b.png,,,49,,,1,,object_12a.png,object_05b.png,object_03b.png,object_12a.png,,0.9117647058823529,1,,,,,,,,
3253,,directmemory_phase3,667112,,,,object_02a.png,,,49,,,1,,object_11a.png,object_11b.png,object_01a.png,object_11a.png,,0.9142857142857143,1,,,,,,,,
2886.2000000476837,,directmemory_phase3,670001,,,,object_03b.png,,,51,,,1,,object_05b.png,object_12c.png,object_06c.png,object_06c.png,,0.9166666666666666,1,,,,,,,,
1377.4000000953674,,directmemory_phase3,671380,,,,object_08a.png,,,50,,,1,,object_12c.png,object_06b.png,object_01c.png,object_06b.png,,0.918918918918919,1,,,,,,,,
1179.7999999523163,,directmemory_phase3,672563,,,,object_07a.png,,,50,,,1,,object_10b.png,object_15b.png,object_02b.png,object_15b.png,,0.9210526315789473,1,,,,,,,,
1990.6000001430511,,directmemory_phase3,674556,,,,object_01a.png,,,51,,,1,,object_11a.png,object_13c.png,object_05b.png,object_05b.png,,0.9230769230769231,1,,,,,,,,
1743.2000000476837,,directmemory_phase3,676301,,,,object_13b.png,,,49,,,1,,object_08c.png,object_09a.png,object_03b.png,object_08c.png,,0.925,1,,,,,,,,
4382.799999952316,,directmemory_phase3,680686,,,,object_12c.png,,,51,,,1,,object_06c.png,object_03b.png,object_01c.png,object_01c.png,,0.926829268292683,1,,,,,,,,
1659.3999998569489,,directmemory_phase3,682347,,,,object_09b.png,,,50,,,1,,object_04a.png,object_04c.png,object_02b.png,object_04c.png,,0.9285714285714286,1,,,,,,,,
1452.6999998092651,,directmemory_phase3,683802,,,,object_10b.png,,,49,,,1,,object_09a.png,object_08c.png,object_02a.png,object_09a.png,,0.9302325581395349,1,,,,,,,,
1562,,directmemory_phase3,685365,,,,object_04a.png,,,50,,,1,,object_01b.png,object_02b.png,object_11b.png,object_02b.png,,0.9318181818181818,1,,,,,,,,
1500.8999998569489,,directmemory_phase3,686868,,,,object_05a.png,,,50,,,1,,object_12c.png,object_11b.png,object_02b.png,object_11b.png,,0.9333333333333333,1,,,,,,,,
null,,thebreak,686973,,,,<p></p>,,,null,,,,,,,,,,,,,,,,,,,
1269.5,,intro_0,688244,,,,instruct,,,32,,,,,,,,,,,,,,,,,,,
null,,learn_phase(without_color)4,691752,,,,black_plus_sign,,,null,object_04a.png,object_02b.png,,,,,,,,,,,,,,,,,
null,,black_cross(without_color)4,692832,,,,green,,,null,object_04a.png,object_02b.png,,,,,,,,,,,,,,,,,
null,,rt_plussign_withcolor4,693336,,,,green,,,null,object_04a.png,object_02b.png,,,,,,,,,,,,,,,,,
1217.0999999046326,,rt_thecrossant_black4,694264,,,,black_plus_sign,,,50,,,1,,,,,,,1,,,,,,,,,
null,,color_black4,694380,,,,black_plus_sign,,,null,,,,,,,,,,,,,,,,,,,
null,,learn_phase(without_color)4,697888,,,,black_plus_sign,,,null,object_15a.png,object_07c.png,,,,,,,,,,,,,,,,,
null,,black_cross(without_color)4,698972,,,,blue,,,null,object_15a.png,object_07c.png,,,,,,,,,,,,,,,,,
463.7000000476837,,rt_plussign_withcolor4,699475,,,,blue,,,49,object_15a.png,object_07c.png,,,,,,,,,,,,,,,,,
null,,rt_thecrossant_black4,700407,,,,black_plus_sign,,,null,,,1,,,,,,,1,,,,,,,,,
null,,color_black4,700523,,,,black_plus_sign,,,null,,,,,,,,,,,,,,,,,,,
null,,learn_phase(without_color)4,704029,,,,black_plus_sign,,,null,object_08c.png,object_13b.png,,,,,,,,,,,,,,,,,
null,,black_cross(without_color)4,704896,,,,blue,,,null,object_08c.png,object_13b.png,,,,,,,,,,,,,,,,,
null,,rt_plussign_withcolor4,705400,,,,blue,,,null,object_08c.png,object_13b.png,,,,,,,,,,,,,,,,,
1441.4000000953674,,rt_thecrossant_black4,706545,,,,black_plus_sign,,,49,,,1,,,,,,,1,,,,,,,,,
null,,color_black4,706650,,,,black_plus_sign,,,null,,,,,,,,,,,,,,,,,,,
null,,learn_phase(without_color)4,710154,,,,black_plus_sign,,,null,object_10b.png,object_09a.png,,,,,,,,,,,,,,,,,
null,,black_cross(without_color)4,710731,,,,green,,,null,object_10b.png,object_09a.png,,,,,,,,,,,,,,,,,
null,,rt_plussign_withcolor4,711236,,,,green,,,null,object_10b.png,object_09a.png,,,,,,,,,,,,,,,,,
1126.7000000476837,,rt_thecrossant_black4,712666,,,,black_plus_sign,,,50,,,1,,,,,,,1,,,,,,,,,
null,,color_black4,712773,,,,black_plus_sign,,,null,,,,,,,,,,,,,,,,,,,
null,,learn_phase(without_color)4,716275,,,,black_plus_sign,,,null,object_05a.png,object_11b.png,,,,,,,,,,,,,,,,,
null,,black_cross(without_color)4,717034,,,,blue,,,null,object_05a.png,object_11b.png,,,,,,,,,,,,,,,,,
485.5,,rt_plussign_withcolor4,717543,,,,blue,,,49,object_05a.png,object_11b.png,,,,,,,,,,,,,,,,,
null,,rt_thecrossant_black4,718804,,,,black_plus_sign,,,null,,,1,,,,,,,1,,,,,,,,,
null,,color_black4,718910,,,,black_plus_sign,,,null,,,,,,,,,,,,,,,,,,,
null,,learn_phase(without_color)4,722415,,,,black_plus_sign,,,null,object_01b.png,object_12a.png,,,,,,,,,,,,,,,,,
null,,black_cross(without_color)4,723465,,,,green,,,null,object_01b.png,object_12a.png,,,,,,,,,,,,,,,,,
null,,rt_plussign_withcolor4,723970,,,,green,,,null,object_01b.png,object_12a.png,,,,,,,,,,,,,,,,,
850.0999999046326,,rt_thecrossant_black4,724934,,,,black_plus_sign,,,50,,,1,,,,,,,1,,,,,,,,,
null,,color_black4,725041,,,,black_plus_sign,,,null,,,,,,,,,,,,,,,,,,,
null,,learn_phase(without_color)4,728546,,,,black_plus_sign,,,null,object_06c.png,object_03b.png,,,,,,,,,,,,,,,,,
null,,black_cross(without_color)4,729534,,,,green,,,null,object_06c.png,object_03b.png,,,,,,,,,,,,,,,,,
null,,rt_plussign_withcolor4,730038,,,,green,,,null,object_06c.png,object_03b.png,,,,,,,,,,,,,,,,,
1185.4000000953674,,rt_thecrossant_black4,731061,,,,black_plus_sign,,,50,,,1,,,,,,,1,,,,,,,,,
null,,color_black4,731168,,,,black_plus_sign,,,null,,,,,,,,,,,,,,,,,,,
null,,learn_phase(without_color)4,734678,,,,black_plus_sign,,,null,object_01c.png,object_12c.png,,,,,,,,,,,,,,,,,
null,,black_cross(without_color)4,735765,,,,blue,,,null,object_01c.png,object_12c.png,,,,,,,,,,,,,,,,,
null,,rt_plussign_withcolor4,736268,,,,blue,,,null,object_01c.png,object_12c.png,,,,,,,,,,,,,,,,,
1108.2000000476837,,rt_thecrossant_black4,737187,,,,black_plus_sign,,,49,,,1,,,,,,,1,,,,,,,,,
null,,color_black4,737294,,,,black_plus_sign,,,null,,,,,,,,,,,,,,,,,,,
null,,learn_phase(without_color)4,740804,,,,black_plus_sign,,,null,object_07a.png,object_15b.png,,,,,,,,,,,,,,,,,
null,,black_cross(without_color)4,741250,,,,blue,,,null,object_07a.png,object_15b.png,,,,,,,,,,,,,,,,,
null,,rt_plussign_withcolor4,741753,,,,blue,,,null,object_07a.png,object_15b.png,,,,,,,,,,,,,,,,,
1627,,rt_thecrossant_black4,743320,,,,black_plus_sign,,,49,,,1,,,,,,,1,,,,,,,,,
null,,color_black4,743435,,,,black_plus_sign,,,null,,,,,,,,,,,,,,,,,,,
null,,learn_phase(without_color)4,746941,,,,black_plus_sign,,,null,object_13c.png,object_06a.png,,,,,,,,,,,,,,,,,
null,,black_cross(without_color)4,747545,,,,blue,,,null,object_13c.png,object_06a.png,,,,,,,,,,,,,,,,,
null,,rt_plussign_withcolor4,748051,,,,blue,,,null,object_13c.png,object_06a.png,,,,,,,,,,,,,,,,,
698.7000000476837,,rt_thecrossant_black4,749461,,,,black_plus_sign,,,49,,,1,,,,,,,1,,,,,,,,,
null,,color_black4,749568,,,,black_plus_sign,,,null,,,,,,,,,,,,,,,,,,,
null,,learn_phase(without_color)4,753072,,,,black_plus_sign,,,null,object_02a.png,object_11a.png,,,,,,,,,,,,,,,,,
null,,black_cross(without_color)4,754158,,,,green,,,null,object_02a.png,object_11a.png,,,,,,,,,,,,,,,,,
null,,rt_plussign_withcolor4,754661,,,,green,,,null,object_02a.png,object_11a.png,,,,,,,,,,,,,,,,,
712.9000000953674,,rt_thecrossant_black4,755587,,,,black_plus_sign,,,50,,,1,,,,,,,1,,,,,,,,,
null,,color_black4,755694,,,,black_plus_sign,,,null,,,,,,,,,,,,,,,,,,,
null,,learn_phase(without_color)4,759204,,,,black_plus_sign,,,null,object_15c.png,object_05c.png,,,,,,,,,,,,,,,,,
null,,black_cross(without_color)4,759661,,,,green,,,null,object_15c.png,object_05c.png,,,,,,,,,,,,,,,,,
null,,rt_plussign_withcolor4,760166,,,,green,,,null,object_15c.png,object_05c.png,,,,,,,,,,,,,,,,,
1508.7000000476837,,rt_thecrossant_black4,761725,,,,black_plus_sign,,,50,,,1,,,,,,,1,,,,,,,,,
null,,color_black4,761832,,,,black_plus_sign,,,null,,,,,,,,,,,,,,,,,,,
null,,learn_phase(without_color)4,765334,,,,black_plus_sign,,,null,object_06b.png,object_08a.png,,,,,,,,,,,,,,,,,
null,,black_cross(without_color)4,765829,,,,green,,,null,object_06b.png,object_08a.png,,,,,,,,,,,,,,,,,
null,,rt_plussign_withcolor4,766333,,,,green,,,null,object_06b.png,object_08a.png,,,,,,,,,,,,,,,,,
728.0999999046326,,rt_thecrossant_black4,767847,,,,black_plus_sign,,,50,,,1,,,,,,,1,,,,,,,,,
null,,color_black4,767956,,,,black_plus_sign,,,null,,,,,,,,,,,,,,,,,,,
null,,learn_phase(without_color)4,771464,,,,black_plus_sign,,,null,object_04c.png,object_09b.png,,,,,,,,,,,,,,,,,
null,,black_cross(without_color)4,772524,,,,blue,,,null,object_04c.png,object_09b.png,,,,,,,,,,,,,,,,,
null,,rt_plussign_withcolor4,773030,,,,blue,,,null,object_04c.png,object_09b.png,,,,,,,,,,,,,,,,,
591.7999999523163,,rt_thecrossant_black4,773980,,,,black_plus_sign,,,49,,,1,,,,,,,1,,,,,,,,,
null,,color_black4,774087,,,,black_plus_sign,,,null,,,,,,,,,,,,,,,,,,,
null,,learn_phase(without_color)4,777598,,,,black_plus_sign,,,null,object_05b.png,object_01a.png,,,,,,,,,,,,,,,,,
null,,black_cross(without_color)4,778045,,,,green,,,null,object_05b.png,object_01a.png,,,,,,,,,,,,,,,,,
null,,rt_plussign_withcolor4,778551,,,,green,,,null,object_05b.png,object_01a.png,,,,,,,,,,,,,,,,,
1400.2999999523163,,rt_thecrossant_black4,780115,,,,black_plus_sign,,,50,,,1,,,,,,,1,,,,,,,,,
null,,color_black4,780222,,,,black_plus_sign,,,null,,,,,,,,,,,,,,,,,,,
null,,thebreak,780330,,,,<p></p>,,,null,,,,,,,,,,,,,,,,,,,
1758.2999999523163,,intro_0,782089,,,,instruct,,,32,,,,,,,,,,,,,,,,,,,
1746,,directmemory_phase4,783837,,,,object_08a.png,,,51,,,1,,object_05b.png,object_10b.png,object_06b.png,object_06b.png,,0.9347826086956522,1,,,,,,,,
1588.9000000953674,,directmemory_phase4,785429,,,,object_01a.png,,,50,,,1,,object_09b.png,object_05b.png,object_12a.png,object_05b.png,,0.9361702127659575,1,,,,,,,,
2773.2000000476837,,directmemory_phase4,788204,,,,object_12c.png,,,49,,,1,,object_01c.png,object_06c.png,object_01b.png,object_01c.png,,0.9375,1,,,,,,,,
1661.7999999523163,,directmemory_phase4,789870,,,,object_05c.png,,,51,,,1,,object_12a.png,object_07c.png,object_15c.png,object_15c.png,,0.9387755102040817,1,,,,,,,,
2293.2999999523163,,directmemory_phase4,792166,,,,object_03b.png,,,50,,,1,,object_01b.png,object_06c.png,object_12a.png,object_06c.png,,0.94,1,,,,,,,,
3290.9000000953674,,directmemory_phase4,795460,,,,object_04a.png,,,50,,,1,,object_03b.png,object_02b.png,object_15b.png,object_02b.png,,0.9411764705882353,1,,,,,,,,
1630.7999999523163,,directmemory_phase4,797093,,,,object_10b.png,,,51,,,1,,object_12a.png,object_01a.png,object_09a.png,object_09a.png,,0.9423076923076923,1,,,,,,,,
1643.5,,directmemory_phase4,798739,,,,object_07a.png,,,49,,,1,,object_15b.png,object_09a.png,object_13c.png,object_15b.png,,0.9433962264150944,1,,,,,,,,
1801.7000000476837,,directmemory_phase4,800543,,,,object_01b.png,,,51,,,1,,object_15a.png,object_04a.png,object_12a.png,object_12a.png,,0.9444444444444444,1,,,,,,,,
2006.9000000953674,,directmemory_phase4,802552,,,,object_13b.png,,,49,,,1,,object_08c.png,object_05b.png,object_07a.png,object_08c.png,,0.9454545454545454,1,,,,,,,,
1630,,directmemory_phase4,804184,,,,object_02a.png,,,49,,,1,,object_11a.png,object_05b.png,object_01a.png,object_11a.png,,0.9464285714285714,1,,,,,,,,
1733.0999999046326,,directmemory_phase4,805919,,,,object_09b.png,,,50,,,1,,object_05c.png,object_04c.png,object_02b.png,object_04c.png,,0.9473684210526315,1,,,,,,,,
2163.7000000476837,,directmemory_phase4,808085,,,,object_05a.png,,,49,,,1,,object_11b.png,object_09a.png,object_02a.png,object_11b.png,,0.9482758620689655,1,,,,,,,,
1163.5,,directmemory_phase4,809251,,,,object_07c.png,,,49,,,1,,object_15a.png,object_12a.png,object_01a.png,object_15a.png,,0.9491525423728814,1,,,,,,,,
2349.0999999046326,,directmemory_phase4,811602,,,,object_13c.png,,,50,,,1,,object_07c.png,object_06a.png,object_12a.png,object_06a.png,,0.95,1,,,,,,,,
null,,thebreak,811710,,,,<p></p>,,,null,,,,,,,,,,,,,,,,,,,
5261.700000047684,,intro_0,816973,,,,instruct,,,32,,,,,,,,,,,,,,,,,,,
null,,learn_phase(without_color)5,820476,,,,black_plus_sign,,,null,object_14b.png,object_15c.png,,,,,,,,,,,,,,,,,
null,,black_cross(without_color)5,821124,,,,blue,,,null,object_14b.png,object_15c.png,,,,,,,,,,,,,,,,,
null,,rt_plussign_withcolor5,821627,,,,blue,,,null,object_14b.png,object_15c.png,,,,,,,,,,,,,,,,,
1053,,rt_thecrossant_black5,822987,,,,black_plus_sign,,,49,,,1,,,,,,,1,,,,,,,,,
null,,color_black5,823095,,,,black_plus_sign,,,null,,,,,,,,,,,,,,,,,,,
null,,learn_phase(without_color)5,826598,,,,black_plus_sign,,,null,object_07b.png,object_05b.png,,,,,,,,,,,,,,,,,
null,,black_cross(without_color)5,827126,,,,blue,,,null,object_07b.png,object_05b.png,,,,,,,,,,,,,,,,,
null,,rt_plussign_withcolor5,827641,,,,blue,,,null,object_07b.png,object_05b.png,,,,,,,,,,,,,,,,,
882.5,,rt_thecrossant_black5,829126,,,,black_plus_sign,,,49,,,1,,,,,,,1,,,,,,,,,
null,,color_black5,829234,,,,black_plus_sign,,,null,,,,,,,,,,,,,,,,,,,
null,,learn_phase(without_color)5,832743,,,,black_plus_sign,,,null,object_03a.png,object_12a.png,,,,,,,,,,,,,,,,,
null,,black_cross(without_color)5,833263,,,,green,,,null,object_03a.png,object_12a.png,,,,,,,,,,,,,,,,,
null,,rt_plussign_withcolor5,833765,,,,green,,,null,object_03a.png,object_12a.png,,,,,,,,,,,,,,,,,
877.1000001430511,,rt_thecrossant_black5,835253,,,,black_plus_sign,,,50,,,1,,,,,,,1,,,,,,,,,
null,,color_black5,835369,,,,black_plus_sign,,,null,,,,,,,,,,,,,,,,,,,
null,,learn_phase(without_color)5,838874,,,,black_plus_sign,,,null,object_12b.png,object_02b.png,,,,,,,,,,,,,,,,,
null,,black_cross(without_color)5,839693,,,,blue,,,null,object_12b.png,object_02b.png,,,,,,,,,,,,,,,,,
null,,rt_plussign_withcolor5,840197,,,,blue,,,null,object_12b.png,object_02b.png,,,,,,,,,,,,,,,,,
734.9000000953674,,rt_thecrossant_black5,841388,,,,black_plus_sign,,,49,,,1,,,,,,,1,,,,,,,,,
null,,color_black5,841504,,,,black_plus_sign,,,null,,,,,,,,,,,,,,,,,,,
null,,learn_phase(without_color)5,845014,,,,black_plus_sign,,,null,object_09a.png,object_11c.png,,,,,,,,,,,,,,,,,
null,,black_cross(without_color)5,845700,,,,green,,,null,object_09a.png,object_11c.png,,,,,,,,,,,,,,,,,
null,,rt_plussign_withcolor5,846204,,,,green,,,null,object_09a.png,object_11c.png,,,,,,,,,,,,,,,,,
1157.7000000476837,,rt_thecrossant_black5,847532,,,,black_plus_sign,,,50,,,1,,,,,,,1,,,,,,,,,
null,,color_black5,847640,,,,black_plus_sign,,,null,,,,,,,,,,,,,,,,,,,
null,,learn_phase(without_color)5,851144,,,,black_plus_sign,,,null,object_15a.png,object_04b.png,,,,,,,,,,,,,,,,,
null,,black_cross(without_color)5,851803,,,,green,,,null,object_15a.png,object_04b.png,,,,,,,,,,,,,,,,,
null,,rt_plussign_withcolor5,852306,,,,green,,,null,object_15a.png,object_04b.png,,,,,,,,,,,,,,,,,
867.5999999046326,,rt_thecrossant_black5,853667,,,,black_plus_sign,,,50,,,1,,,,,,,1,,,,,,,,,
null,,color_black5,853784,,,,black_plus_sign,,,null,,,,,,,,,,,,,,,,,,,
null,,learn_phase(without_color)5,857299,,,,black_plus_sign,,,null,object_06a.png,object_13a.png,,,,,,,,,,,,,,,,,
null,,black_cross(without_color)5,858329,,,,green,,,null,object_06a.png,object_13a.png,,,,,,,,,,,,,,,,,
null,,rt_plussign_withcolor5,858837,,,,green,,,null,object_06a.png,object_13a.png,,,,,,,,,,,,,,,,,
850.5,,rt_thecrossant_black5,859818,,,,black_plus_sign,,,50,,,1,,,,,,,1,,,,,,,,,
null,,color_black5,859929,,,,black_plus_sign,,,null,,,,,,,,,,,,,,,,,,,
null,,learn_phase(without_color)5,863435,,,,black_plus_sign,,,null,object_06c.png,object_02c.png,,,,,,,,,,,,,,,,,
null,,black_cross(without_color)5,864452,,,,green,,,null,object_06c.png,object_02c.png,,,,,,,,,,,,,,,,,
null,,rt_plussign_withcolor5,864959,,,,green,,,null,object_06c.png,object_02c.png,,,,,,,,,,,,,,,,,
1172.7000000476837,,rt_thecrossant_black5,865967,,,,black_plus_sign,,,50,,,1,,,,,,,1,,,,,,,,,
null,,color_black5,866073,,,,black_plus_sign,,,null,,,,,,,,,,,,,,,,,,,
null,,learn_phase(without_color)5,869580,,,,black_plus_sign,,,null,object_10a.png,object_06b.png,,,,,,,,,,,,,,,,,
null,,black_cross(without_color)5,870332,,,,blue,,,null,object_10a.png,object_06b.png,,,,,,,,,,,,,,,,,
null,,rt_plussign_withcolor5,870839,,,,blue,,,null,object_10a.png,object_06b.png,,,,,,,,,,,,,,,,,
1294.5,,rt_thecrossant_black5,872106,,,,black_plus_sign,,,49,,,1,,,,,,,1,,,,,,,,,
null,,color_black5,872215,,,,black_plus_sign,,,null,,,,,,,,,,,,,,,,,,,
null,,learn_phase(without_color)5,875730,,,,black_plus_sign,,,null,object_08c.png,object_14a.png,,,,,,,,,,,,,,,,,
null,,black_cross(without_color)5,876197,,,,green,,,null,object_08c.png,object_14a.png,,,,,,,,,,,,,,,,,
null,,rt_plussign_withcolor5,876699,,,,green,,,null,object_08c.png,object_14a.png,,,,,,,,,,,,,,,,,
1061.5999999046326,,rt_thecrossant_black5,878257,,,,black_plus_sign,,,50,,,1,,,,,,,1,,,,,,,,,
null,,color_black5,878371,,,,black_plus_sign,,,null,,,,,,,,,,,,,,,,,,,
null,,learn_phase(without_color)5,881886,,,,black_plus_sign,,,null,object_04c.png,object_10c.png,,,,,,,,,,,,,,,,,
null,,black_cross(without_color)5,882802,,,,blue,,,null,object_04c.png,object_10c.png,,,,,,,,,,,,,,,,,
null,,rt_plussign_withcolor5,883310,,,,blue,,,null,object_04c.png,object_10c.png,,,,,,,,,,,,,,,,,
653.8999998569489,,rt_thecrossant_black5,884403,,,,black_plus_sign,,,49,,,1,,,,,,,1,,,,,,,,,
null,,color_black5,884513,,,,black_plus_sign,,,null,,,,,,,,,,,,,,,,,,,
null,,learn_phase(without_color)5,888019,,,,black_plus_sign,,,null,object_08b.png,object_11b.png,,,,,,,,,,,,,,,,,
null,,black_cross(without_color)5,888866,,,,green,,,null,object_08b.png,object_11b.png,,,,,,,,,,,,,,,,,
null,,rt_plussign_withcolor5,889375,,,,green,,,null,object_08b.png,object_11b.png,,,,,,,,,,,,,,,,,
1080.8000001907349,,rt_thecrossant_black5,890552,,,,black_plus_sign,,,50,,,1,,,,,,,1,,,,,,,,,
null,,color_black5,890670,,,,black_plus_sign,,,null,,,,,,,,,,,,,,,,,,,
null,,learn_phase(without_color)5,894178,,,,black_plus_sign,,,null,object_03c.png,object_11a.png,,,,,,,,,,,,,,,,,
null,,black_cross(without_color)5,895233,,,,green,,,null,object_03c.png,object_11a.png,,,,,,,,,,,,,,,,,
null,,rt_plussign_withcolor5,895736,,,,green,,,null,object_03c.png,object_11a.png,,,,,,,,,,,,,,,,,
948.6000001430511,,rt_thecrossant_black5,896701,,,,black_plus_sign,,,50,,,1,,,,,,,1,,,,,,,,,
null,,color_black5,896810,,,,black_plus_sign,,,null,,,,,,,,,,,,,,,,,,,
null,,learn_phase(without_color)5,900316,,,,black_plus_sign,,,null,object_01c.png,object_09c.png,,,,,,,,,,,,,,,,,
null,,black_cross(without_color)5,900765,,,,green,,,null,object_01c.png,object_09c.png,,,,,,,,,,,,,,,,,
null,,rt_plussign_withcolor5,901274,,,,green,,,null,object_01c.png,object_09c.png,,,,,,,,,,,,,,,,,
1280.2999999523163,,rt_thecrossant_black5,902833,,,,black_plus_sign,,,50,,,1,,,,,,,1,,,,,,,,,
null,,color_black5,902942,,,,black_plus_sign,,,null,,,,,,,,,,,,,,,,,,,
null,,learn_phase(without_color)5,906447,,,,black_plus_sign,,,null,object_14c.png,object_15b.png,,,,,,,,,,,,,,,,,
null,,black_cross(without_color)5,907519,,,,blue,,,null,object_14c.png,object_15b.png,,,,,,,,,,,,,,,,,
475.2999999523163,,rt_plussign_withcolor5,908026,,,,blue,,,49,object_14c.png,object_15b.png,,,,,,,,,,,,,,,,,
null,,rt_thecrossant_black5,908975,,,,black_plus_sign,,,null,,,1,,,,,,,1,,,,,,,,,
null,,color_black5,909083,,,,black_plus_sign,,,null,,,,,,,,,,,,,,,,,,,
null,,thebreak,909190,,,,<p></p>,,,null,,,,,,,,,,,,,,,,,,,
1192.7999999523163,,intro_0,910384,,,,instruct,,,32,,,,,,,,,,,,,,,,,,,
2350.800000190735,,directmemory_phase5,912737,,,,object_07b.png,,,51,,,1,,object_11b.png,object_14b.png,object_05b.png,object_05b.png,,0.9508196721311475,1,,,,,,,,
2296.300000190735,,directmemory_phase5,915037,,,,object_15b.png,,,50,,,1,,object_05b.png,object_14c.png,object_09c.png,object_14c.png,,0.9516129032258065,1,,,,,,,,
1837.6000001430511,,directmemory_phase5,916876,,,,object_10c.png,,,49,,,1,,object_04c.png,object_08c.png,object_08b.png,object_04c.png,,0.9523809523809523,1,,,,,,,,
2683.5,,directmemory_phase5,919562,,,,object_15c.png,,,49,,,1,,object_14b.png,object_03a.png,object_12a.png,object_14b.png,,0.953125,1,,,,,,,,
6253.100000143051,,directmemory_phase5,925818,,,,object_08c.png,,,50,,,0,,object_14a.png,object_03a.png,object_15a.png,object_14a.png,,0.9384615384615385,0,,,,,,,,
2510.9000000953674,,directmemory_phase5,928331,,,,object_12b.png,,,50,,,1,,object_14c.png,object_02b.png,object_08c.png,object_02b.png,,0.9393939393939394,1,,,,,,,,
4593.799999952316,,directmemory_phase5,932927,,,,object_12a.png,,,51,,,1,,object_14b.png,object_09a.png,object_03a.png,object_03a.png,,0.9402985074626866,1,,,,,,,,
3314.9000000953674,,directmemory_phase5,936244,,,,object_01c.png,,,51,,,1,,object_04b.png,object_04c.png,object_09c.png,object_09c.png,,0.9411764705882353,1,,,,,,,,
3196.7999999523163,,directmemory_phase5,939442,,,,object_06c.png,,,49,,,1,,object_02c.png,object_10c.png,object_05b.png,object_02c.png,,0.9420289855072463,1,,,,,,,,
2160.5,,directmemory_phase5,941605,,,,object_06a.png,,,49,,,1,,object_13a.png,object_02c.png,object_15a.png,object_13a.png,,0.9428571428571428,1,,,,,,,,
1821.7000000476837,,directmemory_phase5,943429,,,,object_10a.png,,,50,,,1,,object_04b.png,object_06b.png,object_15c.png,object_06b.png,,0.9436619718309859,1,,,,,,,,
6740.099999904633,,directmemory_phase5,950171,,,,object_11b.png,,,50,,,0,,object_12b.png,object_12a.png,object_08b.png,object_08b.png,,0.9305555555555556,0,,,,,,,,
1668.0999999046326,,directmemory_phase5,951841,,,,object_04b.png,,,50,,,1,,object_13a.png,object_15a.png,object_05b.png,object_15a.png,,0.9315068493150684,1,,,,,,,,
4822.599999904633,,directmemory_phase5,956666,,,,object_03c.png,,,51,,,1,,object_09a.png,object_04b.png,object_11a.png,object_11a.png,,0.9324324324324325,1,,,,,,,,
3574.4000000953674,,directmemory_phase5,960242,,,,object_11c.png,,,51,,,1,,object_02b.png,object_09c.png,object_09a.png,object_09a.png,,0.9333333333333333,1,,,,,,,,
null,,thebreak,960350,,,,<p></p>,,,null,,,,,,,,,,,,,,,,,,,
1752.9000000953674,,intro_0,962104,,,,instruct,,,32,,,,,,,,,,,,,,,,,,,
null,,learn_phase(without_color)6,965608,,,,black_plus_sign,,,null,object_15b.png,object_14c.png,,,,,,,,,,,,,,,,,
null,,black_cross(without_color)6,966099,,,,blue,,,null,object_15b.png,object_14c.png,,,,,,,,,,,,,,,,,
null,,rt_plussign_withcolor6,966601,,,,blue,,,null,object_15b.png,object_14c.png,,,,,,,,,,,,,,,,,
712.5,,rt_thecrossant_black6,968120,,,,black_plus_sign,,,49,,,1,,,,,,,1,,,,,,,,,
null,,color_black6,968228,,,,black_plus_sign,,,null,,,,,,,,,,,,,,,,,,,
null,,learn_phase(without_color)6,971731,,,,black_plus_sign,,,null,object_09a.png,object_11c.png,,,,,,,,,,,,,,,,,
null,,black_cross(without_color)6,972198,,,,green,,,null,object_09a.png,object_11c.png,,,,,,,,,,,,,,,,,
null,,rt_plussign_withcolor6,972700,,,,green,,,null,object_09a.png,object_11c.png,,,,,,,,,,,,,,,,,
987.9000000953674,,rt_thecrossant_black6,974256,,,,black_plus_sign,,,50,,,1,,,,,,,1,,,,,,,,,
null,,color_black6,974366,,,,black_plus_sign,,,null,,,,,,,,,,,,,,,,,,,
null,,learn_phase(without_color)6,977870,,,,black_plus_sign,,,null,object_12a.png,object_03a.png,,,,,,,,,,,,,,,,,
null,,black_cross(without_color)6,978950,,,,green,,,null,object_12a.png,object_03a.png,,,,,,,,,,,,,,,,,
null,,rt_plussign_withcolor6,979458,,,,green,,,null,object_12a.png,object_03a.png,,,,,,,,,,,,,,,,,
575.1000001430511,,rt_thecrossant_black6,980401,,,,black_plus_sign,,,50,,,1,,,,,,,1,,,,,,,,,
null,,color_black6,980513,,,,black_plus_sign,,,null,,,,,,,,,,,,,,,,,,,
null,,learn_phase(without_color)6,984017,,,,black_plus_sign,,,null,object_02c.png,object_06c.png,,,,,,,,,,,,,,,,,
null,,black_cross(without_color)6,984876,,,,green,,,null,object_02c.png,object_06c.png,,,,,,,,,,,,,,,,,
null,,rt_plussign_withcolor6,985388,,,,green,,,null,object_02c.png,object_06c.png,,,,,,,,,,,,,,,,,
1254.5,,rt_thecrossant_black6,986540,,,,black_plus_sign,,,50,,,1,,,,,,,1,,,,,,,,,
null,,color_black6,986656,,,,black_plus_sign,,,null,,,,,,,,,,,,,,,,,,,
null,,learn_phase(without_color)6,990162,,,,black_plus_sign,,,null,object_02b.png,object_12b.png,,,,,,,,,,,,,,,,,
null,,black_cross(without_color)6,991040,,,,blue,,,null,object_02b.png,object_12b.png,,,,,,,,,,,,,,,,,
null,,rt_plussign_withcolor6,991542,,,,blue,,,null,object_02b.png,object_12b.png,,,,,,,,,,,,,,,,,
970.6000001430511,,rt_thecrossant_black6,992676,,,,black_plus_sign,,,49,,,1,,,,,,,1,,,,,,,,,
null,,color_black6,992782,,,,black_plus_sign,,,null,,,,,,,,,,,,,,,,,,,
null,,learn_phase(without_color)6,996285,,,,black_plus_sign,,,null,object_06b.png,object_10a.png,,,,,,,,,,,,,,,,,
null,,black_cross(without_color)6,997244,,,,green,,,null,object_06b.png,object_10a.png,,,,,,,,,,,,,,,,,
null,,rt_plussign_withcolor6,997749,,,,green,,,null,object_06b.png,object_10a.png,,,,,,,,,,,,,,,,,
971.1999998092651,,rt_thecrossant_black6,998808,,,,black_plus_sign,,,50,,,1,,,,,,,1,,,,,,,,,
null,,color_black6,998925,,,,black_plus_sign,,,null,,,,,,,,,,,,,,,,,,,
null,,learn_phase(without_color)6,1002428,,,,black_plus_sign,,,null,object_09c.png,object_01c.png,,,,,,,,,,,,,,,,,
null,,black_cross(without_color)6,1003216,,,,green,,,null,object_09c.png,object_01c.png,,,,,,,,,,,,,,,,,
null,,rt_plussign_withcolor6,1003729,,,,green,,,null,object_09c.png,object_01c.png,,,,,,,,,,,,,,,,,
1209.2000000476837,,rt_thecrossant_black6,1004952,,,,black_plus_sign,,,50,,,1,,,,,,,1,,,,,,,,,
null,,color_black6,1005059,,,,black_plus_sign,,,null,,,,,,,,,,,,,,,,,,,
null,,learn_phase(without_color)6,1008565,,,,black_plus_sign,,,null,object_03c.png,object_11a.png,,,,,,,,,,,,,,,,,
null,,black_cross(without_color)6,1009227,,,,blue,,,null,object_03c.png,object_11a.png,,,,,,,,,,,,,,,,,
null,,rt_plussign_withcolor6,1009732,,,,blue,,,null,object_03c.png,object_11a.png,,,,,,,,,,,,,,,,,
886.2999999523163,,rt_thecrossant_black6,1011088,,,,black_plus_sign,,,49,,,1,,,,,,,1,,,,,,,,,
null,,color_black6,1011204,,,,black_plus_sign,,,null,,,,,,,,,,,,,,,,,,,
null,,learn_phase(without_color)6,1014711,,,,black_plus_sign,,,null,object_07b.png,object_05b.png,,,,,,,,,,,,,,,,,
null,,black_cross(without_color)6,1015708,,,,green,,,null,object_07b.png,object_05b.png,,,,,,,,,,,,,,,,,
null,,rt_plussign_withcolor6,1016213,,,,green,,,null,object_07b.png,object_05b.png,,,,,,,,,,,,,,,,,
821.2000000476837,,rt_thecrossant_black6,1017224,,,,black_plus_sign,,,50,,,1,,,,,,,1,,,,,,,,,
null,,color_black6,1017332,,,,black_plus_sign,,,null,,,,,,,,,,,,,,,,,,,
null,,learn_phase(without_color)6,1020842,,,,black_plus_sign,,,null,object_15c.png,object_14b.png,,,,,,,,,,,,,,,,,
null,,black_cross(without_color)6,1021414,,,,blue,,,null,object_15c.png,object_14b.png,,,,,,,,,,,,,,,,,
null,,rt_plussign_withcolor6,1021918,,,,blue,,,null,object_15c.png,object_14b.png,,,,,,,,,,,,,,,,,
1474.6000001430511,,rt_thecrossant_black6,1023366,,,,black_plus_sign,,,49,,,1,,,,,,,1,,,,,,,,,
null,,color_black6,1023482,,,,black_plus_sign,,,null,,,,,,,,,,,,,,,,,,,
null,,learn_phase(without_color)6,1026985,,,,black_plus_sign,,,null,object_15a.png,object_04b.png,,,,,,,,,,,,,,,,,
null,,black_cross(without_color)6,1027742,,,,blue,,,null,object_15a.png,object_04b.png,,,,,,,,,,,,,,,,,
null,,rt_plussign_withcolor6,1028248,,,,blue,,,null,object_15a.png,object_04b.png,,,,,,,,,,,,,,,,,
960.1999998092651,,rt_thecrossant_black6,1029518,,,,black_plus_sign,,,49,,,1,,,,,,,1,,,,,,,,,
null,,color_black6,1029626,,,,black_plus_sign,,,null,,,,,,,,,,,,,,,,,,,
null,,learn_phase(without_color)6,1033132,,,,black_plus_sign,,,null,object_08c.png,object_14a.png,,,,,,,,,,,,,,,,,
null,,black_cross(without_color)6,1033656,,,,blue,,,null,object_08c.png,object_14a.png,,,,,,,,,,,,,,,,,
null,,rt_plussign_withcolor6,1034165,,,,blue,,,null,object_08c.png,object_14a.png,,,,,,,,,,,,,,,,,
1126.8000001907349,,rt_thecrossant_black6,1035664,,,,black_plus_sign,,,49,,,1,,,,,,,1,,,,,,,,,
null,,color_black6,1035773,,,,black_plus_sign,,,null,,,,,,,,,,,,,,,,,,,
null,,learn_phase(without_color)6,1039281,,,,black_plus_sign,,,null,object_10c.png,object_04c.png,,,,,,,,,,,,,,,,,
null,,black_cross(without_color)6,1040082,,,,blue,,,null,object_10c.png,object_04c.png,,,,,,,,,,,,,,,,,
null,,rt_plussign_withcolor6,1040586,,,,blue,,,null,object_10c.png,object_04c.png,,,,,,,,,,,,,,,,,
634.2000000476837,,rt_thecrossant_black6,1041794,,,,black_plus_sign,,,49,,,1,,,,,,,1,,,,,,,,,
null,,color_black6,1041902,,,,black_plus_sign,,,null,,,,,,,,,,,,,,,,,,,
null,,learn_phase(without_color)6,1045411,,,,black_plus_sign,,,null,object_13a.png,object_06a.png,,,,,,,,,,,,,,,,,
null,,black_cross(without_color)6,1046017,,,,green,,,null,object_13a.png,object_06a.png,,,,,,,,,,,,,,,,,
null,,rt_plussign_withcolor6,1046526,,,,green,,,null,object_13a.png,object_06a.png,,,,,,,,,,,,,,,,,
1079.2000000476837,,rt_thecrossant_black6,1047945,,,,black_plus_sign,,,50,,,1,,,,,,,1,,,,,,,,,
null,,color_black6,1048060,,,,black_plus_sign,,,null,,,,,,,,,,,,,,,,,,,
null,,learn_phase(without_color)6,1051570,,,,black_plus_sign,,,null,object_11b.png,object_08b.png,,,,,,,,,,,,,,,,,
null,,black_cross(without_color)6,1052575,,,,blue,,,null,object_11b.png,object_08b.png,,,,,,,,,,,,,,,,,
null,,rt_plussign_withcolor6,1053078,,,,blue,,,null,object_11b.png,object_08b.png,,,,,,,,,,,,,,,,,
717.5,,rt_thecrossant_black6,1054085,,,,black_plus_sign,,,49,,,1,,,,,,,1,,,,,,,,,
null,,color_black6,1054194,,,,black_plus_sign,,,null,,,,,,,,,,,,,,,,,,,
null,,thebreak,1054302,,,,<p></p>,,,null,,,,,,,,,,,,,,,,,,,
1658.1000001430511,,intro_0,1055962,,,,instruct,,,32,,,,,,,,,,,,,,,,,,,
2536.7999999523163,,directmemory_phase6,1058501,,,,object_10c.png,,,50,,,1,,object_12b.png,object_04c.png,object_05b.png,object_04c.png,,0.9342105263157895,1,,,,,,,,
3301.2999999523163,,directmemory_phase6,1061805,,,,object_14b.png,,,51,,,1,,object_09a.png,object_07b.png,object_15c.png,object_15c.png,,0.935064935064935,1,,,,,,,,
1836.4000000953674,,directmemory_phase6,1063644,,,,object_15a.png,,,49,,,1,,object_04b.png,object_12b.png,object_02b.png,object_04b.png,,0.9358974358974359,1,,,,,,,,
2062.4000000953674,,directmemory_phase6,1065709,,,,object_11a.png,,,50,,,1,,object_04c.png,object_03c.png,object_14b.png,object_03c.png,,0.9367088607594937,1,,,,,,,,
1675.7000000476837,,directmemory_phase6,1067387,,,,object_07b.png,,,49,,,1,,object_05b.png,object_04c.png,object_10c.png,object_05b.png,,0.9375,1,,,,,,,,
1751.3999998569489,,directmemory_phase6,1069142,,,,object_15b.png,,,51,,,1,,object_13a.png,object_15a.png,object_14c.png,object_14c.png,,0.9382716049382716,1,,,,,,,,
1541.7000000476837,,directmemory_phase6,1070687,,,,object_10a.png,,,50,,,1,,object_08b.png,object_06b.png,object_12a.png,object_06b.png,,0.9390243902439024,1,,,,,,,,
2130.4000000953674,,directmemory_phase6,1072820,,,,object_11c.png,,,49,,,1,,object_09a.png,object_15a.png,object_10c.png,object_09a.png,,0.9397590361445783,1,,,,,,,,
2564.4000000953674,,directmemory_phase6,1075387,,,,object_08b.png,,,50,,,1,,object_02c.png,object_11b.png,object_06c.png,object_11b.png,,0.9404761904761905,1,,,,,,,,
3050.7999999523163,,directmemory_phase6,1078440,,,,object_08c.png,,,51,,,1,,object_14b.png,object_09a.png,object_14a.png,object_14a.png,,0.9411764705882353,1,,,,,,,,
1443.2999999523163,,directmemory_phase6,1079886,,,,object_13a.png,,,50,,,1,,object_14c.png,object_06a.png,object_15a.png,object_06a.png,,0.9418604651162791,1,,,,,,,,
1515.5999999046326,,directmemory_phase6,1081405,,,,object_02c.png,,,50,,,1,,object_04b.png,object_06c.png,object_02b.png,object_06c.png,,0.9425287356321839,1,,,,,,,,
2615.9000000953674,,directmemory_phase6,1084024,,,,object_03a.png,,,49,,,1,,object_12a.png,object_06a.png,object_12b.png,object_12a.png,,0.9431818181818182,1,,,,,,,,
2025.7999999523163,,directmemory_phase6,1086054,,,,object_01c.png,,,50,,,1,,object_08c.png,object_09c.png,object_04b.png,object_09c.png,,0.9438202247191011,1,,,,,,,,
1769.0999999046326,,directmemory_phase6,1087826,,,,object_02b.png,,,51,,,1,,object_11c.png,object_15b.png,object_12b.png,object_12b.png,,0.9444444444444444,1,,,,,,,,
null,,thebreak,1087931,,,,<p></p>,,,null,,,,,,,,,,,,,,,,,,,
1794,,intro_0,1089727,,,,instruct,,,32,,,,,,,,,,,,,,,,,,,
null,,learn_phase(without_color)7,1093230,,,,black_plus_sign,,,null,object_11a.png,object_03c.png,,,,,,,,,,,,,,,,,
null,,black_cross(without_color)7,1093828,,,,blue,,,null,object_11a.png,object_03c.png,,,,,,,,,,,,,,,,,
null,,rt_plussign_withcolor7,1094339,,,,blue,,,null,object_11a.png,object_03c.png,,,,,,,,,,,,,,,,,
716.1000001430511,,rt_thecrossant_black7,1095755,,,,black_plus_sign,,,49,,,1,,,,,,,1,,,,,,,,,
null,,color_black7,1095864,,,,black_plus_sign,,,null,,,,,,,,,,,,,,,,,,,
null,,learn_phase(without_color)7,1099371,,,,black_plus_sign,,,null,object_14a.png,object_08c.png,,,,,,,,,,,,,,,,,
null,,black_cross(without_color)7,1100080,,,,green,,,null,object_14a.png,object_08c.png,,,,,,,,,,,,,,,,,
null,,rt_plussign_withcolor7,1100586,,,,green,,,null,object_14a.png,object_08c.png,,,,,,,,,,,,,,,,,
721,,rt_thecrossant_black7,1101897,,,,black_plus_sign,,,50,,,1,,,,,,,1,,,,,,,,,
null,,color_black7,1102012,,,,black_plus_sign,,,null,,,,,,,,,,,,,,,,,,,
null,,learn_phase(without_color)7,1105522,,,,black_plus_sign,,,null,object_11c.png,object_09a.png,,,,,,,,,,,,,,,,,
null,,black_cross(without_color)7,1106118,,,,blue,,,null,object_11c.png,object_09a.png,,,,,,,,,,,,,,,,,
null,,rt_plussign_withcolor7,1106622,,,,blue,,,null,object_11c.png,object_09a.png,,,,,,,,,,,,,,,,,
802.5999999046326,,rt_thecrossant_black7,1108045,,,,black_plus_sign,,,49,,,1,,,,,,,1,,,,,,,,,
null,,color_black7,1108153,,,,black_plus_sign,,,null,,,,,,,,,,,,,,,,,,,
null,,learn_phase(without_color)7,1111663,,,,black_plus_sign,,,null,object_02b.png,object_12b.png,,,,,,,,,,,,,,,,,
null,,black_cross(without_color)7,1112739,,,,green,,,null,object_02b.png,object_12b.png,,,,,,,,,,,,,,,,,
485.09999990463257,,rt_plussign_withcolor7,1113244,,,,green,,,50,object_02b.png,object_12b.png,,,,,,,,,,,,,,,,,
null,,rt_thecrossant_black7,1114184,,,,black_plus_sign,,,null,,,1,,,,,,,1,,,,,,,,,
null,,color_black7,1114292,,,,black_plus_sign,,,null,,,,,,,,,,,,,,,,,,,
null,,learn_phase(without_color)7,1117794,,,,black_plus_sign,,,null,object_03a.png,object_12a.png,,,,,,,,,,,,,,,,,
null,,black_cross(without_color)7,1118299,,,,blue,,,null,object_03a.png,object_12a.png,,,,,,,,,,,,,,,,,
null,,rt_plussign_withcolor7,1118805,,,,blue,,,null,object_03a.png,object_12a.png,,,,,,,,,,,,,,,,,
1231.9000000953674,,rt_thecrossant_black7,1120312,,,,black_plus_sign,,,49,,,1,,,,,,,1,,,,,,,,,
null,,color_black7,1120419,,,,black_plus_sign,,,null,,,,,,,,,,,,,,,,,,,
null,,learn_phase(without_color)7,1123926,,,,black_plus_sign,,,null,object_10c.png,object_04c.png,,,,,,,,,,,,,,,,,
null,,black_cross(without_color)7,1124978,,,,green,,,null,object_10c.png,object_04c.png,,,,,,,,,,,,,,,,,
null,,rt_plussign_withcolor7,1125483,,,,green,,,null,object_10c.png,object_04c.png,,,,,,,,,,,,,,,,,
918.5999999046326,,rt_thecrossant_black7,1126456,,,,black_plus_sign,,,50,,,1,,,,,,,1,,,,,,,,,
null,,color_black7,1126564,,,,black_plus_sign,,,null,,,,,,,,,,,,,,,,,,,
null,,learn_phase(without_color)7,1130070,,,,black_plus_sign,,,null,object_14c.png,object_15b.png,,,,,,,,,,,,,,,,,
null,,black_cross(without_color)7,1130865,,,,blue,,,null,object_14c.png,object_15b.png,,,,,,,,,,,,,,,,,
null,,rt_plussign_withcolor7,1131378,,,,blue,,,null,object_14c.png,object_15b.png,,,,,,,,,,,,,,,,,
1272.2000000476837,,rt_thecrossant_black7,1132593,,,,black_plus_sign,,,49,,,1,,,,,,,1,,,,,,,,,
null,,color_black7,1132701,,,,black_plus_sign,,,null,,,,,,,,,,,,,,,,,,,
null,,learn_phase(without_color)7,1136210,,,,black_plus_sign,,,null,object_15c.png,object_14b.png,,,,,,,,,,,,,,,,,
null,,black_cross(without_color)7,1136889,,,,green,,,null,object_15c.png,object_14b.png,,,,,,,,,,,,,,,,,
null,,rt_plussign_withcolor7,1137394,,,,green,,,null,object_15c.png,object_14b.png,,,,,,,,,,,,,,,,,
1089.5999999046326,,rt_thecrossant_black7,1138731,,,,black_plus_sign,,,50,,,1,,,,,,,1,,,,,,,,,
null,,color_black7,1138847,,,,black_plus_sign,,,null,,,,,,,,,,,,,,,,,,,
null,,learn_phase(without_color)7,1142349,,,,black_plus_sign,,,null,object_08b.png,object_11b.png,,,,,,,,,,,,,,,,,
null,,black_cross(without_color)7,1143409,,,,blue,,,null,object_08b.png,object_11b.png,,,,,,,,,,,,,,,,,
null,,rt_plussign_withcolor7,1143922,,,,blue,,,null,object_08b.png,object_11b.png,,,,,,,,,,,,,,,,,
1072.2999999523163,,rt_thecrossant_black7,1144875,,,,black_plus_sign,,,49,,,1,,,,,,,1,,,,,,,,,
null,,color_black7,1144984,,,,black_plus_sign,,,null,,,,,,,,,,,,,,,,,,,
null,,learn_phase(without_color)7,1148494,,,,black_plus_sign,,,null,object_09c.png,object_01c.png,,,,,,,,,,,,,,,,,
null,,black_cross(without_color)7,1148911,,,,blue,,,null,object_09c.png,object_01c.png,,,,,,,,,,,,,,,,,
null,,rt_plussign_withcolor7,1149419,,,,blue,,,null,object_09c.png,object_01c.png,,,,,,,,,,,,,,,,,
1336.6000001430511,,rt_thecrossant_black7,1151020,,,,black_plus_sign,,,49,,,1,,,,,,,1,,,,,,,,,
null,,color_black7,1151129,,,,black_plus_sign,,,null,,,,,,,,,,,,,,,,,,,
null,,learn_phase(without_color)7,1154640,,,,black_plus_sign,,,null,object_04b.png,object_15a.png,,,,,,,,,,,,,,,,,
null,,black_cross(without_color)7,1155400,,,,green,,,null,object_04b.png,object_15a.png,,,,,,,,,,,,,,,,,
null,,rt_plussign_withcolor7,1155907,,,,green,,,null,object_04b.png,object_15a.png,,,,,,,,,,,,,,,,,
825.8000001907349,,rt_thecrossant_black7,1157160,,,,black_plus_sign,,,50,,,1,,,,,,,1,,,,,,,,,
null,,color_black7,1157269,,,,black_plus_sign,,,null,,,,,,,,,,,,,,,,,,,
null,,learn_phase(without_color)7,1160775,,,,black_plus_sign,,,null,object_13a.png,object_06a.png,,,,,,,,,,,,,,,,,
null,,black_cross(without_color)7,1161745,,,,green,,,null,object_13a.png,object_06a.png,,,,,,,,,,,,,,,,,
null,,rt_plussign_withcolor7,1162248,,,,green,,,null,object_13a.png,object_06a.png,,,,,,,,,,,,,,,,,
1118,,rt_thecrossant_black7,1163301,,,,black_plus_sign,,,50,,,1,,,,,,,1,,,,,,,,,
null,,color_black7,1163415,,,,black_plus_sign,,,null,,,,,,,,,,,,,,,,,,,
null,,learn_phase(without_color)7,1166926,,,,black_plus_sign,,,null,object_10a.png,object_06b.png,,,,,,,,,,,,,,,,,
null,,black_cross(without_color)7,1167825,,,,blue,,,null,object_10a.png,object_06b.png,,,,,,,,,,,,,,,,,
498.59999990463257,,rt_plussign_withcolor7,1168327,,,,blue,,,49,object_10a.png,object_06b.png,,,,,,,,,,,,,,,,,
null,,rt_thecrossant_black7,1169437,,,,black_plus_sign,,,null,,,1,,,,,,,1,,,,,,,,,
null,,color_black7,1169545,,,,black_plus_sign,,,null,,,,,,,,,,,,,,,,,,,
null,,learn_phase(without_color)7,1173048,,,,black_plus_sign,,,null,object_05b.png,object_07b.png,,,,,,,,,,,,,,,,,
null,,black_cross(without_color)7,1173534,,,,green,,,null,object_05b.png,object_07b.png,,,,,,,,,,,,,,,,,
null,,rt_plussign_withcolor7,1174044,,,,green,,,null,object_05b.png,object_07b.png,,,,,,,,,,,,,,,,,
1150.7999999523163,,rt_thecrossant_black7,1175584,,,,black_plus_sign,,,50,,,1,,,,,,,1,,,,,,,,,
null,,color_black7,1175692,,,,black_plus_sign,,,null,,,,,,,,,,,,,,,,,,,
null,,learn_phase(without_color)7,1179199,,,,black_plus_sign,,,null,object_06c.png,object_02c.png,,,,,,,,,,,,,,,,,
null,,black_cross(without_color)7,1180303,,,,green,,,null,object_06c.png,object_02c.png,,,,,,,,,,,,,,,,,
null,,rt_plussign_withcolor7,1180811,,,,green,,,null,object_06c.png,object_02c.png,,,,,,,,,,,,,,,,,
750.2999999523163,,rt_thecrossant_black7,1181722,,,,black_plus_sign,,,50,,,1,,,,,,,1,,,,,,,,,
null,,color_black7,1181831,,,,black_plus_sign,,,null,,,,,,,,,,,,,,,,,,,
null,,thebreak,1181939,,,,<p></p>,,,null,,,,,,,,,,,,,,,,,,,
4428.199999809265,,intro_0,1186368,,,,instruct,,,32,,,,,,,,,,,,,,,,,,,
5261.700000047684,,directmemory_phase7,1191631,,,,object_08b.png,,,49,,,1,,object_11b.png,object_12a.png,object_03c.png,object_11b.png,,0.945054945054945,1,,,,,,,,
1939.4000000953674,,directmemory_phase7,1193572,,,,object_03a.png,,,51,,,1,,object_01c.png,object_14c.png,object_12a.png,object_12a.png,,0.9456521739130435,1,,,,,,,,
2695.0999999046326,,directmemory_phase7,1196270,,,,object_08c.png,,,49,,,1,,object_14a.png,object_03a.png,object_02b.png,object_14a.png,,0.946236559139785,1,,,,,,,,
1671.3999998569489,,directmemory_phase7,1197943,,,,object_14b.png,,,50,,,1,,object_03a.png,object_15c.png,object_15a.png,object_15c.png,,0.9468085106382979,1,,,,,,,,
2137.899999856949,,directmemory_phase7,1200084,,,,object_15a.png,,,49,,,1,,object_04b.png,object_03c.png,object_15b.png,object_04b.png,,0.9473684210526315,1,,,,,,,,
5215,,directmemory_phase7,1205302,,,,object_11a.png,,,49,,,1,,object_03c.png,object_12b.png,object_02b.png,object_03c.png,,0.9479166666666666,1,,,,,,,,
1862,,directmemory_phase7,1207166,,,,object_12b.png,,,49,,,1,,object_02b.png,object_15a.png,object_03a.png,object_02b.png,,0.9484536082474226,1,,,,,,,,
1649.5999999046326,,directmemory_phase7,1208818,,,,object_04c.png,,,50,,,1,,object_02b.png,object_10c.png,object_11c.png,object_10c.png,,0.9489795918367347,1,,,,,,,,
1940.1000001430511,,directmemory_phase7,1210760,,,,object_01c.png,,,50,,,1,,object_15c.png,object_09c.png,object_03a.png,object_09c.png,,0.9494949494949495,1,,,,,,,,
1342.2999999523163,,directmemory_phase7,1212105,,,,object_10a.png,,,50,,,1,,object_11c.png,object_06b.png,object_09a.png,object_06b.png,,0.95,1,,,,,,,,
1717.4000000953674,,directmemory_phase7,1213824,,,,object_06c.png,,,51,,,1,,object_14a.png,object_11a.png,object_02c.png,object_02c.png,,0.9504950495049505,1,,,,,,,,
1631.0999999046326,,directmemory_phase7,1215458,,,,object_05b.png,,,50,,,1,,object_15c.png,object_07b.png,object_11c.png,object_07b.png,,0.9509803921568627,1,,,,,,,,
1841.5,,directmemory_phase7,1217302,,,,object_14c.png,,,51,,,1,,object_08c.png,object_07b.png,object_15b.png,object_15b.png,,0.9514563106796117,1,,,,,,,,
1302.7999999523163,,directmemory_phase7,1218607,,,,object_11c.png,,,51,,,1,,object_11b.png,object_14a.png,object_09a.png,object_09a.png,,0.9519230769230769,1,,,,,,,,
1527.4000000953674,,directmemory_phase7,1220137,,,,object_06a.png,,,51,,,1,,object_14b.png,object_11a.png,object_13a.png,object_13a.png,,0.9523809523809523,1,,,,,,,,
null,,thebreak,1220254,,,,<p></p>,,,null,,,,,,,,,,,,,,,,,,,
1771.7999999523163,,intro_0,1222028,,,,instruct,,,32,,,,,,,,,,,,,,,,,,,
null,,learn_phase(without_color)8,1225533,,,,black_plus_sign,,,null,object_15c.png,object_14b.png,,,,,,,,,,,,,,,,,
null,,black_cross(without_color)8,1226239,,,,blue,,,null,object_15c.png,object_14b.png,,,,,,,,,,,,,,,,,
null,,rt_plussign_withcolor8,1226748,,,,blue,,,null,object_15c.png,object_14b.png,,,,,,,,,,,,,,,,,
837.7000000476837,,rt_thecrossant_black8,1228068,,,,black_plus_sign,,,49,,,1,,,,,,,1,,,,,,,,,
null,,color_black8,1228186,,,,black_plus_sign,,,null,,,,,,,,,,,,,,,,,,,
null,,learn_phase(without_color)8,1231697,,,,black_plus_sign,,,null,object_05b.png,object_07b.png,,,,,,,,,,,,,,,,,
null,,black_cross(without_color)8,1232634,,,,blue,,,null,object_05b.png,object_07b.png,,,,,,,,,,,,,,,,,
null,,rt_plussign_withcolor8,1233142,,,,blue,,,null,object_05b.png,object_07b.png,,,,,,,,,,,,,,,,,
987.0999999046326,,rt_thecrossant_black8,1234216,,,,black_plus_sign,,,49,,,1,,,,,,,1,,,,,,,,,
null,,color_black8,1234324,,,,black_plus_sign,,,null,,,,,,,,,,,,,,,,,,,
null,,learn_phase(without_color)8,1237839,,,,black_plus_sign,,,null,object_03c.png,object_11a.png,,,,,,,,,,,,,,,,,
null,,black_cross(without_color)8,1238620,,,,blue,,,null,object_03c.png,object_11a.png,,,,,,,,,,,,,,,,,
483.59999990463257,,rt_plussign_withcolor8,1239127,,,,blue,,,49,object_03c.png,object_11a.png,,,,,,,,,,,,,,,,,
null,,rt_thecrossant_black8,1240369,,,,black_plus_sign,,,null,,,1,,,,,,,1,,,,,,,,,
null,,color_black8,1240478,,,,black_plus_sign,,,null,,,,,,,,,,,,,,,,,,,
null,,learn_phase(without_color)8,1243982,,,,black_plus_sign,,,null,object_06c.png,object_02c.png,,,,,,,,,,,,,,,,,
null,,black_cross(without_color)8,1244491,,,,blue,,,null,object_06c.png,object_02c.png,,,,,,,,,,,,,,,,,
null,,rt_plussign_withcolor8,1245000,,,,blue,,,null,object_06c.png,object_02c.png,,,,,,,,,,,,,,,,,
902.5,,rt_thecrossant_black8,1246520,,,,black_plus_sign,,,49,,,1,,,,,,,1,,,,,,,,,
null,,color_black8,1246629,,,,black_plus_sign,,,null,,,,,,,,,,,,,,,,,,,
null,,learn_phase(without_color)8,1250143,,,,black_plus_sign,,,null,object_11c.png,object_09a.png,,,,,,,,,,,,,,,,,
null,,black_cross(without_color)8,1250657,,,,blue,,,null,object_11c.png,object_09a.png,,,,,,,,,,,,,,,,,
null,,rt_plussign_withcolor8,1251174,,,,blue,,,null,object_11c.png,object_09a.png,,,,,,,,,,,,,,,,,
708.5999999046326,,rt_thecrossant_black8,1252672,,,,black_plus_sign,,,49,,,1,,,,,,,1,,,,,,,,,
null,,color_black8,1252782,,,,black_plus_sign,,,null,,,,,,,,,,,,,,,,,,,
null,,learn_phase(without_color)8,1256287,,,,black_plus_sign,,,null,object_04c.png,object_10c.png,,,,,,,,,,,,,,,,,
null,,black_cross(without_color)8,1256814,,,,blue,,,null,object_04c.png,object_10c.png,,,,,,,,,,,,,,,,,
null,,rt_plussign_withcolor8,1257320,,,,blue,,,null,object_04c.png,object_10c.png,,,,,,,,,,,,,,,,,
701.2999999523163,,rt_thecrossant_black8,1258810,,,,black_plus_sign,,,49,,,1,,,,,,,1,,,,,,,,,
null,,color_black8,1258922,,,,black_plus_sign,,,null,,,,,,,,,,,,,,,,,,,
null,,learn_phase(without_color)8,1262435,,,,black_plus_sign,,,null,object_03a.png,object_12a.png,,,,,,,,,,,,,,,,,
null,,black_cross(without_color)8,1263269,,,,green,,,null,object_03a.png,object_12a.png,,,,,,,,,,,,,,,,,
null,,rt_plussign_withcolor8,1263783,,,,green,,,null,object_03a.png,object_12a.png,,,,,,,,,,,,,,,,,
1189.2999999523163,,rt_thecrossant_black8,1264962,,,,black_plus_sign,,,49,,,0,,,,,,,0.8571428571428571,,,,,,,,,
null,,color_black8,1265070,,,,black_plus_sign,,,null,,,,,,,,,,,,,,,,,,,
null,,learn_phase(without_color)8,1268583,,,,black_plus_sign,,,null,object_06a.png,object_13a.png,,,,,,,,,,,,,,,,,
null,,black_cross(without_color)8,1269318,,,,green,,,null,object_06a.png,object_13a.png,,,,,,,,,,,,,,,,,
null,,rt_plussign_withcolor8,1269820,,,,green,,,null,object_06a.png,object_13a.png,,,,,,,,,,,,,,,,,
946.7000000476837,,rt_thecrossant_black8,1271102,,,,black_plus_sign,,,50,,,1,,,,,,,0.875,,,,,,,,,
null,,color_black8,1271219,,,,black_plus_sign,,,null,,,,,,,,,,,,,,,,,,,
null,,learn_phase(without_color)8,1274722,,,,black_plus_sign,,,null,object_04b.png,object_15a.png,,,,,,,,,,,,,,,,,
null,,black_cross(without_color)8,1275789,,,,blue,,,null,object_04b.png,object_15a.png,,,,,,,,,,,,,,,,,
null,,rt_plussign_withcolor8,1276299,,,,blue,,,null,object_04b.png,object_15a.png,,,,,,,,,,,,,,,,,
828.2000000476837,,rt_thecrossant_black8,1277251,,,,black_plus_sign,,,49,,,1,,,,,,,0.8888888888888888,,,,,,,,,
null,,color_black8,1277359,,,,black_plus_sign,,,null,,,,,,,,,,,,,,,,,,,
null,,learn_phase(without_color)8,1280869,,,,black_plus_sign,,,null,object_02b.png,object_12b.png,,,,,,,,,,,,,,,,,
null,,black_cross(without_color)8,1281520,,,,green,,,null,object_02b.png,object_12b.png,,,,,,,,,,,,,,,,,
null,,rt_plussign_withcolor8,1282023,,,,green,,,null,object_02b.png,object_12b.png,,,,,,,,,,,,,,,,,
1170.6000001430511,,rt_thecrossant_black8,1283387,,,,black_plus_sign,,,50,,,1,,,,,,,0.9,,,,,,,,,
null,,color_black8,1283496,,,,black_plus_sign,,,null,,,,,,,,,,,,,,,,,,,
null,,learn_phase(without_color)8,1287000,,,,black_plus_sign,,,null,object_11b.png,object_08b.png,,,,,,,,,,,,,,,,,
null,,black_cross(without_color)8,1287762,,,,blue,,,null,object_11b.png,object_08b.png,,,,,,,,,,,,,,,,,
null,,rt_plussign_withcolor8,1288272,,,,blue,,,null,object_11b.png,object_08b.png,,,,,,,,,,,,,,,,,
778.5999999046326,,rt_thecrossant_black8,1289526,,,,black_plus_sign,,,49,,,1,,,,,,,0.9090909090909091,,,,,,,,,
null,,color_black8,1289633,,,,black_plus_sign,,,null,,,,,,,,,,,,,,,,,,,
null,,learn_phase(without_color)8,1293142,,,,black_plus_sign,,,null,object_08c.png,object_14a.png,,,,,,,,,,,,,,,,,
null,,black_cross(without_color)8,1293729,,,,green,,,null,object_08c.png,object_14a.png,,,,,,,,,,,,,,,,,
null,,rt_plussign_withcolor8,1294236,,,,green,,,null,object_08c.png,object_14a.png,,,,,,,,,,,,,,,,,
1199.6999998092651,,rt_thecrossant_black8,1295662,,,,black_plus_sign,,,50,,,1,,,,,,,0.9166666666666666,,,,,,,,,
null,,color_black8,1295771,,,,black_plus_sign,,,null,,,,,,,,,,,,,,,,,,,
null,,learn_phase(without_color)8,1299281,,,,black_plus_sign,,,null,object_06b.png,object_10a.png,,,,,,,,,,,,,,,,,
null,,black_cross(without_color)8,1300049,,,,blue,,,null,object_06b.png,object_10a.png,,,,,,,,,,,,,,,,,
null,,rt_plussign_withcolor8,1300554,,,,blue,,,null,object_06b.png,object_10a.png,,,,,,,,,,,,,,,,,
844.7999999523163,,rt_thecrossant_black8,1301810,,,,black_plus_sign,,,49,,,1,,,,,,,0.9230769230769231,,,,,,,,,
null,,color_black8,1301917,,,,black_plus_sign,,,null,,,,,,,,,,,,,,,,,,,
null,,learn_phase(without_color)8,1305423,,,,black_plus_sign,,,null,object_15b.png,object_14c.png,,,,,,,,,,,,,,,,,
null,,black_cross(without_color)8,1306442,,,,blue,,,null,object_15b.png,object_14c.png,,,,,,,,,,,,,,,,,
499.7999999523163,,rt_plussign_withcolor8,1306944,,,,blue,,,49,object_15b.png,object_14c.png,,,,,,,,,,,,,,,,,
null,,rt_thecrossant_black8,1307945,,,,black_plus_sign,,,null,,,1,,,,,,,0.9285714285714286,,,,,,,,,
null,,color_black8,1308053,,,,black_plus_sign,,,null,,,,,,,,,,,,,,,,,,,
null,,learn_phase(without_color)8,1311558,,,,black_plus_sign,,,null,object_09c.png,object_01c.png,,,,,,,,,,,,,,,,,
null,,black_cross(without_color)8,1312399,,,,blue,,,null,object_09c.png,object_01c.png,,,,,,,,,,,,,,,,,
null,,rt_plussign_withcolor8,1312908,,,,blue,,,null,object_09c.png,object_01c.png,,,,,,,,,,,,,,,,,
1189.5,,rt_thecrossant_black8,1314076,,,,black_plus_sign,,,49,,,1,,,,,,,0.9333333333333333,,,,,,,,,
null,,color_black8,1314183,,,,black_plus_sign,,,null,,,,,,,,,,,,,,,,,,,
null,,thebreak,1314290,,,,<p></p>,,,null,,,,,,,,,,,,,,,,,,,
1237.9000000953674,,intro_0,1315530,,,,instruct,,,32,,,,,,,,,,,,,,,,,,,
2020.5999999046326,,directmemory_phase8,1317552,,,,object_12a.png,,,49,,,1,,object_03a.png,object_02c.png,object_15b.png,object_03a.png,,0.9528301886792453,1,,,,,,,,
1405.8000001907349,,directmemory_phase8,1318961,,,,object_15b.png,,,49,,,1,,object_14c.png,object_08b.png,object_05b.png,object_14c.png,,0.9532710280373832,1,,,,,,,,
1552.4000000953674,,directmemory_phase8,1320516,,,,object_12b.png,,,51,,,1,,object_06a.png,object_14a.png,object_02b.png,object_02b.png,,0.9537037037037037,1,,,,,,,,
1436.2000000476837,,directmemory_phase8,1321955,,,,object_06b.png,,,50,,,1,,object_05b.png,object_10a.png,object_02c.png,object_10a.png,,0.9541284403669725,1,,,,,,,,
1868.1999998092651,,directmemory_phase8,1323825,,,,object_10c.png,,,51,,,1,,object_09a.png,object_12b.png,object_04c.png,object_04c.png,,0.9545454545454546,1,,,,,,,,
1779.5,,directmemory_phase8,1325607,,,,object_15a.png,,,50,,,1,,object_05b.png,object_04b.png,object_11c.png,object_04b.png,,0.954954954954955,1,,,,,,,,
2117.2000000476837,,directmemory_phase8,1327726,,,,object_01c.png,,,51,,,1,,object_03a.png,object_08c.png,object_09c.png,object_09c.png,,0.9553571428571429,1,,,,,,,,
1709.0999999046326,,directmemory_phase8,1329438,,,,object_08b.png,,,50,,,1,,object_14b.png,object_11b.png,object_06a.png,object_11b.png,,0.9557522123893806,1,,,,,,,,
1579.7999999523163,,directmemory_phase8,1331020,,,,object_11a.png,,,50,,,1,,object_04c.png,object_03c.png,object_12b.png,object_03c.png,,0.956140350877193,1,,,,,,,,
1577.0999999046326,,directmemory_phase8,1332600,,,,object_11c.png,,,49,,,1,,object_09a.png,object_11a.png,object_02c.png,object_09a.png,,0.9565217391304348,1,,,,,,,,
1767,,directmemory_phase8,1334371,,,,object_15c.png,,,49,,,1,,object_14b.png,object_03c.png,object_08c.png,object_14b.png,,0.9568965517241379,1,,,,,,,,
2215.0999999046326,,directmemory_phase8,1336588,,,,object_14a.png,,,51,,,1,,object_15b.png,object_10c.png,object_08c.png,object_08c.png,,0.9572649572649573,1,,,,,,,,
1351.2000000476837,,directmemory_phase8,1337942,,,,object_06a.png,,,50,,,1,,object_15a.png,object_13a.png,object_11c.png,object_13a.png,,0.9576271186440678,1,,,,,,,,
2002.7000000476837,,directmemory_phase8,1339948,,,,object_05b.png,,,51,,,1,,object_09c.png,object_15c.png,object_07b.png,object_07b.png,,0.957983193277311,1,,,,,,,,
1388.7999999523163,,directmemory_phase8,1341340,,,,object_06c.png,,,50,,,1,,object_04c.png,object_02c.png,object_14a.png,object_02c.png,,0.9583333333333334,1,,,,,,,,
null,,thebreak,1341447,,,,<p></p>,,,null,,,,,,,,,,,,,,,,,,,
2711,,intro_0,1344159,,,,instruct,,,32,,,,,,,,,,,,,,,,,,,
11248.5,,intro_1,1355409,,,,instruct,,,32,,,,,,,,,,,,,,,,,,,
2331.199999809265,,intro_2,1357742,,,,instruct,,,32,,,,,,,,,,,,,,,,,,,
,,intro_3,1367818,,,,instruct,,,,,,,,,,,,,,,,,,,,,,
3312.399999856949,,intro_4,1371133,,,,instruct,,,32,,,,,,,,,,,,,,,,,,,
3305.4000000953674,,inference_phase,1374440,,,,object_07a.png,,,50,object_11b.png,object_09c.png,1,,,,,object_14c.png,,1,,object_14c.png,,,,,,,
3629.2999999523163,,inference_phase,1378073,,,,object_05c.png,,,49,object_14b.png,object_03a.png,1,,,,,object_14b.png,,1,,object_12a.png,,,,,,,
7143.600000143051,,inference_phase,1385219,,,,object_03c.png,,,51,object_02a.png,object_03b.png,0,,,,,object_02a.png,,0.6666666666666666,,object_02b.png,,,,,,,
5168,,inference_phase,1390390,,,,object_13b.png,,,51,object_12a.png,object_14a.png,1,,,,,object_14a.png,,0.75,,object_10c.png,,,,,,,
7815.799999952316,,inference_phase,1398207,,,,object_11c.png,,,50,object_04a.png,object_06a.png,1,,,,,object_10b.png,,0.8,,object_10b.png,,,,,,,
4431.299999952316,,inference_phase,1402641,,,,object_09c.png,,,50,object_12c.png,object_05a.png,0,,,,,object_12c.png,,0.6666666666666666,,object_08c.png,,,,,,,
5072.199999809265,,inference_phase,1407716,,,,object_09b.png,,,50,object_06a.png,object_04b.png,1,,,,,object_10c.png,,0.7142857142857143,,object_10c.png,,,,,,,
6013.799999952316,,inference_phase,1413732,,,,object_12b.png,,,49,object_04a.png,object_09b.png,1,,,,,object_04a.png,,0.75,,object_15b.png,,,,,,,
3887.699999809265,,inference_phase,1417621,,,,object_03b.png,,,51,object_02b.png,object_02c.png,1,,,,,object_02c.png,,0.7777777777777778,,object_13a.png,,,,,,,
2578.4000000953674,,inference_phase,1420202,,,,object_10a.png,,,50,object_10b.png,object_11a.png,1,,,,,object_08a.png,,0.8,,object_08a.png,,,,,,,
4160,,inference_phase,1424364,,,,object_04b.png,,,51,object_07c.png,object_01b.png,0,,,,,object_07c.png,,0.7272727272727273,,object_11b.png,,,,,,,
3435.7999999523163,,inference_phase,1427802,,,,object_13c.png,,,51,object_15c.png,object_13a.png,1,,,,,object_13a.png,,0.75,,object_14c.png,,,,,,,
4609.599999904633,,inference_phase,1432413,,,,object_01b.png,,,49,object_03a.png,object_07b.png,1,,,,,object_03a.png,,0.7692307692307693,,object_11a.png,,,,,,,
null,,inference_phase,1447420,,,,object_05a.png,,,null,object_11a.png,object_11c.png,0,,,,,object_08b.png,,0.7142857142857143,,object_08b.png,,,,,,,
null,,warning_page,1452423,,,,warning,,,null,,,,,,,,,,,,,,,,,,,
4187.799999952316,,inference_phase,1456630,,,,object_01a.png,,,49,object_01c.png,object_07b.png,0,,,,,object_07b.png,,0.6666666666666666,,object_14b.png,,,,,,,
,,survey,1538132,,,,survey-questions,,,,,,,,,,,,,,,,none,high,No,I tried to relate some of the objects to each other if they didn't have an immediate link (similar design).,Some shapes were more similar in basic design (spiky, rounded, smooth).,No,None of it was too difficult or boring. I was fully engaged the entire time.
