rt,responses,trial_type,time_elapsed,identifier_a,identifier_b,identifier_c,stimulus,button_pressed,response,key_press,stimulus_left,stimulus_right,accuracy,practice_cumulative_accuracy,stimulus_down_left,stimulus_down_mid,stimulus_down_right,stimulus_correct,prac_weighted_accuracy,cumulative_accuracy,failed_practice,weighted_accuracy,stimulus_middle,problems,smooth,distraction,strategies,easier,similar,comments
20468,{worker_id:67682f6c22691dbfb82ae15d},id_enter,20473,object_09b.png; object_11a.png; object_10c.png; object_14c.png; object_08c.png; object_07c.png; object_05c.png; object_07a.png; object_01a.png; object_06b.png; object_02b.png; object_04a.png; object_15c.png; object_14b.png; object_12b.png,object_05a.png; object_05b.png; object_14a.png; object_09c.png; object_04c.png; object_03c.png; object_15a.png; object_06c.png; object_01b.png; object_02a.png; object_04b.png; object_03a.png; object_12c.png; object_11c.png; object_11b.png,object_06a.png; object_01c.png; object_13b.png; object_09a.png; object_13a.png; object_03b.png; object_10b.png; object_15b.png; object_07b.png; object_12a.png; object_02c.png; object_08a.png; object_13c.png; object_10a.png; object_08b.png,,,,,,,,,,,,,,,,,,,,,,,,
23493,,make_fullscreen,43983,,,,fullscreen,0,,,,,,,,,,,,,,,,,,,,,,
13190,,instruct_1,57189,,,,instruct,0,Next,,,,,,,,,,,,,,,,,,,,,
45709,,instruct_2,102903,,,,instruct,1,Next,,,,,,,,,,,,,,,,,,,,,
18492,,instruct_3,121398,,,,instruct,1,Next,,,,,,,,,,,,,,,,,,,,,
34986,,instruct_4,156392,,,,instruct,1,Next,,,,,,,,,,,,,,,,,,,,,
16605,,instruct_5,173008,,,,instruct,1,Next,,,,,,,,,,,,,,,,,,,,,
5478,,instruct_6,178490,,,,instruct,1,Next,,,,,,,,,,,,,,,,,,,,,
62554,,instruct_7,241050,,,,instruct,1,Next,,,,,,,,,,,,,,,,,,,,,
null,,prac_atten_color_black,241395,,,,black_plus_sign,,,null,,,,,,,,,,,,,,,,,,,,
null,,prac_atten_color,242472,,,,<p style='position:absolute;top: 50%;right: 50%;transform: translate(50%, -50%);font-size: 125px;color: blue;'>+</p>,,,null,,,,,,,,,,,,,,,,,,,,
null,,prac_atten_color_black,244476,,,,black_plus_sign,,,null,,,,,,,,,,,,,,,,,,,,
11054,,attentioncheck_help,255537,,,,instruct,,,32,,,,,,,,,,,,,,,,,,,,
null,,prac_atten_color_black,255875,,,,black_plus_sign,,,null,,,,,,,,,,,,,,,,,,,,
null,,prac_atten_color,256713,,,,<p style='position:absolute;top: 50%;right: 50%;transform: translate(50%, -50%);font-size: 125px;color: green;'>+</p>,,,null,,,,,,,,,,,,,,,,,,,,
null,,prac_atten_color_black,258715,,,,black_plus_sign,,,null,,,,,,,,,,,,,,,,,,,,
14770,,attentioncheck_help,273489,,,,instruct,,,32,,,,,,,,,,,,,,,,,,,,
null,,prac_atten_color_black,274056,,,,black_plus_sign,,,null,,,,,,,,,,,,,,,,,,,,
null,,prac_atten_color,274563,,,,<p style='position:absolute;top: 50%;right: 50%;transform: translate(50%, -50%);font-size: 125px;color: green;'>+</p>,,,null,,,,,,,,,,,,,,,,,,,,
813,,prac_atten_color_black,276565,,,,black_plus_sign,,,50,,,,,,,,,,,,,,,,,,,,
null,,prac_atten_color_black,277465,,,,black_plus_sign,,,null,,,,,,,,,,,,,,,,,,,,
1041,,prac_atten_color,278537,,,,<p style='position:absolute;top: 50%;right: 50%;transform: translate(50%, -50%);font-size: 125px;color: blue;'>+</p>,,,49,,,,,,,,,,,,,,,,,,,,
null,,prac_atten_color_black,280538,,,,black_plus_sign,,,null,,,,,,,,,,,,,,,,,,,,
null,,prac_atten_color_black,280873,,,,black_plus_sign,,,null,,,,,,,,,,,,,,,,,,,,
834,,prac_atten_color,281917,,,,<p style='position:absolute;top: 50%;right: 50%;transform: translate(50%, -50%);font-size: 125px;color: green;'>+</p>,,,50,,,,,,,,,,,,,,,,,,,,
null,,prac_atten_color_black,283918,,,,black_plus_sign,,,null,,,,,,,,,,,,,,,,,,,,
null,,prac_atten_color_black,284281,,,,black_plus_sign,,,null,,,,,,,,,,,,,,,,,,,,
null,,prac_atten_color,284864,,,,<p style='position:absolute;top: 50%;right: 50%;transform: translate(50%, -50%);font-size: 125px;color: green;'>+</p>,,,null,,,,,,,,,,,,,,,,,,,,
363,,prac_atten_color_black,286868,,,,black_plus_sign,,,50,,,,,,,,,,,,,,,,,,,,
null,,prac_atten_color_black,287689,,,,black_plus_sign,,,null,,,,,,,,,,,,,,,,,,,,
null,,prac_atten_color,288650,,,,<p style='position:absolute;top: 50%;right: 50%;transform: translate(50%, -50%);font-size: 125px;color: blue;'>+</p>,,,null,,,,,,,,,,,,,,,,,,,,
327,,prac_atten_color_black,290653,,,,black_plus_sign,,,49,,,,,,,,,,,,,,,,,,,,
null,,prac_atten_color_black,291097,,,,black_plus_sign,,,null,,,,,,,,,,,,,,,,,,,,
null,,prac_atten_color,291675,,,,<p style='position:absolute;top: 50%;right: 50%;transform: translate(50%, -50%);font-size: 125px;color: green;'>+</p>,,,null,,,,,,,,,,,,,,,,,,,,
241,,prac_atten_color_black,293677,,,,black_plus_sign,,,50,,,,,,,,,,,,,,,,,,,,
null,,prac_atten_color_black,294508,,,,black_plus_sign,,,null,,,,,,,,,,,,,,,,,,,,
null,,prac_atten_color,294971,,,,<p style='position:absolute;top: 50%;right: 50%;transform: translate(50%, -50%);font-size: 125px;color: blue;'>+</p>,,,null,,,,,,,,,,,,,,,,,,,,
506,,prac_atten_color_black,296974,,,,black_plus_sign,,,49,,,,,,,,,,,,,,,,,,,,
null,,prac_atten_color_black,297919,,,,black_plus_sign,,,null,,,,,,,,,,,,,,,,,,,,
null,,prac_atten_color,298631,,,,<p style='position:absolute;top: 50%;right: 50%;transform: translate(50%, -50%);font-size: 125px;color: blue;'>+</p>,,,null,,,,,,,,,,,,,,,,,,,,
237,,prac_atten_color_black,300634,,,,black_plus_sign,,,49,,,,,,,,,,,,,,,,,,,,
8775,,attentioncheck_feedback,309416,,,,cross_check_feedback,0,,,,,,,,,,,,,,,,,,,,,,
8504,,last_instruct,317925,,,,instruct,,,32,,,,,,,,,,,,,,,,,,,,
null,,prac_learn_phase(without_color),321430,,,,black_plus_sign,,,null,object_15a.png,object_05c.png,,,,,,,,,,,,,,,,,,
null,,prac_black_cross(without_color),321999,,,,green,,,null,object_15a.png,object_05c.png,,,,,,,,,,,,,,,,,,
null,,prac_rt_plussign_withcolor,322504,,,,green,,,null,object_15a.png,object_05c.png,,,,,,,,,,,,,,,,,,
2215,,prac_rt_thecrossant_black,323941,,,,black_plus_sign,,,50,,,1,1,,,,,,,,,,,,,,,,
null,,prac_color_black,324046,,,,black_plus_sign,,,null,,,,,,,,,,,,,,,,,,,,
null,,prac_learn_phase(without_color),327555,,,,black_plus_sign,,,null,object_11a.png,object_05b.png,,,,,,,,,,,,,,,,,,
null,,black_cross(without_color)1,328350,,,,green,,,null,object_15a.png,object_05c.png,,,,,,,,,,,,,,,,,,
null,,prac_rt_plussign_withcolor,328859,,,,blue,,,null,object_11a.png,object_05b.png,,,,,,,,,,,,,,,,,,
1363,,prac_rt_thecrossant_black,329954,,,,black_plus_sign,,,49,,,1,1,,,,,,,,,,,,,,,,
null,,prac_color_black,330061,,,,black_plus_sign,,,null,,,,,,,,,,,,,,,,,,,,
null,,prac_learn_phase(without_color),333574,,,,black_plus_sign,,,null,object_05a.png,object_09b.png,,,,,,,,,,,,,,,,,,
null,,black_cross(without_color)1,334374,,,,green,,,null,object_15a.png,object_05c.png,,,,,,,,,,,,,,,,,,
null,,prac_rt_plussign_withcolor,334876,,,,green,,,null,object_05a.png,object_09b.png,,,,,,,,,,,,,,,,,,
1368,,prac_rt_thecrossant_black,335833,,,,black_plus_sign,,,50,,,1,1,,,,,,,,,,,,,,,,
null,,prac_color_black,335937,,,,black_plus_sign,,,null,,,,,,,,,,,,,,,,,,,,
null,,prac_learn_phase(without_color),339444,,,,black_plus_sign,,,null,object_07a.png,object_06c.png,,,,,,,,,,,,,,,,,,
null,,black_cross(without_color)1,340241,,,,green,,,null,object_15a.png,object_05c.png,,,,,,,,,,,,,,,,,,
null,,prac_rt_plussign_withcolor,340743,,,,blue,,,null,object_07a.png,object_06c.png,,,,,,,,,,,,,,,,,,
null,,prac_rt_thecrossant_black,341850,,,,black_plus_sign,,,null,,,,1,,,,,,,,,,,,,,,,
null,,prac_color_black,341958,,,,black_plus_sign,,,null,,,,,,,,,,,,,,,,,,,,
21722,,instruct_dir_01,363688,,,,instruct,0,Next,,,,,,,,,,,,,,,,,,,,,
19787,,instruct_dir_2,383481,,,,instruct,1,Next,,,,,,,,,,,,,,,,,,,,,
14024,,instruct_dir_3,397510,,,,instruct,1,Next,,,,,,,,,,,,,,,,,,,,,
12735,,instruct_dir_4,410250,,,,instruct,1,Start,,,,,,,,,,,,,,,,,,,,,
null,,thebreak,410354,,,,<p></p>,,,null,,,,,,,,,,,,,,,,,,,,
3204,,intro_0,413561,,,,instruct,,,32,,,,,,,,,,,,,,,,,,,,
6156,,prac_directmemory_phase,419723,,,,practice/object_03a.png,,,49,,,0,,practice/object_02a.png,practice/object_03b.png,practice/object_01b.png,practice/object_03b.png,0,0,,,,,,,,,,
8816,,prac_directmemory_phase,428552,,,,practice/object_01a.png,,,51,,,0,,practice/object_02a.png,practice/object_01b.png,practice/object_03b.png,practice/object_01b.png,0,0,,,,,,,,,,
6470,,prac_directmemory_phase,435028,,,,practice/object_04a.png,,,49,,,1,,practice/object_04b.png,practice/object_02b.png,practice/object_02a.png,practice/object_04b.png,1,0.3333333333333333,,,,,,,,,,
3306,,prac_directmemory_phase,438338,,,,practice/object_02a.png,,,51,,,0,,practice/object_02b.png,practice/object_01b.png,practice/object_03a.png,practice/object_02b.png,0,0.25,,,,,,,,,,
5949,,practice_feedback_force_restart,444290,,,,practice_feedback,0,,,,,,,,,,,,,1,,,,,,,,,
8576,,last_instruct,452867,,,,instruct,,,32,,,,,,,,,,,,,,,,,,,,
null,,prac_learn_phase(without_color),456370,,,,black_plus_sign,,,null,object_15a.png,object_05c.png,,,,,,,,,,,,,,,,,,
null,,prac_black_cross(without_color),456906,,,,green,,,null,object_15a.png,object_05c.png,,,,,,,,,,,,,,,,,,
null,,prac_rt_plussign_withcolor,457408,,,,green,,,null,object_15a.png,object_05c.png,,,,,,,,,,,,,,,,,,
1675,,prac_rt_thecrossant_black,458878,,,,black_plus_sign,,,50,,,1,1,,,,,,,,,,,,,,,,
null,,prac_color_black,458981,,,,black_plus_sign,,,null,,,,,,,,,,,,,,,,,,,,
null,,prac_learn_phase(without_color),462485,,,,black_plus_sign,,,null,object_11a.png,object_05b.png,,,,,,,,,,,,,,,,,,
null,,black_cross(without_color)1,463280,,,,green,,,null,object_15a.png,object_05c.png,,,,,,,,,,,,,,,,,,
null,,prac_rt_plussign_withcolor,463782,,,,blue,,,null,object_11a.png,object_05b.png,,,,,,,,,,,,,,,,,,
1331,,prac_rt_thecrossant_black,464853,,,,black_plus_sign,,,49,,,1,1,,,,,,,,,,,,,,,,
null,,prac_color_black,464957,,,,black_plus_sign,,,null,,,,,,,,,,,,,,,,,,,,
null,,prac_learn_phase(without_color),468463,,,,black_plus_sign,,,null,object_05a.png,object_09b.png,,,,,,,,,,,,,,,,,,
null,,black_cross(without_color)1,469260,,,,green,,,null,object_15a.png,object_05c.png,,,,,,,,,,,,,,,,,,
null,,prac_rt_plussign_withcolor,469766,,,,green,,,null,object_05a.png,object_09b.png,,,,,,,,,,,,,,,,,,
1662,,prac_rt_thecrossant_black,471091,,,,black_plus_sign,,,50,,,1,1,,,,,,,,,,,,,,,,
null,,prac_color_black,471200,,,,black_plus_sign,,,null,,,,,,,,,,,,,,,,,,,,
null,,prac_learn_phase(without_color),474705,,,,black_plus_sign,,,null,object_07a.png,object_06c.png,,,,,,,,,,,,,,,,,,
null,,black_cross(without_color)1,475501,,,,green,,,null,object_15a.png,object_05c.png,,,,,,,,,,,,,,,,,,
null,,prac_rt_plussign_withcolor,476005,,,,blue,,,null,object_07a.png,object_06c.png,,,,,,,,,,,,,,,,,,
1317,,prac_rt_thecrossant_black,477453,,,,black_plus_sign,,,49,,,1,1,,,,,,,,,,,,,,,,
null,,prac_color_black,477557,,,,black_plus_sign,,,null,,,,,,,,,,,,,,,,,,,,
3787,,instruct_dir_01,481348,,,,instruct,0,Next,,,,,,,,,,,,,,,,,,,,,
3669,,instruct_dir_2,485019,,,,instruct,1,Next,,,,,,,,,,,,,,,,,,,,,
3905,,instruct_dir_3,488927,,,,instruct,1,Next,,,,,,,,,,,,,,,,,,,,,
6274,,instruct_dir_4,495205,,,,instruct,1,Start,,,,,,,,,,,,,,,,,,,,,
null,,thebreak,495310,,,,<p></p>,,,null,,,,,,,,,,,,,,,,,,,,
1478,,intro_0,496790,,,,instruct,,,32,,,,,,,,,,,,,,,,,,,,
5211,,prac_directmemory_phase,502007,,,,practice/object_03a.png,,,51,,,0,,practice/object_02a.png,practice/object_03b.png,practice/object_01b.png,practice/object_03b.png,0,0,,,,,,,,,,
4672,,prac_directmemory_phase,506689,,,,practice/object_01a.png,,,50,,,1,,practice/object_02a.png,practice/object_01b.png,practice/object_03b.png,practice/object_01b.png,1,0.5,,,,,,,,,,
2167,,prac_directmemory_phase,508861,,,,practice/object_04a.png,,,49,,,1,,practice/object_04b.png,practice/object_02b.png,practice/object_02a.png,practice/object_04b.png,1,0.6666666666666666,,,,,,,,,,
1942,,prac_directmemory_phase,510810,,,,practice/object_02a.png,,,50,,,0,,practice/object_02b.png,practice/object_01b.png,practice/object_03a.png,practice/object_02b.png,0,0.5,,,,,,,,,,
6396,,practice_feedback_force_restart,517212,,,,practice_feedback,0,,,,,,,,,,,,,2,,,,,,,,,
14185,,last_instruct,531401,,,,instruct,,,32,,,,,,,,,,,,,,,,,,,,
null,,prac_learn_phase(without_color),534903,,,,black_plus_sign,,,null,object_15a.png,object_05c.png,,,,,,,,,,,,,,,,,,
null,,prac_black_cross(without_color),535493,,,,green,,,null,object_15a.png,object_05c.png,,,,,,,,,,,,,,,,,,
null,,prac_rt_plussign_withcolor,535996,,,,green,,,null,object_15a.png,object_05c.png,,,,,,,,,,,,,,,,,,
2015,,prac_rt_thecrossant_black,537415,,,,black_plus_sign,,,50,,,1,1,,,,,,,,,,,,,,,,
null,,prac_color_black,537517,,,,black_plus_sign,,,null,,,,,,,,,,,,,,,,,,,,
null,,prac_learn_phase(without_color),541024,,,,black_plus_sign,,,null,object_11a.png,object_05b.png,,,,,,,,,,,,,,,,,,
null,,black_cross(without_color)1,541820,,,,green,,,null,object_15a.png,object_05c.png,,,,,,,,,,,,,,,,,,
null,,prac_rt_plussign_withcolor,542323,,,,blue,,,null,object_11a.png,object_05b.png,,,,,,,,,,,,,,,,,,
974,,prac_rt_thecrossant_black,543610,,,,black_plus_sign,,,49,,,1,1,,,,,,,,,,,,,,,,
null,,prac_color_black,543714,,,,black_plus_sign,,,null,,,,,,,,,,,,,,,,,,,,
null,,prac_learn_phase(without_color),547224,,,,black_plus_sign,,,null,object_05a.png,object_09b.png,,,,,,,,,,,,,,,,,,
null,,black_cross(without_color)1,548024,,,,green,,,null,object_15a.png,object_05c.png,,,,,,,,,,,,,,,,,,
null,,prac_rt_plussign_withcolor,548528,,,,green,,,null,object_05a.png,object_09b.png,,,,,,,,,,,,,,,,,,
1592,,prac_rt_thecrossant_black,549629,,,,black_plus_sign,,,50,,,1,1,,,,,,,,,,,,,,,,
null,,prac_color_black,549732,,,,black_plus_sign,,,null,,,,,,,,,,,,,,,,,,,,
null,,prac_learn_phase(without_color),553237,,,,black_plus_sign,,,null,object_07a.png,object_06c.png,,,,,,,,,,,,,,,,,,
null,,black_cross(without_color)1,554053,,,,green,,,null,object_15a.png,object_05c.png,,,,,,,,,,,,,,,,,,
null,,prac_rt_plussign_withcolor,554556,,,,blue,,,null,object_07a.png,object_06c.png,,,,,,,,,,,,,,,,,,
1247,,prac_rt_thecrossant_black,555692,,,,black_plus_sign,,,49,,,1,1,,,,,,,,,,,,,,,,
null,,prac_color_black,555795,,,,black_plus_sign,,,null,,,,,,,,,,,,,,,,,,,,
5239,,instruct_dir_01,561038,,,,instruct,0,Next,,,,,,,,,,,,,,,,,,,,,
1963,,instruct_dir_2,563004,,,,instruct,1,Next,,,,,,,,,,,,,,,,,,,,,
2614,,instruct_dir_3,565620,,,,instruct,1,Next,,,,,,,,,,,,,,,,,,,,,
2746,,instruct_dir_4,568370,,,,instruct,1,Start,,,,,,,,,,,,,,,,,,,,,
null,,thebreak,568474,,,,<p></p>,,,null,,,,,,,,,,,,,,,,,,,,
1413,,intro_0,569891,,,,instruct,,,32,,,,,,,,,,,,,,,,,,,,
4557,,prac_directmemory_phase,574453,,,,practice/object_03a.png,,,50,,,1,,practice/object_02a.png,practice/object_03b.png,practice/object_01b.png,practice/object_03b.png,1,1,,,,,,,,,,
5434,,prac_directmemory_phase,579897,,,,practice/object_01a.png,,,50,,,1,,practice/object_02a.png,practice/object_01b.png,practice/object_03b.png,practice/object_01b.png,1,1,,,,,,,,,,
2104,,prac_directmemory_phase,582013,,,,practice/object_04a.png,,,49,,,1,,practice/object_04b.png,practice/object_02b.png,practice/object_02a.png,practice/object_04b.png,1,1,,,,,,,,,,
4260,,prac_directmemory_phase,586281,,,,practice/object_02a.png,,,51,,,0,,practice/object_02b.png,practice/object_01b.png,practice/object_03a.png,practice/object_02b.png,0,0.75,,,,,,,,,,
8797,,practice_feedback,595087,,,,practice_feedback,0,,,,,,,,,,,,,,,,,,,,,,
2108,,last_instruct,597200,,,,instruct,,,32,,,,,,,,,,,,,,,,,,,,
null,,prac_learn_phase(without_color),600706,,,,black_plus_sign,,,null,object_15a.png,object_05c.png,,,,,,,,,,,,,,,,,,
null,,prac_black_cross(without_color),601780,,,,green,,,null,object_15a.png,object_05c.png,,,,,,,,,,,,,,,,,,
null,,prac_rt_plussign_withcolor,602286,,,,green,,,null,object_15a.png,object_05c.png,,,,,,,,,,,,,,,,,,
null,,prac_rt_thecrossant_black,603227,,,,black_plus_sign,,,null,,,,1,,,,,,,,,,,,,,,,
null,,prac_color_black,603333,,,,black_plus_sign,,,null,,,,,,,,,,,,,,,,,,,,
null,,prac_learn_phase(without_color),606837,,,,black_plus_sign,,,null,object_11a.png,object_05b.png,,,,,,,,,,,,,,,,,,
null,,black_cross(without_color)1,607631,,,,green,,,null,object_15a.png,object_05c.png,,,,,,,,,,,,,,,,,,
null,,prac_rt_plussign_withcolor,608134,,,,blue,,,null,object_11a.png,object_05b.png,,,,,,,,,,,,,,,,,,
1700,,prac_rt_thecrossant_black,609211,,,,black_plus_sign,,,49,,,1,1,,,,,,,,,,,,,,,,
null,,prac_color_black,609315,,,,black_plus_sign,,,null,,,,,,,,,,,,,,,,,,,,
null,,prac_learn_phase(without_color),612821,,,,black_plus_sign,,,null,object_05a.png,object_09b.png,,,,,,,,,,,,,,,,,,
null,,black_cross(without_color)1,613616,,,,green,,,null,object_15a.png,object_05c.png,,,,,,,,,,,,,,,,,,
null,,prac_rt_plussign_withcolor,614119,,,,green,,,null,object_05a.png,object_09b.png,,,,,,,,,,,,,,,,,,
1665,,prac_rt_thecrossant_black,615039,,,,black_plus_sign,,,50,,,1,1,,,,,,,,,,,,,,,,
null,,prac_color_black,615143,,,,black_plus_sign,,,null,,,,,,,,,,,,,,,,,,,,
null,,prac_learn_phase(without_color),618647,,,,black_plus_sign,,,null,object_07a.png,object_06c.png,,,,,,,,,,,,,,,,,,
null,,black_cross(without_color)1,619442,,,,green,,,null,object_15a.png,object_05c.png,,,,,,,,,,,,,,,,,,
null,,prac_rt_plussign_withcolor,619945,,,,blue,,,null,object_07a.png,object_06c.png,,,,,,,,,,,,,,,,,,
1644,,prac_rt_thecrossant_black,621527,,,,black_plus_sign,,,49,,,1,1,,,,,,,,,,,,,,,,
null,,prac_color_black,621630,,,,black_plus_sign,,,null,,,,,,,,,,,,,,,,,,,,
5983,,instruct_dir_01,627618,,,,instruct,0,Next,,,,,,,,,,,,,,,,,,,,,
1676,,instruct_dir_2,629297,,,,instruct,1,Next,,,,,,,,,,,,,,,,,,,,,
2528,,instruct_dir_3,631828,,,,instruct,1,Next,,,,,,,,,,,,,,,,,,,,,
2039,,instruct_dir_4,633871,,,,instruct,1,Start,,,,,,,,,,,,,,,,,,,,,
null,,thebreak,633973,,,,<p></p>,,,null,,,,,,,,,,,,,,,,,,,,
1521,,intro_0,635497,,,,instruct,,,32,,,,,,,,,,,,,,,,,,,,
2438,,prac_directmemory_phase,637938,,,,practice/object_03a.png,,,50,,,1,,practice/object_02a.png,practice/object_03b.png,practice/object_01b.png,practice/object_03b.png,1,1,,,,,,,,,,
4384,,prac_directmemory_phase,642328,,,,practice/object_01a.png,,,50,,,1,,practice/object_02a.png,practice/object_01b.png,practice/object_03b.png,practice/object_01b.png,1,1,,,,,,,,,,
1857,,prac_directmemory_phase,644188,,,,practice/object_04a.png,,,49,,,1,,practice/object_04b.png,practice/object_02b.png,practice/object_02a.png,practice/object_04b.png,1,1,,,,,,,,,,
8877,,prac_directmemory_phase,653071,,,,practice/object_02a.png,,,49,,,1,,practice/object_02b.png,practice/object_01b.png,practice/object_03a.png,practice/object_02b.png,1,1,,,,,,,,,,
5137,,practice_feedback,658214,,,,practice_feedback,1,,,,,,,,,,,,,,,,,,,,,,
10909,,proceed_actualTask,669130,,,,proceed_actualTask,1,Continue,,,,,,,,,,,,,,,,,,,,,
4910,,last_inst,674049,,,,last_inst,,,32,,,,,,,,,,,,,,,,,,,,
null,,learn_phase(without_color)1,677556,,,,black_plus_sign,,,null,object_15a.png,object_05c.png,,,,,,,,,,,,,,,,,,
null,,black_cross(without_color)1,678354,,,,green,,,null,object_15a.png,object_05c.png,,,,,,,,,,,,,,,,,,
null,,rt_plussign_withcolor1,678859,,,,green,,,null,object_15a.png,object_05c.png,,,,,,,,,,,,,,,,,,
null,,rt_thecrossant_black1,680076,,,,black_plus_sign,,,null,,,,,,,,,,NaN,,,,,,,,,,
null,,color_black1,680183,,,,black_plus_sign,,,null,,,,,,,,,,,,,,,,,,,,
null,,learn_phase(without_color)1,683697,,,,black_plus_sign,,,null,object_11a.png,object_05b.png,,,,,,,,,,,,,,,,,,
null,,black_cross(without_color)1,684558,,,,green,,,null,object_11a.png,object_05b.png,,,,,,,,,,,,,,,,,,
null,,rt_plussign_withcolor1,685064,,,,green,,,null,object_11a.png,object_05b.png,,,,,,,,,,,,,,,,,,
1469,,rt_thecrossant_black1,686217,,,,black_plus_sign,,,50,,,1,,,,,,,1,,,,,,,,,,
null,,color_black1,686322,,,,black_plus_sign,,,null,,,,,,,,,,,,,,,,,,,,
null,,learn_phase(without_color)1,689829,,,,black_plus_sign,,,null,object_05a.png,object_09b.png,,,,,,,,,,,,,,,,,,
null,,black_cross(without_color)1,690531,,,,green,,,null,object_05a.png,object_09b.png,,,,,,,,,,,,,,,,,,
null,,rt_plussign_withcolor1,691035,,,,green,,,null,object_05a.png,object_09b.png,,,,,,,,,,,,,,,,,,
1638,,rt_thecrossant_black1,692347,,,,black_plus_sign,,,50,,,1,,,,,,,1,,,,,,,,,,
null,,color_black1,692454,,,,black_plus_sign,,,null,,,,,,,,,,,,,,,,,,,,
null,,learn_phase(without_color)1,695964,,,,black_plus_sign,,,null,object_07a.png,object_06c.png,,,,,,,,,,,,,,,,,,
null,,black_cross(without_color)1,696748,,,,green,,,null,object_07a.png,object_06c.png,,,,,,,,,,,,,,,,,,
null,,rt_plussign_withcolor1,697251,,,,green,,,null,object_07a.png,object_06c.png,,,,,,,,,,,,,,,,,,
1464,,rt_thecrossant_black1,698477,,,,black_plus_sign,,,50,,,1,,,,,,,1,,,,,,,,,,
null,,color_black1,698583,,,,black_plus_sign,,,null,,,,,,,,,,,,,,,,,,,,
null,,learn_phase(without_color)1,702087,,,,black_plus_sign,,,null,object_12c.png,object_15c.png,,,,,,,,,,,,,,,,,,
null,,black_cross(without_color)1,702792,,,,green,,,null,object_12c.png,object_15c.png,,,,,,,,,,,,,,,,,,
null,,rt_plussign_withcolor1,703295,,,,green,,,null,object_12c.png,object_15c.png,,,,,,,,,,,,,,,,,,
1087,,rt_thecrossant_black1,704600,,,,black_plus_sign,,,50,,,1,,,,,,,1,,,,,,,,,,
null,,color_black1,704706,,,,black_plus_sign,,,null,,,,,,,,,,,,,,,,,,,,
null,,learn_phase(without_color)1,708210,,,,black_plus_sign,,,null,object_14c.png,object_09c.png,,,,,,,,,,,,,,,,,,
null,,black_cross(without_color)1,709311,,,,green,,,null,object_14c.png,object_09c.png,,,,,,,,,,,,,,,,,,
null,,rt_plussign_withcolor1,709813,,,,green,,,null,object_14c.png,object_09c.png,,,,,,,,,,,,,,,,,,
null,,rt_thecrossant_black1,710718,,,,black_plus_sign,,,null,,,,,,,,,,1,,,,,,,,,,
null,,color_black1,710822,,,,black_plus_sign,,,null,,,,,,,,,,,,,,,,,,,,
null,,learn_phase(without_color)1,714326,,,,black_plus_sign,,,null,object_04b.png,object_02b.png,,,,,,,,,,,,,,,,,,
null,,black_cross(without_color)1,714939,,,,blue,,,null,object_04b.png,object_02b.png,,,,,,,,,,,,,,,,,,
null,,rt_plussign_withcolor1,715445,,,,blue,,,null,object_04b.png,object_02b.png,,,,,,,,,,,,,,,,,,
1722,,rt_thecrossant_black1,716839,,,,black_plus_sign,,,49,,,1,,,,,,,1,,,,,,,,,,
null,,color_black1,716942,,,,black_plus_sign,,,null,,,,,,,,,,,,,,,,,,,,
null,,learn_phase(without_color)1,720447,,,,black_plus_sign,,,null,object_04a.png,object_03a.png,,,,,,,,,,,,,,,,,,
null,,black_cross(without_color)1,721118,,,,blue,,,null,object_04a.png,object_03a.png,,,,,,,,,,,,,,,,,,
null,,rt_plussign_withcolor1,721621,,,,blue,,,null,object_04a.png,object_03a.png,,,,,,,,,,,,,,,,,,
1515,,rt_thecrossant_black1,722959,,,,black_plus_sign,,,49,,,1,,,,,,,1,,,,,,,,,,
null,,color_black1,723063,,,,black_plus_sign,,,null,,,,,,,,,,,,,,,,,,,,
null,,learn_phase(without_color)1,726571,,,,black_plus_sign,,,null,object_03c.png,object_07c.png,,,,,,,,,,,,,,,,,,
null,,black_cross(without_color)1,727316,,,,blue,,,null,object_03c.png,object_07c.png,,,,,,,,,,,,,,,,,,
null,,rt_plussign_withcolor1,727822,,,,blue,,,null,object_03c.png,object_07c.png,,,,,,,,,,,,,,,,,,
1878,,rt_thecrossant_black1,729090,,,,black_plus_sign,,,49,,,1,,,,,,,1,,,,,,,,,,
null,,color_black1,729194,,,,black_plus_sign,,,null,,,,,,,,,,,,,,,,,,,,
null,,learn_phase(without_color)1,732698,,,,black_plus_sign,,,null,object_11c.png,object_14b.png,,,,,,,,,,,,,,,,,,
null,,black_cross(without_color)1,733657,,,,blue,,,null,object_11c.png,object_14b.png,,,,,,,,,,,,,,,,,,
null,,rt_plussign_withcolor1,734160,,,,blue,,,null,object_11c.png,object_14b.png,,,,,,,,,,,,,,,,,,
1652,,rt_thecrossant_black1,735207,,,,black_plus_sign,,,49,,,1,,,,,,,1,,,,,,,,,,
null,,color_black1,735311,,,,black_plus_sign,,,null,,,,,,,,,,,,,,,,,,,,
null,,learn_phase(without_color)1,738815,,,,black_plus_sign,,,null,object_01b.png,object_01a.png,,,,,,,,,,,,,,,,,,
null,,black_cross(without_color)1,739808,,,,blue,,,null,object_01b.png,object_01a.png,,,,,,,,,,,,,,,,,,
null,,rt_plussign_withcolor1,740311,,,,blue,,,null,object_01b.png,object_01a.png,,,,,,,,,,,,,,,,,,
1641,,rt_thecrossant_black1,741325,,,,black_plus_sign,,,49,,,1,,,,,,,1,,,,,,,,,,
null,,color_black1,741428,,,,black_plus_sign,,,null,,,,,,,,,,,,,,,,,,,,
null,,learn_phase(without_color)1,744931,,,,black_plus_sign,,,null,object_14a.png,object_10c.png,,,,,,,,,,,,,,,,,,
null,,black_cross(without_color)1,745956,,,,blue,,,null,object_14a.png,object_10c.png,,,,,,,,,,,,,,,,,,
null,,rt_plussign_withcolor1,746459,,,,blue,,,null,object_14a.png,object_10c.png,,,,,,,,,,,,,,,,,,
1345,,rt_thecrossant_black1,747443,,,,black_plus_sign,,,49,,,1,,,,,,,1,,,,,,,,,,
null,,color_black1,747547,,,,black_plus_sign,,,null,,,,,,,,,,,,,,,,,,,,
null,,learn_phase(without_color)1,751051,,,,black_plus_sign,,,null,object_02a.png,object_06b.png,,,,,,,,,,,,,,,,,,
null,,black_cross(without_color)1,751621,,,,green,,,null,object_02a.png,object_06b.png,,,,,,,,,,,,,,,,,,
null,,rt_plussign_withcolor1,752124,,,,green,,,null,object_02a.png,object_06b.png,,,,,,,,,,,,,,,,,,
1811,,rt_thecrossant_black1,753562,,,,black_plus_sign,,,50,,,1,,,,,,,1,,,,,,,,,,
null,,color_black1,753664,,,,black_plus_sign,,,null,,,,,,,,,,,,,,,,,,,,
null,,learn_phase(without_color)1,757167,,,,black_plus_sign,,,null,object_12b.png,object_11b.png,,,,,,,,,,,,,,,,,,
null,,black_cross(without_color)1,758051,,,,green,,,null,object_12b.png,object_11b.png,,,,,,,,,,,,,,,,,,
null,,rt_plussign_withcolor1,758554,,,,green,,,null,object_12b.png,object_11b.png,,,,,,,,,,,,,,,,,,
1217,,rt_thecrossant_black1,759679,,,,black_plus_sign,,,50,,,1,,,,,,,1,,,,,,,,,,
null,,color_black1,759783,,,,black_plus_sign,,,null,,,,,,,,,,,,,,,,,,,,
null,,learn_phase(without_color)1,763288,,,,black_plus_sign,,,null,object_04c.png,object_08c.png,,,,,,,,,,,,,,,,,,
null,,black_cross(without_color)1,763779,,,,green,,,null,object_04c.png,object_08c.png,,,,,,,,,,,,,,,,,,
null,,rt_plussign_withcolor1,764283,,,,green,,,null,object_04c.png,object_08c.png,,,,,,,,,,,,,,,,,,
1961,,rt_thecrossant_black1,765801,,,,black_plus_sign,,,50,,,1,,,,,,,1,,,,,,,,,,
null,,color_black1,765907,,,,black_plus_sign,,,null,,,,,,,,,,,,,,,,,,,,
null,,thebreak,766019,,,,<p></p>,,,null,,,,,,,,,,,,,,,,,,,,
3848,,intro_0,769869,,,,instruct,,,32,,,,,,,,,,,,,,,,,,,,
2866,,directmemory_phase1,772739,,,,object_14c.png,,,50,,,1,,object_08c.png,object_09c.png,object_02a.png,object_09c.png,,1,,1,,,,,,,,
2736,,directmemory_phase1,775485,,,,object_07c.png,,,50,,,0,,object_03c.png,object_03a.png,object_14b.png,object_03c.png,,0.5,,0,,,,,,,,
2362,,directmemory_phase1,777858,,,,object_01a.png,,,49,,,1,,object_01b.png,object_09c.png,object_02b.png,object_01b.png,,0.6666666666666666,,1,,,,,,,,
6346,,directmemory_phase1,784211,,,,object_02b.png,,,50,,,0,,object_04b.png,object_12c.png,object_14c.png,object_04b.png,,0.5,,0,,,,,,,,
5811,,directmemory_phase1,790032,,,,object_12b.png,,,51,,,0,,object_06b.png,object_11b.png,object_06c.png,object_11b.png,,0.4,,0,,,,,,,,
4496,,directmemory_phase1,794542,,,,object_10c.png,,,50,,,1,,object_07a.png,object_14a.png,object_05a.png,object_14a.png,,0.5,,1,,,,,,,,
4632,,directmemory_phase1,799181,,,,object_06b.png,,,51,,,0,,object_02a.png,object_05b.png,object_02b.png,object_02a.png,,0.42857142857142855,,0,,,,,,,,
7383,,directmemory_phase1,806570,,,,object_11a.png,,,51,,,1,,object_14a.png,object_04a.png,object_05b.png,object_05b.png,,0.5,,1,,,,,,,,
3435,,directmemory_phase1,810010,,,,object_05c.png,,,51,,,1,,object_04b.png,object_04a.png,object_15a.png,object_15a.png,,0.5555555555555556,,1,,,,,,,,
7025,,directmemory_phase1,817038,,,,object_07a.png,,,49,,,0,,object_04c.png,object_05c.png,object_06c.png,object_06c.png,,0.5,,0,,,,,,,,
5269,,directmemory_phase1,822313,,,,object_14b.png,,,49,,,0,,object_05a.png,object_02b.png,object_11c.png,object_11c.png,,0.45454545454545453,,0,,,,,,,,
4960,,directmemory_phase1,827280,,,,object_09b.png,,,49,,,0,,object_08c.png,object_05a.png,object_06c.png,object_05a.png,,0.4166666666666667,,0,,,,,,,,
9046,,directmemory_phase1,836334,,,,object_08c.png,,,51,,,1,,object_01b.png,object_01a.png,object_04c.png,object_04c.png,,0.46153846153846156,,1,,,,,,,,
1593,,directmemory_phase1,837935,,,,object_04a.png,,,49,,,1,,object_03a.png,object_06c.png,object_08c.png,object_03a.png,,0.5,,1,,,,,,,,
4890,,directmemory_phase1,842833,,,,object_15c.png,,,50,,,1,,object_04a.png,object_12c.png,object_05b.png,object_12c.png,,0.5333333333333333,,1,,,,,,,,
null,,thebreak,842942,,,,<p></p>,,,null,,,,,,,,,,,,,,,,,,,,
1586,,intro_0,844530,,,,instruct,,,32,,,,,,,,,,,,,,,,,,,,
null,,learn_phase(without_color)2,848034,,,,black_plus_sign,,,null,object_09b.png,object_05a.png,,,,,,,,,,,,,,,,,,
null,,black_cross(without_color)2,849060,,,,green,,,null,object_09b.png,object_05a.png,,,,,,,,,,,,,,,,,,
null,,rt_plussign_withcolor2,849569,,,,green,,,null,object_09b.png,object_05a.png,,,,,,,,,,,,,,,,,,
null,,rt_thecrossant_black2,850558,,,,black_plus_sign,,,null,,,,,,,,,,NaN,,,,,,,,,,
null,,color_black2,850664,,,,black_plus_sign,,,null,,,,,,,,,,,,,,,,,,,,
null,,learn_phase(without_color)2,854173,,,,black_plus_sign,,,null,object_04c.png,object_08c.png,,,,,,,,,,,,,,,,,,
null,,black_cross(without_color)2,854742,,,,green,,,null,object_04c.png,object_08c.png,,,,,,,,,,,,,,,,,,
null,,rt_plussign_withcolor2,855251,,,,green,,,null,object_04c.png,object_08c.png,,,,,,,,,,,,,,,,,,
1875,,rt_thecrossant_black2,856699,,,,black_plus_sign,,,50,,,1,,,,,,,1,,,,,,,,,,
null,,color_black2,856804,,,,black_plus_sign,,,null,,,,,,,,,,,,,,,,,,,,
null,,learn_phase(without_color)2,860311,,,,black_plus_sign,,,null,object_02a.png,object_06b.png,,,,,,,,,,,,,,,,,,
null,,black_cross(without_color)2,860840,,,,blue,,,null,object_02a.png,object_06b.png,,,,,,,,,,,,,,,,,,
null,,rt_plussign_withcolor2,861343,,,,blue,,,null,object_02a.png,object_06b.png,,,,,,,,,,,,,,,,,,
1328,,rt_thecrossant_black2,862822,,,,black_plus_sign,,,49,,,1,,,,,,,1,,,,,,,,,,
null,,color_black2,862926,,,,black_plus_sign,,,null,,,,,,,,,,,,,,,,,,,,
null,,learn_phase(without_color)2,866430,,,,black_plus_sign,,,null,object_07a.png,object_06c.png,,,,,,,,,,,,,,,,,,
null,,black_cross(without_color)2,867240,,,,green,,,null,object_07a.png,object_06c.png,,,,,,,,,,,,,,,,,,
null,,rt_plussign_withcolor2,867743,,,,green,,,null,object_07a.png,object_06c.png,,,,,,,,,,,,,,,,,,
1107,,rt_thecrossant_black2,868944,,,,black_plus_sign,,,50,,,1,,,,,,,1,,,,,,,,,,
null,,color_black2,869047,,,,black_plus_sign,,,null,,,,,,,,,,,,,,,,,,,,
null,,learn_phase(without_color)2,872552,,,,black_plus_sign,,,null,object_14c.png,object_09c.png,,,,,,,,,,,,,,,,,,
null,,black_cross(without_color)2,873489,,,,blue,,,null,object_14c.png,object_09c.png,,,,,,,,,,,,,,,,,,
null,,rt_plussign_withcolor2,873991,,,,blue,,,null,object_14c.png,object_09c.png,,,,,,,,,,,,,,,,,,
1320,,rt_thecrossant_black2,875060,,,,black_plus_sign,,,49,,,1,,,,,,,1,,,,,,,,,,
null,,color_black2,875164,,,,black_plus_sign,,,null,,,,,,,,,,,,,,,,,,,,
null,,learn_phase(without_color)2,878667,,,,black_plus_sign,,,null,object_11c.png,object_14b.png,,,,,,,,,,,,,,,,,,
null,,black_cross(without_color)2,879380,,,,blue,,,null,object_11c.png,object_14b.png,,,,,,,,,,,,,,,,,,
null,,rt_plussign_withcolor2,879884,,,,blue,,,null,object_11c.png,object_14b.png,,,,,,,,,,,,,,,,,,
1534,,rt_thecrossant_black2,881178,,,,black_plus_sign,,,49,,,1,,,,,,,1,,,,,,,,,,
null,,color_black2,881282,,,,black_plus_sign,,,null,,,,,,,,,,,,,,,,,,,,
null,,learn_phase(without_color)2,884788,,,,black_plus_sign,,,null,object_02b.png,object_04b.png,,,,,,,,,,,,,,,,,,
null,,black_cross(without_color)2,885509,,,,green,,,null,object_02b.png,object_04b.png,,,,,,,,,,,,,,,,,,
null,,rt_plussign_withcolor2,886013,,,,green,,,null,object_02b.png,object_04b.png,,,,,,,,,,,,,,,,,,
1390,,rt_thecrossant_black2,887307,,,,black_plus_sign,,,50,,,1,,,,,,,1,,,,,,,,,,
null,,color_black2,887414,,,,black_plus_sign,,,null,,,,,,,,,,,,,,,,,,,,
null,,learn_phase(without_color)2,890924,,,,black_plus_sign,,,null,object_11b.png,object_12b.png,,,,,,,,,,,,,,,,,,
null,,black_cross(without_color)2,891719,,,,green,,,null,object_11b.png,object_12b.png,,,,,,,,,,,,,,,,,,
null,,rt_plussign_withcolor2,892227,,,,green,,,null,object_11b.png,object_12b.png,,,,,,,,,,,,,,,,,,
1257,,rt_thecrossant_black2,893447,,,,black_plus_sign,,,50,,,1,,,,,,,1,,,,,,,,,,
null,,color_black2,893554,,,,black_plus_sign,,,null,,,,,,,,,,,,,,,,,,,,
null,,learn_phase(without_color)2,897060,,,,black_plus_sign,,,null,object_14a.png,object_10c.png,,,,,,,,,,,,,,,,,,
null,,black_cross(without_color)2,898101,,,,green,,,null,object_14a.png,object_10c.png,,,,,,,,,,,,,,,,,,
null,,rt_plussign_withcolor2,898608,,,,green,,,null,object_14a.png,object_10c.png,,,,,,,,,,,,,,,,,,
1329,,rt_thecrossant_black2,899577,,,,black_plus_sign,,,50,,,1,,,,,,,1,,,,,,,,,,
null,,color_black2,899682,,,,black_plus_sign,,,null,,,,,,,,,,,,,,,,,,,,
null,,learn_phase(without_color)2,903190,,,,black_plus_sign,,,null,object_01b.png,object_01a.png,,,,,,,,,,,,,,,,,,
null,,black_cross(without_color)2,903827,,,,green,,,null,object_01b.png,object_01a.png,,,,,,,,,,,,,,,,,,
null,,rt_plussign_withcolor2,904331,,,,green,,,null,object_01b.png,object_01a.png,,,,,,,,,,,,,,,,,,
1691,,rt_thecrossant_black2,905702,,,,black_plus_sign,,,50,,,1,,,,,,,1,,,,,,,,,,
null,,color_black2,905808,,,,black_plus_sign,,,null,,,,,,,,,,,,,,,,,,,,
null,,learn_phase(without_color)2,909313,,,,black_plus_sign,,,null,object_04a.png,object_03a.png,,,,,,,,,,,,,,,,,,
null,,black_cross(without_color)2,909953,,,,blue,,,null,object_04a.png,object_03a.png,,,,,,,,,,,,,,,,,,
null,,rt_plussign_withcolor2,910456,,,,blue,,,null,object_04a.png,object_03a.png,,,,,,,,,,,,,,,,,,
1358,,rt_thecrossant_black2,911831,,,,black_plus_sign,,,49,,,1,,,,,,,1,,,,,,,,,,
null,,color_black2,911935,,,,black_plus_sign,,,null,,,,,,,,,,,,,,,,,,,,
null,,learn_phase(without_color)2,915439,,,,black_plus_sign,,,null,object_15c.png,object_12c.png,,,,,,,,,,,,,,,,,,
null,,black_cross(without_color)2,915898,,,,blue,,,null,object_15c.png,object_12c.png,,,,,,,,,,,,,,,,,,
null,,rt_plussign_withcolor2,916402,,,,blue,,,null,object_15c.png,object_12c.png,,,,,,,,,,,,,,,,,,
1295,,rt_thecrossant_black2,917953,,,,black_plus_sign,,,49,,,1,,,,,,,1,,,,,,,,,,
null,,color_black2,918057,,,,black_plus_sign,,,null,,,,,,,,,,,,,,,,,,,,
null,,learn_phase(without_color)2,921565,,,,black_plus_sign,,,null,object_05c.png,object_15a.png,,,,,,,,,,,,,,,,,,
null,,black_cross(without_color)2,922316,,,,blue,,,null,object_05c.png,object_15a.png,,,,,,,,,,,,,,,,,,
null,,rt_plussign_withcolor2,922821,,,,blue,,,null,object_05c.png,object_15a.png,,,,,,,,,,,,,,,,,,
1194,,rt_thecrossant_black2,924100,,,,black_plus_sign,,,49,,,1,,,,,,,1,,,,,,,,,,
null,,color_black2,924206,,,,black_plus_sign,,,null,,,,,,,,,,,,,,,,,,,,
null,,learn_phase(without_color)2,927716,,,,black_plus_sign,,,null,object_11a.png,object_05b.png,,,,,,,,,,,,,,,,,,
null,,black_cross(without_color)2,928171,,,,blue,,,null,object_11a.png,object_05b.png,,,,,,,,,,,,,,,,,,
null,,rt_plussign_withcolor2,928678,,,,blue,,,null,object_11a.png,object_05b.png,,,,,,,,,,,,,,,,,,
1639,,rt_thecrossant_black2,930241,,,,black_plus_sign,,,49,,,1,,,,,,,1,,,,,,,,,,
null,,color_black2,930352,,,,black_plus_sign,,,null,,,,,,,,,,,,,,,,,,,,
null,,learn_phase(without_color)2,933859,,,,black_plus_sign,,,null,object_07c.png,object_03c.png,,,,,,,,,,,,,,,,,,
null,,black_cross(without_color)2,934421,,,,green,,,null,object_07c.png,object_03c.png,,,,,,,,,,,,,,,,,,
null,,rt_plussign_withcolor2,934923,,,,green,,,null,object_07c.png,object_03c.png,,,,,,,,,,,,,,,,,,
1274,,rt_thecrossant_black2,936367,,,,black_plus_sign,,,50,,,1,,,,,,,1,,,,,,,,,,
null,,color_black2,936470,,,,black_plus_sign,,,null,,,,,,,,,,,,,,,,,,,,
null,,thebreak,936576,,,,<p></p>,,,null,,,,,,,,,,,,,,,,,,,,
1858,,intro_0,938441,,,,instruct,,,32,,,,,,,,,,,,,,,,,,,,
3343,,directmemory_phase2,941788,,,,object_07c.png,,,51,,,1,,object_15a.png,object_01a.png,object_03c.png,object_03c.png,,0.5625,,1,,,,,,,,
5197,,directmemory_phase2,946990,,,,object_04a.png,,,50,,,1,,object_09b.png,object_03a.png,object_09c.png,object_03a.png,,0.5882352941176471,,1,,,,,,,,
2210,,directmemory_phase2,949209,,,,object_11a.png,,,49,,,1,,object_05b.png,object_03a.png,object_01a.png,object_05b.png,,0.6111111111111112,,1,,,,,,,,
3135,,directmemory_phase2,952348,,,,object_05c.png,,,49,,,1,,object_15a.png,object_09c.png,object_04a.png,object_15a.png,,0.631578947368421,,1,,,,,,,,
2395,,directmemory_phase2,954748,,,,object_10c.png,,,51,,,1,,object_05b.png,object_09b.png,object_14a.png,object_14a.png,,0.65,,1,,,,,,,,
6927,,directmemory_phase2,961680,,,,object_07a.png,,,50,,,0,,object_01b.png,object_14c.png,object_06c.png,object_06c.png,,0.6190476190476191,,0,,,,,,,,
1711,,directmemory_phase2,963398,,,,object_15c.png,,,49,,,1,,object_12c.png,object_14a.png,object_02b.png,object_12c.png,,0.6363636363636364,,1,,,,,,,,
1987,,directmemory_phase2,965390,,,,object_02b.png,,,51,,,1,,object_05b.png,object_14c.png,object_04b.png,object_04b.png,,0.6521739130434783,,1,,,,,,,,
3642,,directmemory_phase2,969038,,,,object_14c.png,,,49,,,1,,object_09c.png,object_04b.png,object_04a.png,object_09c.png,,0.6666666666666666,,1,,,,,,,,
1967,,directmemory_phase2,971012,,,,object_12b.png,,,50,,,1,,object_04a.png,object_11b.png,object_14a.png,object_11b.png,,0.68,,1,,,,,,,,
2290,,directmemory_phase2,973308,,,,object_01a.png,,,49,,,1,,object_01b.png,object_15a.png,object_15c.png,object_01b.png,,0.6923076923076923,,1,,,,,,,,
2255,,directmemory_phase2,975567,,,,object_09b.png,,,49,,,0,,object_03c.png,object_02b.png,object_05a.png,object_05a.png,,0.6666666666666666,,0,,,,,,,,
10198,,directmemory_phase2,985770,,,,object_14b.png,,,49,,,1,,object_11c.png,object_06c.png,object_05c.png,object_11c.png,,0.6785714285714286,,1,,,,,,,,
5338,,directmemory_phase2,991114,,,,object_08c.png,,,51,,,1,,object_15a.png,object_11a.png,object_04c.png,object_04c.png,,0.6896551724137931,,1,,,,,,,,
3461,,directmemory_phase2,994586,,,,object_06b.png,,,49,,,1,,object_02a.png,object_03a.png,object_01a.png,object_02a.png,,0.7,,1,,,,,,,,
null,,thebreak,994694,,,,<p></p>,,,null,,,,,,,,,,,,,,,,,,,,
1374,,intro_0,996073,,,,instruct,,,32,,,,,,,,,,,,,,,,,,,,
null,,learn_phase(without_color)3,999578,,,,black_plus_sign,,,null,object_02a.png,object_06b.png,,,,,,,,,,,,,,,,,,
null,,black_cross(without_color)3,1000294,,,,blue,,,null,object_02a.png,object_06b.png,,,,,,,,,,,,,,,,,,
null,,rt_plussign_withcolor3,1000798,,,,blue,,,null,object_02a.png,object_06b.png,,,,,,,,,,,,,,,,,,
1806,,rt_thecrossant_black3,1002094,,,,black_plus_sign,,,49,,,1,,,,,,,1,,,,,,,,,,
null,,color_black3,1002198,,,,black_plus_sign,,,null,,,,,,,,,,,,,,,,,,,,
null,,learn_phase(without_color)3,1005708,,,,black_plus_sign,,,null,object_14b.png,object_11c.png,,,,,,,,,,,,,,,,,,
null,,black_cross(without_color)3,1006437,,,,blue,,,null,object_14b.png,object_11c.png,,,,,,,,,,,,,,,,,,
null,,rt_plussign_withcolor3,1006939,,,,blue,,,null,object_14b.png,object_11c.png,,,,,,,,,,,,,,,,,,
1168,,rt_thecrossant_black3,1008219,,,,black_plus_sign,,,49,,,1,,,,,,,1,,,,,,,,,,
null,,color_black3,1008323,,,,black_plus_sign,,,null,,,,,,,,,,,,,,,,,,,,
null,,learn_phase(without_color)3,1011829,,,,black_plus_sign,,,null,object_04c.png,object_08c.png,,,,,,,,,,,,,,,,,,
null,,black_cross(without_color)3,1012272,,,,green,,,null,object_04c.png,object_08c.png,,,,,,,,,,,,,,,,,,
null,,rt_plussign_withcolor3,1012777,,,,green,,,null,object_04c.png,object_08c.png,,,,,,,,,,,,,,,,,,
1440,,rt_thecrossant_black3,1014347,,,,black_plus_sign,,,50,,,1,,,,,,,1,,,,,,,,,,
null,,color_black3,1014455,,,,black_plus_sign,,,null,,,,,,,,,,,,,,,,,,,,
null,,learn_phase(without_color)3,1017959,,,,black_plus_sign,,,null,object_01a.png,object_01b.png,,,,,,,,,,,,,,,,,,
null,,black_cross(without_color)3,1018592,,,,blue,,,null,object_01a.png,object_01b.png,,,,,,,,,,,,,,,,,,
null,,rt_plussign_withcolor3,1019095,,,,blue,,,null,object_01a.png,object_01b.png,,,,,,,,,,,,,,,,,,
1499,,rt_thecrossant_black3,1020472,,,,black_plus_sign,,,49,,,1,,,,,,,1,,,,,,,,,,
null,,color_black3,1020580,,,,black_plus_sign,,,null,,,,,,,,,,,,,,,,,,,,
null,,learn_phase(without_color)3,1024094,,,,black_plus_sign,,,null,object_04b.png,object_02b.png,,,,,,,,,,,,,,,,,,
null,,black_cross(without_color)3,1025104,,,,green,,,null,object_04b.png,object_02b.png,,,,,,,,,,,,,,,,,,
null,,rt_plussign_withcolor3,1025609,,,,green,,,null,object_04b.png,object_02b.png,,,,,,,,,,,,,,,,,,
1410,,rt_thecrossant_black3,1026615,,,,black_plus_sign,,,50,,,1,,,,,,,1,,,,,,,,,,
null,,color_black3,1026720,,,,black_plus_sign,,,null,,,,,,,,,,,,,,,,,,,,
null,,learn_phase(without_color)3,1030228,,,,black_plus_sign,,,null,object_15c.png,object_12c.png,,,,,,,,,,,,,,,,,,
null,,black_cross(without_color)3,1030669,,,,blue,,,null,object_15c.png,object_12c.png,,,,,,,,,,,,,,,,,,
null,,rt_plussign_withcolor3,1031174,,,,blue,,,null,object_15c.png,object_12c.png,,,,,,,,,,,,,,,,,,
1691,,rt_thecrossant_black3,1032743,,,,black_plus_sign,,,49,,,1,,,,,,,1,,,,,,,,,,
null,,color_black3,1032849,,,,black_plus_sign,,,null,,,,,,,,,,,,,,,,,,,,
null,,learn_phase(without_color)3,1036356,,,,black_plus_sign,,,null,object_05c.png,object_15a.png,,,,,,,,,,,,,,,,,,
null,,black_cross(without_color)3,1036906,,,,blue,,,null,object_05c.png,object_15a.png,,,,,,,,,,,,,,,,,,
null,,rt_plussign_withcolor3,1037409,,,,blue,,,null,object_05c.png,object_15a.png,,,,,,,,,,,,,,,,,,
1213,,rt_thecrossant_black3,1038868,,,,black_plus_sign,,,49,,,1,,,,,,,1,,,,,,,,,,
null,,color_black3,1038972,,,,black_plus_sign,,,null,,,,,,,,,,,,,,,,,,,,
null,,learn_phase(without_color)3,1042477,,,,black_plus_sign,,,null,object_11b.png,object_12b.png,,,,,,,,,,,,,,,,,,
null,,black_cross(without_color)3,1043471,,,,blue,,,null,object_11b.png,object_12b.png,,,,,,,,,,,,,,,,,,
null,,rt_plussign_withcolor3,1043974,,,,blue,,,null,object_11b.png,object_12b.png,,,,,,,,,,,,,,,,,,
1002,,rt_thecrossant_black3,1044987,,,,black_plus_sign,,,49,,,1,,,,,,,1,,,,,,,,,,
null,,color_black3,1045092,,,,black_plus_sign,,,null,,,,,,,,,,,,,,,,,,,,
null,,learn_phase(without_color)3,1048597,,,,black_plus_sign,,,null,object_07c.png,object_03c.png,,,,,,,,,,,,,,,,,,
null,,black_cross(without_color)3,1049226,,,,blue,,,null,object_07c.png,object_03c.png,,,,,,,,,,,,,,,,,,
null,,rt_plussign_withcolor3,1049730,,,,blue,,,null,object_07c.png,object_03c.png,,,,,,,,,,,,,,,,,,
1646,,rt_thecrossant_black3,1051110,,,,black_plus_sign,,,49,,,1,,,,,,,1,,,,,,,,,,
null,,color_black3,1051214,,,,black_plus_sign,,,null,,,,,,,,,,,,,,,,,,,,
null,,learn_phase(without_color)3,1054721,,,,black_plus_sign,,,null,object_07a.png,object_06c.png,,,,,,,,,,,,,,,,,,
null,,black_cross(without_color)3,1055223,,,,blue,,,null,object_07a.png,object_06c.png,,,,,,,,,,,,,,,,,,
null,,rt_plussign_withcolor3,1055733,,,,blue,,,null,object_07a.png,object_06c.png,,,,,,,,,,,,,,,,,,
1488,,rt_thecrossant_black3,1057246,,,,black_plus_sign,,,49,,,1,,,,,,,1,,,,,,,,,,
null,,color_black3,1057355,,,,black_plus_sign,,,null,,,,,,,,,,,,,,,,,,,,
null,,learn_phase(without_color)3,1060864,,,,black_plus_sign,,,null,object_05b.png,object_11a.png,,,,,,,,,,,,,,,,,,
null,,black_cross(without_color)3,1061506,,,,blue,,,null,object_05b.png,object_11a.png,,,,,,,,,,,,,,,,,,
null,,rt_plussign_withcolor3,1062009,,,,blue,,,null,object_05b.png,object_11a.png,,,,,,,,,,,,,,,,,,
null,,rt_thecrossant_black3,1063378,,,,black_plus_sign,,,null,,,,,,,,,,1,,,,,,,,,,
null,,color_black3,1063484,,,,black_plus_sign,,,null,,,,,,,,,,,,,,,,,,,,
null,,learn_phase(without_color)3,1066991,,,,black_plus_sign,,,null,object_10c.png,object_14a.png,,,,,,,,,,,,,,,,,,
null,,black_cross(without_color)3,1067409,,,,blue,,,null,object_10c.png,object_14a.png,,,,,,,,,,,,,,,,,,
null,,rt_plussign_withcolor3,1067915,,,,blue,,,null,object_10c.png,object_14a.png,,,,,,,,,,,,,,,,,,
1801,,rt_thecrossant_black3,1069508,,,,black_plus_sign,,,49,,,1,,,,,,,1,,,,,,,,,,
null,,color_black3,1069614,,,,black_plus_sign,,,null,,,,,,,,,,,,,,,,,,,,
null,,learn_phase(without_color)3,1073118,,,,black_plus_sign,,,null,object_04a.png,object_03a.png,,,,,,,,,,,,,,,,,,
null,,black_cross(without_color)3,1073927,,,,green,,,null,object_04a.png,object_03a.png,,,,,,,,,,,,,,,,,,
null,,rt_plussign_withcolor3,1074431,,,,green,,,null,object_04a.png,object_03a.png,,,,,,,,,,,,,,,,,,
953,,rt_thecrossant_black3,1075633,,,,black_plus_sign,,,49,,,0,,,,,,,0.9166666666666666,,,,,,,,,,
null,,color_black3,1075736,,,,black_plus_sign,,,null,,,,,,,,,,,,,,,,,,,,
null,,learn_phase(without_color)3,1079241,,,,black_plus_sign,,,null,object_05a.png,object_09b.png,,,,,,,,,,,,,,,,,,
null,,black_cross(without_color)3,1079850,,,,green,,,null,object_05a.png,object_09b.png,,,,,,,,,,,,,,,,,,
null,,rt_plussign_withcolor3,1080356,,,,green,,,null,object_05a.png,object_09b.png,,,,,,,,,,,,,,,,,,
1531,,rt_thecrossant_black3,1081760,,,,black_plus_sign,,,50,,,1,,,,,,,0.9230769230769231,,,,,,,,,,
null,,color_black3,1081864,,,,black_plus_sign,,,null,,,,,,,,,,,,,,,,,,,,
null,,learn_phase(without_color)3,1085369,,,,black_plus_sign,,,null,object_14c.png,object_09c.png,,,,,,,,,,,,,,,,,,
null,,black_cross(without_color)3,1086351,,,,blue,,,null,object_14c.png,object_09c.png,,,,,,,,,,,,,,,,,,
null,,rt_plussign_withcolor3,1086854,,,,blue,,,null,object_14c.png,object_09c.png,,,,,,,,,,,,,,,,,,
1043,,rt_thecrossant_black3,1087885,,,,black_plus_sign,,,49,,,1,,,,,,,0.9285714285714286,,,,,,,,,,
null,,color_black3,1087992,,,,black_plus_sign,,,null,,,,,,,,,,,,,,,,,,,,
null,,thebreak,1088099,,,,<p></p>,,,null,,,,,,,,,,,,,,,,,,,,
1634,,intro_0,1089739,,,,instruct,,,32,,,,,,,,,,,,,,,,,,,,
3430,,directmemory_phase3,1093174,,,,object_10c.png,,,50,,,1,,object_05c.png,object_14a.png,object_12c.png,object_14a.png,,0.7096774193548387,,1,,,,,,,,
2671,,directmemory_phase3,1095854,,,,object_01a.png,,,51,,,1,,object_09c.png,object_14b.png,object_01b.png,object_01b.png,,0.71875,,1,,,,,,,,
5630,,directmemory_phase3,1101497,,,,object_14b.png,,,51,,,1,,object_03c.png,object_09b.png,object_11c.png,object_11c.png,,0.7272727272727273,,1,,,,,,,,
4627,,directmemory_phase3,1106131,,,,object_02b.png,,,51,,,1,,object_04c.png,object_07c.png,object_04b.png,object_04b.png,,0.7352941176470589,,1,,,,,,,,
1962,,directmemory_phase3,1108099,,,,object_12b.png,,,50,,,1,,object_04a.png,object_11b.png,object_04c.png,object_11b.png,,0.7428571428571429,,1,,,,,,,,
2147,,directmemory_phase3,1110250,,,,object_11a.png,,,51,,,1,,object_14a.png,object_02b.png,object_05b.png,object_05b.png,,0.75,,1,,,,,,,,
2086,,directmemory_phase3,1112341,,,,object_04a.png,,,49,,,1,,object_03a.png,object_15a.png,object_06b.png,object_03a.png,,0.7567567567567568,,1,,,,,,,,
1993,,directmemory_phase3,1114341,,,,object_15c.png,,,51,,,1,,object_05a.png,object_07c.png,object_12c.png,object_12c.png,,0.7631578947368421,,1,,,,,,,,
1651,,directmemory_phase3,1115999,,,,object_14c.png,,,49,,,1,,object_09c.png,object_04b.png,object_10c.png,object_09c.png,,0.7692307692307693,,1,,,,,,,,
3034,,directmemory_phase3,1119044,,,,object_07a.png,,,50,,,1,,object_11a.png,object_06c.png,object_03a.png,object_06c.png,,0.775,,1,,,,,,,,
4805,,directmemory_phase3,1123858,,,,object_07c.png,,,51,,,1,,object_05a.png,object_06b.png,object_03c.png,object_03c.png,,0.7804878048780488,,1,,,,,,,,
2152,,directmemory_phase3,1126018,,,,object_05c.png,,,49,,,1,,object_15a.png,object_11c.png,object_02b.png,object_15a.png,,0.7857142857142857,,1,,,,,,,,
3330,,directmemory_phase3,1129357,,,,object_08c.png,,,50,,,1,,object_06b.png,object_04c.png,object_03c.png,object_04c.png,,0.7906976744186046,,1,,,,,,,,
3975,,directmemory_phase3,1133338,,,,object_09b.png,,,51,,,1,,object_11c.png,object_08c.png,object_05a.png,object_05a.png,,0.7954545454545454,,1,,,,,,,,
6506,,directmemory_phase3,1139854,,,,object_06b.png,,,50,,,1,,object_11a.png,object_02a.png,object_05a.png,object_02a.png,,0.8,,1,,,,,,,,
null,,thebreak,1139962,,,,<p></p>,,,null,,,,,,,,,,,,,,,,,,,,
1553,,intro_0,1141519,,,,instruct,,,32,,,,,,,,,,,,,,,,,,,,
null,,learn_phase(without_color)4,1145028,,,,black_plus_sign,,,null,object_06b.png,object_02a.png,,,,,,,,,,,,,,,,,,
null,,black_cross(without_color)4,1145710,,,,blue,,,null,object_06b.png,object_02a.png,,,,,,,,,,,,,,,,,,
null,,rt_plussign_withcolor4,1146214,,,,blue,,,null,object_06b.png,object_02a.png,,,,,,,,,,,,,,,,,,
1536,,rt_thecrossant_black4,1147544,,,,black_plus_sign,,,49,,,1,,,,,,,1,,,,,,,,,,
null,,color_black4,1147648,,,,black_plus_sign,,,null,,,,,,,,,,,,,,,,,,,,
null,,learn_phase(without_color)4,1151155,,,,black_plus_sign,,,null,object_03c.png,object_07c.png,,,,,,,,,,,,,,,,,,
null,,black_cross(without_color)4,1151697,,,,blue,,,null,object_03c.png,object_07c.png,,,,,,,,,,,,,,,,,,
null,,rt_plussign_withcolor4,1152205,,,,blue,,,null,object_03c.png,object_07c.png,,,,,,,,,,,,,,,,,,
1321,,rt_thecrossant_black4,1153679,,,,black_plus_sign,,,49,,,1,,,,,,,1,,,,,,,,,,
null,,color_black4,1153788,,,,black_plus_sign,,,null,,,,,,,,,,,,,,,,,,,,
null,,learn_phase(without_color)4,1157296,,,,black_plus_sign,,,null,object_11a.png,object_05b.png,,,,,,,,,,,,,,,,,,
null,,black_cross(without_color)4,1157918,,,,blue,,,null,object_11a.png,object_05b.png,,,,,,,,,,,,,,,,,,
null,,rt_plussign_withcolor4,1158423,,,,blue,,,null,object_11a.png,object_05b.png,,,,,,,,,,,,,,,,,,
1103,,rt_thecrossant_black4,1159815,,,,black_plus_sign,,,49,,,1,,,,,,,1,,,,,,,,,,
null,,color_black4,1159920,,,,black_plus_sign,,,null,,,,,,,,,,,,,,,,,,,,
null,,learn_phase(without_color)4,1163428,,,,black_plus_sign,,,null,object_04a.png,object_03a.png,,,,,,,,,,,,,,,,,,
null,,black_cross(without_color)4,1164144,,,,green,,,null,object_04a.png,object_03a.png,,,,,,,,,,,,,,,,,,
null,,rt_plussign_withcolor4,1164649,,,,green,,,null,object_04a.png,object_03a.png,,,,,,,,,,,,,,,,,,
null,,rt_thecrossant_black4,1165939,,,,black_plus_sign,,,null,,,,,,,,,,1,,,,,,,,,,
null,,color_black4,1166045,,,,black_plus_sign,,,null,,,,,,,,,,,,,,,,,,,,
null,,learn_phase(without_color)4,1169550,,,,black_plus_sign,,,null,object_01b.png,object_01a.png,,,,,,,,,,,,,,,,,,
null,,black_cross(without_color)4,1170511,,,,blue,,,null,object_01b.png,object_01a.png,,,,,,,,,,,,,,,,,,
null,,rt_plussign_withcolor4,1171019,,,,blue,,,null,object_01b.png,object_01a.png,,,,,,,,,,,,,,,,,,
1546,,rt_thecrossant_black4,1172067,,,,black_plus_sign,,,49,,,1,,,,,,,1,,,,,,,,,,
null,,color_black4,1172174,,,,black_plus_sign,,,null,,,,,,,,,,,,,,,,,,,,
null,,learn_phase(without_color)4,1175682,,,,black_plus_sign,,,null,object_02b.png,object_04b.png,,,,,,,,,,,,,,,,,,
null,,black_cross(without_color)4,1176253,,,,blue,,,null,object_02b.png,object_04b.png,,,,,,,,,,,,,,,,,,
null,,rt_plussign_withcolor4,1176757,,,,blue,,,null,object_02b.png,object_04b.png,,,,,,,,,,,,,,,,,,
null,,rt_thecrossant_black4,1178197,,,,black_plus_sign,,,null,,,,,,,,,,1,,,,,,,,,,
null,,color_black4,1178303,,,,black_plus_sign,,,null,,,,,,,,,,,,,,,,,,,,
null,,learn_phase(without_color)4,1181813,,,,black_plus_sign,,,null,object_05c.png,object_15a.png,,,,,,,,,,,,,,,,,,
null,,black_cross(without_color)4,1182320,,,,blue,,,null,object_05c.png,object_15a.png,,,,,,,,,,,,,,,,,,
null,,rt_plussign_withcolor4,1182826,,,,blue,,,null,object_05c.png,object_15a.png,,,,,,,,,,,,,,,,,,
1093,,rt_thecrossant_black4,1184334,,,,black_plus_sign,,,49,,,1,,,,,,,1,,,,,,,,,,
null,,color_black4,1184442,,,,black_plus_sign,,,null,,,,,,,,,,,,,,,,,,,,
null,,learn_phase(without_color)4,1187954,,,,black_plus_sign,,,null,object_15c.png,object_12c.png,,,,,,,,,,,,,,,,,,
null,,black_cross(without_color)4,1188976,,,,blue,,,null,object_15c.png,object_12c.png,,,,,,,,,,,,,,,,,,
null,,rt_plussign_withcolor4,1189481,,,,blue,,,null,object_15c.png,object_12c.png,,,,,,,,,,,,,,,,,,
959,,rt_thecrossant_black4,1190474,,,,black_plus_sign,,,49,,,1,,,,,,,1,,,,,,,,,,
null,,color_black4,1190581,,,,black_plus_sign,,,null,,,,,,,,,,,,,,,,,,,,
null,,learn_phase(without_color)4,1194086,,,,black_plus_sign,,,null,object_07a.png,object_06c.png,,,,,,,,,,,,,,,,,,
null,,black_cross(without_color)4,1194752,,,,green,,,null,object_07a.png,object_06c.png,,,,,,,,,,,,,,,,,,
null,,rt_plussign_withcolor4,1195256,,,,green,,,null,object_07a.png,object_06c.png,,,,,,,,,,,,,,,,,,
1530,,rt_thecrossant_black4,1196600,,,,black_plus_sign,,,50,,,1,,,,,,,1,,,,,,,,,,
null,,color_black4,1196705,,,,black_plus_sign,,,null,,,,,,,,,,,,,,,,,,,,
null,,learn_phase(without_color)4,1200209,,,,black_plus_sign,,,null,object_09c.png,object_14c.png,,,,,,,,,,,,,,,,,,
null,,black_cross(without_color)4,1200831,,,,blue,,,null,object_09c.png,object_14c.png,,,,,,,,,,,,,,,,,,
null,,rt_plussign_withcolor4,1201338,,,,blue,,,null,object_09c.png,object_14c.png,,,,,,,,,,,,,,,,,,
1177,,rt_thecrossant_black4,1202728,,,,black_plus_sign,,,49,,,1,,,,,,,1,,,,,,,,,,
null,,color_black4,1202833,,,,black_plus_sign,,,null,,,,,,,,,,,,,,,,,,,,
null,,learn_phase(without_color)4,1206339,,,,black_plus_sign,,,null,object_11b.png,object_12b.png,,,,,,,,,,,,,,,,,,
null,,black_cross(without_color)4,1207349,,,,green,,,null,object_11b.png,object_12b.png,,,,,,,,,,,,,,,,,,
null,,rt_plussign_withcolor4,1207854,,,,green,,,null,object_11b.png,object_12b.png,,,,,,,,,,,,,,,,,,
1294,,rt_thecrossant_black4,1208850,,,,black_plus_sign,,,50,,,1,,,,,,,1,,,,,,,,,,
null,,color_black4,1208954,,,,black_plus_sign,,,null,,,,,,,,,,,,,,,,,,,,
null,,learn_phase(without_color)4,1212461,,,,black_plus_sign,,,null,object_09b.png,object_05a.png,,,,,,,,,,,,,,,,,,
null,,black_cross(without_color)4,1213521,,,,blue,,,null,object_09b.png,object_05a.png,,,,,,,,,,,,,,,,,,
null,,rt_plussign_withcolor4,1214028,,,,blue,,,null,object_09b.png,object_05a.png,,,,,,,,,,,,,,,,,,
1516,,rt_thecrossant_black4,1214980,,,,black_plus_sign,,,49,,,1,,,,,,,1,,,,,,,,,,
null,,color_black4,1215085,,,,black_plus_sign,,,null,,,,,,,,,,,,,,,,,,,,
null,,learn_phase(without_color)4,1218593,,,,black_plus_sign,,,null,object_08c.png,object_04c.png,,,,,,,,,,,,,,,,,,
null,,black_cross(without_color)4,1219517,,,,green,,,null,object_08c.png,object_04c.png,,,,,,,,,,,,,,,,,,
null,,rt_plussign_withcolor4,1220022,,,,green,,,null,object_08c.png,object_04c.png,,,,,,,,,,,,,,,,,,
2165,,rt_thecrossant_black4,1221116,,,,black_plus_sign,,,50,,,1,,,,,,,1,,,,,,,,,,
null,,color_black4,1221222,,,,black_plus_sign,,,null,,,,,,,,,,,,,,,,,,,,
null,,learn_phase(without_color)4,1224731,,,,black_plus_sign,,,null,object_10c.png,object_14a.png,,,,,,,,,,,,,,,,,,
null,,black_cross(without_color)4,1225432,,,,blue,,,null,object_10c.png,object_14a.png,,,,,,,,,,,,,,,,,,
null,,rt_plussign_withcolor4,1225936,,,,blue,,,null,object_10c.png,object_14a.png,,,,,,,,,,,,,,,,,,
1319,,rt_thecrossant_black4,1227251,,,,black_plus_sign,,,49,,,1,,,,,,,1,,,,,,,,,,
null,,color_black4,1227357,,,,black_plus_sign,,,null,,,,,,,,,,,,,,,,,,,,
null,,learn_phase(without_color)4,1230863,,,,black_plus_sign,,,null,object_11c.png,object_14b.png,,,,,,,,,,,,,,,,,,
null,,black_cross(without_color)4,1231646,,,,blue,,,null,object_11c.png,object_14b.png,,,,,,,,,,,,,,,,,,
null,,rt_plussign_withcolor4,1232151,,,,blue,,,null,object_11c.png,object_14b.png,,,,,,,,,,,,,,,,,,
1148,,rt_thecrossant_black4,1233381,,,,black_plus_sign,,,49,,,1,,,,,,,1,,,,,,,,,,
null,,color_black4,1233490,,,,black_plus_sign,,,null,,,,,,,,,,,,,,,,,,,,
null,,thebreak,1233597,,,,<p></p>,,,null,,,,,,,,,,,,,,,,,,,,
3175,,intro_0,1236777,,,,instruct,,,32,,,,,,,,,,,,,,,,,,,,
3054,,directmemory_phase4,1239835,,,,object_14b.png,,,50,,,1,,object_01a.png,object_11c.png,object_05a.png,object_11c.png,,0.8043478260869565,,1,,,,,,,,
1840,,directmemory_phase4,1241680,,,,object_08c.png,,,50,,,1,,object_06b.png,object_04c.png,object_14a.png,object_04c.png,,0.8085106382978723,,1,,,,,,,,
1790,,directmemory_phase4,1243476,,,,object_12b.png,,,50,,,1,,object_04a.png,object_11b.png,object_04c.png,object_11b.png,,0.8125,,1,,,,,,,,
1595,,directmemory_phase4,1245075,,,,object_11a.png,,,50,,,1,,object_07c.png,object_05b.png,object_01b.png,object_05b.png,,0.8163265306122449,,1,,,,,,,,
2457,,directmemory_phase4,1247539,,,,object_05c.png,,,49,,,1,,object_15a.png,object_11c.png,object_15c.png,object_15a.png,,0.82,,1,,,,,,,,
3229,,directmemory_phase4,1250776,,,,object_06b.png,,,49,,,1,,object_02a.png,object_04b.png,object_11a.png,object_02a.png,,0.8235294117647058,,1,,,,,,,,
4975,,directmemory_phase4,1255756,,,,object_07a.png,,,51,,,1,,object_04b.png,object_05c.png,object_06c.png,object_06c.png,,0.8269230769230769,,1,,,,,,,,
1577,,directmemory_phase4,1257337,,,,object_15c.png,,,49,,,1,,object_12c.png,object_04c.png,object_08c.png,object_12c.png,,0.8301886792452831,,1,,,,,,,,
1853,,directmemory_phase4,1259195,,,,object_01a.png,,,50,,,1,,object_07a.png,object_01b.png,object_09c.png,object_01b.png,,0.8333333333333334,,1,,,,,,,,
5062,,directmemory_phase4,1264263,,,,object_09b.png,,,51,,,1,,object_12c.png,object_15c.png,object_05a.png,object_05a.png,,0.8363636363636363,,1,,,,,,,,
4364,,directmemory_phase4,1268636,,,,object_07c.png,,,51,,,1,,object_11c.png,object_01a.png,object_03c.png,object_03c.png,,0.8392857142857143,,1,,,,,,,,
2843,,directmemory_phase4,1271484,,,,object_14c.png,,,50,,,1,,object_10c.png,object_09c.png,object_03c.png,object_09c.png,,0.8421052631578947,,1,,,,,,,,
2666,,directmemory_phase4,1274155,,,,object_10c.png,,,49,,,1,,object_14a.png,object_01b.png,object_02b.png,object_14a.png,,0.8448275862068966,,1,,,,,,,,
3716,,directmemory_phase4,1277878,,,,object_04a.png,,,50,,,1,,object_08c.png,object_03a.png,object_09c.png,object_03a.png,,0.847457627118644,,1,,,,,,,,
3158,,directmemory_phase4,1281041,,,,object_02b.png,,,51,,,1,,object_03c.png,object_14b.png,object_04b.png,object_04b.png,,0.85,,1,,,,,,,,
null,,thebreak,1281147,,,,<p></p>,,,null,,,,,,,,,,,,,,,,,,,,
2047,,intro_0,1283200,,,,instruct,,,32,,,,,,,,,,,,,,,,,,,,
null,,learn_phase(without_color)5,1286707,,,,black_plus_sign,,,null,object_05b.png,object_01c.png,,,,,,,,,,,,,,,,,,
null,,black_cross(without_color)5,1287263,,,,green,,,null,object_05b.png,object_01c.png,,,,,,,,,,,,,,,,,,
null,,rt_plussign_withcolor5,1287769,,,,green,,,null,object_05b.png,object_01c.png,,,,,,,,,,,,,,,,,,
2025,,rt_thecrossant_black5,1289232,,,,black_plus_sign,,,50,,,1,,,,,,,1,,,,,,,,,,
null,,color_black5,1289340,,,,black_plus_sign,,,null,,,,,,,,,,,,,,,,,,,,
null,,learn_phase(without_color)5,1292848,,,,black_plus_sign,,,null,object_04b.png,object_02c.png,,,,,,,,,,,,,,,,,,
null,,black_cross(without_color)5,1293296,,,,blue,,,null,object_04b.png,object_02c.png,,,,,,,,,,,,,,,,,,
null,,rt_plussign_withcolor5,1293800,,,,blue,,,null,object_04b.png,object_02c.png,,,,,,,,,,,,,,,,,,
1333,,rt_thecrossant_black5,1295366,,,,black_plus_sign,,,49,,,1,,,,,,,1,,,,,,,,,,
null,,color_black5,1295474,,,,black_plus_sign,,,null,,,,,,,,,,,,,,,,,,,,
null,,learn_phase(without_color)5,1298988,,,,black_plus_sign,,,null,object_14a.png,object_13b.png,,,,,,,,,,,,,,,,,,
null,,black_cross(without_color)5,1299648,,,,green,,,null,object_14a.png,object_13b.png,,,,,,,,,,,,,,,,,,
null,,rt_plussign_withcolor5,1300153,,,,green,,,null,object_14a.png,object_13b.png,,,,,,,,,,,,,,,,,,
1430,,rt_thecrossant_black5,1301510,,,,black_plus_sign,,,50,,,1,,,,,,,1,,,,,,,,,,
null,,color_black5,1301617,,,,black_plus_sign,,,null,,,,,,,,,,,,,,,,,,,,
null,,learn_phase(without_color)5,1305124,,,,black_plus_sign,,,null,object_03a.png,object_08a.png,,,,,,,,,,,,,,,,,,
null,,black_cross(without_color)5,1305997,,,,green,,,null,object_03a.png,object_08a.png,,,,,,,,,,,,,,,,,,
null,,rt_plussign_withcolor5,1306503,,,,green,,,null,object_03a.png,object_08a.png,,,,,,,,,,,,,,,,,,
1305,,rt_thecrossant_black5,1307644,,,,black_plus_sign,,,50,,,1,,,,,,,1,,,,,,,,,,
null,,color_black5,1307754,,,,black_plus_sign,,,null,,,,,,,,,,,,,,,,,,,,
null,,learn_phase(without_color)5,1311261,,,,black_plus_sign,,,null,object_15b.png,object_06c.png,,,,,,,,,,,,,,,,,,
null,,black_cross(without_color)5,1311914,,,,green,,,null,object_15b.png,object_06c.png,,,,,,,,,,,,,,,,,,
null,,rt_plussign_withcolor5,1312421,,,,green,,,null,object_15b.png,object_06c.png,,,,,,,,,,,,,,,,,,
1235,,rt_thecrossant_black5,1313789,,,,black_plus_sign,,,50,,,1,,,,,,,1,,,,,,,,,,
null,,color_black5,1313899,,,,black_plus_sign,,,null,,,,,,,,,,,,,,,,,,,,
null,,learn_phase(without_color)5,1317408,,,,black_plus_sign,,,null,object_15a.png,object_10b.png,,,,,,,,,,,,,,,,,,
null,,black_cross(without_color)5,1318067,,,,green,,,null,object_15a.png,object_10b.png,,,,,,,,,,,,,,,,,,
null,,rt_plussign_withcolor5,1318572,,,,green,,,null,object_15a.png,object_10b.png,,,,,,,,,,,,,,,,,,
1205,,rt_thecrossant_black5,1319926,,,,black_plus_sign,,,50,,,1,,,,,,,1,,,,,,,,,,
null,,color_black5,1320032,,,,black_plus_sign,,,null,,,,,,,,,,,,,,,,,,,,
null,,learn_phase(without_color)5,1323539,,,,black_plus_sign,,,null,object_09c.png,object_09a.png,,,,,,,,,,,,,,,,,,
null,,black_cross(without_color)5,1324555,,,,blue,,,null,object_09c.png,object_09a.png,,,,,,,,,,,,,,,,,,
null,,rt_plussign_withcolor5,1325058,,,,blue,,,null,object_09c.png,object_09a.png,,,,,,,,,,,,,,,,,,
1327,,rt_thecrossant_black5,1326054,,,,black_plus_sign,,,49,,,1,,,,,,,1,,,,,,,,,,
null,,color_black5,1326159,,,,black_plus_sign,,,null,,,,,,,,,,,,,,,,,,,,
null,,learn_phase(without_color)5,1329667,,,,black_plus_sign,,,null,object_08b.png,object_11b.png,,,,,,,,,,,,,,,,,,
null,,black_cross(without_color)5,1330503,,,,green,,,null,object_08b.png,object_11b.png,,,,,,,,,,,,,,,,,,
null,,rt_plussign_withcolor5,1331006,,,,green,,,null,object_08b.png,object_11b.png,,,,,,,,,,,,,,,,,,
1899,,rt_thecrossant_black5,1332181,,,,black_plus_sign,,,50,,,1,,,,,,,1,,,,,,,,,,
null,,color_black5,1332286,,,,black_plus_sign,,,null,,,,,,,,,,,,,,,,,,,,
null,,learn_phase(without_color)5,1335791,,,,black_plus_sign,,,null,object_11c.png,object_10a.png,,,,,,,,,,,,,,,,,,
null,,black_cross(without_color)5,1336671,,,,blue,,,null,object_11c.png,object_10a.png,,,,,,,,,,,,,,,,,,
null,,rt_plussign_withcolor5,1337175,,,,blue,,,null,object_11c.png,object_10a.png,,,,,,,,,,,,,,,,,,
1595,,rt_thecrossant_black5,1338307,,,,black_plus_sign,,,49,,,1,,,,,,,1,,,,,,,,,,
null,,color_black5,1338414,,,,black_plus_sign,,,null,,,,,,,,,,,,,,,,,,,,
null,,learn_phase(without_color)5,1341922,,,,black_plus_sign,,,null,object_06a.png,object_05a.png,,,,,,,,,,,,,,,,,,
null,,black_cross(without_color)5,1342383,,,,blue,,,null,object_06a.png,object_05a.png,,,,,,,,,,,,,,,,,,
null,,rt_plussign_withcolor5,1342887,,,,blue,,,null,object_06a.png,object_05a.png,,,,,,,,,,,,,,,,,,
1721,,rt_thecrossant_black5,1344441,,,,black_plus_sign,,,49,,,1,,,,,,,1,,,,,,,,,,
null,,color_black5,1344547,,,,black_plus_sign,,,null,,,,,,,,,,,,,,,,,,,,
null,,learn_phase(without_color)5,1348053,,,,black_plus_sign,,,null,object_03c.png,object_03b.png,,,,,,,,,,,,,,,,,,
null,,black_cross(without_color)5,1349092,,,,blue,,,null,object_03c.png,object_03b.png,,,,,,,,,,,,,,,,,,
null,,rt_plussign_withcolor5,1349598,,,,blue,,,null,object_03c.png,object_03b.png,,,,,,,,,,,,,,,,,,
1198,,rt_thecrossant_black5,1350571,,,,black_plus_sign,,,49,,,1,,,,,,,1,,,,,,,,,,
null,,color_black5,1350675,,,,black_plus_sign,,,null,,,,,,,,,,,,,,,,,,,,
null,,learn_phase(without_color)5,1354182,,,,black_plus_sign,,,null,object_02a.png,object_12a.png,,,,,,,,,,,,,,,,,,
null,,black_cross(without_color)5,1354988,,,,green,,,null,object_02a.png,object_12a.png,,,,,,,,,,,,,,,,,,
null,,rt_plussign_withcolor5,1355493,,,,green,,,null,object_02a.png,object_12a.png,,,,,,,,,,,,,,,,,,
1559,,rt_thecrossant_black5,1356707,,,,black_plus_sign,,,50,,,1,,,,,,,1,,,,,,,,,,
null,,color_black5,1356823,,,,black_plus_sign,,,null,,,,,,,,,,,,,,,,,,,,
null,,learn_phase(without_color)5,1360337,,,,black_plus_sign,,,null,object_04c.png,object_13a.png,,,,,,,,,,,,,,,,,,
null,,black_cross(without_color)5,1361246,,,,blue,,,null,object_04c.png,object_13a.png,,,,,,,,,,,,,,,,,,
null,,rt_plussign_withcolor5,1361753,,,,blue,,,null,object_04c.png,object_13a.png,,,,,,,,,,,,,,,,,,
1484,,rt_thecrossant_black5,1362857,,,,black_plus_sign,,,49,,,1,,,,,,,1,,,,,,,,,,
null,,color_black5,1362964,,,,black_plus_sign,,,null,,,,,,,,,,,,,,,,,,,,
null,,learn_phase(without_color)5,1366474,,,,black_plus_sign,,,null,object_13c.png,object_12c.png,,,,,,,,,,,,,,,,,,
null,,black_cross(without_color)5,1367497,,,,green,,,null,object_13c.png,object_12c.png,,,,,,,,,,,,,,,,,,
null,,rt_plussign_withcolor5,1368005,,,,green,,,null,object_13c.png,object_12c.png,,,,,,,,,,,,,,,,,,
1305,,rt_thecrossant_black5,1368996,,,,black_plus_sign,,,50,,,1,,,,,,,1,,,,,,,,,,
null,,color_black5,1369101,,,,black_plus_sign,,,null,,,,,,,,,,,,,,,,,,,,
null,,learn_phase(without_color)5,1372607,,,,black_plus_sign,,,null,object_07b.png,object_01b.png,,,,,,,,,,,,,,,,,,
null,,black_cross(without_color)5,1373103,,,,blue,,,null,object_07b.png,object_01b.png,,,,,,,,,,,,,,,,,,
null,,rt_plussign_withcolor5,1373610,,,,blue,,,null,object_07b.png,object_01b.png,,,,,,,,,,,,,,,,,,
2110,,rt_thecrossant_black5,1375132,,,,black_plus_sign,,,49,,,1,,,,,,,1,,,,,,,,,,
null,,color_black5,1375239,,,,black_plus_sign,,,null,,,,,,,,,,,,,,,,,,,,
null,,thebreak,1375347,,,,<p></p>,,,null,,,,,,,,,,,,,,,,,,,,
1997,,intro_0,1377348,,,,instruct,,,32,,,,,,,,,,,,,,,,,,,,
3475,,directmemory_phase5,1380826,,,,object_06c.png,,,51,,,1,,object_10b.png,object_11c.png,object_15b.png,object_15b.png,,0.8524590163934426,,1,,,,,,,,
2604,,directmemory_phase5,1383438,,,,object_05b.png,,,49,,,1,,object_01c.png,object_03b.png,object_03c.png,object_01c.png,,0.8548387096774194,,1,,,,,,,,
6329,,directmemory_phase5,1389776,,,,object_12a.png,,,51,,,0,,object_02a.png,object_11c.png,object_13b.png,object_02a.png,,0.8412698412698413,,0,,,,,,,,
2599,,directmemory_phase5,1392383,,,,object_04b.png,,,51,,,1,,object_01c.png,object_05b.png,object_02c.png,object_02c.png,,0.84375,,1,,,,,,,,
3539,,directmemory_phase5,1395936,,,,object_15a.png,,,50,,,1,,object_03c.png,object_10b.png,object_12a.png,object_10b.png,,0.8461538461538461,,1,,,,,,,,
2148,,directmemory_phase5,1398097,,,,object_13a.png,,,51,,,1,,object_06c.png,object_15b.png,object_04c.png,object_04c.png,,0.8484848484848485,,1,,,,,,,,
1722,,directmemory_phase5,1399827,,,,object_07b.png,,,50,,,1,,object_13c.png,object_01b.png,object_03a.png,object_01b.png,,0.8507462686567164,,1,,,,,,,,
4728,,directmemory_phase5,1404562,,,,object_12c.png,,,49,,,0,,object_05a.png,object_13c.png,object_15b.png,object_13c.png,,0.8382352941176471,,0,,,,,,,,
3674,,directmemory_phase5,1408240,,,,object_03a.png,,,50,,,1,,object_06c.png,object_08a.png,object_15b.png,object_08a.png,,0.8405797101449275,,1,,,,,,,,
4313,,directmemory_phase5,1412560,,,,object_09a.png,,,51,,,0,,object_12a.png,object_09c.png,object_05a.png,object_09c.png,,0.8285714285714286,,0,,,,,,,,
5352,,directmemory_phase5,1417921,,,,object_10a.png,,,51,,,1,,object_06c.png,object_02c.png,object_11c.png,object_11c.png,,0.8309859154929577,,1,,,,,,,,
6938,,directmemory_phase5,1424866,,,,object_06a.png,,,50,,,0,,object_05a.png,object_15a.png,object_03b.png,object_05a.png,,0.8194444444444444,,0,,,,,,,,
9309,,directmemory_phase5,1434181,,,,object_03b.png,,,49,,,1,,object_03c.png,object_05b.png,object_02c.png,object_03c.png,,0.821917808219178,,1,,,,,,,,
5399,,directmemory_phase5,1439588,,,,object_08b.png,,,50,,,1,,object_15b.png,object_11b.png,object_14a.png,object_11b.png,,0.8243243243243243,,1,,,,,,,,
2408,,directmemory_phase5,1442002,,,,object_14a.png,,,50,,,1,,object_12c.png,object_13b.png,object_01c.png,object_13b.png,,0.8266666666666667,,1,,,,,,,,
null,,thebreak,1442111,,,,<p></p>,,,null,,,,,,,,,,,,,,,,,,,,
1781,,intro_0,1443896,,,,instruct,,,32,,,,,,,,,,,,,,,,,,,,
null,,learn_phase(without_color)6,1447405,,,,black_plus_sign,,,null,object_02c.png,object_04b.png,,,,,,,,,,,,,,,,,,
null,,black_cross(without_color)6,1447816,,,,blue,,,null,object_02c.png,object_04b.png,,,,,,,,,,,,,,,,,,
null,,rt_plussign_withcolor6,1448323,,,,blue,,,null,object_02c.png,object_04b.png,,,,,,,,,,,,,,,,,,
1727,,rt_thecrossant_black6,1449926,,,,black_plus_sign,,,49,,,1,,,,,,,1,,,,,,,,,,
null,,color_black6,1450033,,,,black_plus_sign,,,null,,,,,,,,,,,,,,,,,,,,
null,,learn_phase(without_color)6,1453540,,,,black_plus_sign,,,null,object_13a.png,object_04c.png,,,,,,,,,,,,,,,,,,
null,,black_cross(without_color)6,1454617,,,,blue,,,null,object_13a.png,object_04c.png,,,,,,,,,,,,,,,,,,
null,,rt_plussign_withcolor6,1455122,,,,blue,,,null,object_13a.png,object_04c.png,,,,,,,,,,,,,,,,,,
1349,,rt_thecrossant_black6,1456065,,,,black_plus_sign,,,49,,,1,,,,,,,1,,,,,,,,,,
null,,color_black6,1456173,,,,black_plus_sign,,,null,,,,,,,,,,,,,,,,,,,,
null,,learn_phase(without_color)6,1459687,,,,black_plus_sign,,,null,object_08b.png,object_11b.png,,,,,,,,,,,,,,,,,,
null,,black_cross(without_color)6,1460685,,,,green,,,null,object_08b.png,object_11b.png,,,,,,,,,,,,,,,,,,
null,,rt_plussign_withcolor6,1461191,,,,green,,,null,object_08b.png,object_11b.png,,,,,,,,,,,,,,,,,,
1808,,rt_thecrossant_black6,1462210,,,,black_plus_sign,,,50,,,1,,,,,,,1,,,,,,,,,,
null,,color_black6,1462314,,,,black_plus_sign,,,null,,,,,,,,,,,,,,,,,,,,
null,,learn_phase(without_color)6,1465820,,,,black_plus_sign,,,null,object_14a.png,object_13b.png,,,,,,,,,,,,,,,,,,
null,,black_cross(without_color)6,1466520,,,,blue,,,null,object_14a.png,object_13b.png,,,,,,,,,,,,,,,,,,
null,,rt_plussign_withcolor6,1467028,,,,blue,,,null,object_14a.png,object_13b.png,,,,,,,,,,,,,,,,,,
1468,,rt_thecrossant_black6,1468345,,,,black_plus_sign,,,49,,,1,,,,,,,1,,,,,,,,,,
null,,color_black6,1468455,,,,black_plus_sign,,,null,,,,,,,,,,,,,,,,,,,,
null,,learn_phase(without_color)6,1471964,,,,black_plus_sign,,,null,object_01b.png,object_07b.png,,,,,,,,,,,,,,,,,,
null,,black_cross(without_color)6,1472638,,,,blue,,,null,object_01b.png,object_07b.png,,,,,,,,,,,,,,,,,,
null,,rt_plussign_withcolor6,1473148,,,,blue,,,null,object_01b.png,object_07b.png,,,,,,,,,,,,,,,,,,
1527,,rt_thecrossant_black6,1474488,,,,black_plus_sign,,,49,,,1,,,,,,,1,,,,,,,,,,
null,,color_black6,1474593,,,,black_plus_sign,,,null,,,,,,,,,,,,,,,,,,,,
null,,learn_phase(without_color)6,1478101,,,,black_plus_sign,,,null,object_01c.png,object_05b.png,,,,,,,,,,,,,,,,,,
null,,black_cross(without_color)6,1479080,,,,blue,,,null,object_01c.png,object_05b.png,,,,,,,,,,,,,,,,,,
null,,rt_plussign_withcolor6,1479585,,,,blue,,,null,object_01c.png,object_05b.png,,,,,,,,,,,,,,,,,,
1138,,rt_thecrossant_black6,1480616,,,,black_plus_sign,,,49,,,1,,,,,,,1,,,,,,,,,,
null,,color_black6,1480722,,,,black_plus_sign,,,null,,,,,,,,,,,,,,,,,,,,
null,,learn_phase(without_color)6,1484235,,,,black_plus_sign,,,null,object_10a.png,object_11c.png,,,,,,,,,,,,,,,,,,
null,,black_cross(without_color)6,1485252,,,,green,,,null,object_10a.png,object_11c.png,,,,,,,,,,,,,,,,,,
null,,rt_plussign_withcolor6,1485760,,,,green,,,null,object_10a.png,object_11c.png,,,,,,,,,,,,,,,,,,
2003,,rt_thecrossant_black6,1486781,,,,black_plus_sign,,,50,,,1,,,,,,,1,,,,,,,,,,
null,,color_black6,1486887,,,,black_plus_sign,,,null,,,,,,,,,,,,,,,,,,,,
null,,learn_phase(without_color)6,1490402,,,,black_plus_sign,,,null,object_05a.png,object_06a.png,,,,,,,,,,,,,,,,,,
null,,black_cross(without_color)6,1490841,,,,blue,,,null,object_05a.png,object_06a.png,,,,,,,,,,,,,,,,,,
null,,rt_plussign_withcolor6,1491346,,,,blue,,,null,object_05a.png,object_06a.png,,,,,,,,,,,,,,,,,,
1700,,rt_thecrossant_black6,1492932,,,,black_plus_sign,,,49,,,1,,,,,,,1,,,,,,,,,,
null,,color_black6,1493040,,,,black_plus_sign,,,null,,,,,,,,,,,,,,,,,,,,
null,,learn_phase(without_color)6,1496559,,,,black_plus_sign,,,null,object_06c.png,object_15b.png,,,,,,,,,,,,,,,,,,
null,,black_cross(without_color)6,1497042,,,,blue,,,null,object_06c.png,object_15b.png,,,,,,,,,,,,,,,,,,
null,,rt_plussign_withcolor6,1497553,,,,blue,,,null,object_06c.png,object_15b.png,,,,,,,,,,,,,,,,,,
1079,,rt_thecrossant_black6,1499089,,,,black_plus_sign,,,49,,,1,,,,,,,1,,,,,,,,,,
null,,color_black6,1499195,,,,black_plus_sign,,,null,,,,,,,,,,,,,,,,,,,,
null,,learn_phase(without_color)6,1502705,,,,black_plus_sign,,,null,object_12c.png,object_13c.png,,,,,,,,,,,,,,,,,,
null,,black_cross(without_color)6,1503774,,,,green,,,null,object_12c.png,object_13c.png,,,,,,,,,,,,,,,,,,
null,,rt_plussign_withcolor6,1504280,,,,green,,,null,object_12c.png,object_13c.png,,,,,,,,,,,,,,,,,,
1031,,rt_thecrossant_black6,1505225,,,,black_plus_sign,,,50,,,1,,,,,,,1,,,,,,,,,,
null,,color_black6,1505334,,,,black_plus_sign,,,null,,,,,,,,,,,,,,,,,,,,
null,,learn_phase(without_color)6,1508842,,,,black_plus_sign,,,null,object_12a.png,object_02a.png,,,,,,,,,,,,,,,,,,
null,,black_cross(without_color)6,1509922,,,,blue,,,null,object_12a.png,object_02a.png,,,,,,,,,,,,,,,,,,
null,,rt_plussign_withcolor6,1510432,,,,blue,,,null,object_12a.png,object_02a.png,,,,,,,,,,,,,,,,,,
1586,,rt_thecrossant_black6,1511367,,,,black_plus_sign,,,49,,,1,,,,,,,1,,,,,,,,,,
null,,color_black6,1511476,,,,black_plus_sign,,,null,,,,,,,,,,,,,,,,,,,,
null,,learn_phase(without_color)6,1514984,,,,black_plus_sign,,,null,object_10b.png,object_15a.png,,,,,,,,,,,,,,,,,,
null,,black_cross(without_color)6,1515516,,,,blue,,,null,object_10b.png,object_15a.png,,,,,,,,,,,,,,,,,,
null,,rt_plussign_withcolor6,1516020,,,,blue,,,null,object_10b.png,object_15a.png,,,,,,,,,,,,,,,,,,
1786,,rt_thecrossant_black6,1517502,,,,black_plus_sign,,,49,,,1,,,,,,,1,,,,,,,,,,
null,,color_black6,1517613,,,,black_plus_sign,,,null,,,,,,,,,,,,,,,,,,,,
null,,learn_phase(without_color)6,1521119,,,,black_plus_sign,,,null,object_03b.png,object_03c.png,,,,,,,,,,,,,,,,,,
null,,black_cross(without_color)6,1521784,,,,blue,,,null,object_03b.png,object_03c.png,,,,,,,,,,,,,,,,,,
null,,rt_plussign_withcolor6,1522288,,,,blue,,,null,object_03b.png,object_03c.png,,,,,,,,,,,,,,,,,,
1255,,rt_thecrossant_black6,1523638,,,,black_plus_sign,,,49,,,1,,,,,,,1,,,,,,,,,,
null,,color_black6,1523744,,,,black_plus_sign,,,null,,,,,,,,,,,,,,,,,,,,
null,,learn_phase(without_color)6,1527251,,,,black_plus_sign,,,null,object_09a.png,object_09c.png,,,,,,,,,,,,,,,,,,
null,,black_cross(without_color)6,1527800,,,,blue,,,null,object_09a.png,object_09c.png,,,,,,,,,,,,,,,,,,
null,,rt_plussign_withcolor6,1528306,,,,blue,,,null,object_09a.png,object_09c.png,,,,,,,,,,,,,,,,,,
1322,,rt_thecrossant_black6,1529770,,,,black_plus_sign,,,49,,,1,,,,,,,1,,,,,,,,,,
null,,color_black6,1529878,,,,black_plus_sign,,,null,,,,,,,,,,,,,,,,,,,,
null,,learn_phase(without_color)6,1533386,,,,black_plus_sign,,,null,object_03a.png,object_08a.png,,,,,,,,,,,,,,,,,,
null,,black_cross(without_color)6,1534377,,,,blue,,,null,object_03a.png,object_08a.png,,,,,,,,,,,,,,,,,,
null,,rt_plussign_withcolor6,1534882,,,,blue,,,null,object_03a.png,object_08a.png,,,,,,,,,,,,,,,,,,
984,,rt_thecrossant_black6,1535903,,,,black_plus_sign,,,49,,,1,,,,,,,1,,,,,,,,,,
null,,color_black6,1536011,,,,black_plus_sign,,,null,,,,,,,,,,,,,,,,,,,,
null,,thebreak,1536120,,,,<p></p>,,,null,,,,,,,,,,,,,,,,,,,,
3075,,intro_0,1539202,,,,instruct,,,32,,,,,,,,,,,,,,,,,,,,
3241,,directmemory_phase6,1542447,,,,object_08b.png,,,51,,,1,,object_05b.png,object_01c.png,object_11b.png,object_11b.png,,0.8289473684210527,,1,,,,,,,,
2471,,directmemory_phase6,1544925,,,,object_09a.png,,,50,,,1,,object_10b.png,object_09c.png,object_05b.png,object_09c.png,,0.8311688311688312,,1,,,,,,,,
1849,,directmemory_phase6,1546781,,,,object_02c.png,,,51,,,1,,object_01b.png,object_09a.png,object_04b.png,object_04b.png,,0.8333333333333334,,1,,,,,,,,
3640,,directmemory_phase6,1550427,,,,object_15a.png,,,51,,,1,,object_13a.png,object_05a.png,object_10b.png,object_10b.png,,0.8354430379746836,,1,,,,,,,,
4944,,directmemory_phase6,1555378,,,,object_08a.png,,,50,,,1,,object_15b.png,object_03a.png,object_01b.png,object_03a.png,,0.8375,,1,,,,,,,,
3198,,directmemory_phase6,1558584,,,,object_12c.png,,,51,,,1,,object_13b.png,object_04b.png,object_13c.png,object_13c.png,,0.8395061728395061,,1,,,,,,,,
1590,,directmemory_phase6,1560184,,,,object_07b.png,,,50,,,1,,object_13b.png,object_01b.png,object_03a.png,object_01b.png,,0.8414634146341463,,1,,,,,,,,
2166,,directmemory_phase6,1562357,,,,object_03c.png,,,51,,,1,,object_10a.png,object_03a.png,object_03b.png,object_03b.png,,0.8433734939759037,,1,,,,,,,,
3220,,directmemory_phase6,1565588,,,,object_13a.png,,,49,,,1,,object_04c.png,object_14a.png,object_01c.png,object_04c.png,,0.8452380952380952,,1,,,,,,,,
1781,,directmemory_phase6,1567379,,,,object_10a.png,,,50,,,1,,object_03b.png,object_11c.png,object_04b.png,object_11c.png,,0.8470588235294118,,1,,,,,,,,
3511,,directmemory_phase6,1570899,,,,object_14a.png,,,49,,,1,,object_13b.png,object_09a.png,object_04c.png,object_13b.png,,0.8488372093023255,,1,,,,,,,,
4340,,directmemory_phase6,1575246,,,,object_06a.png,,,50,,,1,,object_01c.png,object_05a.png,object_11c.png,object_05a.png,,0.8505747126436781,,1,,,,,,,,
2845,,directmemory_phase6,1578099,,,,object_15b.png,,,50,,,1,,object_09a.png,object_06c.png,object_05b.png,object_06c.png,,0.8522727272727273,,1,,,,,,,,
7972,,directmemory_phase6,1586078,,,,object_02a.png,,,50,,,1,,object_03c.png,object_12a.png,object_01c.png,object_12a.png,,0.8539325842696629,,1,,,,,,,,
2172,,directmemory_phase6,1588257,,,,object_05b.png,,,49,,,1,,object_01c.png,object_10a.png,object_12c.png,object_01c.png,,0.8555555555555555,,1,,,,,,,,
null,,thebreak,1588363,,,,<p></p>,,,null,,,,,,,,,,,,,,,,,,,,
1407,,intro_0,1589778,,,,instruct,,,32,,,,,,,,,,,,,,,,,,,,
null,,learn_phase(without_color)7,1593291,,,,black_plus_sign,,,null,object_09a.png,object_09c.png,,,,,,,,,,,,,,,,,,
null,,black_cross(without_color)7,1594245,,,,green,,,null,object_09a.png,object_09c.png,,,,,,,,,,,,,,,,,,
null,,rt_plussign_withcolor7,1594756,,,,green,,,null,object_09a.png,object_09c.png,,,,,,,,,,,,,,,,,,
1667,,rt_thecrossant_black7,1595821,,,,black_plus_sign,,,50,,,1,,,,,,,1,,,,,,,,,,
null,,color_black7,1595928,,,,black_plus_sign,,,null,,,,,,,,,,,,,,,,,,,,
null,,learn_phase(without_color)7,1599439,,,,black_plus_sign,,,null,object_11b.png,object_08b.png,,,,,,,,,,,,,,,,,,
null,,black_cross(without_color)7,1600031,,,,green,,,null,object_11b.png,object_08b.png,,,,,,,,,,,,,,,,,,
null,,rt_plussign_withcolor7,1600541,,,,green,,,null,object_11b.png,object_08b.png,,,,,,,,,,,,,,,,,,
1764,,rt_thecrossant_black7,1601970,,,,black_plus_sign,,,50,,,1,,,,,,,1,,,,,,,,,,
null,,color_black7,1602079,,,,black_plus_sign,,,null,,,,,,,,,,,,,,,,,,,,
null,,learn_phase(without_color)7,1605589,,,,black_plus_sign,,,null,object_15b.png,object_06c.png,,,,,,,,,,,,,,,,,,
null,,black_cross(without_color)7,1606471,,,,green,,,null,object_15b.png,object_06c.png,,,,,,,,,,,,,,,,,,
null,,rt_plussign_withcolor7,1606976,,,,green,,,null,object_15b.png,object_06c.png,,,,,,,,,,,,,,,,,,
967,,rt_thecrossant_black7,1608104,,,,black_plus_sign,,,50,,,1,,,,,,,1,,,,,,,,,,
null,,color_black7,1608207,,,,black_plus_sign,,,null,,,,,,,,,,,,,,,,,,,,
null,,learn_phase(without_color)7,1611718,,,,black_plus_sign,,,null,object_13b.png,object_14a.png,,,,,,,,,,,,,,,,,,
null,,black_cross(without_color)7,1612457,,,,blue,,,null,object_13b.png,object_14a.png,,,,,,,,,,,,,,,,,,
null,,rt_plussign_withcolor7,1612963,,,,blue,,,null,object_13b.png,object_14a.png,,,,,,,,,,,,,,,,,,
1766,,rt_thecrossant_black7,1614241,,,,black_plus_sign,,,49,,,1,,,,,,,1,,,,,,,,,,
null,,color_black7,1614349,,,,black_plus_sign,,,null,,,,,,,,,,,,,,,,,,,,
null,,learn_phase(without_color)7,1617855,,,,black_plus_sign,,,null,object_15a.png,object_10b.png,,,,,,,,,,,,,,,,,,
null,,black_cross(without_color)7,1618520,,,,green,,,null,object_15a.png,object_10b.png,,,,,,,,,,,,,,,,,,
null,,rt_plussign_withcolor7,1619027,,,,green,,,null,object_15a.png,object_10b.png,,,,,,,,,,,,,,,,,,
1081,,rt_thecrossant_black7,1620374,,,,black_plus_sign,,,50,,,1,,,,,,,1,,,,,,,,,,
null,,color_black7,1620479,,,,black_plus_sign,,,null,,,,,,,,,,,,,,,,,,,,
null,,learn_phase(without_color)7,1623986,,,,black_plus_sign,,,null,object_13a.png,object_04c.png,,,,,,,,,,,,,,,,,,
null,,black_cross(without_color)7,1624471,,,,green,,,null,object_13a.png,object_04c.png,,,,,,,,,,,,,,,,,,
null,,rt_plussign_withcolor7,1624979,,,,green,,,null,object_13a.png,object_04c.png,,,,,,,,,,,,,,,,,,
1527,,rt_thecrossant_black7,1626510,,,,black_plus_sign,,,50,,,1,,,,,,,1,,,,,,,,,,
null,,color_black7,1626616,,,,black_plus_sign,,,null,,,,,,,,,,,,,,,,,,,,
null,,learn_phase(without_color)7,1630123,,,,black_plus_sign,,,null,object_03c.png,object_03b.png,,,,,,,,,,,,,,,,,,
null,,black_cross(without_color)7,1631162,,,,green,,,null,object_03c.png,object_03b.png,,,,,,,,,,,,,,,,,,
null,,rt_plussign_withcolor7,1631669,,,,green,,,null,object_03c.png,object_03b.png,,,,,,,,,,,,,,,,,,
872,,rt_thecrossant_black7,1632644,,,,black_plus_sign,,,50,,,1,,,,,,,1,,,,,,,,,,
null,,color_black7,1632753,,,,black_plus_sign,,,null,,,,,,,,,,,,,,,,,,,,
null,,learn_phase(without_color)7,1636262,,,,black_plus_sign,,,null,object_02c.png,object_04b.png,,,,,,,,,,,,,,,,,,
null,,black_cross(without_color)7,1636670,,,,blue,,,null,object_02c.png,object_04b.png,,,,,,,,,,,,,,,,,,
null,,rt_plussign_withcolor7,1637176,,,,blue,,,null,object_02c.png,object_04b.png,,,,,,,,,,,,,,,,,,
1502,,rt_thecrossant_black7,1638780,,,,black_plus_sign,,,49,,,1,,,,,,,1,,,,,,,,,,
null,,color_black7,1638887,,,,black_plus_sign,,,null,,,,,,,,,,,,,,,,,,,,
null,,learn_phase(without_color)7,1642392,,,,black_plus_sign,,,null,object_01c.png,object_05b.png,,,,,,,,,,,,,,,,,,
null,,black_cross(without_color)7,1643120,,,,blue,,,null,object_01c.png,object_05b.png,,,,,,,,,,,,,,,,,,
null,,rt_plussign_withcolor7,1643630,,,,blue,,,null,object_01c.png,object_05b.png,,,,,,,,,,,,,,,,,,
1082,,rt_thecrossant_black7,1644921,,,,black_plus_sign,,,49,,,1,,,,,,,1,,,,,,,,,,
null,,color_black7,1645028,,,,black_plus_sign,,,null,,,,,,,,,,,,,,,,,,,,
null,,learn_phase(without_color)7,1648535,,,,black_plus_sign,,,null,object_05a.png,object_06a.png,,,,,,,,,,,,,,,,,,
null,,black_cross(without_color)7,1649124,,,,green,,,null,object_05a.png,object_06a.png,,,,,,,,,,,,,,,,,,
null,,rt_plussign_withcolor7,1649630,,,,green,,,null,object_05a.png,object_06a.png,,,,,,,,,,,,,,,,,,
null,,rt_thecrossant_black7,1651058,,,,black_plus_sign,,,null,,,,,,,,,,1,,,,,,,,,,
null,,color_black7,1651163,,,,black_plus_sign,,,null,,,,,,,,,,,,,,,,,,,,
null,,learn_phase(without_color)7,1654668,,,,black_plus_sign,,,null,object_12a.png,object_02a.png,,,,,,,,,,,,,,,,,,
null,,black_cross(without_color)7,1655302,,,,blue,,,null,object_12a.png,object_02a.png,,,,,,,,,,,,,,,,,,
null,,rt_plussign_withcolor7,1655807,,,,blue,,,null,object_12a.png,object_02a.png,,,,,,,,,,,,,,,,,,
1391,,rt_thecrossant_black7,1657190,,,,black_plus_sign,,,49,,,1,,,,,,,1,,,,,,,,,,
null,,color_black7,1657298,,,,black_plus_sign,,,null,,,,,,,,,,,,,,,,,,,,
null,,learn_phase(without_color)7,1660815,,,,black_plus_sign,,,null,object_10a.png,object_11c.png,,,,,,,,,,,,,,,,,,
null,,black_cross(without_color)7,1661463,,,,green,,,null,object_10a.png,object_11c.png,,,,,,,,,,,,,,,,,,
null,,rt_plussign_withcolor7,1661971,,,,green,,,null,object_10a.png,object_11c.png,,,,,,,,,,,,,,,,,,
1196,,rt_thecrossant_black7,1663341,,,,black_plus_sign,,,50,,,1,,,,,,,1,,,,,,,,,,
null,,color_black7,1663450,,,,black_plus_sign,,,null,,,,,,,,,,,,,,,,,,,,
null,,learn_phase(without_color)7,1666965,,,,black_plus_sign,,,null,object_08a.png,object_03a.png,,,,,,,,,,,,,,,,,,
null,,black_cross(without_color)7,1667958,,,,green,,,null,object_08a.png,object_03a.png,,,,,,,,,,,,,,,,,,
null,,rt_plussign_withcolor7,1668465,,,,green,,,null,object_08a.png,object_03a.png,,,,,,,,,,,,,,,,,,
1098,,rt_thecrossant_black7,1669491,,,,black_plus_sign,,,50,,,1,,,,,,,1,,,,,,,,,,
null,,color_black7,1669599,,,,black_plus_sign,,,null,,,,,,,,,,,,,,,,,,,,
null,,learn_phase(without_color)7,1673125,,,,black_plus_sign,,,null,object_07b.png,object_01b.png,,,,,,,,,,,,,,,,,,
null,,black_cross(without_color)7,1674190,,,,green,,,null,object_07b.png,object_01b.png,,,,,,,,,,,,,,,,,,
null,,rt_plussign_withcolor7,1674698,,,,green,,,null,object_07b.png,object_01b.png,,,,,,,,,,,,,,,,,,
null,,rt_thecrossant_black7,1675658,,,,black_plus_sign,,,null,,,,,,,,,,1,,,,,,,,,,
null,,color_black7,1675767,,,,black_plus_sign,,,null,,,,,,,,,,,,,,,,,,,,
null,,learn_phase(without_color)7,1679274,,,,black_plus_sign,,,null,object_13c.png,object_12c.png,,,,,,,,,,,,,,,,,,
null,,black_cross(without_color)7,1679745,,,,green,,,null,object_13c.png,object_12c.png,,,,,,,,,,,,,,,,,,
null,,rt_plussign_withcolor7,1680251,,,,green,,,null,object_13c.png,object_12c.png,,,,,,,,,,,,,,,,,,
null,,rt_thecrossant_black7,1681793,,,,black_plus_sign,,,null,,,,,,,,,,1,,,,,,,,,,
null,,warning_page,1686801,,,,warning,,,null,,,,,,,,,,,,,,,,,,,,
null,,color_black7,1686955,,,,black_plus_sign,,,null,,,,,,,,,,,,,,,,,,,,
null,,thebreak,1687060,,,,<p></p>,,,null,,,,,,,,,,,,,,,,,,,,
2092,,intro_0,1689157,,,,instruct,,,32,,,,,,,,,,,,,,,,,,,,
3139,,directmemory_phase7,1692303,,,,object_03b.png,,,49,,,1,,object_03c.png,object_11c.png,object_12a.png,object_03c.png,,0.8571428571428571,,1,,,,,,,,
2781,,directmemory_phase7,1695093,,,,object_04b.png,,,51,,,1,,object_13b.png,object_04c.png,object_02c.png,object_02c.png,,0.8586956521739131,,1,,,,,,,,
2076,,directmemory_phase7,1697176,,,,object_15b.png,,,51,,,1,,object_15a.png,object_13a.png,object_06c.png,object_06c.png,,0.8602150537634409,,1,,,,,,,,
2255,,directmemory_phase7,1699437,,,,object_10b.png,,,50,,,1,,object_03b.png,object_15a.png,object_12c.png,object_15a.png,,0.8617021276595744,,1,,,,,,,,
1734,,directmemory_phase7,1701180,,,,object_01c.png,,,50,,,1,,object_09a.png,object_05b.png,object_09c.png,object_05b.png,,0.8631578947368421,,1,,,,,,,,
2694,,directmemory_phase7,1703883,,,,object_05a.png,,,49,,,1,,object_06a.png,object_10a.png,object_11c.png,object_06a.png,,0.8645833333333334,,1,,,,,,,,
3732,,directmemory_phase7,1707622,,,,object_03a.png,,,49,,,1,,object_08a.png,object_09a.png,object_04c.png,object_08a.png,,0.865979381443299,,1,,,,,,,,
2190,,directmemory_phase7,1709818,,,,object_13b.png,,,49,,,1,,object_14a.png,object_12c.png,object_06a.png,object_14a.png,,0.8673469387755102,,1,,,,,,,,
4991,,directmemory_phase7,1714815,,,,object_08b.png,,,49,,,1,,object_11b.png,object_06c.png,object_10a.png,object_11b.png,,0.8686868686868687,,1,,,,,,,,
2062,,directmemory_phase7,1716884,,,,object_07b.png,,,51,,,1,,object_15a.png,object_13b.png,object_01b.png,object_01b.png,,0.87,,1,,,,,,,,
3843,,directmemory_phase7,1720739,,,,object_13c.png,,,49,,,1,,object_12c.png,object_15a.png,object_12a.png,object_12c.png,,0.8712871287128713,,1,,,,,,,,
2731,,directmemory_phase7,1723481,,,,object_11c.png,,,51,,,1,,object_02c.png,object_05b.png,object_10a.png,object_10a.png,,0.8725490196078431,,1,,,,,,,,
3550,,directmemory_phase7,1727040,,,,object_09c.png,,,49,,,1,,object_09a.png,object_08a.png,object_06c.png,object_09a.png,,0.8737864077669902,,1,,,,,,,,
2069,,directmemory_phase7,1729117,,,,object_04c.png,,,49,,,1,,object_13a.png,object_13c.png,object_01b.png,object_13a.png,,0.875,,1,,,,,,,,
1462,,directmemory_phase7,1730591,,,,object_12a.png,,,50,,,1,,object_07b.png,object_02a.png,object_11c.png,object_02a.png,,0.8761904761904762,,1,,,,,,,,
null,,thebreak,1730699,,,,<p></p>,,,null,,,,,,,,,,,,,,,,,,,,
1404,,intro_0,1732114,,,,instruct,,,32,,,,,,,,,,,,,,,,,,,,
null,,learn_phase(without_color)8,1735632,,,,black_plus_sign,,,null,object_05b.png,object_01c.png,,,,,,,,,,,,,,,,,,
null,,black_cross(without_color)8,1736572,,,,green,,,null,object_05b.png,object_01c.png,,,,,,,,,,,,,,,,,,
null,,rt_plussign_withcolor8,1737079,,,,green,,,null,object_05b.png,object_01c.png,,,,,,,,,,,,,,,,,,
2020,,rt_thecrossant_black8,1738161,,,,black_plus_sign,,,50,,,1,,,,,,,1,,,,,,,,,,
null,,color_black8,1738274,,,,black_plus_sign,,,null,,,,,,,,,,,,,,,,,,,,
null,,learn_phase(without_color)8,1741789,,,,black_plus_sign,,,null,object_10b.png,object_15a.png,,,,,,,,,,,,,,,,,,
null,,black_cross(without_color)8,1742553,,,,blue,,,null,object_10b.png,object_15a.png,,,,,,,,,,,,,,,,,,
null,,rt_plussign_withcolor8,1743061,,,,blue,,,null,object_10b.png,object_15a.png,,,,,,,,,,,,,,,,,,
1381,,rt_thecrossant_black8,1744313,,,,black_plus_sign,,,49,,,1,,,,,,,1,,,,,,,,,,
null,,color_black8,1744422,,,,black_plus_sign,,,null,,,,,,,,,,,,,,,,,,,,
null,,learn_phase(without_color)8,1747928,,,,black_plus_sign,,,null,object_03a.png,object_08a.png,,,,,,,,,,,,,,,,,,
null,,black_cross(without_color)8,1748602,,,,blue,,,null,object_03a.png,object_08a.png,,,,,,,,,,,,,,,,,,
null,,rt_plussign_withcolor8,1749107,,,,blue,,,null,object_03a.png,object_08a.png,,,,,,,,,,,,,,,,,,
1691,,rt_thecrossant_black8,1750451,,,,black_plus_sign,,,49,,,1,,,,,,,1,,,,,,,,,,
null,,color_black8,1750565,,,,black_plus_sign,,,null,,,,,,,,,,,,,,,,,,,,
null,,learn_phase(without_color)8,1754072,,,,black_plus_sign,,,null,object_04b.png,object_02c.png,,,,,,,,,,,,,,,,,,
null,,black_cross(without_color)8,1754520,,,,green,,,null,object_04b.png,object_02c.png,,,,,,,,,,,,,,,,,,
null,,rt_plussign_withcolor8,1755027,,,,green,,,null,object_04b.png,object_02c.png,,,,,,,,,,,,,,,,,,
1535,,rt_thecrossant_black8,1756593,,,,black_plus_sign,,,50,,,1,,,,,,,1,,,,,,,,,,
null,,color_black8,1756704,,,,black_plus_sign,,,null,,,,,,,,,,,,,,,,,,,,
null,,learn_phase(without_color)8,1760215,,,,black_plus_sign,,,null,object_01b.png,object_07b.png,,,,,,,,,,,,,,,,,,
null,,black_cross(without_color)8,1761152,,,,green,,,null,object_01b.png,object_07b.png,,,,,,,,,,,,,,,,,,
null,,rt_plussign_withcolor8,1761659,,,,green,,,null,object_01b.png,object_07b.png,,,,,,,,,,,,,,,,,,
901,,rt_thecrossant_black8,1762734,,,,black_plus_sign,,,50,,,1,,,,,,,1,,,,,,,,,,
null,,color_black8,1762841,,,,black_plus_sign,,,null,,,,,,,,,,,,,,,,,,,,
null,,learn_phase(without_color)8,1766346,,,,black_plus_sign,,,null,object_02a.png,object_12a.png,,,,,,,,,,,,,,,,,,
null,,black_cross(without_color)8,1767018,,,,blue,,,null,object_02a.png,object_12a.png,,,,,,,,,,,,,,,,,,
null,,rt_plussign_withcolor8,1767523,,,,blue,,,null,object_02a.png,object_12a.png,,,,,,,,,,,,,,,,,,
2022,,rt_thecrossant_black8,1768862,,,,black_plus_sign,,,49,,,1,,,,,,,1,,,,,,,,,,
null,,color_black8,1768970,,,,black_plus_sign,,,null,,,,,,,,,,,,,,,,,,,,
null,,learn_phase(without_color)8,1772476,,,,black_plus_sign,,,null,object_13b.png,object_14a.png,,,,,,,,,,,,,,,,,,
null,,black_cross(without_color)8,1772990,,,,green,,,null,object_13b.png,object_14a.png,,,,,,,,,,,,,,,,,,
null,,rt_plussign_withcolor8,1773503,,,,green,,,null,object_13b.png,object_14a.png,,,,,,,,,,,,,,,,,,
1212,,rt_thecrossant_black8,1775003,,,,black_plus_sign,,,50,,,1,,,,,,,1,,,,,,,,,,
null,,color_black8,1775109,,,,black_plus_sign,,,null,,,,,,,,,,,,,,,,,,,,
null,,learn_phase(without_color)8,1778617,,,,black_plus_sign,,,null,object_09a.png,object_09c.png,,,,,,,,,,,,,,,,,,
null,,black_cross(without_color)8,1779206,,,,blue,,,null,object_09a.png,object_09c.png,,,,,,,,,,,,,,,,,,
null,,rt_plussign_withcolor8,1779712,,,,blue,,,null,object_09a.png,object_09c.png,,,,,,,,,,,,,,,,,,
1733,,rt_thecrossant_black8,1781150,,,,black_plus_sign,,,49,,,1,,,,,,,1,,,,,,,,,,
null,,color_black8,1781259,,,,black_plus_sign,,,null,,,,,,,,,,,,,,,,,,,,
null,,learn_phase(without_color)8,1784777,,,,black_plus_sign,,,null,object_13a.png,object_04c.png,,,,,,,,,,,,,,,,,,
null,,black_cross(without_color)8,1785566,,,,blue,,,null,object_13a.png,object_04c.png,,,,,,,,,,,,,,,,,,
null,,rt_plussign_withcolor8,1786075,,,,blue,,,null,object_13a.png,object_04c.png,,,,,,,,,,,,,,,,,,
null,,rt_thecrossant_black8,1787308,,,,black_plus_sign,,,null,,,,,,,,,,1,,,,,,,,,,
null,,warning_page,1792320,,,,warning,,,null,,,,,,,,,,,,,,,,,,,,
null,,color_black8,1792473,,,,black_plus_sign,,,null,,,,,,,,,,,,,,,,,,,,
null,,learn_phase(without_color)8,1795980,,,,black_plus_sign,,,null,object_10a.png,object_11c.png,,,,,,,,,,,,,,,,,,
null,,black_cross(without_color)8,1796976,,,,green,,,null,object_10a.png,object_11c.png,,,,,,,,,,,,,,,,,,
null,,rt_plussign_withcolor8,1797487,,,,green,,,null,object_10a.png,object_11c.png,,,,,,,,,,,,,,,,,,
1330,,rt_thecrossant_black8,1798505,,,,black_plus_sign,,,50,,,1,,,,,,,1,,,,,,,,,,
null,,color_black8,1798611,,,,black_plus_sign,,,null,,,,,,,,,,,,,,,,,,,,
null,,learn_phase(without_color)8,1802117,,,,black_plus_sign,,,null,object_11b.png,object_08b.png,,,,,,,,,,,,,,,,,,
null,,black_cross(without_color)8,1802670,,,,blue,,,null,object_11b.png,object_08b.png,,,,,,,,,,,,,,,,,,
null,,rt_plussign_withcolor8,1803177,,,,blue,,,null,object_11b.png,object_08b.png,,,,,,,,,,,,,,,,,,
1766,,rt_thecrossant_black8,1804639,,,,black_plus_sign,,,49,,,1,,,,,,,1,,,,,,,,,,
null,,color_black8,1804746,,,,black_plus_sign,,,null,,,,,,,,,,,,,,,,,,,,
null,,learn_phase(without_color)8,1808254,,,,black_plus_sign,,,null,object_06c.png,object_15b.png,,,,,,,,,,,,,,,,,,
null,,black_cross(without_color)8,1809180,,,,green,,,null,object_06c.png,object_15b.png,,,,,,,,,,,,,,,,,,
null,,rt_plussign_withcolor8,1809689,,,,green,,,null,object_06c.png,object_15b.png,,,,,,,,,,,,,,,,,,
1303,,rt_thecrossant_black8,1810779,,,,black_plus_sign,,,50,,,1,,,,,,,1,,,,,,,,,,
null,,color_black8,1810891,,,,black_plus_sign,,,null,,,,,,,,,,,,,,,,,,,,
null,,learn_phase(without_color)8,1814405,,,,black_plus_sign,,,null,object_13c.png,object_12c.png,,,,,,,,,,,,,,,,,,
null,,black_cross(without_color)8,1815474,,,,blue,,,null,object_13c.png,object_12c.png,,,,,,,,,,,,,,,,,,
null,,rt_plussign_withcolor8,1815982,,,,blue,,,null,object_13c.png,object_12c.png,,,,,,,,,,,,,,,,,,
1434,,rt_thecrossant_black8,1816929,,,,black_plus_sign,,,49,,,1,,,,,,,1,,,,,,,,,,
null,,color_black8,1817037,,,,black_plus_sign,,,null,,,,,,,,,,,,,,,,,,,,
null,,learn_phase(without_color)8,1820546,,,,black_plus_sign,,,null,object_05a.png,object_06a.png,,,,,,,,,,,,,,,,,,
null,,black_cross(without_color)8,1821158,,,,blue,,,null,object_05a.png,object_06a.png,,,,,,,,,,,,,,,,,,
null,,rt_plussign_withcolor8,1821663,,,,blue,,,null,object_05a.png,object_06a.png,,,,,,,,,,,,,,,,,,
1942,,rt_thecrossant_black8,1823061,,,,black_plus_sign,,,49,,,1,,,,,,,1,,,,,,,,,,
null,,color_black8,1823167,,,,black_plus_sign,,,null,,,,,,,,,,,,,,,,,,,,
null,,learn_phase(without_color)8,1826690,,,,black_plus_sign,,,null,object_03c.png,object_03b.png,,,,,,,,,,,,,,,,,,
null,,black_cross(without_color)8,1827597,,,,blue,,,null,object_03c.png,object_03b.png,,,,,,,,,,,,,,,,,,
null,,rt_plussign_withcolor8,1828115,,,,blue,,,null,object_03c.png,object_03b.png,,,,,,,,,,,,,,,,,,
1101,,rt_thecrossant_black8,1829254,,,,black_plus_sign,,,49,,,1,,,,,,,1,,,,,,,,,,
null,,color_black8,1829365,,,,black_plus_sign,,,null,,,,,,,,,,,,,,,,,,,,
null,,thebreak,1829473,,,,<p></p>,,,null,,,,,,,,,,,,,,,,,,,,
1654,,intro_0,1831142,,,,instruct,,,32,,,,,,,,,,,,,,,,,,,,
1986,,directmemory_phase8,1833136,,,,object_01c.png,,,49,,,1,,object_05b.png,object_15a.png,object_09a.png,object_05b.png,,0.8773584905660378,,1,,,,,,,,
2607,,directmemory_phase8,1835756,,,,object_04b.png,,,49,,,1,,object_02c.png,object_13a.png,object_12c.png,object_02c.png,,0.8785046728971962,,1,,,,,,,,
1885,,directmemory_phase8,1837655,,,,object_14a.png,,,49,,,1,,object_13b.png,object_01c.png,object_04b.png,object_13b.png,,0.8796296296296297,,1,,,,,,,,
1869,,directmemory_phase8,1839534,,,,object_13a.png,,,51,,,1,,object_15a.png,object_13c.png,object_04c.png,object_04c.png,,0.8807339449541285,,1,,,,,,,,
2018,,directmemory_phase8,1841562,,,,object_12a.png,,,49,,,1,,object_02a.png,object_05a.png,object_03b.png,object_02a.png,,0.8818181818181818,,1,,,,,,,,
1864,,directmemory_phase8,1843436,,,,object_06c.png,,,49,,,1,,object_15b.png,object_08a.png,object_14a.png,object_15b.png,,0.8828828828828829,,1,,,,,,,,
2846,,directmemory_phase8,1846292,,,,object_11b.png,,,51,,,1,,object_06a.png,object_09c.png,object_08b.png,object_08b.png,,0.8839285714285714,,1,,,,,,,,
7346,,directmemory_phase8,1853655,,,,object_03c.png,,,49,,,1,,object_03b.png,object_13a.png,object_04c.png,object_03b.png,,0.8849557522123894,,1,,,,,,,,
3154,,directmemory_phase8,1856825,,,,object_15a.png,,,50,,,1,,object_14a.png,object_10b.png,object_01c.png,object_10b.png,,0.8859649122807017,,1,,,,,,,,
1887,,directmemory_phase8,1858727,,,,object_07b.png,,,49,,,1,,object_01b.png,object_12c.png,object_06a.png,object_01b.png,,0.8869565217391304,,1,,,,,,,,
1874,,directmemory_phase8,1860609,,,,object_13c.png,,,51,,,1,,object_15a.png,object_13b.png,object_12c.png,object_12c.png,,0.8879310344827587,,1,,,,,,,,
1841,,directmemory_phase8,1862460,,,,object_05a.png,,,49,,,1,,object_06a.png,object_10b.png,object_03c.png,object_06a.png,,0.8888888888888888,,1,,,,,,,,
2707,,directmemory_phase8,1865174,,,,object_10a.png,,,50,,,1,,object_02c.png,object_11c.png,object_15a.png,object_11c.png,,0.8898305084745762,,1,,,,,,,,
2143,,directmemory_phase8,1867327,,,,object_09c.png,,,51,,,1,,object_08a.png,object_03a.png,object_09a.png,object_09a.png,,0.8907563025210085,,1,,,,,,,,
3065,,directmemory_phase8,1870399,,,,object_03a.png,,,49,,,1,,object_08a.png,object_12a.png,object_03c.png,object_08a.png,,0.8916666666666667,,1,,,,,,,,
null,,thebreak,1870505,,,,<p></p>,,,null,,,,,,,,,,,,,,,,,,,,
5231,,intro_0,1875743,,,,instruct,,,32,,,,,,,,,,,,,,,,,,,,
46193,,intro_1,1921952,,,,instruct,,,32,,,,,,,,,,,,,,,,,,,,
7160,,intro_2,1929120,,,,instruct,,,32,,,,,,,,,,,,,,,,,,,,
,,intro_3,1957692,,,,instruct,,,,,,,,,,,,,,,,,,,,,,,
5810,,intro_4,1963519,,,,instruct,,,32,,,,,,,,,,,,,,,,,,,,
7127,,inference_phase,1970652,,,,object_11a.png,,,51,object_14a.png,object_01c.png,1,,,,,object_01c.png,,1,,,object_10b.png,,,,,,,
4358,,inference_phase,1975026,,,,object_15c.png,,,50,object_13c.png,object_10a.png,0,,,,,object_13c.png,,0.5,,,object_01b.png,,,,,,,
6655,,inference_phase,1981692,,,,object_14c.png,,,50,object_02a.png,object_13c.png,1,,,,,object_09a.png,,0.6666666666666666,,,object_09a.png,,,,,,,
7941,,inference_phase,1989642,,,,object_14b.png,,,50,object_04c.png,object_13c.png,1,,,,,object_10a.png,,0.75,,,object_10a.png,,,,,,,
7522,,inference_phase,1997174,,,,object_01a.png,,,51,object_14a.png,object_07b.png,1,,,,,object_07b.png,,0.8,,,object_06a.png,,,,,,,
8756,,inference_phase,2005948,,,,object_04a.png,,,50,object_04b.png,object_08a.png,0,,,,,object_08a.png,,0.6666666666666666,,,object_10b.png,,,,,,,
8610,,inference_phase,2014573,,,,object_10b.png,,,50,object_14c.png,object_05c.png,0,,,,,object_05c.png,,0.5714285714285714,,,object_03c.png,,,,,,,
8051,,inference_phase,2022632,,,,object_07c.png,,,50,object_03a.png,object_12a.png,1,,,,,object_03b.png,,0.625,,,object_03b.png,,,,,,,
3797,,inference_phase,2026440,,,,object_13a.png,,,50,object_10c.png,object_04b.png,1,,,,,object_08c.png,,0.6666666666666666,,,object_08c.png,,,,,,,
10327,,inference_phase,2036781,,,,object_02c.png,,,49,object_02b.png,object_15c.png,1,,,,,object_02b.png,,0.7,,,object_11c.png,,,,,,,
3896,,inference_phase,2040698,,,,object_13b.png,,,51,object_14c.png,object_10c.png,1,,,,,object_10c.png,,0.7272727272727273,,,object_02a.png,,,,,,,
3459,,inference_phase,2044170,,,,object_09b.png,,,50,object_04b.png,object_13a.png,1,,,,,object_06a.png,,0.75,,,object_06a.png,,,,,,,
3806,,inference_phase,2047988,,,,object_06b.png,,,50,object_03c.png,object_03b.png,1,,,,,object_12a.png,,0.7692307692307693,,,object_12a.png,,,,,,,
null,,inference_phase,2063008,,,,object_12b.png,,,null,object_04c.png,object_15b.png,0,,,,,object_08b.png,,0.7142857142857143,,,object_08b.png,,,,,,,
null,,warning_page,2068028,,,,warning,,,null,,,,,,,,,,,,,,,,,,,,
8612,,inference_phase,2076694,,,,object_07a.png,,,51,object_15b.png,object_01c.png,0,,,,,object_15b.png,,0.6666666666666666,,,object_03c.png,,,,,,,
,,survey,2258632,,,,survey-questions,,,,,,,,,,,,,,,,,none,high,no,just memory in the mind,Yes some trails easy,no,Some difficult to remember otherwise nice study 
